time Ax Ay Az Gx Gy Gz
20 -5.93905248 12.051585 -5.74550118 0.013561000000000002 0.10322 -0.781976
40 -5.3771160600000005 35.68788729 -6.49409247 0.961013 1.241074 -0.838773
60 0.59920461 5.0308917300000005 9.94113027 1.888681 1.815304 -0.8554620000000001
80 1.8309972600000002 3.78876915 2.87791065 2.73098 1.777942 -0.7672770000000001
100 -1.63833867 10.73911491 -2.12722983 3.513007 1.366847 -0.937545
120 -2.2811094900000004 18.94894695 -0.58662819 3.4547260000000004 0.846778 -0.8336680000000001
140 -1.50826788 14.164590330000001 0.48094506000000004 2.734274 -0.08826200000000001 -0.277754
160 -2.44426941 10.97172963 -0.36748260000000005 1.528604 1.043477 0.396037
180 -4.26747753 8.47492767 -1.3723503300000002 0.672251 1.7817189999999998 0.337834
200 -5.86884231 8.07270786 -1.8808418700000002 0.046253 1.562598 0.532432
220 -4.81923117 9.30749256 -3.3455435400000004 -1.325921 1.556723 0.793115
240 -4.13500329 10.124194680000002 -5.974074180000001 -2.203378 0.5655140000000001 0.614136
260 -3.09361293 10.88191908 -9.29297376 -2.992188 -0.466237 0.373871
280 -2.9701246500000003 10.041270749999999 -9.13789728 -3.575107 -1.83941 -0.443495
300 -2.06555436 7.94278422 -3.7565923500000005 -3.127942 -2.939821 -1.101259
320 -1.94745177 6.480623340000001 -0.64515465 -1.570475 -4.169986 -0.378436
340 -4.23574218 4.77716589 2.4644780100000006 -0.649958 -3.012958 0.12003
360 -2.48213601 3.03733296 6.4116198 -0.745358 -1.983336 0.061428
380 1.4906000700000002 -0.6566814000000001 4.17826539 -0.735915 -1.199647 0.407662
400 2.4141821400000003 0.36613863 0.43035489 -0.590583 -0.24017 0.365787
420 2.2248197100000002 5.986346490000001 0.81730053 -0.6031920000000001 0.208524 0.057476
440 1.53190998 7.82722242 -0.40445649000000006 0.317322 1.100191 0.051013
460 1.34854146 7.871230080000001 -2.16629325 1.008927 1.1372790000000002 0.033364
480 -0.90726804 5.935756320000001 -2.8069647300000002 -0.14221199999999998 -4.252559 -0.1483
500 -0.38515041 5.68712187 -4.056562530000001 0.8773700000000001 -6.248117 -0.158917
520 -2.57105385 8.625962430000001 -4.06165392 1.565308 1.7380349999999998 -0.433537
540 -9.34761546 20.908818180000004 -3.742515 0.310217 2.639401 0.085311
560 -5.680235250000001 21.3987492 -8.264012670000001 -0.7444430000000001 1.441198 0.674479
580 -3.9853125 13.874498820000001 -9.80505576 -1.093388 -1.051094 0.331268
600 -4.05012717 7.39552356 -6.5647440900000005 -1.158744 -2.624987 0.242029
620 -5.13387711 4.97041308 -5.43953709 -1.575438 -2.8649310000000003 0.13474
640 -5.14375578 4.17377241 -0.8553240900000001 -1.704827 -1.719515 -0.080207
660 -1.08344583 5.99743179 8.58449556 -1.502982 -0.06786299999999999 -0.373607
680 -0.73332693 10.913203170000001 6.42853224 -1.286002 0.8076949999999999 -0.536651
700 -3.99653514 19.85291883 -5.623052760000001 -1.061602 0.6841550000000001 -0.7389560000000001
720 -5.01980643 23.29979967 -7.67304846 -0.692932 -0.012287 -0.8540610000000001
740 -9.71404839 21.18649023 2.12408082 -0.488029 -0.33007600000000004 -0.947294
760 -1.6667876700000002 10.674604350000001 4.585566780000001 -0.628095 0.004137 -1.02134
780 0.83960847 9.40314987 4.44365532 -0.7049 0.47422 -1.028888
800 0.18007236000000001 12.478653540000002 3.02640462 -0.753199 0.132596 -1.06938
820 -3.15663237 12.31937838 1.77829794 -0.48994 -0.183562 -1.088501
840 -4.3424651700000005 9.833053500000002 0.6364728 0.101631 0.28582 -0.967465
860 -5.060822040000001 6.27974397 0.81535815 0.6694399999999999 -0.381935 -0.970121
880 -4.93389045 5.186419470000001 -0.7062317100000001 1.402619 -0.99626 -1.157561
900 -3.5579496600000002 5.5043517600000005 -2.1654005400000003 2.8078950000000003 -0.493926 -0.92513
920 -1.8013514400000001 6.49992942 -1.5763689 3.506778 -1.337854 0.123418
940 -1.1397258000000001 6.217018830000001 -1.4323679100000002 3.35111 -0.602903 1.078515
960 -1.30273857 5.2474867199999995 -1.3329828000000001 2.83422 -1.098853 1.408826
980 -1.3389669 3.4840018800000006 -0.6515998200000002 3.058454 -2.477054 1.414294
1000 -1.24091595 1.6293625200000001 0.7057804500000001 2.67386 -1.635455 0.94158
1020 -1.24466337 3.65270445 1.2829812299999999 2.593314 -0.402245 1.10608
1040 -0.23591088000000002 10.226434500000002 -1.87529922 2.059779 -0.159734 1.128748
1060 0.15014205 14.216681430000001 -4.14024183 1.438223 0.5610069999999999 1.513384
1080 1.58684598 11.02292802 -4.21792722 0.943872 0.682277 1.718078
1100 -0.26539974000000005 10.29394692 -6.00820317 0.962487 -2.214716 1.562756
1120 0.6141746700000001 11.634110640000001 -7.4932704 1.110902 -5.8707699999999985 1.441359
1140 3.3745811400000005 14.513070960000002 -2.1652435800000003 1.432286 -3.610802 1.033715
1160 -1.17535572 14.92037235 4.373160660000001 1.098561 -3.307396 0.573796
1180 -5.33685582 13.34624994 10.98401175 0.935702 -3.3108480000000005 0.246856
1200 -8.66293632 20.43011961 9.261993780000001 0.621174 -3.4666019999999995 0.042964
1220 -5.48489853 28.50208191 3.9508794000000003 0.443517 -3.998994 -0.130646
1240 -4.28109381 19.09204542 -1.1380875300000002 0.370225 -4.474624 -0.204256
1260 -4.98688407 14.040954900000001 -1.1469165300000004 0.397762 -4.552353 -0.237079
1280 -5.62529925 13.420943280000001 2.4417188100000002 1.402204 -3.898961 -0.402884
1300 -6.66384471 14.78849652 4.797227340000001 2.927567 -2.630686 -0.010363
1320 -4.9491548100000005 13.576618170000001 3.5328066300000005 2.388739 -2.185141 0.923201
1340 -3.43625661 10.551861630000001 3.07925109 1.891258 -1.755997 1.660522
1360 -0.19848573000000003 8.04337596 4.88703789 1.65559 -1.73587 1.892791
1380 -0.043114950000000006 5.99353722 2.3352901200000002 1.248451 -2.0693650000000003 1.463086
1400 -2.8729762200000004 4.06315485 2.8994730300000002 0.490322 -2.083435 1.110636
1420 -3.56677866 2.12243274 3.31425945 0.990556 1.30499 0.731638
1440 -4.036658040000001 1.9056906 1.76288643 1.11776 -1.279591 0.943073
1460 -3.61004076 2.42151021 0.77014386 -0.228309 -1.015724 1.124545
1480 -3.40257888 5.16905577 -0.33919056000000003 -1.133068 0.39849 0.16355899999999998
1500 -4.645290060000001 8.530462080000001 -3.2687508600000004 -0.81083 2.26398 -2.025368
1520 -6.18843249 15.339347640000002 -10.86560505 0.806862 -1.987786 -2.299176
1540 -1.8238065300000001 16.25933925 -10.51024761 0.328779 -8.345471 -0.79138
1560 1.29121182 10.40097402 -4.611759480000001 -1.377407 -7.475035000000001 0.127076
1580 3.77080704 8.33436999 -0.0464013 -1.218959 -2.789326 0.8977069999999999
1600 5.30526762 8.26640631 -1.0591955100000001 -0.760753 -0.38933 1.050588
1620 5.01951213 7.46108379 -3.1951071900000003 -0.960012 -0.422368 0.960576
1640 3.41454708 7.51706946 0.47885553000000003 -1.378739 -0.648421 0.8447100000000001
1660 -10.587785850000001 22.264854480000004 4.86518121 -1.338651 -1.355485 0.474155
1680 -9.31064157 17.88256071 -2.6322780600000004 -0.629022 -2.55324 -0.043851
1700 -3.4218849600000003 0.48170043 7.556888250000001 -0.491155 -1.874791 -0.13028299999999998
1720 -3.91600485 2.79005229 6.99659991 -0.621467 -0.3950280000000001 -0.041223
1740 -6.83494092 10.43090433 9.14717754 -0.463071 -0.10559 -0.099239
1760 -11.840679810000001 17.91309924 1.2448105200000001 -0.397359 -0.555963 -0.215708
1780 -1.33162902 15.09056604 2.7069714000000005 -0.395584 -1.249968 -0.355811
1800 0.34308513000000007 13.114380780000001 2.689902 -0.479484 -2.407404 -0.412598
1820 -1.4584134600000003 11.222012160000002 -0.8903457900000001 -0.720023 -3.620248 -0.330471
1840 -2.84393862 9.982891440000001 -1.4841647100000002 -0.396363 -1.832824 -0.051695000000000005
1860 -2.8369048500000003 9.199121490000001 0.27153099 0.463993 0.810589 -0.114234
1880 -3.47517288 8.53615188 0.9617527800000001 1.372135 0.308008 -0.425577
1900 -5.858070929999999 7.510329990000001 -1.2955576500000001 2.705585 -0.930278 -0.673185
1920 -5.30871093 6.145915950000001 -2.5509924 3.792638 -0.084611 -0.5096470000000001
1940 -2.16494928 6.9708584700000005 -1.5762217500000002 3.608507 -0.090787 -0.13811600000000002
1960 -1.76662404 7.3250190900000005 -0.5638788 3.739385 -1.1785370000000002 0.040449
1980 -1.98247347 7.84982466 1.7253141300000001 3.565095 -0.302216 0.291277
2000 -1.2862773900000002 7.37995509 3.4007738400000003 2.760243 1.230581 0.489858
2020 -1.21383054 8.06942151 2.23036236 1.769861 1.7354900000000002 0.8230559999999999
2040 -1.6061618700000002 10.32523101 -1.91062503 1.431747 0.519475 1.249541
2060 -1.81378071 11.80834605 -5.852979540000001 1.505267 -1.349482 1.301587
2080 -1.8676670400000002 11.870168670000002 -4.17241863 1.559595 -1.3900629999999998 1.279586
2100 -2.00642949 12.496017240000002 -3.5802576000000004 1.469616 -1.211932 1.300094
2120 -1.43566407 13.253143230000001 -4.97684844 1.48234 -1.714854 1.050863
2140 -1.2114270900000004 15.041025540000001 -5.45136795 1.181737 -2.077393 0.8654940000000001
2160 -3.72979143 15.441587460000001 -3.5735181300000005 0.871215 -2.126342 0.588855
2180 -4.010308380000001 13.261520970000003 1.56904083 0.562167 -2.197214 0.199022
2200 -0.9862974000000001 11.55552273 5.207216669999999 0.123766 -2.275296 -0.14043
2220 -0.85202793 11.94366519 6.64229214 -0.397082 -2.386246 -0.447301
2240 -0.5728549500000001 13.327836569999999 3.1692087900000008 -1.023098 -2.480511 -0.839317
2260 -0.8761311 15.14116602 -0.8818209 -1.739655 -3.064189 -1.040127
2280 -2.89393038 16.05381975 -0.34518447 -1.266953 -2.762103 -0.272366
2300 -4.2348396600000004 13.76986536 2.1911419800000003 1.1364459999999998 -1.985685 0.349109
2320 -2.30235795 10.12584276 1.80075303 1.212291 -0.990969 0.612215
2340 -1.10904012 8.322843240000001 0.73347408 0.954284 0.168158 0.5426979999999999
2360 -1.87275843 6.6837492 1.29226149 0.637441 3.0133650000000003 0.055070000000000015
2380 -2.58932007 5.46813324 1.1982620700000002 0.221281 2.853581 0.14744000000000002
2400 -2.0600117100000004 3.94504245 1.91751165 0.059615 0.16201 0.192489
2420 -2.9186319600000004 2.9852418600000004 2.0368110600000007 0.08103400000000001 -0.7162850000000001 -0.231388
2440 -4.12886223 1.76752656 1.69267626 -0.08646799999999999 -1.215218 -0.256488
2460 -3.9095694900000004 1.51080867 0.22393287 -0.007675 -1.7755150000000002 -0.068281
2480 -3.7739560500000002 2.90785077 -2.32421463 -0.281769 -0.291848 -0.031504000000000004
2500 -2.6289819000000003 6.87594672 -3.26740689 -0.674629 0.15364 -0.008114
2520 -4.47928524 13.591588230000001 -6.179897790000001 -0.97875 -1.7076049999999998 0.041285
2540 -5.335953300000001 20.18013138 -13.971941549999999 -1.271131 -2.648373 0.060745000000000014
2560 -3.44523276 14.386580820000002 -9.05617017 -1.158992 -1.6432639999999998 0.091218
2580 -0.27018702 8.89854309 -10.212808410000001 -0.979836 -1.187945 0.090818
2600 -0.76446387 4.78330695 2.121687180000001 -0.732773 -1.216904 -0.074062
2620 -2.5709067000000005 10.08078543 14.07148362 -0.6628850000000001 -0.701235 -0.153283
2640 -7.664808060000001 14.80900923 -0.64710684 -0.5517890000000001 0.271008 -0.16122999999999998
2660 -0.18950957999999998 6.8308992 1.6217303400000003 -0.160067 1.174512 -0.005828
2680 -0.24234624000000002 7.252415280000001 4.86503406 1.003432 1.547654 0.243239
2700 -4.84812162 12.11610537 -0.85547124 2.361075 1.41718 -0.006688
2720 -5.505254280000001 11.858043509999998 -2.75920965 2.890775 1.970495 -0.042153
2740 -2.7276312600000003 10.20966921 0.34083863999999997 3.42009 1.7036380000000002 -0.100071
2760 -1.1862840600000002 11.37544056 2.2149410400000002 2.762898 0.29449699999999995 0.148176
2780 -0.6748004700000001 11.26213506 0.5260023900000002 1.6868880000000002 -0.362858 0.567723
2800 -0.54666225 11.02622418 -1.6826504400000002 0.936821 -0.497162 0.438742
2820 -2.6017395300000006 10.19560167 -1.47937743 0.034017 1.465751 0.7856390000000001
2840 -4.008513150000001 9.565407270000001 -2.09504322 -0.753452 1.658312 0.998877
2860 -4.49918973 9.99636057 -3.4813139400000006 -1.767566 1.420477 0.8820709999999999
2880 -3.81780675 10.41040143 -4.89722067 -2.3690990000000003 0.051079 -0.06361499999999999
2900 -2.60892045 10.83446811 -6.5527758899999995 -1.982511 -2.228203 -0.7662260000000001
2920 -2.23365852 10.43390619 -5.8365085500000005 -1.379802 -3.2969760000000004 -0.148555
2940 -2.03726232 8.599318470000002 -5.811816780000001 -0.632835 -1.110293 0.350584
2960 -0.37721412000000004 6.116878350000001 -5.188361850000001 -1.012677 0.117084 0.634778
2980 -1.91497086 3.4958327400000004 -0.7020428400000001 -1.369497 -0.740021 0.833141
3000 -2.74588767 1.47653253 6.35293638 -0.048067 -1.349778 0.326133
3020 -3.2331307500000004 -1.6561536300000002 8.212372830000001 0.635586 1.022254 0.6162890000000001
3040 -1.7667711900000003 -4.80710601 3.0084425100000005 0.582437 0.99704 0.308302
3060 1.2322341 -3.56169708 2.75875839 -0.263023 -4.22467 0.174492
3080 6.5487341699999995 2.4611818500000004 1.27594746 0.320198 0.061604 0.034204000000000005
3100 3.7347356700000005 6.41146284 -0.29862621000000006 -0.23051 0.97431 0.037734
3120 -0.29488860000000006 6.843171510000001 -1.05754743 0.519188 -0.195251 -0.107218
3140 -4.553085870000001 9.79233219 -0.21046374 0.510096 -1.573415 -0.17495
3160 -6.144876090000001 16.71693651 -4.996605779999999 0.652416 0.202887 -0.1538
3180 -3.09301452 19.225716480000003 -8.23901679 1.026724 2.000026 -0.216513
3200 -0.6962058900000001 16.3058877 -11.956388760000001 1.778507 1.906897 -0.222893
3220 -4.1137450200000005 11.10345831 -10.376125290000001 2.318738 1.438741 -0.299704
3240 -5.51962593 11.471549130000001 -6.24666465 2.275755 1.063129 -0.370026
3260 -4.03575552 14.46397191 4.418512290000001 1.333664 0.366549 -0.114
3280 -2.32107543 10.67774355 10.25157753 0.29116 0.355505 0.620079
3300 -5.9778216 11.942468370000002 5.073251310000001 -0.681766 0.993214 0.762017
3320 -6.31207773 15.547270590000002 -10.68149097 -1.431963 1.7984080000000002 0.652127
3340 -1.7910215100000002 15.73303275 0.5526463500000001 -2.530448 2.503694 0.7866920000000001
3360 -3.8124210600000006 21.452037120000004 -4.327504920000001 -2.836475 1.615788 -0.145797
3380 -0.5263065 14.52070314 2.44262133 -2.074286 -0.134682 -1.282296
3400 -3.5922258 12.46323222 -2.8157937299999998 -1.569051 -3.733928 -0.735771
3420 -4.41506898 13.065880139999999 -5.5640750400000005 -0.511771 -3.170811 0.314546
3440 -3.60735282 11.29027014 -5.46513138 -0.399108 0.559174 0.103318
3460 -2.1683925900000003 8.30069226 -3.7486560600000005 -1.590006 0.958949 0.794172
3480 -2.44860543 4.635411390000001 0.67898934 1.2017209999999998 -1.616727 0.199541
3500 -3.37682763 0.60803361 4.49978814 1.634106 -0.322916 0.481846
3520 -1.19362194 -2.83569822 6.258936960000001 0.365785 -1.521909 0.6550520000000001
3540 1.8651262499999999 -7.60838094 3.42757476 -1.106355 -4.073529 0.6704720000000001
3560 3.66078789 -5.1403124700000005 4.117933890000001 0.127944 0.421652 0.204384
3580 7.1172531 4.2251179500000005 0.5936619599999999 -0.446356 4.623088 0.438543
3600 1.5603589800000002 8.32494258 -1.74836763 2.039381 4.151975 0.480011
3620 -1.6515135 10.206530009999998 -0.60908328 1.944981 -1.657936 0.00396
3640 -4.2052036500000005 14.4665127 -0.22304016000000004 -1.257626 -3.536805 -0.7509399999999999
3660 -5.80567572 16.29975645 -6.01613946 -1.054849 -3.25767 -1.20067
3680 -0.024848730000000003 14.932801620000001 -8.63225064 0.41205 2.096133 -0.806315
3700 -0.58662819 13.496529330000001 -16.5748779 0.523003 3.680665 0.310857
3720 -4.15490778 12.75826797 -9.581122890000001 2.9569400000000003 2.176115 0.16100799999999998
3740 -3.6961137 11.169773910000002 7.761809340000001 3.421985 0.828308 -0.449313
3760 -0.9081607500000001 8.88282747 10.57042215 4.2772260000000015 -0.640893 -0.8772909999999999
3780 -4.16688579 9.74099646 3.2277352500000003 3.4254870000000004 -1.241533 -0.449841
3800 -7.335496170000001 11.659852080000002 -5.624406540000001 2.11862 1.007608 0.595688
3820 -5.55734538 18.494793 -9.83843919 0.472749 2.614978 0.45715
3840 -4.38063588 34.46747424 -8.307127620000001 -0.678455 2.5023470000000003 0.583849
3860 1.14032421 5.95955538 12.112809210000002 -1.209462 0.790751 0.701974
3880 -1.39524687 3.62366685 2.07064575 -1.94979 0.415797 0.539187
3900 -6.86082951 7.22158245 0.8414037000000001 -2.666055 0.284147 0.250205
3920 -4.651127010000001 11.626625610000001 -5.777236530000001 -3.037268 -0.621337 0.039401
3940 0.70532919 14.262190020000002 -9.27635562 -3.024089 -1.403958 -0.592959
3960 1.65750741 13.88827206 -7.09748595 -3.038424 -0.4193060000000001 -0.930811
3980 -3.2744406600000002 11.56165398 -10.433602080000002 -1.657336 -0.978421 -1.366965
4000 -5.510787120000001 6.65995014 3.9818691900000003 -0.79195 -4.595974 -0.01887
4020 -4.034862810000001 4.2887358 2.3770611 -1.473399 -3.763751 0.510482
4040 -2.1791639700000003 3.0523030200000005 5.03582616 -0.920469 0.480142 1.1370209999999998
4060 1.10140794 -0.20671632 2.65263381 0.093021 2.60481 0.6649510000000001
4080 1.1511054 5.04376245 -3.4934391 0.236826 0.78313 0.5550579999999999
4100 -1.7794947600000002 14.81769108 -0.5348412000000001 0.012983 -1.846845 0.967062
4120 2.04969159 13.90533165 -1.22969331 -1.149643 -6.771076 0.243133
4140 -0.7575772500000001 6.609359970000001 -1.96271613 0.376067 -5.118737 0.228172
4160 -0.33021441000000007 2.60009145 -3.46215501 0.405194 2.92015 0.12407
4180 0.049246200000000004 0.41014629 -3.58893945 -0.036959 2.128813 -0.331998
4200 -1.4630535900000003 1.9905569100000002 -3.3332712300000003 0.321012 -0.248764 -0.937474
4220 -1.97918712 6.2783901900000005 -1.83877659 0.725692 -1.230759 -0.803066
4240 -2.0872638900000005 18.50452452 -4.3803415800000005 2.111499 2.924929 -0.418424
4260 -5.576504310000001 32.37093009 -10.26445806 2.594663 3.291297 -0.017072
4280 1.27370097 16.35469245 -10.976526719999999 3.4467480000000004 2.445691 -0.544148
4300 1.8067469400000002 6.299501310000001 -3.3700881600000003 3.32555 0.241538 -0.947026
4320 1.061442 -2.30699808 7.02144864 1.715412 -0.90549 -0.1535
4340 -0.38814245999999997 -2.88704376 5.509590300000001 0.625899 -0.167579 0.870915
4360 -0.7813763100000001 -2.16464517 1.1656242 -0.219611 3.227286 0.580784
4380 -1.34854146 6.42030165 -9.2230677 -1.483416 3.175008 0.8967629999999999
4400 -13.0202244 41.556435300000004 -6.358479030000001 -2.117131 1.463296 0.600769
4420 -3.14750907 19.145490300000002 -3.8345720400000003 -2.597506 0.00924 -0.324735
4440 -6.98372919 14.16998583 0.9382480200000001 -2.107942 -1.600738 -1.194126
4460 -1.0756665 10.13407335 3.56333535 -1.276944 -3.5501160000000005 -1.932511
4480 -0.96264549 12.89822724 -2.61700389 -0.612021 -0.8566280000000001 -0.231777
4500 -0.82463841 16.1812026 -10.82578626 -1.388566 -1.3796190000000002 0.15978
4520 -4.299360030000001 15.073957710000002 -8.4533751 -0.8640709999999999 -0.8195870000000001 0.579332
4540 -6.52328703 8.955274320000001 -0.27153099 0.136654 0.699652 0.206225
4560 -4.59678942 3.8645121600000003 6.305191110000001 -0.472874 -0.334694 0.19261
4580 -1.4394114900000001 -0.017363700000000003 9.54474741 -0.48859 -1.023709 0.151723
4600 0.8234415900000001 -7.631581590000001 4.25236032 0.540671 0.600448 0.42175
4620 2.38050441 -8.29290312 2.49426117 -0.058816 -0.26495100000000005 0.241347
4640 6.105802860000001 -0.09954207 3.8098802700000003 0.326612 0.741261 -0.240087
4660 6.296058 5.218301970000001 0.12618603 1.030048 0.741258 -0.316358
4680 2.8776163500000003 5.64041646 0.44532495 -0.382391 -1.519894 0.001413
4700 -2.36073726 7.86569724 0.7920005400000001 -1.342517 -0.99799 -0.21106100000000005
4720 -3.27534318 13.90398768 -7.64834688 -1.099717 -0.283603 -0.584158
4740 -4.46761134 22.11995097 -8.57851146 -0.543161 0.092704 -0.599981
4760 1.98337599 16.064895240000002 -12.96498429 0.607985 1.439855 -0.4270229999999999
4780 -2.3305028400000003 9.55927602 -7.54760799 1.866081 1.7400950000000002 -0.410075
4800 -7.69684752 11.54309346 1.8522457200000002 2.700694 1.7682380000000002 -0.445942
4820 -9.60372513 16.2740052 4.56880149 3.014346 1.85286 -0.8337600000000001
4840 -4.99631148 15.883920360000001 2.51970831 2.815729 0.122708 -0.625695
4860 -0.65473902 11.7390384 -7.689362490000001 2.002516 -0.6633100000000001 0.305394
4880 0.07679268 11.50912143 0.17858124000000003 1.288691 0.398716 0.670788
4900 -6.627322080000001 23.38706943 -10.572217380000001 0.206121 1.667887 0.437273
4920 0.81056106 15.885715590000002 2.35011303 -0.713233 1.896392 0.8332790000000001
4940 2.8894374000000003 10.581350490000002 3.92394114 -1.51504 0.8667440000000001 0.877067
4960 -3.3983802 11.46421125 0.40026762 -2.470596 -0.176485 0.455123
4980 -4.38797376 12.516068880000002 -1.32504651 -2.965469 -0.975788 -0.626214
5000 -2.262990420000001 12.31982964 -3.9311220600000003 -2.858236 -2.517937 -1.3434700000000002
5020 -1.86647022 13.595777100000001 -7.679630970000001 -1.917617 -2.647582 -0.907308
5040 -2.92087845 13.45581783 -9.867928049999998 -0.871426 -1.057234 0.076453
5060 -3.52262385 9.94202298 -7.686968850000001 -1.004466 -0.125033 0.702443
5080 -3.60764712 5.3590068 -0.68078457 -0.415246 -0.0483 0.716075
5100 -2.9632380300000003 3.2584209300000007 5.19659244 0.815489 1.082483 0.051311
5120 -2.2260165300000003 0.98809263 6.33303189 0.558802 1.388269 0.26063400000000003
5140 0.7264403100000001 -1.3644140400000002 3.6106391700000002 -0.660176 -2.480115 0.077615
5160 3.1445072100000004 -4.2927775200000005 1.7338488300000001 0.252039 -0.23173 0.188996
5180 4.61400597 -1.7615326500000001 4.1433810300000005 -0.430145 0.566731 0.371215
5200 5.71825881 1.13419296 2.82208194 0.241765 -0.366198 -0.273443
5220 2.87866602 3.4847572500000004 0.30386475 0.104282 -1.114332 -0.342879
5240 1.03974228 3.3323687100000003 -0.055230299999999996 -1.146012 -1.774715 -0.080506
5260 -1.37144781 6.698268 -0.71356959 -0.574233 -0.568937 -0.28102
5280 -5.752240649999999 13.90623417 -5.27727969 0.265198 1.490522 -0.5459189999999999
5300 -4.1433810300000005 24.697587330000005 -8.573871330000001 1.189653 1.043441 -0.6318239999999999
5320 0.6589278900000001 16.81408494 -11.687094450000002 2.212515 1.048124 -0.5584560000000001
5340 -1.1306025000000002 10.76845662 -9.115295040000001 2.832987 1.373194 -0.603676
5360 -7.673342760000001 13.726750410000001 -5.706732060000001 2.839225 0.997431 -0.944982
5380 -8.82310419 16.207101 8.68807935 1.914724 0.07643 -0.7921630000000001
5400 -6.58540395 14.17896198 8.58748761 0.521733 0.646266 0.169459
5420 -1.6769606400000001 12.075688170000001 -7.637712840000001 -0.300021 0.585345 0.398806
5440 3.89115612 15.947234100000001 0.18456534000000002 -0.46493 1.472889 0.233079
5460 -3.51872928 22.182224849999997 -5.07234879 -0.964972 1.870674 0.55702
5480 -2.95201539 15.605345790000001 2.8758211200000003 -1.36381 0.742685 0.33562600000000004
5500 -0.37826379000000004 12.159965880000001 4.12332939 -1.875608 -0.254182 0.4551060000000001
5520 -3.6516547800000003 13.248503100000002 0.048049379999999996 -2.6062380000000003 -1.404678 -0.5088550000000001
5540 -5.76451296 14.99941152 -6.9957072 -2.150523 -2.693448 -2.55287
5560 -4.14323388 12.953908800000002 -6.288720120000001 0.347124 -4.663915 -0.000145
5580 -2.72672874 11.1259134 -5.05438668 -0.912724 -0.8381379999999999 0.465784
5600 -2.3192802 9.69878403 -7.2072108 -0.988521 -1.58772 0.438442
5620 -3.07041228 6.2123787 -1.2376296 -0.395633 -2.238104 0.332321
5640 -2.23679772 3.53369934 4.15820394 0.554056 0.420441 -0.12805999999999998
5660 -1.0352493 1.2638223 7.211998080000001 0.13983199999999998 0.784393 0.057655999999999985
5680 1.2293892 -4.197571470000001 5.8426496100000005 -0.339244 1.04161 0.084958
5700 2.29323465 -7.071293250000001 2.47524939 -0.35377600000000003 -2.012252 0.026813
5720 2.32392033 -2.0969856 1.33672041 0.366098 -3.5241510000000003 0.003869
5740 3.4391015100000004 1.34854146 -0.01616688 0.808646 1.249534 -0.159391
5760 5.851184310000001 1.68938991 0.18590931 -0.060159 2.337202 0.055337
5780 1.94445972 2.29098816 -0.38574882000000005 -0.620136 1.807083 0.443074
5800 -0.9398961000000001 6.546487679999999 -0.46613196000000007 -1.547165 -0.68294 0.299852
5820 -3.7127318400000004 15.73782003 -3.3307206300000005 -1.604344 -3.058022 -0.037198
5840 -12.031974810000001 38.40159816 -9.214689960000001 -1.459055 -2.932313 -0.430518
5860 -3.22968744 15.294594420000001 -12.72279501 -1.352835 0.436072 -0.518482
5880 -3.83233536 10.207873980000002 -10.299332609999999 -1.471652 2.479817 -0.285854
5900 -5.710322520000001 7.641607410000001 -6.6565068300000005 -1.505211 1.79548 -0.149547
5920 -4.84872003 9.25286067 5.3612532900000005 -1.758232 -0.717498 -0.730275
5940 -4.968617850000001 13.420187910000001 6.767281350000001 -1.680818 -2.135359 -1.334668
5960 -2.5560837900000006 14.42953881 5.5733553 -1.102761 -0.236143 -1.526412
5980 -2.7652035600000002 16.749721530000002 -0.53109378 -0.7186560000000001 1.89546 -1.057511
6000 -0.79005816 17.68347657 -5.998177350000001 -0.416207 0.528003 -0.8763209999999999
6020 -2.8448313300000003 16.53251832 -0.62510301 0.254354 -0.481348 -1.057283
6040 -0.46058931000000003 11.431877490000002 4.02932016 0.512582 -0.497062 -1.0810959999999998
6060 0.23875578 12.613374270000001 4.65411906 0.921864 -0.582662 -1.074923
6080 -2.52974394 14.09648931 1.21038723 2.189244 -0.831169 -1.299692
6100 -4.61594835 10.86335856 -0.46927115999999996 2.852939 -0.966644 -0.497989
6120 -3.8176596000000003 7.6890583800000005 -2.16584199 3.496421 -0.252352 0.667816
6140 -1.1587375800000002 5.056181909999999 -0.8857056600000001 3.158028 -0.573346 1.579193
6160 1.42203798 3.09212181 1.2040990200000001 3.317965 -1.103944 2.261447
6180 0.10073889000000001 3.1127816700000004 2.8692288 3.215158 -1.429659 2.019729
6200 -3.3543725400000004 6.50861127 0.91818657 1.896248 -0.496613 1.333136
6220 -7.569906120000001 8.650811160000002 -1.71768195 0.8727739999999999 1.199902 2.868462
6240 -2.60248509 7.022645460000001 -1.3398596100000002 0.039014 0.330406 2.583878
6260 1.84042467 5.846995440000001 -0.8610138900000001 1.448808 -2.074391 1.746502
6280 -0.0779895 9.13505238 -1.73339757 1.88995 -2.843628 0.8596719999999999
6300 0.38484630000000003 11.617188389999999 -2.9184848100000003 1.377597 -3.657762 0.5708529999999999
6320 2.03472153 9.1103508 -3.41469423 1.006653 -3.535331 0.37903
6340 0.6815301300000001 9.027878130000001 -4.728066840000001 0.803668 -3.574239 0.161881
6360 0.27348318 9.1940301 -5.007082860000001 0.473117 -3.164657 0.053294000000000015
6380 -0.23531247000000002 13.652959589999998 -3.3855094800000005 0.16909000000000002 -3.244205 -0.036322
6400 1.88338266 15.16226733 1.76662404 -0.394956 -3.3744620000000003 -0.00698
6420 -0.93091014 14.15531007 8.05864032 -0.886911 -3.186233 -0.032022
6440 -1.75704948 17.75128329 9.90205704 -0.652934 -2.656468 -0.049227
6460 -2.9316498300000005 24.619901940000002 7.102577340000001 1.849214 -2.986161 0.043449
6480 -5.82648273 27.98534997 2.38543884 2.766436 -3.794372 0.49634
6500 -10.62325881 19.97431758 -0.9210314700000001 1.709515 -2.121853 1.136293
6520 -3.3025855500000003 15.47721738 -3.45735792 2.023372 -2.543663 1.386853
6540 -1.5039220500000001 11.957438430000002 3.11891292 2.386236 -3.420768 1.434309
6560 -2.02229226 10.05174783 5.19778926 1.180092 -2.010951 1.300164
6580 -2.6942478300000006 8.04337596 2.54590101 0.60434 0.483318 0.619966
6600 -2.2008735 6.28333443 4.844825460000001 0.676168 -5.109223 -0.545273
6620 -2.29502988 4.34097405 5.365589310000001 -1.306233 -1.294753 0.443325
6640 -2.19353562 3.2998878000000005 4.96472328 -0.32552600000000004 2.371054 -0.453965
6660 -1.8772416 2.46432105 3.2338763100000003 -0.308037 2.715866 -0.916825
6680 -1.6612450200000002 1.47667968 1.62891126 -0.780227 0.864872 -1.685803
6700 -1.37115351 1.88772849 -0.06930765000000003 -0.059431 -3.042878 -1.698193
6720 -1.07521524 5.037327090000001 -2.3568525 -0.604089 -6.8420380000000005 -0.863916
6740 -1.4648586300000002 11.677519890000001 -7.200177030000001 -1.984045 -5.8063699999999985 0.275592
6760 -1.0415375100000002 18.40497264 -16.36157907 -0.738851 -1.1684139999999998 0.857323
6780 2.6786793600000003 16.94865852 -9.51721074 -0.840367 -0.62625 0.960605
6800 3.5531623800000003 12.469971690000001 -4.767434370000001 -1.027319 -1.089371 0.787909
6820 4.43303109 9.0784683 -2.0956416300000003 -1.287892 -1.125826 0.8064319999999999
6840 7.747741800000001 6.50741445 -2.9024650800000003 -1.499067 -1.106042 0.570991
6860 6.71727978 3.68234046 8.01118935 -0.990058 -1.604267 0.049619
6880 -12.787903980000001 12.8696409 6.22809432 -0.859244 -1.5935290000000002 -0.085145
6900 -16.76393622 22.656587400000003 -6.53346 -0.820277 -0.993916 -0.084573
6920 2.4815376000000002 9.21004983 9.214689960000001 -0.635636 -0.84288 -0.186026
6940 -3.8517885900000004 8.72430768 11.258387640000002 -0.736945 -0.941161 -0.295566
6960 -7.722441810000001 8.454866220000001 5.05962522 -0.965485 -1.356374 -0.424817
6980 -5.2926912 12.24019206 3.0228141600000002 -1.21058 -2.395673 -0.581158
7000 -4.19742432 17.564922720000002 4.38827787 -1.405374 -3.267367 -0.603834
7020 2.9831425200000004 15.0705144 1.82844666 -1.255774 -2.213476 -0.550728
7040 4.02123672 13.823604540000002 -0.5480062200000001 -0.7308279999999999 0.262149 -0.454094
7060 0.5204695500000001 10.71097983 -3.7167735600000014 -0.073371 1.146764 -0.334199
7080 -1.8645180300000002 9.15780177 -1.1710197 0.8693709999999999 -0.892159 -0.621967
7100 -2.4674700600000006 7.450753860000001 1.5886510200000001 2.234314 -2.63371 -0.783253
7120 -3.4501770000000005 6.852304620000001 0.5751014400000001 3.102191 -2.824921 -0.604962
7140 -3.9451994100000003 6.38617266 -0.94094577 3.569433 -2.321773 -0.561751
7160 -4.63256649 5.748650189999999 -2.00059254 3.666143 -1.331904 -0.436293
7180 -2.0999874600000004 7.25556429 -1.49269941 3.498558 -0.085154 -0.119663
7200 -1.13448726 8.05968999 -0.20223315000000003 3.431781 0.794823 0.189595
7220 -0.71281422 7.572152610000001 2.1430926 2.770963 0.667523 0.628455
7240 -1.25992773 7.640861850000001 3.15468999 1.900451 0.263401 0.679508
7260 -2.30161239 8.072560710000001 2.44022769 1.7460209999999998 -0.109079 0.721635
7280 -3.1060422 10.06911153 -0.07499745000000001 1.7393490000000005 -0.533371 1.071441
7300 -3.48055857 12.57939243 -2.80980963 1.5452549999999998 -2.561236 1.400628
7320 -2.91159819 13.30313499 -4.05072558 2.1798 -1.949672 1.359411
7340 -0.24698637000000004 13.612846500000002 -3.4055709300000006 2.267734 -2.532911 1.150333
7360 0.7403607000000001 13.660297470000001 -2.41088598 2.168852 -3.058305 1.023197
7380 -0.36075294 13.60221246 -2.91129408 1.920213 -3.5666620000000004 0.761466
7400 1.6164918 18.35962101 -1.40213349 1.569059 -3.608123 0.512307
7420 1.9440084600000003 15.272139330000002 -1.19107134 1.187002 -3.2771410000000003 0.390641
7440 -0.7469432100000001 11.12725737 -0.17094906 0.533914 -2.868863 0.354578
7460 -2.7134067600000003 10.46459187 0.7319731500000001 -0.063724 -2.197782 0.350612
7480 -1.24226973 13.314808890000002 3.2627667600000003 -0.490479 -1.815617 0.255274
7500 -0.32796792 13.78498257 7.178173200000001 -0.954681 -1.806782 0.046921
7520 -0.45790137000000003 14.10217911 6.25953537 -1.275335 -2.165872 -0.184526
7540 -1.0681814699999999 13.513893030000002 2.6129621700000003 -0.916809 -2.2560860000000003 -0.046242
7560 -0.94379067 13.36001337 0.28845324000000006 0.7406119999999999 -2.467927 0.34375700000000003
7580 -1.52772111 12.15786654 0.10657584 1.330557 -1.620369 0.731352
7600 -1.11218913 11.48546952 2.55294459 1.055466 -0.199127 0.928435
7620 0.84633813 9.51541551 2.7732870000000003 1.233248 -1.300868 1.102004
7640 0.46522944000000005 8.46624582 1.5777226800000002 0.332997 1.556184 0.821795
7660 -1.0743127199999998 7.77168801 2.3628366 -0.072799 3.369529 0.579491
7680 -1.1076961500000004 6.53196888 2.64978891 0.63973 -0.541135 0.504022
7700 -1.4289246 6.06045123 3.15169794 0.362898 0.692448 -0.052832
7720 -2.35250667 4.93508727 2.71505484 -0.224597 1.21968 -0.32253000000000004
7740 -3.1886718300000005 3.7332347400000003 1.57263129 -0.556979 -0.32300700000000004 -0.790756
7760 -3.60345825 4.191587370000001 1.2507946200000002 -0.699168 -1.5138459999999998 -0.968616
7780 -3.76991433 4.6821168 0.5496543 -1.029431 -0.712498 -0.747624
7800 -3.0918177 4.74767703 -1.29929526 -1.020076 -0.126126 -0.341317
7820 -1.46964591 6.55846569 -3.68413569 -0.764938 -1.983494 0.383895
7840 -0.18815580000000004 11.50836606 -5.289699150000001 -0.784138 -2.534819 0.544701
7860 -2.62285065 16.57967499 -10.140067259999999 -0.769077 -2.717253 0.333532
7880 -1.14137388 15.761324790000002 -11.72646198 -0.645588 -2.333105 0.06471
7900 0.60623838 11.65147434 -4.988228040000001 -0.377507 -1.222389 -0.075846
7920 0.02529999 9.286234290000001 -8.912022030000001 -0.24666 -0.624043 -0.104541
7940 2.44771272 7.57829367 -1.33133472 0.052923000000000005 0.05026 -0.093698
7960 -0.63512883 9.08999505 15.00793641 0.669984 0.786604 -0.15549300000000002
7980 -14.579533710000002 21.80769867 -8.8498953 1.440246 0.850635 -0.318974
8000 -2.72163735 5.1319249199999994 3.8805318900000003 2.23477 1.197515 -0.374757
8020 -1.40572395 2.10312666 3.62336274 2.6162650000000003 1.990043 -0.429724
8040 -3.04916382 5.680392210000001 1.77905331 2.244573 1.878606 -0.212124
8060 -3.5663372100000004 10.96454871 -0.060772950000000006 0.793941 1.485552 0.50357
8080 -1.1976636600000001 12.43269369 -0.21809592 -0.19465 0.681524 1.029669
8100 1.00141461 13.890812850000001 0.28365615 -0.303394 0.648863 0.50125
8120 2.22452541 15.94110285 0.15342840000000002 -0.382521 1.793148 0.258881
8140 -0.31689243 12.092904720000002 -0.16495515000000002 -0.612785 0.599858 -0.02855
8160 -2.92492017 10.1714985 -0.89693811 -0.905459 -0.083564 -0.162178
8180 -4.5872148600000004 9.724074210000001 -2.98299537 -1.392187 0.149957 -0.595302
8200 -4.66310502 10.8742869 -3.5212798800000003 -1.265077 -0.257994 -1.515767
8220 -2.70352809 11.347158330000001 -3.78817074 -0.125947 -2.315644 0.308667
8240 -1.52054019 11.46136635 -4.16538486 -0.898136 -0.275216 0.8710889999999999
8260 -1.01968083 10.4199858 -4.780305090000001 -1.282336 -0.553875 1.093089
8280 -0.82837602 9.45852732 -5.60164734 -0.720923 -2.089286 0.694122
8300 -1.7759043 8.3119149 -5.625603360000001 -0.106885 -1.320943 0.624788
8320 -2.23650342 6.076166850000001 -1.31725737 0.036413 2.074557 0.384292
8340 -3.64132485 3.31710435 3.0090409200000003 0.277831 1.679512 0.398235
8360 -2.9993094000000005 1.0565075700000002 6.16447647 -0.27633 -3.5485900000000004 0.012231
8380 -1.4424035400000002 -3.98426283 5.78441745 0.569084 -0.208268 0.17408900000000002
8400 -0.41568894000000006 -5.93979804 3.3576687000000005 0.359281 -0.123386 0.174651
8420 3.2587250400000003 -3.97857303 1.8362358000000003 0.343677 -1.38089 -0.224429
8440 6.5386985399999995 1.35333855 -0.38051028000000003 -0.1375 -0.850957 0.069564
8460 2.7243351000000002 2.99302119 0.80218332 0.061579 -0.159524 0.145913
8480 0.28590264 5.39777592 -0.2860596 0.7679739999999999 1.164787 0.0231
8500 -2.04639543 7.66765296 -0.5327418599999999 1.467929 1.860237 -0.007084999999999998
8520 -9.548347680000001 27.53973072 -2.8145969100000006 2.315803 1.842061 -0.192351
8540 -0.85277349 19.1745279 -11.21692077 2.742817 1.512958 -0.5788479999999999
8560 -4.00057686 15.44802282 -10.96275348 2.332783 0.817209 -0.7250300000000001
8580 -2.8853956800000002 11.679158160000002 -3.4188929100000003 1.392529 -0.235921 -0.28373200000000004
8600 -3.5711244900000003 8.86965264 -5.29388802 0.502043 1.09756 0.015987
8620 -4.07827206 10.54497501 -2.47136463 0.107228 2.277102 0.021332
8640 -5.18102397 11.136390480000001 6.88687506 -0.481357 1.493898 0.587587
8660 -5.76930024 14.742095220000003 4.3204613400000005 -1.277372 0.84649 0.674723
8680 -1.9303823700000002 17.90621262 -8.400077370000002 -2.062251 1.345534 -0.09945
8700 2.41867512 19.159410690000005 -3.05918964 -2.156468 0.436395 -0.701421
8720 -2.8195411500000005 17.42945643 -1.21816656 -1.842684 -1.225248 -0.487728
8740 -0.7687998900000002 14.639109840000001 1.720674 -1.340233 -0.489752 0.027586000000000003
8760 -1.13419296 12.75018453 -0.86909733 -1.347041 -1.105256 -0.022948
8780 -5.16141378 13.23667224 -6.321053879999999 -1.504316 -1.6806849999999998 0.690263
8800 -3.94444404 11.56165398 -6.8433186599999996 -1.1982780000000002 -1.1812049999999998 0.990863
8820 -3.2076836100000006 10.230623370000002 -7.782017939999999 -0.704975 -1.462666 0.620792
8840 -3.19615686 7.2892420200000005 -2.38678281 0.304686 0.7813479999999999 0.409188
8860 -3.1942046700000004 3.2579794800000004 2.5418592900000005 0.086234 0.514123 0.558624
8880 -2.51985546 -0.13936086 6.5015775 -0.589348 -3.244648 -0.06725700000000001
8900 -0.5123861099999999 -5.93560917 5.73412158 -0.993757 -1.7723380000000002 -0.007875
8920 2.39486625 -7.964189640000001 2.13890373 0.29335900000000004 1.601363 -0.051278
8940 5.30512047 0.85322475 2.26539387 0.8640680000000001 3.558224 0.265327
8960 4.8458751300000005 5.0567803200000006 0.12888378 1.873625 0.8260959999999999 -0.152477
8980 0.39412656000000007 5.56557597 -0.8608569300000001 -0.484217 -1.832957 -0.208269
9000 -1.72740366 8.364006 -1.13988276 -1.574746 -3.159383 -0.554949
9020 -4.729862070000001 13.975541819999998 -4.23574218 -0.727114 -2.089731 -0.785408
9040 -2.21149773 17.980160400000003 -6.91472565 -0.621513 1.321824 -0.214338
9060 0.86265216 17.062120980000003 -8.59557105 0.020429 2.346029 0.175529
9080 0.9424368900000001 13.61299365 -9.39775437 1.689428 1.917236 -0.33355500000000005
9100 -2.2987674900000004 13.555811160000001 -5.72858874 3.096027 1.7663259999999998 -0.576705
9120 -3.6013589100000005 12.26788569 -1.4070777300000001 3.911487 0.415822 -0.817106
9140 -4.535565210000001 9.258697620000001 -1.8058444200000001 3.62112 -0.984256 -0.755384
9160 -2.16270279 7.585621740000001 4.95020448 2.7889999999999997 -1.151814 -0.223666
9180 -6.49544625 8.9537832 5.279820480000001 2.08695 0.575129 0.085411
9200 -6.615795330000001 12.04215759 -3.87185004 1.097112 1.905655 0.411146
9220 0.35087427000000004 11.15794305 -0.6554845799999999 -0.142203 1.635961 0.996766
9240 -4.13993772 38.60217342000001 -27.35605809 -1.59635 1.436474 1.261397
9260 -2.84812749 12.250227690000001 8.016732000000001 -2.667027 1.035208 0.506678
9280 1.87589763 4.934037600000001 7.45390287 -3.159325 -0.382899 -0.340976
9300 -2.27332035 5.525011620000001 2.69993763 -3.660969 -1.42175 -0.386946
9320 -4.34726226 11.018739150000002 -1.41021693 -3.738987 -1.318792 -0.492308
9340 -0.74724732 13.994847900000002 -5.562436770000001 -2.241946 -0.061875 -0.697106
9360 0.7024842900000001 13.75250166 -7.42590513 -0.8573620000000001 -1.660494 0.142486
9380 0.01197801 14.53013055 -8.580757950000002 -0.7867609999999999 -2.386706 0.803002
9400 -4.85470413 10.07509563 -6.754106520000001 0.1203 1.848245 0.962008
9420 -2.9674269000000004 7.640557740000001 -5.888305350000001 0.275116 3.767465 1.195639
9440 -3.45032415 6.07241943 1.2310372800000002 0.033998 1.024575 0.823592
9460 -3.9600125100000003 4.00911156 7.43204619 -0.691451 -5.059684 -0.293175
9480 -1.1855385 0.92836935 7.110513630000001 2.068209 2.578753 -0.390509
9500 1.4868624600000002 -4.7806092 1.64358702 1.942449 2.485097 -0.037686
9520 4.01958864 -0.5661252900000001 2.3947191 0.605853 -1.672547 0.023467
9540 5.87498337 3.4299684000000004 1.5477825600000001 -0.425834 -2.468638 -0.064973
9560 1.6154421300000001 5.62739859 0.46598481 0.991262 1.133409 -0.314995
9580 0.182466 6.599775600000001 -0.28725642 0.809025 1.2371379999999998 -0.25658000000000003
9600 -0.37826379000000004 7.84578294 -3.03149601 1.519355 0.593849 -0.37364
9620 -4.285135530000001 7.78471569 -4.9234133700000005 2.059345 0.421281 -0.576882
9640 -3.4438887900000004 10.13542713 -4.707563940000001 2.234378 -0.22202 -0.759637
9660 -0.91310499 17.42047047 -2.94542307 1.831336 -1.049674 -0.693026
9680 -0.24833034 20.478914550000002 -11.66764122 0.968536 -0.377966 -0.092095
9700 1.02372255 12.91664061 -10.11701376 0.401782 0.8857309999999999 -0.203427
9720 -0.80787312 8.077504950000002 -5.7490916400000005 0.417525 1.69265 0.188754
9740 -2.28214935 6.33258063 7.8490791 -0.15703599999999998 2.047446 0.671396
9760 -5.980509540000001 10.521323100000002 7.21095822 -1.35628 1.364244 0.469478
9780 -6.2445653100000005 19.205213580000002 -12.580137990000003 -2.475141 0.941879 -0.029178
9800 -2.64364785 38.58870429 -17.01735795 -2.824827 -0.424096 -0.983792
9820 0.9500788800000001 11.10360546 8.72356212 -1.529834 -2.161697 -1.006703
9840 2.91548295 7.06396518 4.04773353 -0.976973 -1.722893 -0.132803
9860 -1.7754530400000001 12.08018115 -2.35190826 -1.278507 -0.929984 0.574442
9880 -2.8913895899999997 18.20409327 -5.7708011699999995 -1.832643 -0.485045 0.874445
9900 -2.46866688 14.22760977 -2.5152153299999997 -0.403688 2.278144 0.46962
9920 -1.6197781500000001 9.832150980000002 -2.58991848 0.050098 1.820874 0.409282
9940 -2.36897766 7.1477818200000005 -3.6815949000000003 -1.09349 -2.707927 -0.118468
9960 -3.5997108300000003 3.96735039 0.40057173 -1.336625 -2.082048 0.483646
9980 -2.65128984 1.9407123000000002 4.34771352 0.622916 7.01341 0.8819879999999999
10000 -0.59097402 -2.7554720400000003 5.68712187 2.171912 4.12648 0.879416
10020 0.57136383 -6.01523694 2.21045787 2.030053 -0.485556 0.05219
10040 1.56649023 -1.20080286 1.9652667300000002 -1.452264 -4.311701 -0.4725
10060 2.9018666700000004 2.6568226800000003 1.3398596100000002 -2.4463 -3.95499 -0.902917
10080 4.24367847 3.91480803 -0.93645279 -0.646858 -1.134159 -0.593792
10100 0.6277909500000002 6.356232540000001 -0.52376571 -0.348172 2.273414 -0.25958200000000003
10120 -0.44697303 9.12547782 -2.1547665 0.964835 1.13478 -0.368592
10140 -3.9878532900000003 14.137347960000001 -6.6464810100000005 2.763347 0.475893 -0.7247899999999999
10160 -3.28641867 21.861585 -10.446629759999999 3.258171 1.321181 -1.018315
10180 -1.1870296200000001 17.67030174 -8.68284081 3.586231 0.5082180000000001 -0.996821
10200 -1.4379105600000002 10.45531161 -10.045606770000001 3.074331 -1.51843 -0.696562
10220 -2.08141713 6.94824642 -3.0005062200000006 2.460325 -1.229034 0.190744
10240 -5.50210527 4.81099077 8.317899 1.648349 1.099411 0.15752
10260 -8.5373487 11.49504408 3.8989452600000005 1.025026 1.415291 0.29163
10280 1.15454871 10.987150950000002 -3.83382648 -0.043814 1.319759 0.865399
10300 0.5089428 39.486535110000005 -42.319398240000005 -1.7858630000000002 1.616793 1.353846
10320 -2.27931426 18.19211526 10.08422874 -3.2600830000000003 1.721516 0.686458
10340 1.67606793 2.123629560000001 12.5775972 -3.746642 0.866816 -0.401159
10360 -0.04685256 3.89505069 5.14405008 -3.402228 -1.874142 -0.964603
10380 -4.12856793 10.05204213 1.5178424400000001 -3.177821 -2.964657 -0.7084699999999999
10400 -3.97992681 16.734604320000003 -4.29741765 -2.100575 -0.343783 -0.384905
10420 1.4425506900000002 17.64260811 -8.688834720000001 -0.827259 -0.223496 -0.134747
10440 -0.35221824000000007 15.96968919 -9.63980631 -1.602524 -1.471701 0.195791
10460 -4.23469251 11.231743680000003 -10.16506314 -1.517072 -0.8205600000000001 0.589727
10480 -3.3214403700000004 7.037468370000001 -7.5513456 0.914535 2.6769700000000003 0.023254
10500 -2.52449559 5.654336850000001 0.37766538 1.2701360000000002 0.962208 -0.10132
10520 -1.7768068200000002 3.8549376 8.49274263 0.381124 -0.686295 -0.26565
10540 -0.41119596 1.7058510900000003 5.3293707900000005 -1.623717 -3.82064 -0.050243
10560 1.9809823500000001 -0.96654006 3.78398187 -2.373003 -3.50376 -0.8549129999999999
10580 1.82875077 -1.58355963 2.5673064300000004 0.797329 2.705941 -0.45937
10600 2.6613156600000005 1.6808552100000003 3.6146808900000003 0.5027590000000001 -0.533816 0.124905
10620 3.3027327000000004 3.99040389 1.02132891 -1.571388 -1.940379 0.158153
10640 -0.72509634 5.15258478 -0.38020617 -1.362152 -1.263339 0.095722
10660 -0.20223315000000003 7.9694281799999995 -1.1530477800000003 1.322794 2.611789 0.517571
10680 -2.3861844000000003 9.02832939 -2.0299244400000003 1.972483 2.045146 0.200232
10700 -4.19352975 10.67774355 -7.0683012 3.116532 2.478178 -0.390536
10720 -3.85149429 13.754444040000001 -3.8972971800000002 3.28356 1.610554 -0.678813
10740 -1.62950967 20.229828840000003 -3.73038984 2.213397 -1.078266 -0.26837300000000003
10760 -3.4331076 21.113739270000004 -14.69928438 1.6704869999999998 -0.7971060000000001 0.219925
10780 -1.6414876800000002 11.03879079 -10.986699690000002 0.728694 -1.958985 0.418866
10800 -2.7345178800000003 6.98327793 -6.35173956 0.166381 -0.671914 0.053298000000000005
10820 0.033530580000000004 6.842867399999999 10.909318410000001 -0.1495 0.387665 0.419338
10840 -2.47675032 13.1708079 8.841811860000002 -1.509405 -0.365348 0.764386
10860 -1.38866436 10.76890788 1.5328125000000001 -1.882933 -1.4534790000000002 0.410658
10880 1.90493523 13.739925240000003 -6.57702621 -1.910653 -1.663662 -0.282542
10900 -7.71825294 46.18900179 -15.63198975 -0.765437 -0.8882770000000001 -1.506128
10920 -1.02566493 8.533758240000001 5.9661477000000005 -0.954591 -0.504007 0.859238
10940 1.14811335 7.3711260900000015 1.67546952 0.348957 -1.30636 0.578815
10960 1.8636253200000001 9.14043807 2.06526006 0.341436 0.6372399999999999 -0.080685
10980 -0.95666139 15.485447970000001 -9.04149441 -0.481749 2.0638240000000003 0.054879
11000 -4.55981553 13.97104884 -10.918441710000002 -0.595565 1.292441 -0.08166
11020 -4.7424384900000005 9.297918000000001 -5.272933860000001 -0.4652689999999999 -1.099473 -0.368241
11040 -4.6309184100000005 3.7600356600000002 2.41238691 -1.827562 -6.414119 -0.256647
11060 -3.2268425400000003 1.62696888 6.60501414 1.069271 -0.592457 -0.884805
11080 -3.7423678500000004 1.14601401 8.458760790000001 0.16756600000000002 2.4501470000000003 -0.414303
11100 -0.31959018000000006 -4.11733548 8.08977726 -0.79589 1.533146 0.103571
11120 0.97656588 -5.05918377 0.83376171 -1.328495 -0.155684 0.124448
11140 8.66323062 -0.09805095000000001 0.03547296 -1.373719 -1.7562970000000002 0.039657
11160 9.617498370000002 4.176617310000001 0.35880075000000006 -1.7270299999999998 -2.352459 -0.28465
11180 1.27279845 2.4941140200000005 0.03233376 -1.878953 -0.587672 -0.325361
11200 -1.3202592299999998 2.5084856700000002 -0.1360647 -2.25624 0.8679690000000001 -0.383272
11220 -1.06263882 3.4323620400000006 -2.97701127 -2.219433 1.516263 -0.566512
11240 -14.43942729 44.719503030000006 -9.80820477 -1.722879 0.918766 -1.026954
11260 -0.30252078000000004 19.582878960000002 -13.06468332 -1.336602 -0.815545 -1.351046
11280 -2.1198919500000004 8.97803352 -7.50704364 -1.051939 -0.979994 -1.232411
11300 -1.9267919100000002 2.47405257 3.3383626200000003 -0.100466 -0.144652 -1.299474
11320 -3.18343329 4.4499435300000005 6.96921039 1.16402 -0.392875 -1.592631
11340 -4.58975565 14.903008650000002 5.1245968500000005 2.426868 -0.440011 -1.555975
11360 -5.370386399999999 20.767063680000003 2.6027892 3.466747 -1.267779 -1.113953
11380 -2.8455867 19.431245790000002 -11.47918131 3.280696 -0.8290879999999999 -0.104208
11400 -2.2638929400000003 17.24384142 -5.10214176 3.396889 -0.520609 0.70592
11420 0.4773546 15.19878996 0.2576106 3.6045 -1.32095 1.6697959999999998
11440 2.63122839 15.04895202 1.02297699 3.857515 -1.552546 2.35659
11460 2.89976733 14.27656167 1.56080043 2.6693740000000004 -0.714792 1.677442
11480 -1.03046202 10.99343916 0.5890218299999999 1.845311 0.985812 2.284803
11500 -3.1407696 9.17337024 -1.27864521 1.007895 0.205047 2.191291
11520 -3.68593092 6.416858340000001 1.17086274 0.369727 -0.29759800000000003 2.436373
11540 -2.59769781 4.470004980000001 0.63766962 0.308504 -2.667053 2.293704
11560 -1.2202659 3.91211028 0.43365105000000004 1.202892 -3.784865 1.337847
11580 -0.48962690999999997 3.3700881600000003 0.45505647 0.6550729999999999 -3.90989 0.844936
11600 -0.38380644 6.20983791 -0.42586191 0.496764 -3.761601 0.13006700000000002
11620 -0.9918400500000001 8.75469906 -3.1732505100000004 0.315754 -3.4723839999999995 -0.376836
11640 -2.36792799 8.39784069 -5.445374040000001 -0.008251 -3.592981 -0.573362
11660 -1.01308851 8.33676363 -4.688846460000001 -0.272336 -4.011445 -0.392004
11680 0.99138879 6.88867029 -4.3086402900000005 -0.8031229999999999 -3.631526 -0.368425
11700 2.7677443500000005 6.42943476 -5.37232878 -1.238034 -1.344195 -0.303891
11720 4.20864696 10.11266793 -2.0899518300000004 0.16281600000000002 -1.14119 -0.337095
11740 0.59396607 13.436207640000001 1.9461078 2.677641 -3.233446 0.159579
11760 2.80651347 20.550311730000004 7.423217190000001 2.566607 -3.183888 1.181029
11780 4.54589514 32.122001340000004 8.498422620000001 1.504217 -1.812795 1.547865
11800 -1.16547705 30.91206537 4.3683635700000005 1.531548 -1.404986 1.572102
11820 -8.300093850000001 21.021682230000003 4.38333363 1.122964 -2.494872 1.421094
11840 -7.221729600000001 15.76371843 -1.67441985 0.045874 -1.98059 1.350955
11860 -2.24952129 14.140496970000001 -2.461329 0.807204 3.063927 0.316838
11880 -0.59681097 12.995375670000001 3.0740027400000005 1.366658 -5.160237 -0.640798
11900 1.19362194 11.157197490000001 6.99854229 0.328203 -1.245181 0.7484390000000001
11920 0.3101529600000001 8.85019941 5.22488448 -0.14509 1.530884 0.104915
11940 -2.54486115 6.63555267 4.94601561 -0.98736 2.5656950000000003 -1.135022
11960 -4.54440402 4.5523305 4.54828878 -1.306799 0.378108 -2.044575
11980 -5.42382147 2.80576791 4.469700870000001 1.285628 -6.447639 -1.231509
12000 -5.15363445 2.2960795500000004 2.9463255900000003 -2.028266 -8.886598 -0.089306
12020 -5.05708443 1.45601982 1.20424617 -2.120236 -3.834875 0.742132
12040 -4.2602868 2.9870370900000003 -0.70982217 -1.195553 -0.6863670000000001 1.117366
12060 -2.39531751 9.53158239 -3.86616024 -1.4887290000000002 -0.06468600000000001 1.214935
12080 -3.4007738400000003 16.219667610000002 -14.70377736 -2.185578 0.198371 1.036678
12100 1.3099292999999999 15.12753993 -11.40837273 -2.297873 -1.013882 0.5941350000000001
12120 4.99331943 10.40531004 -6.991665480000001 -1.824885 -2.783354 -0.06900099999999999
12140 9.55103562 8.64811341 -1.53071316 -1.407967 -3.096947 -0.329537
12160 9.17860878 6.95888046 -2.59619688 -1.293388 -1.547496 -0.297608
12180 8.13213684 4.2209192700000004 -4.25385144 -0.7801640000000001 -0.228829 -0.17393499999999998
12200 6.72641289 3.3756308100000005 5.3823546 -0.5867859999999999 -0.421191 -0.188361
12220 -8.6591889 27.410552640000002 3.94968258 -0.657385 -1.148741 -0.401567
12240 -15.79155921 24.79009563 -2.6924525999999998 -0.92294 -1.478654 -0.518367
12260 0.14309847 2.08591011 6.5565135 -1.072685 -1.189037 -0.620197
12280 -3.7592802900000004 3.58250409 8.85723318 -0.856392 0.251207 -0.539347
12300 -6.31072395 8.70993603 5.87827953 -0.415526 -0.075728 -0.681126
12320 -6.7898835900000005 18.50331789 4.35190239 -0.185917 -0.818697 -0.761892
12340 1.00949805 20.01038895 4.9135347 -0.183588 -1.34234 -0.615926
12360 4.1433810300000005 15.487988760000002 0.9861502500000001 0.21395100000000006 -1.638936 -0.581791
12380 1.17565983 11.053319400000001 1.29376242 0.8685129999999999 -1.689517 -0.754479
12400 -1.2930070500000002 9.17786322 -1.5706791 1.778144 -1.631735 -1.074007
12420 -1.2603789900000002 7.25870349 0.20447964000000002 2.738787 -1.474573 -1.249096
12440 -3.7133302500000003 6.22510227 0.33351057 3.663138 -1.323449 -0.949072
12460 -5.98829868 5.541472800000001 -1.12192065 3.914135 -2.2220880000000003 -0.48149
12480 -4.348459080000001 4.86697644 -0.8915426100000001 3.82809 -3.192682 -0.109107
12500 -1.6980717600000002 6.00820317 -0.47615778 3.918579 -2.817686 0.073711
12520 0.62749665 7.46751915 -0.9484308 3.4496010000000004 -0.417705 0.235071
12540 1.3789328400000003 7.762260600000001 -0.34338924000000004 2.377579 1.710516 0.414999
12560 -0.5445629100000001 8.30323305 1.23163569 1.690305 1.976072 1.200342
12580 -1.58969088 11.46615363 2.0249900100000002 0.8140390000000001 -1.730735 1.604896
12600 -1.9999941300000001 11.840081399999999 0.81445563 1.82862 -3.680245 1.804624
12620 -2.40010479 11.14581789 0.33006726 2.344997 -2.721312 1.577335
12640 -3.4444872 11.242819170000002 -0.80053524 1.975596 -2.4182 1.221853
12660 -3.0356848800000003 11.76254316 -0.8403540300000001 1.748344 -2.691153 0.94715
12680 -1.82320812 12.41697807 0.38515041 1.519324 -3.256394 0.774291
12700 -0.44038071 11.681855910000001 -0.1733427 1.252201 -3.542295 0.575171
12720 -0.26599815 12.294980910000001 -1.8688638600000003 0.931982 -3.4448769999999995 0.467055
12740 -0.13217994000000002 13.30867764 -4.59109962 0.487215 -2.954315 0.452638
12760 0.9401904 16.08704622 -5.570667360000001 -0.04316 -2.38305 0.576387
12780 3.05335269 16.06578795 -3.9972905100000005 -0.680905 -1.794091 0.630998
12800 4.890177090000001 14.994614430000002 0.4221243 -1.347594 -1.510723 0.409129
12820 3.2352202800000005 11.90324799 2.8551612600000005 -1.864116 -1.581319 0.130011
12840 0.11675862 10.705290030000002 5.8188505500000005 -1.37733 -0.911358 0.265012
12860 0.8184973500000001 11.200606740000001 5.748650189999999 0.439758 -1.127372 0.49483
12880 0.39158577000000006 13.551769440000001 5.522470830000001 0.8524809999999999 -1.160563 0.977387
12900 -0.47960109000000006 15.70713435 2.4553449 0.297651 -0.153174 1.2820049999999998
12920 -1.7378905500000001 17.03906748 0.7463448 0.411164 -0.891323 1.161967
12940 -1.11728052 15.13966509 4.01135805 0.027501 3.111586 0.795235
12960 0.11989782 11.77406991 6.03709362 0.7732359999999999 1.512495 -0.088404
12980 0.30761217 9.81059841 2.12422797 1.386144 -1.221746 0.630817
13000 -1.5669414900000003 8.1038448 1.28941659 0.02772 -0.8569680000000001 0.097432
13020 -1.9398195900000001 7.1699426100000005 1.50362775 -0.872999 0.297192 -0.835419
13040 -1.5630469200000001 6.295606740000001 1.7329463100000002 -0.854736 0.041431 -1.359461
13060 -1.3320802800000002 5.9161461300000004 2.4783984000000006 -1.164339 -0.07321799999999999 -1.191629
13080 -2.11345659 5.70374001 2.8626462900000007 -1.767566 1.78236 -0.902323
13100 -2.9764128600000004 5.7031416 2.7413946900000004 -1.033548 1.7385400000000002 -0.7037909999999999
13120 -2.8783619100000006 5.10797871 1.95553521 -0.422096 -1.994964 0.291233
13140 -2.6478465300000003 4.12063164 0.36419625 -0.835508 -2.788472 0.0864
13160 -2.58557265 4.54080375 -1.2328325100000002 -0.8353440000000001 -1.797675 0.329754
13180 -0.9806076 6.565342500000001 -2.1773687400000004 -0.914474 -1.495394 0.196354
13200 -0.26270199 10.63253907 -5.07504654 -0.860431 -1.675329 -0.140596
13220 -0.66282246 15.060184470000001 -10.928918789999999 -0.354731 -1.3854229999999998 -0.084024
13240 2.1999709800000002 12.397671990000001 -11.526033870000001 0.398195 0.801689 0.037005
13260 3.1085829900000004 8.39079711 -4.69484037 1.241953 1.807202 0.131341
13280 4.40968329 8.41415472 -8.30203623 2.205855 1.757727 0.212913
13300 4.80007224 9.6104646 7.731270810000001 3.318504 1.385701 0.108998
13320 -4.19802273 23.219416530000004 4.22960112 3.556697 1.255678 -0.08251900000000001
13340 -9.857303820000002 11.70536067 1.0412334 2.795518 -0.234292 -0.043198
13360 -7.6333768200000005 1.0355436 4.040846910000001 1.935925 -1.2117950000000002 0.330201
13380 -7.049740679999999 1.8841282200000002 4.03979724 1.019203 -1.153676 0.443364
13400 -6.4174567499999995 8.08408746 2.63407329 0.432225 1.553723 0.818218
13420 -2.86713927 12.186305729999999 -0.49636638 -0.199093 0.918939 1.068858
13440 0.49935843 12.13466589 -0.21929274 -0.971772 0.285123 1.199938
13460 2.38274109 14.60213595 2.5677576899999996 -2.081755 0.135601 0.660401
13480 4.15101321 15.2179587 0.8858626199999999 -2.535093 -0.034954 -0.249467
13500 6.265372320000001 12.5924103 -2.2360521600000003 -2.772537 -1.331941 -0.7055939999999999
13520 -0.21570228000000002 11.071428660000002 -0.6304887000000001 -2.057376 -0.699853 -0.621292
13540 -2.8518651000000004 9.87392196 -0.72943236 -0.498791 -1.499319 0.284721
13560 -3.6803980800000002 9.48337605 -2.0505843 -0.248031 -2.354778 0.610171
13580 -4.91832198 10.44318645 -4.8002193900000005 -0.010832 1.036274 0.601074
13600 -4.197267360000001 11.46930264 -6.80260716 0.288011 3.403251 0.092722
13620 -0.7749409500000002 10.92398436 -7.0718916599999995 0.000107 1.41705 0.207556
13640 -0.24938001 9.91747836 -7.22023848 -1.126886 -0.792798 -0.030356
13660 -1.46994021 8.865169470000001 -6.61384314 0.809243 0.467697 0.353294
13680 -2.08650852 5.13581949 -1.4672522700000001 1.872858 0.621919 0.291091
13700 -2.5152153299999997 3.0765533400000002 3.71497833 1.877918 -0.427349 0.013665
13720 -2.37046878 -0.29818476 7.32666717 -0.919592 -2.042443 0.07524199999999999
13740 -0.21555513 -4.700971620000001 5.576504310000001 -1.564073 -1.972372 0.160381
13760 2.1296234700000003 -4.265231040000001 2.57165226 -0.8645379999999999 0.269838 -0.130298
13780 7.259449050000001 0.59845905 3.0798495000000004 -0.71104 0.542706 -0.302628
13800 5.80328208 1.71108963 3.1669623000000002 0.757356 0.261004 -0.65841
13820 1.5302717100000003 5.14345167 2.6132662800000004 2.170819 0.203959 -0.6719649999999999
13840 -0.06196977000000001 6.030363960000001 0.3153915 2.655574 1.10627 -0.565049
13860 -4.269272760000001 10.074497220000001 -0.25566822 2.839995 1.026871 -0.848875
13880 -6.3978465600000005 17.91594414 -4.5472391100000005 2.495341 -1.503392 -0.758309
13900 -3.5194846500000003 28.489652640000003 -6.071673870000001 1.628584 -0.700781 0.143665
13920 1.84341672 16.11399429 -13.30927605 0.738462 0.988242 0.242105
13940 -3.67605225 10.65544542 -6.51984372 0.039027 1.044117 0.195487
13960 -6.11582868 9.764942670000002 1.02267288 -0.957157 1.827564 0.6746340000000001
13980 -5.954915250000001 10.158470819999998 4.38512886 -1.910029 1.06503 0.650796
14000 -1.5275739600000002 16.864076700000002 5.787115200000001 -2.712949 0.315123 0.27013400000000004
14020 5.33176443 19.75127742 -11.689193790000001 -2.732048 -0.002175 -0.549987
14040 -0.74545209 25.39439163 -11.77242183 -2.080255 -0.749221 -1.042268
14060 -0.01856052 10.83282003 5.464091520000001 -0.8451129999999999 -0.726097 -0.7035899999999999
14080 0.92777094 9.64549611 4.13620011 -0.8794860000000001 -1.611469 -0.109832
14100 -2.33304363 14.26503492 0.46194309 -0.8239479999999999 -2.21181 -0.010399
14120 -1.92215178 13.13638461 -2.34637542 -0.15229 -0.062777 0.113316
14140 -2.0158569 12.8841597 -3.6438754500000003 0.022193 2.5281860000000003 0.441296
14160 -2.9618940600000006 12.255014970000001 -5.81540724 -0.420361 1.127069 0.8939940000000001
14180 -4.01869593 13.333526370000001 -8.63000415 -0.853985 -0.637758 0.653945
14200 -3.23626995 12.582982890000002 -8.46564741 -0.242786 -2.319971 0.426429
14220 -2.168991 8.192311380000001 -4.17975651 1.831093 4.4546480000000015 0.360663
14240 -1.3563306 4.5394597800000005 4.16299122 2.150275 1.861699 0.101297
14260 -0.31464594 1.96242183 7.443268830000001 -0.21794 -1.536247 -0.047624
14280 1.4202427499999999 -4.0892004 4.67193402 -2.036212 -3.04041 -0.071216
14300 2.04864192 -8.160134580000001 0.08576883000000002 -0.242634 -1.638265 -0.354245
14320 2.8437816600000003 -0.58737375 2.36778084 0.6653220000000001 2.077917 -0.200978
14340 4.308944400000001 2.7693924300000003 2.94542307 1.746821 1.50656 0.018817
14360 2.61087264 3.86137296 1.5940367100000001 2.891858 0.503791 -0.088336
14380 0.97072893 3.11338008 0.8044298100000001 3.14386 0.6980069999999999 -0.656187
14400 -3.03613614 6.03515124 -0.26135802 3.099767 -0.770037 -0.8607809999999999
14420 -6.16867515 14.67068823 -5.36080203 1.6526189999999998 -1.415151 0.015493
14440 -7.4980576800000005 34.08891615 -8.18422794 0.293664 1.036446 0.028497
14460 -1.26652005 17.832568950000002 -10.861867440000001 -0.06018 1.560856 -0.004557
14480 -0.7533785700000001 9.47170215 -11.180398140000001 -0.964639 1.794687 0.644714
14500 -1.3979446199999999 6.358930290000001 -1.24555608 -2.260284 1.432963 0.8508399999999999
14520 -1.2220611300000002 7.61690583 6.60980142 -3.019986 0.8222729999999999 0.250248
14540 -1.8468600300000002 13.449235320000001 5.962253130000001 -2.954068 -0.091794 -0.855866
14560 -2.6444032200000005 14.9028615 -0.28441152000000003 -2.04491 -2.308352 -1.447016
14580 -6.25025511 28.43741439 -25.288414200000002 -0.622971 -2.308919 -0.674373
14600 -0.9819613800000001 18.69881157 0.87313905 -0.550125 -1.866358 -0.056999
14620 1.4892561 6.774462270000001 8.25039639 -0.823155 -1.841767 0.422831
14640 0.36044883 8.14980465 3.7931149800000004 -0.329545 2.319846 0.632454
14660 -4.02752493 13.76552934 0.6361785000000001 0.32263600000000003 2.74003 0.7497020000000001
14680 -1.6116947100000003 15.65639703 -8.358620310000001 0.223841 0.8995040000000001 0.23542
14700 -0.38874087000000007 14.777872290000001 -9.34027758 -1.487617 -3.356914 0.281262
14720 -1.87065909 13.08668715 -6.448289580000001 -0.27818000000000004 -3.696653 0.277327
14740 -4.01420295 10.40531004 -6.4873628100000005 1.2353459999999998 4.045839 0.280114
14760 -3.9721376700000004 5.525011620000001 0.21001248 1.342675 1.021473 0.199281
14780 -1.9666107000000002 2.4780942900000005 6.665492790000001 -0.698739 -2.135402 0.220046
14800 0.12439080000000001 -3.3184483200000003 6.717731040000001 1.012337 -2.09836 -0.402574
14820 2.2210821000000003 -9.60657003 -0.17917965 1.2298129999999998 2.561665 -0.451891
14840 2.66849658 -1.86137883 3.30093747 1.784342 2.141696 -0.337453
14860 4.2927775200000005 0.3731724 3.53445471 2.840598 1.874931 -0.608539
14880 3.91989942 2.21749164 1.1621808900000001 3.491379 0.464184 -0.8254440000000001
14900 2.66505327 3.6961137 1.0506608100000001 3.082635 -0.5663199999999999 -0.642176
14920 -0.17767872 6.784193790000001 1.2100831200000002 2.01358 -0.521991 0.120488
14940 -4.69648845 13.134138120000003 -3.8552319 1.06424 1.556879 0.015053
14960 -5.864055030000001 26.27890047 -8.233474140000002 0.5176729999999999 2.002943 0.293742
14980 -1.38895866 22.401213480000003 -11.86701966 -0.904533 2.358083 0.8922389999999999
15000 -1.0591955100000001 12.60529083 -13.82465421 -2.440587 2.444182 0.673096
15020 -4.4393193 8.868308670000001 -1.04197896 -3.280167 1.413844 -0.142228
15040 -4.781658870000001 8.22973653 10.87593498 -3.528493 -0.508117 -0.94053
15060 -3.72904587 9.593405010000001 5.44193073 -3.152833 -3.050502 -1.372619
15080 1.3320802800000002 11.62527183 -4.03785486 -2.271837 -2.205095 -0.69991
15100 -1.76946894 23.738689260000005 -12.32521533 -0.8701110000000001 -2.285115 -0.020241
15120 -2.23260885 30.096118620000002 -3.77350479 -1.088633 -2.005033 0.456437
15140 1.94250753 8.438405040000001 7.020703080000001 -0.462016 -1.799998 0.586601
15160 -2.10282255 6.54738039 1.2150273600000001 0.451096 2.818484 0.7323390000000001
15180 -5.66766864 12.38359464 -7.6468459499999994 0.032776 2.9344360000000003 0.8692059999999999
15200 -1.26157581 15.915057299999999 -9.00602145 -0.046314 0.338121 0.199001
15220 -1.86108453 11.25778923 -4.6363041 -0.585804 -6.325261 -0.377342
15240 -1.28881818 7.142248980000001 -2.3601388500000002 1.848345 1.605875 -0.39614
15260 -3.9122672400000003 6.38512299 0.08696565000000002 1.136075 0.763533 -0.384012
15280 -3.30991362 4.177362870000001 5.84953623 -1.034857 -1.7027759999999998 -0.052048
15300 0.02798793 -0.03098979 5.76016713 -1.086006 -2.315476 0.033837
15320 2.7985771800000006 -5.819144850000001 1.04587353 1.505391 1.916339 -0.216267
15340 3.0849310800000005 -0.32646699000000007 1.5816074400000002 1.62758 1.060624 -0.247432
15360 3.7580834700000003 4.64978304 -0.01990449 2.665076 0.4718850000000001 -0.7030390000000001
15380 0.8948387700000001 6.082298100000001 0.52301034 3.012671 0.756525 -1.322681
15400 0.23081949000000002 8.60740191 0.40280841 2.260069 -0.562615 -1.121149
15420 0.5953100400000001 7.914345030000001 -0.29697813 0.804443 -0.020823 -0.018923
15440 -0.9654903900000001 7.74399438 -2.57134815 -0.110016 2.2645310000000003 0.156563
15460 -0.7119215100000001 14.14363617 -7.11694899 -0.331746 2.450078 0.30112300000000003
15480 -2.5478532 28.704462210000003 -10.292445990000001 -1.195422 2.019061 0.944053
15500 -1.14766209 19.176323130000004 -12.77084439 -2.313933 0.440215 0.875238
15520 -2.09743686 9.414519660000002 -8.322391979999999 -2.616312 -0.976528 -0.21144
15540 -2.53063665 6.60726063 -7.15856301 -1.653989 -1.635797 -1.344734
15560 -1.8968517900000001 4.7749194 11.16678186 -0.105519 -1.202719 -1.232992
15580 -2.8038157200000002 11.31422616 5.8303773 -0.824886 -1.510587 0.188454
15600 -3.04242435 19.45713438 -11.2673736 -1.262066 -2.545967 0.283935
15620 -1.6842985200000002 30.532153500000003 -8.351733690000001 -0.685475 -1.1815209999999998 0.359921
15640 0.97911648 10.285412220000001 6.0851429999999995 -0.16103900000000002 2.374159 0.224432
15660 2.3915799 9.421553430000001 2.9746176300000005 0.302892 1.218573 0.295383
15680 -1.34480385 14.00008644 0.07184844 -0.338429 -1.366005 0.107277
15700 -1.24376085 16.15650102 -9.89726976 -1.856046 -10.013878 0.348108
15720 -2.736009 13.02067566 -9.107957160000002 1.840399 6.975049 0.096853
15740 -4.94945892 9.55612701 -4.591550880000001 1.799867 4.161663 0.13008499999999998
15760 -5.21081694 6.245016570000001 0.17229302999999999 -0.524629 -0.622533 0.024907
15780 -3.66812577 3.8384666100000002 4.91532993 -1.759094 -3.42665 -0.15851600000000002
15800 -0.5063922000000001 0.7352693100000001 6.51625326 -1.534091 -6.232686 -0.328537
15820 0.45085779000000004 -5.72844159 1.5838539300000003 1.236777 0.555596 -0.685349
15840 3.1677078600000006 -5.65718175 0.8415508500000001 1.413126 2.999894 -0.444763
15860 5.566772790000001 -0.10583028000000001 3.15289476 3.096019 0.749252 -0.6427
15880 6.8135355 2.6250873300000004 0.44338257000000003 3.493756 1.2512219999999998 -1.043285
15900 3.6241181100000004 3.95776602 0.7261362 3.3714150000000003 0.14990499999999998 -1.513814
15920 1.06503246 6.495740550000001 2.02738365 2.1564 -0.8952450000000001 -0.699499
15940 -2.4670188000000004 12.89418552 -5.354817929999999 0.839348 1.302374 0.185792
15960 -4.25580363 25.41130407 -12.772041210000001 0.471075 0.97881 -0.097308
15980 -3.1174218000000002 21.30324885 -11.141629020000002 0.076132 1.34192 0.547878
16000 -1.57397526 11.275604190000001 -8.84780577 -1.039182 1.52378 1.056874
16020 -3.1000581000000005 7.54177104 -0.62884062 -2.5678400000000003 1.805013 1.050109
16040 -5.03582616 7.4354895 8.81980803 -3.634387 2.034579 0.244403
16060 -5.39418546 10.380461310000001 5.169350070000001 -3.548122 0.105567 -0.944658
16080 -1.8257489100000002 9.57588435 0.3065625 -1.139291 -5.634137 -1.168305
16100 -8.94943737 40.444697430000005 -50.70390714000002 -1.012192 -4.9975260000000015 0.157431
16120 3.0958594200000005 10.058487300000001 15.032637990000003 -1.595424 -1.6954900000000002 1.007976
16140 4.03441155 4.392761040000001 5.967344520000001 -1.567932 0.881342 1.267648
16160 3.60106461 8.45995761 4.51401264 -0.900336 0.939037 0.913315
16180 -2.14803684 15.73183593 4.32361035 0.645259 2.882304 0.322348
16200 -3.8547806400000004 16.98697638 -8.479116540000001 0.740813 1.113299 -0.396835
16220 -4.6886993100000005 17.155678950000002 -12.021203430000002 -0.017572 -1.943491 -0.409966
16240 -5.23117269 14.471456940000001 -8.17494768 -3.105449 -9.238069 -0.770428
16260 -3.2430094200000004 11.315570130000001 -7.89158583 2.222532 2.365572 -0.758763
16280 -4.57913142 7.349867820000001 1.06787736 1.700221 2.171732 -0.582702
16300 0.11735703 3.2226438600000002 6.00910569 -0.278877 -2.575384 0.128471
16320 1.6116947100000003 -2.7140051700000005 6.414611850000001 0.061264 -4.449928 -0.517299
16340 3.1849244100000007 -6.98253237 3.1623221700000004 1.284906 0.6733060000000001 -0.5932970000000001
16360 0.5748071400000002 -2.3493674700000002 3.7673637300000005 1.321007 0.559717 -0.191247
16380 2.9970629100000004 1.50466761 2.8747714500000003 2.187295 0.032768 -0.233659
16400 2.8145969100000006 2.79228897 0.47002653 2.170177 0.105994 -0.149483
16420 1.7564510700000002 5.19793641 -0.48155328000000003 1.872509 0.184475 -0.070478
16440 2.4807920400000003 6.856042230000001 0.14414814 1.133408 -1.053126 0.773045
16460 1.49509305 10.084827149999999 -1.78338933 0.757847 -1.376176 1.1660780000000002
16480 -4.14308673 20.786673869999998 -12.63163068 0.859944 -1.391892 0.7459319999999999
16500 -1.38746754 27.91440405 -12.91364856 0.650686 -0.071953 0.911558
16520 -0.38844657000000005 13.74456537 -8.98536159 0.171561 0.683675 0.973472
16540 -2.37196971 7.14494673 -5.4705268799999995 -0.4552390000000001 0.822025 0.7520680000000001
16560 -6.47284401 5.38070652 -6.417751050000001 -1.0365540000000002 0.539818 0.434312
16580 -6.78868677 7.11785151 11.35059183 -1.372601 -0.241796 0.118909
16600 -7.303466520000001 12.202923870000001 5.7811311000000005 -1.39757 -1.013444 -0.5607340000000001
16620 0.5263065 8.306676359999999 -0.15223158 -1.088467 -2.119067 -1.127589
16640 0.6969514500000001 19.68541308 -10.754987490000001 -1.029025 -1.971222 -1.388009
16660 -2.3831923500000003 37.867806630000004 -5.344635149999999 -1.271385 -1.279824 -0.654583
16680 3.5458245 6.91068393 5.40930267 -0.8930610000000001 -0.93647 0.264154
16700 4.87715922 6.622829100000001 -1.1696659200000001 -0.102172 -1.257962 0.5884199999999999
16720 -4.842127710000001 14.561865900000003 -6.7818001500000005 -0.059082 0.549554 0.881234
16740 -1.14122673 16.1063523 -8.2279413 0.398997 0.71053 0.7207899999999999
16760 -0.25492266 11.244761550000002 -6.52897683 0.913916 -0.6525449999999999 0.155703
16780 -0.025143030000000004 7.653281310000001 -2.21105628 2.076079 0.344531 -0.578803
16800 1.08958689 4.46491359 -0.20327301 2.30702 0.106504 -0.927262
16820 -1.0870362900000001 1.4198013 2.6210456100000004 -0.4911930000000001 -2.395778 -0.645567
16840 -0.347274 -0.12678444 4.25669634 -0.381154 0.742066 -0.626387
16860 1.60346412 -4.26673197 3.45407157 -0.695045 1.574454 -0.456594
16880 -0.11795544000000001 -0.9503731800000002 1.4233917600000001 0.335244 -2.49651 -0.41427
16900 0.46732878 3.5188862400000005 0.23875578 1.081465 -2.742716 -0.762324
16920 1.19781081 7.438628700000001 -0.58887468 -0.282085 -3.100467 -0.159299
16940 -1.10021112 11.145670740000002 1.25259966 -1.407325 -2.153144 0.475765
16960 -3.55061178 16.570689030000004 1.73743929 -1.574231 -1.562224 0.697101
16980 -3.2698005300000004 15.707732759999999 -1.60002081 -1.7001540000000002 -1.824724 0.916611
17000 -3.56273694 11.84247504 -3.4323620400000006 -1.926409 -2.16437 1.068222
17020 -5.357957129999999 11.467203300000001 -6.098317830000001 -2.282737 -2.17267 1.055061
17040 -5.36589342 13.245805350000001 -8.96485869 -2.621251 -2.353312 0.702551
17060 -3.3184483200000003 14.276414520000001 -9.09343836 -2.249909 -1.960178 0.36922
17080 -0.45011223 17.705480400000003 -10.53269289 -1.696718 -1.042269 -0.02013
17100 -0.39352815 13.54428441 -12.882805920000001 -1.376272 -0.280617 -0.292333
17120 -1.33237458 10.56982374 -8.889115680000002 -1.373083 -0.117354 -0.36409
17140 0.39068325000000004 6.6385447200000005 -5.4664851599999995 -1.372495 -0.777509 -0.443357
17160 0.45071064 2.90007144 -4.279298580000002 -1.411744 -0.69123 -0.407422
17180 -0.41449212 3.1350798000000006 -6.47748414 -0.910111 0.402674 -0.5420520000000001
17200 -5.21036568 13.47258312 17.53918128 -0.264324 0.232017 -0.781946
17220 -9.763147440000001 13.139072550000002 6.33497427 0.175931 -0.139914 -0.593591
17240 0.08741691000000001 10.57760307 2.8897415100000003 0.653863 -1.363445 -0.8589450000000001
17260 4.4501004900000005 14.979654180000002 9.76972995 1.419232 -1.948119 -1.296162
17280 -4.46506074 33.59449215 -9.57199959 2.542038 -1.624946 -1.30262
17300 -1.555866 16.72442154 1.7304055200000004 3.878846 -1.757755 -0.951281
17320 -1.35333855 11.07247833 3.3513804900000004 3.860887 -3.262117 -0.355548
17340 -0.9801661500000001 12.57953958 2.4381283500000004 3.43087 -3.697594 -0.304582
17360 -0.36823797 13.01842917 1.0741655700000001 3.413793 -1.459695 0.037466
17380 0.38364948 11.49474978 1.0493168400000001 3.235518 0.134974 0.470012
17400 0.2083644 9.75431844 0.97641873 2.751666 -0.006964 0.686868
17420 -1.3686029100000001 8.03469411 1.21996179 2.183847 -0.630975 0.586493
17440 -3.63503664 6.75664731 0.1793268 2.285415 -1.193251 0.451191
17460 -4.11584436 5.610780450000001 -1.59179022 2.271038 -1.709084 0.5233220000000001
17480 -4.3824409200000005 4.22586351 -2.14204293 1.7599189999999998 -2.620359 0.815749
17500 -4.639001850000001 4.458183930000001 -1.7265109500000002 1.434087 -3.9102 1.045862
17520 -3.4623021600000006 5.17159656 0.32512302000000004 1.521994 -4.534732 1.039799
17540 -2.18501073 5.762413620000001 -0.28769787 1.72921 -6.079296 1.105182
17560 -0.8975365200000001 8.20923363 -2.04445305 2.054622 -6.515209 1.143265
17580 -1.1530477800000003 10.19380644 -2.21838435 2.182993 -5.7199230000000005 1.15062
17600 -0.26135802 11.62527183 -3.21426612 2.103296 -4.868763 1.218407
17620 0.79305021 14.52579453 -4.58466426 2.17876 -4.399473 1.277085
17640 -0.03592422 14.324758200000002 -3.40676775 2.06618 -3.694338 1.393968
17660 0.12094749 14.75451468 -2.64694401 1.7943619999999998 -3.274194 1.522922
17680 2.95754823 16.839080820000003 -1.5658918200000003 1.241099 -2.822112 1.634915
17700 5.2115625 19.646948070000004 0.3671883 0.902429 -3.003845 1.554802
17720 6.7719214800000005 16.121773620000003 1.71168804 0.675782 -3.0789150000000003 1.343943
17740 0.13157172 16.02447804 5.20991442 0.427862 -2.985262 1.049399
17760 -1.91257722 11.1808494 6.9847788600000005 0.165847 -2.931018 0.7654880000000001
17780 2.21644197 10.586883330000001 7.49102391 0.060398 -2.869069 0.54996
17800 -0.30686661000000004 12.89044791 5.648656860000001 0.180114 -3.096229 0.510495
17820 -2.5270461900000005 14.108908770000001 3.39748749 0.538221 -3.0670330000000003 0.624054
17840 -0.80847153 13.977180090000001 3.09511386 0.917141 -2.740451 0.676488
17860 1.78833357 12.469667580000001 3.33760725 1.06676 -1.968551 0.919031
17880 2.47256145 11.07172296 2.85262047 1.299103 -1.566499 1.139124
17900 2.2598512200000003 10.006994610000001 3.3025855500000003 1.03703 -1.863173 1.231677
17920 1.64852145 9.2805543 3.5097531300000004 0.731412 -1.556352 0.692902
17940 2.00193651 8.27344989 4.06674531 1.159356 1.635099 -0.180936
17960 1.46665386 8.773857990000002 5.22593415 1.323806 0.389806 0.2053
17980 1.40992263 8.768619450000001 5.32772271 0.171029 0.558846 0.489724
18000 1.04422545 9.12622338 3.95687331 -1.382598 1.471596 0.020503
18020 -1.2552876 9.576335610000001 2.09399355 -1.821726 3.101055 -0.826411
18040 -2.8918408500000004 10.203979409999999 1.33537644 -2.221057 1.869929 -0.563772
18060 -3.68025093 9.60312672 0.68587596 -0.844076 0.424844 -0.017123
18080 -3.82005324 8.2598238 0.59141547 -0.459553 -0.478575 -0.067758
18100 -3.2741365500000006 7.13072223 0.73617183 -0.70717 -1.420599 -0.039439
18120 -1.69417719 6.5092096800000006 0.35446473 -1.050689 -2.501176 -0.17718599999999998
18140 -1.3073787000000001 5.83800948 -0.13486788 -1.072588 -2.304472 -0.331415
18160 -1.32669459 6.211329030000001 -0.8523320400000001 -0.885233 -1.735954 -0.142828
18180 -1.4480933400000002 7.51437171 -2.58437583 -0.8546940000000001 -1.724638 0.197066
18200 -1.67023098 8.9711469 -4.31942148 -0.693567 -1.328467 0.351507
18220 -1.70271189 10.321336440000001 -6.10295796 -0.545094 -0.672392 0.256632
18240 -0.60563997 12.052183410000001 -8.62192071 -0.240212 0.185304 0.221343
18260 -0.21316148999999998 13.222457550000001 -10.284362549999999 0.548597 0.026935 -0.018635
18280 0.11675862 13.40298117 -6.75336096 1.366235 0.4295390000000001 -0.176878
18300 0.7553307600000001 11.485910969999999 -6.0653856600000005 2.154454 1.264369 -0.240808
18320 -0.25267617 7.4226187800000005 -5.908661100000001 2.758892 1.801559 -0.30457199999999995
18340 -1.42069401 10.639278540000001 -11.70416385 2.242482 1.88714 -0.213217
18360 -1.60346412 26.755656660000003 1.53551025 1.589343 1.185156 0.077949
18380 -2.64335355 12.41788059 11.652671159999999 1.209489 0.082587 0.408926
18400 -5.14824876 -4.987178370000001 10.98251082 0.8915549999999999 -0.486912 0.312363
18420 -2.88405171 -5.18372172 1.61858133 0.7254619999999999 0.506742 0.5182329999999999
18440 0.08801532 4.59693657 4.76099901 0.345848 0.539116 0.743071
18460 -1.58041062 18.4281831 1.9085355000000002 -0.604083 0.255695 0.781664
18480 0.82239192 22.17713346 -2.86219503 -1.972712 0.12576099999999998 0.363142
18500 1.49973318 14.8911876 -1.06518942 -2.83041 -0.347688 -0.373975
18520 -1.51035741 9.71659899 0.6195603599999999 -2.932024 -0.540996 -1.226878
18540 -2.24712765 8.3235888 0.48723327000000005 -1.01439 -2.030522 -0.425363
18560 -1.06249167 8.92249911 -0.30835773000000005 -0.811612 -3.249167 0.721681
18580 -0.50310585 11.85190245 -1.3796784000000002 -0.447472 -2.550092 0.875016
18600 -1.12355892 14.08615938 -2.2097025 0.420197 1.05399 0.858298
18620 -1.95852726 12.228969420000002 -3.14750907 0.245874 4.0216 1.071195
18640 -2.5234557300000002 9.561512700000002 -3.3624559800000005 0.358647 2.967459 0.321306
18660 -3.2322282300000005 9.433678590000001 -3.60704871 -0.304316 -3.581713 -0.204771
18680 -2.7390010500000006 10.57685751 -4.288578840000001 2.493459 1.538707 -0.142652
18700 -1.92693906 10.11611124 -6.916069620000001 1.889697 1.756274 0.051541
18720 -2.0031333300000003 9.159155550000001 -7.34447232 -0.201358 -0.549272 0.337924
18740 -2.51417547 6.290672310000001 -3.9109134600000006 -1.487509 -1.456371 0.258531
18760 -1.4566182300000001 2.79543798 0.9391505400000001 -0.226778 -0.769817 -0.164036
18780 -1.4111194500000002 -0.33425613 5.08956534 0.401027 0.424694 -0.259457
18800 -0.16061913 -4.25595078 5.55299955 1.147889 1.542011 -0.334721
18820 1.2814803000000001 -5.582939669999999 3.36006234 2.188807 0.940943 -0.37475
18840 4.30938585 -1.6486686 2.33499582 2.641859 0.5284260000000001 -0.7032729999999999
18860 5.679636840000001 1.4226462000000002 1.37309589 2.488923 0.493395 -1.133722
18880 3.8598720300000005 0.88929612 1.5751720800000002 1.438245 -0.241746 -0.7309899999999999
18900 1.67920713 2.3117951700000003 -0.17499078 0.4201180000000001 0.171274 0.227042
18920 0.8562168 5.053641120000001 -0.66147849 -0.007645 1.660638 0.038411
18940 -3.13373583 11.54100393 -0.40730139000000004 -0.3104 1.7619650000000002 0.801013
18960 -6.70770522 25.51309263 -6.131397150000001 -1.7399810000000002 1.82873 1.32719
18980 -1.23852231 29.65333446 -13.899200400000002 -2.747854 1.090047 0.981401
19000 -2.1176454600000003 13.214217150000001 -7.3467188100000005 -3.266425 0.7888609999999999 -0.503459
19020 -4.298908770000001 9.596995470000001 -8.522525790000001 -2.54373 -1.701525 -1.186359
19040 -9.44745183 12.26804265 4.23753741 -0.23007800000000006 -4.021514 -0.308375
19060 -8.46070317 12.03122925 7.4783003400000005 -0.354581 -2.119911 0.5760109999999999
19080 -2.5721035199999998 14.021040600000001 -1.7402841900000001 -1.496956 -1.161024 0.998365
19100 -1.6603425000000003 35.02581039 -17.59591251 -2.05138 2.177939 1.64717
19120 1.91870847 13.576912470000002 8.039334240000002 -0.853007 4.367806 0.694539
19140 3.14586099 6.78868677 3.4958327400000004 0.106622 1.35594 -0.053336
19160 -2.16779418 9.897416909999999 1.1374891200000001 0.836208 -1.343893 -0.5788909999999999
19180 -4.01360454 14.97501405 -2.37106719 -0.352748 -6.050848 -0.206218
19200 -1.89371259 12.394071720000001 -5.169350070000001 1.741877 4.788363 0.36709
19220 -2.5035414300000003 11.446700400000001 -8.073914490000002 1.70825 2.872467 -0.0034990000000000004
19240 -3.46859037 11.5710912 -7.57903923 0.593025 -0.8984280000000001 -0.14746199999999998
19260 -3.30093747 9.45553527 -5.19749496 -1.532786 -2.240496 0.051985
19280 -3.75823062 4.89706371 -1.07521524 -2.158139 -3.042486 -0.245117
19300 -1.26052614 1.4129146799999999 5.44971987 -0.951781 -1.597308 -0.391298
19320 1.7730594000000002 -4.078419210000001 5.861661389999999 -0.213396 1.415341 -0.244722
19340 3.1840317000000002 -8.60365449 2.43558756 1.236115 1.169111 -0.39772
19360 4.66011297 -2.91892626 1.89700875 2.810591 0.6436350000000001 -0.6231939999999999
19380 5.12443989 1.73010141 0.58049694 3.58484 1.131476 -1.013653
19400 3.01742847 4.05266796 -0.87118686 3.42014 0.732755 -1.326213
19420 3.44418309 7.43953122 0.23321313 2.888874 -0.448568 -0.616975
19440 0.19774017000000002 14.497649640000002 1.20933756 2.181333 0.247831 0.600305
19460 -5.1163564500000005 19.89018702 -5.30376669 1.2812 1.208784 0.296888
19480 -3.8251446300000005 26.32051449 -10.41923043 0.717532 1.562682 0.728332
19500 -0.2137599 13.20314166 -10.969335990000001 -0.627794 0.977889 1.083948
19520 -2.6476895700000003 8.352027990000002 -11.17051947 -1.844362 0.484441 1.129494
19540 -5.707477620000001 5.76930024 -0.19010799 -2.898245 0.206898 0.32239
19560 -7.687410300000001 9.11948391 6.94885464 -3.14095 -0.588477 -0.361948
19580 -6.15535317 16.177308030000003 3.99009978 -2.92088 -2.504391 -0.6816270000000001
19600 -0.9104072400000001 11.9704563 0.57375747 -2.506972 -1.372091 -0.485771
19620 3.60061335 23.759790570000003 -24.497306370000004 -1.947193 -1.02834 0.176792
19640 0.61446897 19.63302768 3.65136048 -2.030842 -0.122447 0.945235
19660 2.11375089 6.5848055400000005 6.64258644 -1.373466 0.338974 1.135106
19680 2.0122664400000003 8.60725476 2.67808095 0.294091 1.412421 0.311097
19700 -2.06734959 12.915738090000001 3.8535838200000003 -0.0045850000000000005 0.953139 0.07459
19720 -1.6980717600000002 14.138250480000002 -2.90770362 -0.210261 -2.19475 -0.279599
19740 -0.70009065 15.338454930000001 -7.222180860000001 2.39994 -0.549837 -0.176948
19760 -1.76662404 15.4035639 -9.564956010000001 1.853595 6.319872 -0.172476
19780 -4.15236699 12.84224157 -8.11388043 1.153319 2.258036 -0.11341
19800 -4.27585527 8.79959943 -8.628954479999999 -1.470942 -2.216557 -0.393062
19820 -3.75150096 5.14704213 -1.9570263300000001 -2.1425650000000003 -4.398558 -0.796609
19840 -1.54553607 4.49664894 5.32322973 0.8603129999999999 -4.30516 -0.117729
19860 0.28231218 2.62479303 7.95235878 1.1414030000000002 2.275845 -0.29404600000000003
19880 2.3005627200000003 -2.41867512 1.91796291 2.160362 2.1684 -0.414977
19900 3.4344613800000006 -4.1556631500000005 2.25954711 3.245101 0.857547 -0.947309
19920 3.0039495300000003 0.09684432000000001 3.3991355700000003 3.098615 0.34636500000000003 -1.389921
19940 5.307965370000001 3.40646364 1.66064661 2.292976 -1.80466 -0.900342
19960 2.40804108 4.36327218 0.01062423 1.207381 0.46447 0.548359
19980 1.97619507 5.73906582 -0.18800865000000003 0.401747 1.92951 0.376348
20000 -2.38379076 7.68247587 -1.6208278200000001 0.31650500000000004 1.207796 0.580708
20020 -5.15288889 14.494804740000001 -6.34845321 -0.78967 0.963858 1.003787
20040 -1.82889792 21.24771444 -9.558373500000002 -1.997766 1.162722 0.80495
20060 -0.7984359000000001 20.83053438 -11.0621484 -2.809121 0.571866 0.08433099999999999
20080 -0.37063161000000006 10.951825140000002 -8.41714677 -2.508497 -1.392763 -0.642783
20100 -4.52448972 8.56009809 -5.07489939 -0.532107 -3.918915 -0.662061
20120 -3.36455532 7.36408251 7.9848495 -0.985258 -2.61557 -0.131717
20140 -3.3431499 10.86096492 5.57635716 -1.656739 -1.563536 0.298079
20160 -1.2148704000000001 11.34924786 -0.50774598 -1.3920860000000002 -0.926952 0.447595
20180 -5.29538895 49.74754986000001 -36.98673129 -0.184766 1.955026 0.098753
20200 1.4664969 3.5572041 12.688518870000001 0.155144 1.981159 0.461085
20220 3.7143799200000003 2.9228208300000005 4.12048449 -1.622553 -2.852188 0.185669
20240 1.9910081700000002 11.81688075 2.58078537 -2.417017 -8.525303 -0.5924119999999999
20260 -1.03285566 19.24308018 2.26374579 1.537507 3.363615 -0.933606
20280 -1.9863680400000001 17.88540561 -10.926230850000001 0.888359 1.571312 -0.244704
20300 -1.9715549400000003 13.82075964 -10.77788403 -0.8000649999999999 -1.857151 0.254233
20320 -6.28393284 10.39423455 -5.014872 -0.978698 -4.732234 -0.147119
20340 -5.5402759800000005 6.15700125 -1.91002662 2.381993 -0.698036 -0.129882
20360 -4.04847909 4.4771859 2.66296374 1.848926 -1.004382 -0.047755
20380 -0.057329639999999994 3.63668472 5.755527000000001 2.363294 0.117003 -0.139603
20400 2.9823969600000004 -2.83839597 4.08904344 1.7987259999999998 1.069023 -0.098833
20420 5.11860294 -6.502480020000001 1.3364163 1.0084 0.713688 0.202682
20440 2.42870094 0.30910329 2.77223733 -0.072032 -0.971357 0.816863
20460 2.5857198000000006 2.4984500400000003 0.53812755 1.1291870000000002 -2.562332 0.43846
20480 1.12355892 5.8594149 1.27684017 0.996265 -2.631723 -0.207586
20500 1.9097323200000003 9.281751120000001 1.5988239899999999 0.45728 -1.438012 -0.157333
20520 1.26427356 11.295361530000001 -0.5749542900000001 0.344802 -1.083762 0.061481
20540 -1.8934084800000002 17.223779970000002 -10.50156576 -0.57589 0.19743 0.144207
20560 -2.00358459 21.636161010000002 -13.110034950000001 -1.047561 1.887001 -0.522482
20580 -1.51035741 14.55992352 -10.8051264 -1.268333 -0.419494 0.243779
20600 -2.07617859 10.15683255 -9.55148688 -1.729494 -1.972906 0.170977
20620 -2.70742266 5.05887966 1.6278615900000002 -0.8974709999999999 -4.7133980000000015 -0.398676
20640 -2.7440924399999997 3.3281798400000002 10.97921466 0.562883 -1.426834 -0.379868
20660 -5.40690903 10.96380315 3.15289476 0.391046 0.919661 -0.154407
20680 -3.0620345400000004 16.40992275 -5.25811095 0.559735 1.425281 0.327891
20700 -1.57846824 57.08873583 -30.34579293 0.7636229999999999 1.291096 0.407467
20720 2.4059515500000006 7.743101670000001 7.64250993 0.763999 1.57333 -0.108843
20740 6.1430710500000005 5.36094918 4.7259675 1.762004 0.3236 -1.46439
20760 0.7707520800000001 11.324399130000002 -5.144952600000001 0.886403 -0.217998 -1.129049
20780 0.9632439 19.30700214 -10.60484544 -0.375391 0.621583 -0.6048279999999999
20800 -1.518588 12.66785901 -6.62297625 -2.071398 -2.88547 -0.159254
20820 -3.8687010300000004 7.93080621 -2.6887051800000004 2.0283740000000003 -0.238148 -0.278219
20840 -1.8857763000000003 3.57262542 1.79716257 0.489109 -1.096639 0.225944
20860 -1.28208852 0.93555027 2.7137108700000003 -1.631569 -0.407845 0.841567
20880 -0.022906350000000002 -2.3760114300000006 6.48810837 -2.933539 -0.910591 0.8886649999999999
20900 0.7132654800000001 -5.8101687 7.31514042 -2.757335 -2.511563 0.435816
20920 1.5929870400000001 -2.2722706800000005 1.5669414900000003 -1.456389 -2.611207 0.25061500000000003
20940 2.0660056200000003 1.9743900300000001 -0.9888480000000001 -1.582018 -1.675057 0.416248
20960 3.61422963 5.250478770000001 -0.036826740000000004 -2.084791 -0.6553140000000001 0.783171
20980 0.5204695500000001 8.32972986 0.74799288 -2.549512 -0.378505 0.9601
21000 -2.9240176500000006 9.78201207 3.72275766 -2.14204 -0.811711 0.782971
21020 -11.45328291 23.855595030000003 2.84827464 -1.756834 -0.6276470000000001 0.240633
21040 -7.19688087 15.004797210000001 -3.2518384200000003 -1.57302 -0.736341 -0.175618
21060 -6.202951290000001 12.085272540000002 -8.84570643 -1.47027 -0.8764569999999999 -0.389434
21080 -5.72484132 13.61373921 -17.179173900000002 -1.596435 -1.1711120000000002 -0.386733
21100 -1.26755991 15.39009477 -13.842312210000001 -1.565976 -0.7336699999999999 -0.316578
21120 -1.6103507400000001 12.75393195 -11.14597485 -0.8530129999999999 1.844219 -0.648187
21140 -1.2807347400000002 7.822729440000001 -7.41153348 0.355318 3.015617 -0.795071
21160 -3.06921546 4.639149 -12.96918297 0.067689 0.15689 -0.664162
21180 -6.598873080000001 12.437490780000001 8.42432769 -0.406976 -2.836337 -0.834558
21200 1.6489727100000002 9.87825798 19.25610786 0.191886 -2.67377 -0.98227
21220 -0.45759726 13.234425750000002 10.418033609999998 0.926341 -1.2049729999999998 -1.031365
21240 -0.44068482 19.872372060000004 3.17789064 1.685706 -1.651015 -0.701818
21260 -1.87589763 34.73840682 -19.46312829 1.927117 -3.725824 -0.465669
21280 0.16361118 14.520850290000002 5.628742560000001 2.567695 -5.040738 -0.929527
21300 -1.1437675200000001 11.63949633 6.841670580000001 3.167737 -2.806805 -0.929267
21320 -2.6807787000000003 13.40626752 6.23588346 3.185009 -1.019439 -0.37062
21340 -3.35692314 13.561049700000002 1.3135197600000001 3.042237 -0.8562209999999999 0.227446
21360 -1.87051194 13.44983373 -2.62658826 2.924896 -2.0889830000000003 0.6544270000000001
21380 -0.16466085 11.181899069999998 -2.06839926 2.820337 -2.920123 0.5351199999999999
21400 1.12266621 8.52386976 0.8752285799999999 2.307202 -2.518636 0.211623
21420 0.6704546400000001 5.926476060000001 0.7499450700000001 1.967671 -1.976795 0.33567600000000003
21440 -2.0420496000000004 5.023406700000001 -0.67629159 1.728595 -1.5644870000000002 0.531099
21460 -5.10678189 4.60621683 -2.18889549 1.153674 -2.057534 0.7189260000000001
21480 -5.25602142 3.9446010000000005 -1.0554579000000002 0.55766 -3.272507 0.8423700000000001
21500 -4.00342176 4.23679185 -0.25042968 0.97497 -4.868803 0.8751040000000001
21520 -2.4400805400000003 6.05940156 -0.40057173 1.323048 -5.693841 0.702336
21540 -1.43865612 9.73784745 -2.6707430700000003 1.512987 -6.436848 0.665091
21560 -1.81153422 11.770028190000001 -4.71309678 2.208993 -6.4240580000000005 0.593024
21580 1.0181799 10.664274420000002 -3.69192483 2.431216 -6.006735 0.466923
21600 1.9091339100000002 11.07936495 -1.29885381 2.317807 -5.464671 0.605374
21620 1.35018954 12.866344740000002 0.6637151700000001 2.333138 -4.574518 0.696207
21640 2.15507061 11.386967310000001 -0.27363033000000003 2.367277 -3.845946 0.951885
21660 3.6625831200000003 11.769871230000001 -2.6186519699999997 2.184052 -3.3613510000000004 1.136923
21680 5.322631320000001 13.454768160000002 -0.91490022 2.044595 -3.289507 1.14013
21700 7.75776762 16.64373429 4.62223656 1.7791689999999998 -3.139949 0.999215
21720 4.863984390000001 17.935407180000002 5.821244190000001 1.479531 -2.919249 0.945565
21740 -4.094134830000001 14.814846180000002 2.8615966200000003 1.09992 -2.4224810000000003 0.920912
21760 -0.9033734700000001 11.510759700000001 1.51619436 0.543257 -1.825317 0.984625
21780 1.7326422000000001 11.455529400000001 3.42622098 -0.139571 -1.575858 0.997696
21800 3.90971664 11.994559470000002 6.56954118 -0.515548 -1.794566 0.8725040000000001
21820 3.21247089 13.0637808 6.8036470200000005 -0.255386 -2.498839 0.678671
21840 2.03636961 15.44802282 5.80014288 0.466516 -2.759292 0.983149
21860 0.67748841 14.62773024 4.64543721 0.6652560000000001 -1.697978 1.268393
21880 0.49067658000000003 12.863352690000001 3.77874333 0.88664 -1.186972 1.424177
21900 1.4635048499999999 11.80296036 3.17968587 1.304616 -1.619191 1.52379
21920 2.6039860200000002 11.24117109 3.6961137 0.411088 -3.411136 1.270949
21940 2.87402589 10.792559790000002 4.47284988 -0.380902 1.177629 0.471189
21960 3.7293401700000004 9.92525769 5.92872255 1.756721 1.880781 -0.8650129999999999
21980 2.6836236 9.29596581 5.528150820000001 2.02715 -2.427541 -1.012495
22000 3.0394323 8.54662896 6.41985039 -0.131977 -0.068333 -0.378985
22020 4.10700555 8.67415896 4.81727898 -1.508256 2.709045 0.4955350000000001
22040 2.7792711000000003 9.94457358 2.20042224 -2.002941 3.923367 0.680667
22060 -1.3558793400000002 9.19103805 2.39741685 -1.964213 2.207577 0.55495
22080 -1.7980650900000001 8.90348733 2.00792061 -1.669844 0.70665 0.022682
22100 -1.52443476 9.30509892 2.32406748 -1.166452 -0.290262 -0.459634
22120 -1.5919373700000001 9.42215184 2.15282412 -0.682534 -1.775082 -0.656245
22140 -1.7929737 9.13206033 1.7866854900000002 -0.634889 -2.311162 -0.635997
22160 -1.7125905600000002 8.51324553 1.1906200800000002 -0.996827 -2.127755 -0.633419
22180 -0.7533785700000001 7.1636544 0.5748071400000002 -1.476464 -1.761752 -0.371251
22200 -0.8183502000000001 6.4289835 0.8870594400000001 -1.799862 -1.290722 0.13008699999999998
22220 -1.53341091 5.6510505 0.99288972 -1.466496 -0.404764 0.195374
22240 -2.2927833900000003 4.834044270000001 -0.70892946 -1.078012 -0.16207 0.172139
22260 -2.8801571400000006 5.119652610000001 -4.34202372 -0.8078420000000001 -0.572116 0.183097
22280 -3.2548304700000004 7.684418250000001 -8.98596 -0.144064 -0.404616 0.07749199999999999
22300 0.5321434500000001 12.891193470000001 -12.46442904 0.576335 1.013135 0.018751
22320 1.62801855 14.361584940000002 -12.221631540000002 1.54702 1.972555 0.074508
22340 -0.7667103599999999 13.12634898 -9.01814661 2.781087 1.981775 0.162165
22360 -0.0023936400000000003 10.276583220000001 -7.11964674 3.085234 2.2513490000000003 0.416044
22380 2.4644780100000006 6.44933925 -13.25852892 2.841745 2.393095 0.610715
22400 2.294872920000001 5.92138467 3.94534656 2.2688040000000003 0.087412 0.681238
22420 -1.2323910599999999 22.154079960000004 5.77214514 1.875924 -2.395023 1.106827
22440 -12.95376165 25.368198930000002 1.3600682099999999 1.554671 -2.117201 1.172593
22460 -1.77066576 -1.88697312 9.60507891 0.81282 0.055616999999999986 0.570696
22480 0.7908037200000001 -3.99354309 2.3635821600000004 -0.104509 0.320827 0.311848
22500 3.60121176 6.123764970000001 3.0386769300000003 -0.763759 0.397247 -0.111598
22520 -0.03891627 15.748002810000001 0.7595196300000001 -1.739146 1.137154 -0.748542
22540 2.5532388900000003 17.61956442 -0.8370578700000001 -2.47878 1.148586 -1.63287
22560 4.12721415 14.49016461 0.73916388 -2.499895 -1.495788 -3.386854
22580 1.1900216700000001 10.983707640000002 -0.06541308000000001 0.06829 -6.198118 -0.5053949999999999
22600 -1.0033668 8.80095321 0.48244599000000005 -0.8872120000000001 -1.766143 0.747026
22620 -2.39397354 8.127800820000001 -0.43140456000000005 -1.637266 -0.295791 0.7965180000000001
22640 -3.2515343100000003 9.365871870000001 -1.01384388 -1.652621 -0.026726 0.922117
22660 -2.5445570400000004 11.370957390000001 -1.7756100000000004 -0.970343 3.988394 0.30751
22680 -0.6481565100000001 11.113189830000001 -1.7115408900000002 0.041829000000000005 3.251563 -0.121379
22700 0.09145863 9.97136469 -1.3578217199999998 0.69892 1.576741 -0.106097
22720 -1.01922957 10.87638624 -2.7801638100000003 -0.014386 -5.13327 0.205167
22740 -1.9486485900000001 12.16355634 -5.1819264899999995 2.453272 5.388128 0.545411
22760 -1.9634715 12.3809067 -7.6350248999999994 1.433991 1.56283 0.603013
22780 -2.4798895200000004 11.689645050000001 -6.766378830000001 -1.191881 -0.985489 -0.004926
22800 -2.6737351200000004 10.77204708 -6.64408737 -2.471573 -1.803436 -0.007475
22820 -0.41119596 9.174724020000001 -6.282588870000001 -2.0115220000000003 -3.966071 0.157674
22840 -0.19145196 6.270159600000001 -2.10851235 -0.303381 -4.7175150000000015 0.115021
22860 -0.3153915 3.82229973 4.68001746 0.557268 0.900748 -0.363662
22880 0.62420049 -0.11047041 8.28976392 0.960964 2.611411 -0.404695
22900 1.4462883000000002 -6.380934120000001 5.001550020000001 2.139081 1.550286 -0.333149
22920 0.89678115 -7.382947140000001 3.7068948900000005 2.884714 1.54854 -0.542651
22940 3.5266655700000005 -2.9671326000000002 1.91661894 2.846393 1.306842 -0.805392
22960 3.26785815 -0.54785907 3.04287561 1.950902 -0.207912 -0.57897
22980 1.1662226100000002 0.15148602000000003 1.60436664 0.81306 -0.679226 0.255445
23000 -0.6773412600000002 3.7419165899999998 -0.15507648000000004 0.529253 -0.3155 0.384388
23020 -3.1085829900000004 8.063878859999999 -0.52436412 0.429393 1.2973 0.477764
23040 -7.40854143 27.57295719 -3.80538729 -0.695051 2.337637 1.028325
23060 -6.3797373 38.36417301 -9.1649925 -1.871951 1.659718 1.083998
23080 -4.631369670000001 14.766041430000001 -10.099051650000002 -2.308211 0.20478 0.074414
23100 -3.34583784 9.76464837 -10.41294222 -1.63946 -1.699653 -0.84035
23120 -5.87917224 7.26304932 -5.71211775 -0.383836 -3.032999 -0.958058
23140 -7.022792610000001 13.206437820000001 6.35369175 -0.388593 -1.190893 0.049018
23160 -2.36613276 13.317202530000001 7.06680027 -1.225123 -0.748812 0.509421
23180 1.6844456700000001 11.288474910000001 4.2430800600000005 -1.717216 -0.211744 0.627073
23200 1.7781507900000002 46.563675119999985 -36.94137966 -0.712187 2.407338 0.396797
23220 3.2686037100000003 5.3251721100000005 12.54660741 -0.649556 0.793924 0.755019
23240 3.2497390800000003 1.9625689800000001 4.1715259200000006 -0.569028 -0.472301 0.322438
23260 1.8152718300000001 9.54010728 4.09024026 -1.416511 -3.040475 0.206578
23280 -3.15828045 19.896779340000002 4.35204954 2.6737490000000004 4.17156 0.360503
23300 -0.9535123800000002 14.68895445 -2.8247796899999997 2.567229 6.004622 0.255929
23320 -3.64536657 13.493537279999998 -8.05490271 0.750382 0.88874 0.339524
23340 -6.336622350000001 12.125385630000002 -8.70335352 -1.803909 -2.159254 -0.315345
23360 -4.61430027 10.670856930000001 -7.69819149 -2.588921 -3.514826 -0.298795
23380 -1.9766365200000002 8.625962430000001 -5.90057766 -1.21016 -6.985034 -0.27724
23400 -0.9741722400000001 4.91787072 -1.35872424 1.416043 1.584797 -0.61064
23420 -2.13770691 3.30019191 2.43468504 1.033944 3.086763 -0.261652
23440 0.31299785999999996 1.96570818 7.98753744 3.0191380000000003 1.721857 -0.844241
23460 1.7812998 -2.9816514 5.224138920000001 3.560363 1.967252 -1.142014
23480 1.62022941 -5.710773780000001 1.31172453 2.905139 0.501614 -1.15219
23500 2.70083034 -2.430192060000001 1.8309972600000002 1.535279 -1.398813 0.027472000000000003
23520 4.837487580000001 1.06174611 0.68632722 1.000816 0.053151 0.757883
23540 3.05036064 4.59664227 -0.72913806 0.293422 1.285676 0.571901
23560 2.06181675 7.59999339 1.25200125 -0.5777439999999999 2.051993 1.230336
23580 -4.00342176 14.704071660000002 -0.9806076 -2.079075 1.336917 1.268835
23600 -3.0985571700000003 23.17914648 -10.60919127 -2.803256 0.5195960000000001 0.629232
23620 -1.4624551799999999 23.40383472 -8.33676363 -2.808577 -0.154328 -0.528962
23640 -2.74947813 11.249254530000002 -11.544447240000002 -2.510741 -1.991259 -1.21994
23660 -2.35580283 7.954163820000001 -8.18362953 -1.395384 -1.076222 -1.112909
23680 -2.82447558 5.57470908 5.79864195 -0.690132 -0.629505 0.047261
23700 -4.76998497 8.725210200000001 7.13341998 -1.169047 -1.392284 0.206194
23720 0.28800198 10.08123669 5.65164891 0.122417 3.626436 0.366881
23740 -0.55204794 16.555277519999997 4.00298031 0.083297 2.583405 0.432038
23760 -9.031468590000001 50.42189907000001 -34.26150348000001 -0.118784 0.23977 0.08218400000000001
23780 1.7318966400000002 2.6948462400000004 12.51936504 -1.623925 -4.858159 -0.330925
23800 3.98096667 0.07380063 5.94443817 1.336948 0.8704799999999999 0.13534200000000002
23820 0.65323809 9.238037760000001 5.60688588 1.346732 4.487948 -0.087143
23840 -3.98381157 17.51148765 4.6246302 0.331753 0.191798 -0.03318
23860 -1.3584299400000002 18.85988196 -9.67288563 -1.336322 -2.759542 0.212119
23880 -1.12401018 17.53153929 -12.04529679 -0.031715 -3.614003 -0.357718
23900 -9.031174290000001 12.63208194 -9.40882986 1.005357 0.95319 -0.54647
23920 -4.931791110000001 9.04134726 -5.55928776 1.006885 2.269975 -0.041809
23940 -1.9413107100000002 4.9614369300000005 -0.45535077 1.995445 1.478037 -0.256079
23960 -0.40535900999999996 3.81017457 4.8100980600000005 2.36686 1.01332 -0.513536
23980 0.9365999400000001 1.9263406500000002 8.07810336 2.219478 -0.013028 -0.796329
24000 2.2674834 -5.553902070000001 0.7851139200000001 1.219226 -1.400173 -0.1574
24020 3.44882322 -5.70374001 3.27833523 0.177796 -1.250051 0.498499
24040 3.7857771 -2.2083585300000004 4.14308673 -0.800416 1.246896 0.828161
24060 6.6285189 1.55032335 0.84858462 -1.454892 1.833984 0.5664640000000001
24080 3.94998669 3.1945087800000005 1.1563439400000002 -2.112115 1.3081969999999998 0.754827
24100 0.04565574000000001 6.194416590000001 1.59074055 -3.132984 0.256499 0.376234
24120 -3.9201937200000003 10.50949224 -2.62374336 -2.786073 -0.739665 -0.423369
24140 -5.36574627 18.36172035 -5.3235338400000005 -1.74648 -0.660259 -3.063263
24160 -3.1853756700000004 25.84914399 -10.408606200000001 0.510003 -3.628633 0.16630899999999998
24180 -1.37833443 15.55564833 -15.24279762 -0.577596 -0.406519 0.3960010000000001
24200 -3.23267949 13.415704740000002 -3.5455302000000004 0.832775 -1.01613 0.041302
24220 -4.47823557 10.4865957 10.49767119 1.506252 3.4392089999999995 0.167416
24240 -3.90014208 10.81276839 5.63457951 -0.060965 2.343913 0.242262
24260 0.12229146 10.587481740000001 2.5503939900000003 -0.673503 0.828161 -0.059177
24280 -0.9139977 38.769973470000004 -33.58909665 -3.661146 -8.663279 -0.70668
24300 1.14212925 14.39406585 10.102494960000001 2.156861 2.872105 -0.833578
24320 2.7559233 8.37208944 3.09781161 1.075948 0.593858 0.007823
24340 0.0113796 11.06439489 2.4996566700000002 -0.832623 -2.863877 0.55867
24360 -4.833602820000001 14.8280112 -3.92379399 -0.160469 -3.3671010000000003 -0.185881
24380 -0.83436012 14.70182517 -9.35405082 0.998642 0.5925199999999999 -0.123039
24400 -1.71108963 12.30741018 -6.7620428100000005 1.053491 1.4085219999999998 0.361272
24420 -2.5056407700000003 10.31519538 -2.72403099 1.944705 0.916845 0.267714
24440 -3.5108028000000004 6.2646267600000005 -2.02124259 1.841759 0.933711 0.401569
24460 -3.4018235100000003 3.3910521300000003 4.568203080000001 1.711483 -0.229425 0.212006
24480 -0.72598905 0.14385383999999998 7.233707610000001 1.00603 -1.925826 0.943121
24500 1.1588945400000001 -5.231319840000001 5.13148347 1.183804 -1.063685 0.706113
24520 2.02304763 -7.05797127 0.90561996 1.60811 -1.190966 -0.065221
24540 6.93776934 -6.63779916 1.21442895 1.497648 -1.298254 -0.045559
24560 7.756570800000001 -0.6469498800000001 1.5832555200000002 0.572797 0.394608 0.188298
24580 4.41731547 0.9361486800000001 0.026496810000000003 -0.220532 0.795629 0.48989
24600 1.18104552 3.09272022 1.2686095800000001 -1.13616 0.576955 0.5574819999999999
24620 -1.3481000100000002 5.45704794 0.16930098000000005 -1.861717 0.020479 0.487966
24640 -12.53643444 40.85573643000001 -0.32722236 -2.353166 -0.696612 0.155371
24660 0.6914088 24.43204044 -20.797003800000002 -2.47103 -1.031088 -0.5457770000000001
24680 -2.24847162 14.829806430000001 -18.085245120000003 -2.070317 -0.771019 -0.661884
24700 -3.0620345400000004 13.9917087 5.962253130000001 -0.446412 0.7849010000000001 0.17213299999999998
24720 -5.976919080000001 9.17247753 12.69046125 1.07087 -0.515894 0.744146
24740 -7.27278084 8.24664897 6.99346071 1.309318 -0.538311 1.0812620000000002
24760 -1.18882485 11.86178112 3.5554088700000004 1.75255 -1.253265 0.735966
24780 -1.3678573500000002 37.682485920000005 -36.799625160000005 0.930587 -2.361691 -0.279962
24800 7.729328430000001 12.656332260000001 7.340136300000001 0.964699 0.26368400000000003 -0.975295
24820 6.15535317 11.42858133 1.0568018700000001 0.573944 1.932695 0.7621060000000001
24840 1.48027014 12.187502550000001 0.6736036500000001 1.705707 0.488283 0.555014
24860 -3.1142727900000002 17.13621591 -11.15315577 -0.8729709999999999 2.324577 0.7194510000000001
24880 -1.7735106600000001 12.604535460000001 -7.17353307 -2.651201 3.194516 -1.101516
24900 -0.42901092 8.634791430000002 -3.63369267 -2.780585 3.031718 -2.6329740000000004
24920 -1.17341334 7.17427863 -4.542000570000002 -2.456105 0.807214 -1.797848
24940 -4.27690494 4.43707281 -0.38484630000000003 -2.116136 -1.251117 -0.441535
24960 -1.49688828 1.98143361 2.5626663000000005 -2.986557 -2.556248 0.354156
24980 0.6634208699999999 -3.36948975 2.97237114 -3.216715 -3.210455 0.585191
25000 -0.11092167 -5.159618550000001 0.90756234 -2.5884560000000003 -0.557315 0.422741
25020 -0.00359046 1.5187449600000003 0.0076321800000000006 -2.28059 1.068126 0.730457
25040 2.6304828300000005 4.62658239 -1.8220113000000002 -2.885357 3.353728 0.8418760000000001
25060 1.6774119 8.67506148 -2.6695462500000002 -3.139998 3.917877 0.375766
25080 -3.2379180300000003 13.57856055 0.67270113 -1.475595 1.61679 -0.51017
25100 -2.5872207300000003 15.216752069999998 -0.9279180900000001 -1.6595650000000002 1.11622 -0.910329
25120 -1.05350571 12.43508733 -3.11382153 -1.888399 1.394425 -0.7541869999999999
25140 -0.56282913 9.27995589 -5.89160151 -1.278866 1.7384990000000002 -0.481178
25160 -1.8574842599999999 9.09658737 -11.06559171 -0.249104 1.7054060000000002 -0.557264
25180 -2.1399534 14.29557345 -14.96588094 0.497849 1.115569 -0.22121
25200 1.1677235400000001 21.84481971 -18.24720822 1.209323 0.22322600000000006 -0.128571
25220 1.7384889600000002 22.05977643 -16.13179944 2.2854520000000003 0.060234 0.271192
25240 0.03128409 12.740158710000001 -8.71607709 2.8247150000000003 0.071009 1.369872
25260 2.21149773 2.88929025 -11.941869960000002 3.188593 -1.337491 1.372082
25280 1.48177107 -3.92334273 13.35058596 3.480779 -1.739691 1.000761
25300 -13.533807330000002 9.55074132 23.47014051 3.186037 -1.349748 0.976838
25320 5.942495790000001 41.425903440000006 -3.4435846800000003 3.01634 -0.8816370000000001 0.744317
25340 6.8434658100000005 7.196135310000001 21.08305359 2.941723 0.325339 0.27223200000000003
25360 -3.1969024200000002 5.164562790000001 5.16380742 2.54378 1.452967 0.209255
25380 -7.90910649 11.3946093 8.22180024 1.482552 1.046662 0.43844
25400 -7.924518 12.6123246 4.794676740000001 0.874342 -2.342318 1.581532
25420 -7.8692877 21.99391209 2.50908408 2.633422 -1.077243 1.240753
25440 0.18771435 18.978887070000003 1.99131228 2.910039 -1.861915 0.626258
25460 4.915928340000001 15.20433261 -0.78481962 2.596022 -2.63333 0.404999
25480 8.738375220000002 12.28315986 -3.6158777100000004 2.03305 -2.770059 0.187598
25500 1.74237372 11.34161568 -0.47002653 1.222417 -2.9283360000000003 -0.020824
25520 -2.05672536 9.541009800000001 -1.35558504 0.506152 -3.3027370000000005 -0.07662200000000001
25540 -2.7387067500000004 6.23858121 -0.59322051 -0.174727 -3.296311 -0.027975
25560 -4.74169293 4.93508727 -2.79633069 -0.802198 -2.468063 0.1172
25580 -6.268815630000001 5.42456703 -4.358789010000001 -1.284247 -1.120355 0.234952
25600 -1.9377202500000001 5.69984544 -2.00373174 -0.967895 -0.348768 0.411361
25620 1.46170962 6.4396077300000005 -2.8035214200000005 0.919 -0.318787 0.069853
25640 2.60832204 7.9330527 -4.336628220000001 0.904935 -0.903308 0.003206
25660 2.2122531 8.975639880000001 -5.5238148 0.8843979999999999 -0.132452 0.121715
25680 4.16284407 8.54827704 -4.24816164 1.390707 0.180495 0.5425260000000001
25700 4.836594870000002 9.28503747 -2.16689166 0.827224 -0.401358 -0.246876
25720 3.97813158 15.038474940000002 0.5665765500000001 1.103006 2.250524 -0.32205500000000004
25740 5.570363250000001 19.29472983 3.8585280600000003 -0.170512 0.64966 -0.344923
25760 -3.63788154 16.472049480000006 6.3595287 -1.545651 2.45862 0.017031
25780 -6.9948046800000006 16.62592914 6.75245844 -2.067733 4.027392 -0.234317
25800 -5.68472823 17.9223795 3.92543226 -2.688634 5.161853 -1.012432
25820 -6.27884145 20.773646189999997 1.41096249 -3.189639 4.0873870000000005 -1.476026
25840 -5.306611590000001 21.312980370000002 0.07095573000000001 -3.625331 1.975161 -0.886705
25860 -3.459751560000001 17.98974477 0.1505835 -3.3460400000000003 1.101104 -0.995797
25880 -3.0087466199999997 14.949409950000002 1.27370097 -1.92344 0.943878 -1.005955
25900 -0.38051028000000003 13.41061335 3.63534075 -0.832084 1.081464 -0.13004300000000002
25920 0.98225568 9.42859701 5.64177024 -1.837205 0.973777 0.4975979999999999
25940 0.10657584 5.7811311000000005 3.68922708 -2.696081 0.378544 0.379129
25960 -2.20147191 1.59972651 3.71991276 -2.152409 -0.564521 0.248471
25980 -1.9164619800000002 -1.46605545 3.70883727 -2.034743 0.116292 0.38729
26000 -1.84611447 -2.87072973 3.4760754 -1.7364849999999998 2.291987 0.294718
26020 -1.7061552 -2.05088841 3.82768542 -1.6431369999999998 3.461985 0.398556
26040 -1.92125907 -0.7656606900000001 3.90612618 -1.516952 3.102236 0.210824
26060 -1.8651262499999999 0.19040229 1.7253141300000001 -1.602954 1.268024 -0.29483200000000004
26080 -0.8114635800000001 1.5506274600000003 -1.97813745 -1.449574 -0.237861 -0.7971
26100 -0.2945844900000001 7.150783680000001 -7.64655165 -1.493559 -0.894468 -0.925821
26120 -3.13373583 18.73608957 -15.978969450000001 -2.398157 -1.7799009999999995 -0.893617
26140 -4.275256860000001 23.25608631 -17.374069170000002 -1.334748 -0.329753 -0.561171
26160 -3.21785658 13.366154430000002 -9.712557270000001 -0.066012 2.6302220000000003 -0.488804
26180 -3.9977319600000003 9.668392650000001 -6.2730045 0.201209 2.888733 -0.100573
26200 -6.6581549099999995 8.45741682 -11.01709107 -0.387046 0.215876 0.16259400000000002
26220 -11.199861180000001 15.976722960000002 6.218971020000001 -0.623942 -1.764317 0.32905100000000004
26240 0.27377748 18.02611044 -2.6090774100000003 0.61539 -1.689505 0.25963200000000003
26260 2.7407962800000005 1.0538098200000001 10.04875578 2.224524 -0.342512 0.607772
26280 0.26734212 1.1304455400000002 6.38077716 3.082312 -1.260475 1.119141
26300 -3.0198221100000002 9.99516375 6.77565909 4.149469 -1.68505 0.876107
26320 -2.88105966 15.728392620000001 4.78195317 3.764821 0.096332 0.8828879999999999
26340 -0.006141059999999999 14.770230300000001 3.35377413 3.542718 1.462743 0.6274850000000001
26360 0.6649218 12.97786482 3.68384139 3.23876 2.10335 0.5305380000000001
26380 2.9267154 14.6802726 2.7134067600000003 2.348094 2.844741 0.5137520000000001
26400 2.7824103 13.33651842 1.85927949 1.865353 2.347402 0.363603
26420 2.30580126 10.614881070000001 0.27198225000000004 1.779875 -1.744647 1.050843
26440 1.68040395 9.51002001 -1.8681183 2.840493 -0.4775680000000001 1.346116
26460 -0.10463346000000001 8.83043226 -0.51657498 2.960916 -0.5058010000000001 1.109848
26480 -0.83376171 8.255634930000001 -1.60451379 2.900443 -1.089792 0.685022
26500 -0.5680676700000001 8.01328869 -0.31075136999999997 2.611376 -1.47494 0.282913
26520 -0.12603888 7.04015631 0.28111536000000004 2.163311 -1.893407 0.092313
26540 -0.35730963 6.9129206100000005 1.01848401 1.427649 -2.231949 -0.122832
26560 -1.38851721 7.36244424 -0.91160406 0.445751 -1.821653 -0.112056
26580 -2.42975061 8.44828371 -1.7384889600000002 -0.635363 -0.6962189999999999 -0.099686
26600 -1.14302196 9.102718620000001 0.05074713 -1.619287 0.452311 -0.08666599999999999
26620 0.49427685 9.30345084 -1.7762084100000002 -2.491137 1.551691 -0.133689
26640 1.78563582 10.14874911 -4.299212880000001 -3.542292 2.246548 -0.095988
26660 0.40311252 12.10398021 -2.5611751800000007 -3.907617 2.241159 0.235821
26680 1.5500290500000002 11.984082390000001 -0.7665534 0.031271 3.492764 0.573651
26700 4.59289485 11.25673956 1.32818571 0.16134 -0.244894 0.894474
26720 5.2491348 10.46519028 0.7279314299999999 -0.254149 0.985071 0.56312
26740 1.6293625200000001 12.682829070000002 -1.13269203 0.895358 1.076878 0.317863
26760 -0.77209605 15.70189581 -2.6942478300000006 0.322711 -0.488509 -0.126375
26780 1.0877916599999997 16.43132817 -0.8063721899999999 -0.478081 1.627204 -0.250047
26800 -2.32720668 15.541129530000001 -1.32773445 0.025647000000000003 2.709614 0.089642
26820 -6.963216480000001 11.76433839 0.6050415600000001 0.569449 1.656537 0.296684
26840 -6.65800776 12.735067320000002 6.65380908 -0.085018 2.53541 0.32623800000000003
26860 -5.923336860000001 15.860121300000001 7.511978070000001 -1.987818 3.175256 -0.590521
26880 -6.41026602 18.21906333 2.397564 -2.8254240000000004 3.348354 -1.592176
26900 -5.72110371 16.797918059999997 -1.03419963 -3.294986 2.048452 -1.917462
26920 -2.289192930000001 15.529004370000001 -0.8599642200000001 -3.283 1.7795740000000002 -1.288919
26940 -0.48334851000000006 13.40566911 1.9567320300000002 -2.090185 3.977342 -0.751429
26960 2.86623675 10.830877650000001 3.30602886 -0.676851 4.389146 -0.264589
26980 1.3992885900000003 8.796911490000001 2.77223733 -1.159684 2.563487 0.8955350000000001
27000 -1.3566249000000001 6.10699968 3.4299684000000004 -1.576897 0.809794 1.052965
27020 -2.10343077 3.7959598800000003 2.59021278 -1.597294 2.249505 0.141921
27040 -1.8256017600000003 1.80973899 1.81512468 -1.65255 3.387808 0.042868
27060 -1.59179022 1.24555608 2.5828749 -1.0127549999999998 3.75356 0.728394
27080 -2.6448544800000002 0.79050942 3.69701622 -0.052885 2.994935 0.998853
27100 -3.1868766 0.9755260200000001 4.34066994 0.253741 2.709903 0.617869
27120 -2.6918541900000004 0.75906837 3.4983735300000003 -0.410002 3.249578 0.233322
27140 -2.6289819000000003 0.33874911 2.06361198 -0.814072 3.336003 0.016744
27160 -1.7408826 2.76564501 -0.6147730800000001 -0.5312359999999999 2.387971 -0.243916
27180 0.54845748 8.28422127 -5.972877360000001 -0.575763 1.467753 -0.516513
27200 1.57472082 24.196884930000003 -18.35976816 -0.953421 0.377746 -0.6641
27220 2.6446975200000002 32.57271198 -23.37688665 -1.418936 -0.727142 -0.743916
27240 1.55990772 9.986030640000001 -5.793099300000001 -1.89949 -1.03463 -0.954114
27260 -0.64725399 5.99683338 -1.2524427 -1.507088 0.916253 -0.852392
27280 -3.2638164300000003 6.35173956 -4.126174290000001 -0.812552 2.287397 -0.423077
27300 -1.5935854500000002 11.92345659 -0.08232552 -0.505131 1.758525 -0.033556
27320 -4.57612956 25.977880620000004 -2.270034 -0.813775 1.093444 0.320859
27340 -2.6879596200000004 14.804967509999999 4.26628071 -0.373436 1.314361 0.370653
27360 -4.6445445 -1.21546881 9.51541551 1.279126 0.84503 0.156335
27380 -3.7639204200000003 1.29226149 6.78568491 2.215137 0.4816760000000001 0.433599
27400 -3.8248503300000003 8.90334018 7.98005241 3.318765 -0.390158 0.651796
27420 -4.0951845 13.958021160000001 6.440206139999999 3.849266000000001 0.481108 0.756935
27440 -3.2485422600000002 12.22432929 5.31200709 3.709299 1.987383 0.88435
27460 -0.43470072 12.355459560000002 6.89331042 2.915463 1.900952 0.809481
27480 2.32122258 12.552748470000001 4.2888829500000005 2.91685 2.368917 0.730911
27500 3.3302791800000002 9.833504759999999 2.14294545 2.470523 1.948921 0.388637
27520 4.127067 10.73911491 2.4496551 2.089458 0.705957 0.133331
27540 6.65710524 10.111019850000002 3.5401347000000003 1.957166 -0.234147 0.380371
27560 6.933433320000001 9.53622252 -0.06856209 2.195634 -1.079448 0.840319
27580 3.38371425 9.004520520000002 -2.02678524 2.293335 0.738667 1.099318
27600 0.8357139 10.12988448 -1.60915392 2.424591 -0.400736 1.141219
27620 0.6717986100000001 9.99561501 -0.13950801 2.7909740000000003 -0.719808 0.962589
27640 0.02529999 10.3824135 0.13651596 2.757528 -1.6407580000000002 0.597136
27660 0.18291726 10.726244190000001 0.43155171000000003 2.296236 -2.440348 0.356725
27680 0.9949792500000001 9.820928339999998 -0.11855385 1.55561 -2.564327 0.035516000000000006
27700 1.7166322800000002 8.50530924 0.38859372000000003 0.7512270000000001 -2.023887 -0.152392
27720 0.9729754200000001 8.192615490000001 0.28575549 -0.112376 -1.483724 -0.220006
27740 -0.17019369 8.6008194 -0.44951382000000006 -1.0055040000000002 -0.996088 -0.179867
27760 -0.14115609 9.97734879 -1.92260304 -1.956896 -0.389048 -0.112515
27780 0.32841918 10.10398608 -0.8960355900000001 -2.79686 0.344285 -0.023182
27800 1.1723636700000002 11.3223096 -0.59905746 -2.958642 0.032304 -0.185214
27820 2.10147858 11.335327470000003 0.07005321 -0.920893 -0.917685 -0.412249
27840 1.57502493 10.47701133 -1.3558793400000002 1.035975 -1.207268 -0.021127
27860 -0.9204330600000001 12.065809500000002 -1.2376296 1.874212 -1.042842 0.223799
27880 -4.26657501 14.46232383 -4.15281825 1.30357 -0.528267 0.706263
27900 -0.20103633 15.14834694 -1.54957779 0.223906 -0.8109649999999999 0.410664
27920 2.9595004200000004 15.019914420000001 -0.91894194 0.381953 0.403656 -0.30977
27940 0.18097488 12.71844918 -0.32722236 1.940332 0.130563 -0.499361
27960 -4.0897988100000005 12.56143032 0.58543137 -0.151719 -0.983003 -0.46234
27980 -2.50953534 14.169681720000002 6.60022686 -1.749886 0.899681 -0.494076
28000 -4.444557840000001 15.882272280000002 6.94405755 -2.440286 3.406642 -1.052245
28020 -4.27241196 16.451988030000003 1.6437341699999999 -3.053865 3.989553 -1.636254
28040 -3.7979022600000003 13.292805060000001 -1.65825297 -3.06271 2.531924 -2.07776
28060 -2.4659691300000004 12.82413231 -1.39255893 -2.288549 0.16393 -1.978519
28080 -0.86355468 12.4446717 1.4750316 -0.96306 -1.671458 -1.284315
28100 1.26547038 10.83401685 4.910542649999999 -0.356338 -1.366067 -0.6598310000000001
28120 0.5851370700000001 8.896296600000001 2.2866423300000003 -0.849727 -1.287116 0.003192
28140 0.52166637 8.92968003 2.37001752 -1.360873 -1.595031 0.192296
28160 0.20567646 7.203021929999999 1.25200125 -1.72792 -1.333952 0.222512
28180 -0.80921709 4.82925699 0.17767872 -2.01779 -1.06104 0.4231
28200 -1.6639427700000002 1.9725948000000002 1.10051523 -2.054507 -0.408057 0.462599
28220 -1.41021693 0.55324476 2.4671659500000005 -2.1267720000000003 0.731529 0.589889
28240 -1.38387708 0.5387259600000001 2.790945 -2.211962 1.708608 0.342351
28260 -1.20364776 1.2584366100000002 2.21149773 -1.486661 1.5487879999999998 -0.012369
28280 -0.74021355 1.4256382500000002 0.8381075400000001 -0.91885 0.805595 -0.330054
28300 -0.06780672000000001 1.44479718 -2.38050441 -0.8595010000000001 0.23008 -0.581002
28320 0.3634408800000001 3.8016398700000003 -7.684418250000001 -1.061425 -1.050727 -0.8520989999999999
28340 -1.84805685 12.305457989999999 -12.49482042 -1.455798 -2.3852330000000004 -0.8478030000000001
28360 -0.69530337 27.3705867 -15.49652346 -0.685578 -0.7599859999999999 -0.62552
28380 1.5271227 21.922210800000002 -8.87804019 0.048768 0.701503 -0.18002
28400 -1.76093424 10.466534249999999 -5.96344995 0.238819 -0.395669 -0.359952
28420 -0.850527 4.07827206 -6.694530390000001 1.235168 -1.199019 -0.657475
28440 0.39188987999999997 7.33803696 -7.40285163 2.302561 -1.332671 -0.6605300000000001
28460 -2.63677104 20.866154490000003 -1.5331166100000002 3.0291740000000003 -2.399841 -0.550469
28480 -8.11567566 22.561685460000003 -4.99571307 4.6783480000000015 -1.671891 -0.473653
28500 -1.91497086 -1.2626254799999999 11.457923039999999 4.249176 -1.756268 0.21887
28520 -2.9274609600000003 -1.8131823 5.15557683 3.738216 -1.978076 0.45273
28540 -1.2790866600000002 6.754852080000001 9.107064450000001 3.618504 -1.058294 0.710294
28560 -2.3297572800000004 15.283214820000001 5.881124430000001 3.215076 -0.99464 0.32710700000000004
28580 -1.7435705400000001 16.40962845 1.92454542 2.496149 -0.639969 0.16780699999999998
28600 0.7743425400000001 15.45146613 0.45909819 1.899714 -0.654586 0.8761629999999999
28620 3.0961635300000006 12.715604279999999 -0.08143281000000001 1.634262 -2.22491 1.398682
28640 2.2781174400000004 10.415492819999999 -0.51373008 2.220485 -2.420553 1.331457
28660 -0.40251411 8.851837680000001 -1.47637557 2.041391 -2.070951 1.172729
28680 -0.32407335000000004 9.104513850000002 0.15822549 1.760862 -2.6626950000000003 1.27835
28700 -0.60803361 8.48540475 0.41253993 1.568633 -3.5637220000000003 1.129679
28720 -1.10559681 7.871230080000001 0.27153099 1.332733 -4.476314 0.714731
28740 -1.08389709 7.251816870000001 -0.7593724800000001 0.683739 -4.449104 0.334148
28760 -1.2265541100000001 7.6395178800000005 -1.69283322 -0.00082 -4.313868 0.142255
28780 -1.5926927400000002 9.20450718 -1.8618300900000002 -0.8028609999999999 -3.976854 -0.05819600000000001
28800 -2.7288280800000004 9.202859100000001 -2.1197448 -1.775135 -3.407531 -0.130878
28820 -2.46851973 8.19830529 -0.9717786 -2.771866 -2.721339 -0.104537
28840 -1.15170381 8.612934749999999 0.6800390100000001 -1.98463 -2.150511 -0.214069
28860 -0.01616688 10.85766876 -1.09676781 0.966888 -3.5535980000000005 0.186496
28880 0.7117743599999999 11.297303910000002 -4.19098896 1.379473 -2.656956 0.441397
28900 1.9258992000000001 12.46024017 -3.7190200500000006 1.759602 -0.143335 0.751684
28920 -0.46328706 12.71411316 -3.0511062000000004 1.323407 -0.5977979999999999 0.494983
28940 -2.8141456500000004 12.512929680000001 -2.67044877 -0.175602 1.786231 0.743172
28960 -1.07506809 12.092904720000002 -3.5401347000000003 0.011588 3.716058 0.427949
28980 2.4911219700000005 16.95478977 -3.3567661800000006 0.237717 1.47526 0.096978
29000 4.68840501 19.15132725 -3.2626196100000002 0.903138 -1.345004 0.438525
29020 4.56521103 15.987357 -0.44802270000000005 0.6115510000000001 -1.584178 0.030871
29040 1.75390047 13.322598030000002 3.59612037 -0.561224 -3.120374 -0.266977
29060 0.13262139 12.04096077 9.16723899 -0.717646 -2.459738 -0.172776
29080 -1.12101813 11.47049946 8.93910744 -0.4895350000000001 -0.707527 0.203654
29100 -1.36590516 14.725477080000001 2.62912905 -0.927521 -1.384161 0.362763
29120 -2.6110197900000003 17.37765963 0.5436702 -1.42469 -2.011282 0.4455520000000001
29140 -1.0822490100000002 16.49824218 1.09676781 -1.548135 -1.325382 0.586952
29160 -0.32407335000000004 13.14521361 2.47435668 -1.363645 -0.935865 0.5204439999999999
29180 0.25072398 10.31475393 3.46603977 -1.112611 -1.098789 0.287397
29200 0.21360294000000002 7.412730300000001 2.87926443 -0.93187 -1.247567 0.041023
29220 -0.94647861 7.06471074 3.3715890900000005 -0.369563 -0.50402 -0.176056
29240 -1.0597939200000002 5.7708011699999995 4.100727150000001 0.23252 0.96941 -0.203648
29260 -0.50131062 3.59267706 4.932546480000001 0.799198 1.824549 -0.092896
29280 -1.14197229 2.19353562 5.1063306299999995 1.52354 1.975812 0.07968099999999999
29300 -2.4766031700000006 0.78721326 4.32495432 2.185138 2.587731 0.192477
29320 -2.95171128 0.90846486 2.4170270400000002 2.866126 2.673709 0.212078
29340 -2.7238838400000005 2.53991691 -0.06541308000000001 3.262826 1.396326 0.164143
29360 -1.6211319300000002 7.58667141 -1.34659908 2.607421 0.425908 0.453502
29380 -6.06763215 14.31428112 -2.34817065 1.883272 -0.221079 1.171391
29400 -11.56959027 22.12833852 -12.82368105 1.460263 -0.370738 1.135513
29420 -7.526202570000001 14.068795680000001 -11.475885150000002 0.620203 -0.090538 0.79066
29440 -2.04250086 10.1134233 -4.643789129999999 -0.123583 0.42945 0.869187
29460 -0.06511878 7.61286411 -8.992395360000002 -0.259547 0.410296 0.7155060000000001
