time Ax Ay Az Gx Gy Gz
20 1.2955576500000001 5.84474895 -3.68293887 -0.578893 -1.1388120000000002 -0.288868
40 1.47577716 7.568258040000001 -1.89236862 -0.110383 -2.115887 -0.108087
60 2.6655045300000006 9.05153004 -1.09257894 -1.225002 0.133724 0.65357
80 2.97985617 9.83245509 -3.7723079700000004 -0.7277279999999999 -0.787583 0.183933
100 3.9502809900000004 10.14619851 -5.4823479299999995 0.421552 0.324272 0.060213
120 4.259246940000001 8.383164930000001 -4.97295387 0.286166 -0.35186300000000004 -0.167398
140 2.18485377 7.913295360000001 -1.96316739 -0.197089 -0.4806470000000001 -0.309477
160 -0.96219423 11.54294631 2.28245346 -0.366315 -0.675871 -0.359547
180 0.02634966 13.964760630000002 1.95014952 -0.214109 -0.341661 -0.419801
200 2.17303272 12.584778120000001 0.93884643 0.019973 0.003691 -0.406858
220 8.83298286 7.36304265 1.5010771500000002 0.105101 0.124151 -0.235502
240 8.984017620000001 10.00489527 -2.02034988 0.075737 0.280674 -0.192111
260 4.575835260000001 30.630204450000004 -7.982151750000001 0.185698 0.499875 -0.225806
280 6.064640100000001 9.1302651 -0.14534496 0.303669 0.407814 -0.216319
300 3.1690616400000002 9.94202298 0.54321894 0.509936 0.214423 -0.25095
320 4.01330043 9.988424280000002 0.3150972 0.8773799999999999 0.056615 -0.266341
340 2.7038322 8.52058341 0.6819813900000001 1.108988 -0.150893 -0.255911
360 1.63489536 8.61922296 0.82748331 1.427923 -0.500911 -0.114366
380 2.55878154 8.43764967 0.03876912000000001 1.915571 -1.250104 0.071598
400 3.77680095 7.60269114 -1.7621310600000002 2.507927 -1.825629 0.159794
420 3.8044847700000006 6.59453706 -2.55503412 2.768158 -2.087511 0.156607
440 3.4185888 6.44245263 -1.97574381 2.886467 -1.792115 0.241444
460 3.19240944 7.12368846 -1.86078042 2.799774 -0.690221 0.216994
480 2.9847905999999997 7.302868110000001 -2.03157252 2.351331 0.153025 0.186075
500 2.8853956800000002 6.305485409999999 -2.97386226 1.6779419999999998 0.486125 0.319814
520 3.39389703 6.695423100000001 -3.68174205 1.131605 0.316169 0.404878
540 4.0664412 7.204218750000001 -3.2627667600000003 0.450348 0.29149 0.506973
560 3.6685672200000004 7.24867767 -3.37383558 -0.270685 0.299572 0.7091609999999999
580 2.8261236600000004 8.13708108 -3.3424043400000003 -0.829208 0.645746 0.93662
600 1.68759468 9.791292330000001 -2.5912624500000003 -1.222654 1.318612 0.842211
620 -0.05792805 10.4606973 -1.8691581600000002 -1.693311 1.660359 0.5030640000000001
640 -1.0936286100000001 13.09267125 -2.9654845200000004 -2.151323 1.4514790000000002 0.12305
660 -0.22527684 14.519957580000002 -2.0678008500000002 -2.504675 1.009018 -0.27623000000000003
680 3.32368686 12.593312820000001 -2.50249176 -2.573865 0.379272 -0.706399
700 2.82672207 8.251141950000001 -4.20011226 -2.510597 -0.14468699999999998 -1.066345
720 3.91495518 9.10391544 -5.33056761 -2.128463 -0.607165 -1.094062
740 3.61543626 9.28534158 -5.0927143500000005 -1.5363129999999998 -1.103298 -0.879918
760 2.28993849 8.81875836 -4.0182446700000005 -1.151825 -1.143308 -0.532146
780 1.4473379700000002 6.630912540000001 -3.57127164 -0.897782 -0.743021 -0.15593800000000002
800 1.6235255700000002 5.53593996 -4.140094680000001 -0.7482310000000001 0.759632 0.359132
820 2.79169056 5.3492752800000005 -4.59769194 -1.416631 1.12614 0.126462
840 3.54597165 4.868477370000001 -4.35549285 -1.975031 -0.145061 -0.106545
860 3.05634474 4.16209851 -4.12003323 -1.0501049999999998 -2.177269 -0.459608
880 2.09683845 5.07639051 -3.29195151 -0.859936 -0.7425930000000001 -0.029624
900 2.5204538700000003 7.739059950000001 -2.0272365 -0.8370569999999999 -0.75158 0.332674
920 3.24330372 9.33324381 -2.57943159 -1.13955 -1.110931 -0.381482
940 3.0190765500000003 9.780815250000002 -4.288578840000001 -0.5803729999999999 -0.774626 -0.785
960 3.24045882 8.048614500000001 -5.2316239499999995 -0.091703 -0.22691 -0.7171270000000001
980 2.3712143400000003 5.8528323900000006 -1.61065485 -0.389456 -0.12845399999999998 -0.8379049999999999
1000 0.5999501700000001 7.727680350000001 1.38326886 -0.705489 -0.498807 -0.920823
1020 1.13104395 12.73057434 -0.32677110000000004 -0.939923 -0.60055 -0.8486229999999999
1040 3.8130194700000004 14.678477370000001 0.05194395 -0.990972 -0.165326 -0.686099
1060 8.81083188 14.35484547 -0.51762465 -0.90127 0.388063 -0.625293
1080 7.10752158 8.824752270000001 -0.26165232000000005 -0.769768 0.852352 -0.6965399999999999
1100 2.9844963 17.391432870000003 -2.71894941 -0.5540010000000001 0.936602 -0.906649
1120 4.33707948 24.279661710000003 -2.6676038699999998 -0.235615 0.458667 -1.009567
1140 3.59312832 11.46316158 0.6102801 0.152126 0.143893 -0.949839
1160 4.16583612 8.16057603 1.37668635 0.347413 -0.010481 -0.8756379999999999
1180 2.91308931 6.434222040000001 2.18560914 0.278022 -0.5202939999999999 -0.662894
1200 0.63498168 5.5468683 2.3951703600000003 0.39887 -0.917053 -0.648722
1220 0.23950134000000003 6.960822840000001 0.72973647 0.542971 -1.303586 -0.813863
1240 2.9093517 8.29679769 -0.97821396 0.919188 -1.814418 -0.998588
1260 2.83540392 7.932003030000001 -1.15813917 1.849832 -1.746279 -0.996447
1280 2.6941006800000005 8.11747089 -1.2560331599999999 2.600031 -1.617896 -0.187001
1300 2.7445437000000004 7.69864275 -1.16038566 2.958599 -1.600586 0.766199
1320 3.67410987 7.406893350000001 -0.7819747200000001 3.027235 -1.08475 1.444339
1340 4.5357221700000006 8.1411228 -1.33521948 2.837053 -0.086259 1.793176
1360 3.76991433 8.52207453 -1.7064495 2.364162 0.444483 2.143842
1380 2.5679146500000005 8.52791148 -2.21149773 1.417528 -0.820916 2.128169
1400 2.7892969200000004 8.9566281 -2.59021278 0.726545 -1.652659 2.401078
1420 2.7849609000000006 9.92915226 -2.85022683 0.696381 -2.217892 2.8523810000000003
1440 4.347105300000001 11.236079700000001 -0.6225524100000001 0.440222 -2.442982 2.8872
1460 6.01958277 13.222899000000002 -0.52315749 -0.116424 -2.419697 2.608749
1480 1.77156828 10.796297400000002 -1.73878326 -0.646828 -2.39063 2.193741
1500 -0.3912816600000001 13.02606135 0.48978387 -1.218934 -2.762343 1.874028
1520 0.7381142100000001 17.00089677 3.47277924 -1.565578 -3.027366 1.584594
1540 -0.32048288999999996 21.070486980000005 2.3084990100000002 -1.7779470000000002 -3.090558 1.05549
1560 1.4055768 21.83973813 -3.8594207700000003 -1.822073 -2.47602 0.326936
1580 5.3492752800000005 16.812142559999995 -4.5595212300000005 -1.771349 -1.618932 -0.134212
1600 7.15721904 11.28937743 -2.1007330200000003 -1.494635 -1.407562 -0.485063
1620 7.0162101 9.48547539 -1.16636976 -0.993524 -1.578402 -0.8199709999999999
1640 5.02220988 10.008789839999999 -0.21749751 -0.063989 -2.1371330000000004 -0.961245
1660 2.24952129 10.97158248 0.87433587 0.806354 -2.647201 -0.700275
1680 1.05410412 9.9864819 0.98569899 1.291984 -1.98145 -0.311039
1700 -0.04715667 6.728659380000001 0.71581608 1.135145 -0.616897 0.106996
1720 -1.2298404600000001 5.00559174 0.19100070000000002 0.631904 0.570177 0.985379
1740 -2.3257155600000003 2.44845828 -0.0634707 -1.389922 1.145723 1.3315780000000002
1760 -3.92843412 3.1642743600000003 -1.6705252800000003 -1.838826 -0.321543 0.751346
1780 -2.9198287800000005 5.2040774700000005 -3.37412988 -1.0914620000000002 -1.850956 0.289577
1800 -1.1901786300000001 7.81135965 -4.312083600000001 -1.226442 -1.60197 -0.053516
1820 1.3961493900000002 10.070161200000001 -4.320912600000001 -1.478478 -0.963982 -0.073185
1840 4.307139360000002 12.025990710000002 -5.8586693400000005 -1.970699 -1.45046 -0.001225
1860 6.252795900000001 12.41922456 -8.264012670000001 -2.282705 -1.841201 -0.050973
1880 6.3499443300000005 8.300241 -5.00484618 -1.875624 -1.6522720000000002 -0.231038
1900 4.876855110000001 7.36423947 -2.5812366300000003 -1.435488 -1.082683 -0.262876
1920 4.611759480000001 10.56951963 1.21651848 -1.281016 -0.355901 -0.196499
1940 3.2427053100000007 16.75046709 3.2855161500000003 -1.101165 0.140354 -0.311247
1960 0.17214587999999997 16.46246511 -0.62075718 -0.959745 0.14039 -0.4427180000000001
1980 -0.03577707 9.53187669 -1.55646441 -0.953747 0.017994 -0.475634
2000 3.5628939 7.96194315 2.74005072 -1.028758 -0.092383 -0.513405
2020 4.3144772399999995 11.23308765 4.7325598200000005 -0.996886 -0.119139 -0.509943
2040 3.16606959 11.84097411 3.51454041 -1.02455 -0.337434 -0.50772
2060 0.9383951700000001 12.402910530000002 1.58370678 -1.083004 -0.639307 -0.62311
2080 -0.26284914 12.24573471 -0.9767228400000001 -1.0987049999999998 -0.645349 -0.696919
2100 -0.19025514000000002 10.86904836 -2.14488783 -1.084704 -0.33557600000000004 -0.653421
2120 0.48304440000000004 9.32815242 -0.8491830300000001 -0.910744 0.159141 -0.645362
2140 2.03696802 8.394995790000001 0.46582785000000004 -0.5591020000000001 0.548828 -0.6327229999999999
2160 3.1412208600000002 7.180115580000001 0.70742853 -0.156681 0.382205 -0.6051300000000001
2180 3.51753246 6.54409404 -0.10912644 0.130123 -0.051631 -0.520317
2200 3.11606802 6.48511632 -0.39502908 0.440866 -0.238029 -0.529658
2220 1.6681316400000001 5.946537510000001 0.08816247 0.97313 -0.542147 -0.330066
2240 0.96414642 6.699170520000001 0.6738979500000001 1.644038 -0.809656 -0.081482
2260 1.49404338 8.16911073 1.2244547700000001 2.401043 -1.012078 0.066138
2280 2.5215035400000003 8.61129648 1.25259966 3.101867 -1.6709459999999998 0.38914
2300 2.64425607 8.876686410000001 0.57450303 3.356702 -1.845644 0.964779
2320 1.5338621700000001 9.88559586 -0.30342330000000006 3.271528 -1.098353 1.437517
2340 0.42841251 11.324850390000002 -0.9369040500000001 2.907387 -0.55543 1.578488
2360 0.07993188000000001 12.61950552 -1.55646441 2.437615 -0.437501 1.532326
2380 1.26681435 12.61905426 -2.131713 1.85039 -0.703224 1.3597860000000002
2400 3.08717757 11.081003220000003 -1.27370097 1.2918459999999998 -1.073979 1.587095
2420 4.33977723 10.53808839 0.14669874000000002 0.952125 -1.624488 2.087492
2440 4.42929348 12.45873924 0.7460505000000001 0.76226 -2.023463 2.392189
2460 2.66834943 13.02606135 0.90621837 0.346405 -2.299577 2.538121
2480 3.0508020900000004 12.71066985 1.4976338400000002 0.051749 -2.613845 2.264069
2500 2.4818417100000003 12.85916382 0.98375661 -0.14626 -2.822851 1.956374
2520 1.00291554 13.32977895 -0.7806307500000002 -0.241607 -2.974704 1.652527
2540 0.7235954100000002 15.260916690000002 -0.621954 -0.356023 -3.00011 1.445594
2560 2.34652257 15.55265628 -0.6379737300000001 -0.576749 -2.612188 1.330323
2580 3.77365194 12.451254210000002 -1.50990615 -0.826882 -2.006243 1.329936
2600 5.853273840000001 9.509274450000001 -1.6554080700000002 -1.086588 -1.440557 1.282532
2620 6.63600393 8.67790638 -1.62996093 -1.284817 -0.870246 1.091341
2640 4.771927350000001 8.85364272 -1.2656175300000003 -1.331747 -0.40568 0.8393860000000001
2660 3.5886353399999997 9.14373423 -0.13921371000000002 -1.338118 -0.425898 0.57338
2680 1.2928599000000003 8.19905085 0.5846858100000001 -1.385028 -0.8499979999999999 0.378111
2700 1.7738147700000002 7.279363350000001 0.23351724 -1.4442780000000002 -1.399793 0.191463
2720 0.7173072 6.684651720000001 0.36449055 -1.270442 -1.5988639999999998 0.0070620000000000014
2740 0.8087658299999999 6.325998120000001 -0.008829 -0.910562 -1.37711 -0.082576
2760 1.2600748800000001 6.69362787 -0.26375166 -0.568346 -0.99243 0.12442
2780 1.05949962 7.6899609 -0.5882762699999999 -0.32847 -0.632677 0.5262180000000001
2800 0.26794053 7.9796109600000005 -1.03060917 -0.348711 -0.644033 0.985427
2820 -0.04879494 7.56452043 -1.1006623800000002 -0.626174 -1.066147 1.291677
2840 0.1704978 7.26454044 -1.1261095200000002 -0.938016 -0.7333569999999999 1.455715
2860 1.5955278300000002 7.78725648 -2.1065699700000002 -1.083413 0.068564 1.373555
2880 2.4281025300000003 8.63210349 -3.3876088200000005 -0.5183479999999999 -1.8047 1.011366
2900 3.0199692600000003 8.45247258 -4.38378489 -0.4974270000000001 -2.8966990000000004 0.484142
2920 3.31770276 8.82504657 -4.782855690000001 -0.542525 -2.18786 -0.648328
2940 4.416717060000001 8.87264469 -4.7604006000000005 -0.769994 -1.004903 -0.8426450000000001
2960 5.891444550000001 8.61697647 -5.3766648 -0.868711 -0.17133199999999998 -0.356225
2980 7.846832610000001 8.58120921 -4.92999588 -0.985507 -0.30909000000000003 0.094993
3000 7.48683504 8.91306189 -4.33558836 -1.473052 -0.8194049999999999 0.529145
3020 6.29725482 8.78089176 -4.09279086 -1.420038 -0.811505 0.372476
3040 5.76331614 9.533671920000002 -3.46739355 -1.136493 -0.735475 0.028255
3060 6.12347067 17.29323477 0.52570809 -0.960528 -0.5676680000000001 -0.263423
3080 3.15229635 22.4081001 2.31089265 -1.039335 -0.431567 -0.397676
3100 -5.55539319 8.620419779999999 -1.9586744100000002 -1.098633 -0.299398 -0.365145
3120 -5.25811095 7.71196473 -0.18771435 -1.042751 -0.353234 -0.27068200000000003
3140 -1.11099231 5.8881582 3.39928272 -0.8351850000000001 -0.576021 -0.14823699999999998
3160 3.37981968 7.59610863 5.3126055 -0.603668 -0.759207 -0.092974
3180 5.30302113 13.14910818 3.4857971100000005 -0.462327 -0.8015720000000001 -0.010748
3200 4.5274817700000005 13.524379920000001 -1.01549196 -0.264399 -0.831364 0.075062
3220 3.53684835 9.69039648 -2.39981049 0.027291000000000003 -0.7142229999999999 0.098314
3240 2.06645688 9.37949796 -1.4537733300000002 0.314226 -0.563656 0.02535
3260 2.06061012 9.472898970000001 -0.42182019000000004 0.497058 -0.6392720000000001 -0.137782
3280 2.6955918000000003 9.28773522 -0.45280998 0.657547 -0.723241 -0.323493
3300 3.1445072100000004 8.7488523 -0.59501574 0.566837 -0.596797 -0.430042
3320 3.4055709300000006 8.18558172 -0.80427285 0.5906560000000001 -0.313392 -0.461217
3340 2.90785077 8.41415472 -0.52840584 0.8900290000000001 -0.06876399999999999 -0.357959
3360 2.19264291 8.6734134 -0.41718006 0.994313 0.021878 -0.205659
3380 2.41103313 8.65574559 -0.71775846 0.998142 -0.303085 -0.195602
3400 2.81325294 8.95063419 -0.81056106 0.839015 -0.642088 -0.262509
3420 2.76489945 8.160281730000001 -0.42765714000000005 0.664145 -0.685954 -0.329904
3440 2.30311332 7.192692 -0.6908103900000001 0.5946739999999999 -0.7144689999999999 -0.331421
3460 1.53730548 7.073843850000001 -1.7408826 0.696892 -0.734104 -0.305044
3480 0.7816706099999999 7.172483400000001 -1.4807214000000002 1.108231 -0.722168 -0.183614
3500 1.04812002 8.01178776 -1.6048080900000001 1.566121 -0.403161 0.095846
3520 2.42420796 10.125097199999999 -1.47907332 2.091744 -0.342702 0.238308
3540 3.3563247300000003 10.790313300000001 -1.68953706 2.474641 0.132037 0.266012
3560 3.3452394300000003 8.025413850000001 -0.6976970100000001 2.360106 0.241272 0.221275
3580 2.98569312 6.96052854 -0.9139977 2.007067 0.5183409999999999 0.236614
3600 2.2529646000000003 6.0908328 -1.0118916900000001 1.377158 0.849042 0.665488
3620 1.9956483 5.53414473 -0.9458802000000001 0.550794 0.634095 1.055233
3640 1.6328058300000001 5.351973030000001 -0.24160068 -0.072418 0.052902 1.217199
3660 1.1150340300000001 8.031849209999999 -1.31741433 -0.456342 -0.5574979999999999 1.282598
3680 0.42257556000000007 12.114761399999999 -1.9088298000000001 -0.713619 -0.8251780000000001 1.047203
3700 0.10073889000000001 13.64367933 -2.7500765400000002 -0.920415 -0.711942 0.881107
3720 -0.2402469 15.756380550000001 -4.20640047 -1.104839 -0.276376 0.80769
3740 0.24729048000000003 15.15418389 -4.995261810000001 -1.314446 0.196789 0.677433
3760 2.6069780700000003 12.70931607 -5.207069520000001 -1.507498 0.693731 0.447917
3780 3.2058785700000003 13.31855631 -4.02482718 -1.6510169999999995 1.019135 0.182646
3800 3.4188929100000003 14.185701450000002 -4.81548375 -1.831749 1.117836 -0.100753
3820 3.37353147 13.333075110000001 -7.1699426100000005 -1.907005 1.047341 -0.521
3840 4.05087273 10.091713770000002 -7.989931080000002 -1.700487 0.808441 -0.896333
3860 4.05102969 7.668408330000001 -5.759872830000001 -1.46091 0.243903 -1.118263
3880 3.46948308 6.17840667 -3.47307354 -1.254682 0.086552 -1.108075
3900 2.6695462500000002 5.55091002 -2.6391646800000004 -0.8294590000000001 0.224712 -0.8627959999999999
3920 1.41320898 5.343889590000001 -2.13919803 -0.32077 0.491077 -0.782672
3940 0.14385383999999998 5.028341129999999 -1.7437275 -0.095916 0.775475 -0.437498
3960 -1.2350790000000003 4.02378732 -1.23418629 0.032842 0.717542 -0.18122
3980 -1.12326462 4.39845084 -0.70697727 0.188436 0.423169 0.03923
4000 -0.30326634 4.46506074 -1.14167799 -0.13678800000000002 0.122288 0.173008
4020 0.10073889000000001 5.017569750000001 -2.19248595 -0.872451 0.112658 0.288591
4040 0.4827501 5.948784000000001 -2.60668377 -1.2695299999999998 0.28680500000000003 0.505648
4060 0.9324110700000001 7.871681340000001 -3.1490001899999998 -1.41307 0.197665 0.544284
4080 1.76767371 10.014479640000001 -3.4040700000000004 -1.391027 -0.247187 0.416821
4100 2.03157252 11.699965170000002 -3.1630677300000003 -0.247875 -1.459805 0.042868
4120 3.2380651800000004 12.07927863 -3.74131818 -0.110193 -0.997856 0.018669
4140 4.58286903 11.45493099 -5.7431075400000005 -0.283245 -0.5287029999999999 0.060656
4160 4.9630752000000005 9.43532667 -6.8713065900000005 -0.583717 -0.580361 -0.080246
4180 3.97498257 7.0853706 -4.887783450000001 -0.498282 -0.181864 -0.175231
4200 3.2386635900000003 6.449937660000001 -2.8415449800000006 -0.600699 0.584213 -0.122449
4220 2.6672997600000006 6.5647440900000005 -2.91308931 -0.419451 0.96851 0.053513
4240 2.83435425 8.06298615 -2.8032173100000004 -0.120607 0.797924 0.096411
4260 2.89347912 10.260563490000001 -2.01361041 -0.003693 0.5170170000000001 -0.086146
4280 2.58437583 12.01461111 -1.09257894 -0.029938 0.514306 -0.184602
4300 2.5538373 15.728539770000001 2.10282255 -0.063967 0.478449 -0.245683
4320 2.4739054200000004 17.201776140000003 0.30730806 -0.044416 0.30904 -0.254943
4340 3.7510497000000003 9.80895033 0.10673280000000002 0.129696 0.16231199999999998 -0.209742
4360 3.2482479600000005 11.016943920000001 2.1752792100000002 0.331092 -0.054942999999999985 -0.13328099999999998
4380 1.28582613 13.11856965 0.028144890000000002 0.512104 -0.14713900000000002 -0.144717
4400 1.6992685800000003 11.136988890000001 1.06892703 0.7586470000000001 0.017495 -0.23721
4420 2.39082453 13.26570984 -0.52196067 0.923291 0.307835 -0.259933
4440 4.12436925 12.47265963 -0.08232552 0.942408 0.29177600000000004 -0.256574
4460 3.5046617400000004 10.14574725 -0.118701 0.910451 -0.160899 -0.245535
4480 2.79753732 8.29874007 0.2311236 1.106845 -0.619639 -0.247848
4500 2.9337491700000005 6.95588841 -0.053886329999999996 1.548222 -1.482661 -0.32698
4520 2.78855136 6.7559017500000005 -0.7367702399999999 1.832651 -1.7757 -0.285094
4540 3.37173624 8.263865520000001 -1.71273771 2.052026 -1.592207 -0.009264
4560 4.19577624 8.98207524 -1.7302485600000002 2.562818 -0.997075 0.169798
4580 3.9050765100000002 7.662561570000001 -1.4974866900000001 2.965295 0.039094 0.439406
4600 2.9526138000000004 6.446494350000001 -1.71648513 2.825221 0.619344 0.375727
4620 2.3216738400000003 5.42546955 -1.88921961 2.335941 1.207827 0.15470599999999998
4640 2.35505727 5.21605548 -1.8345877200000003 1.742789 1.32451 0.26044
4660 2.5885647 6.123617820000001 -2.70023193 1.217184 1.02779 0.592571
4680 3.44434005 7.970625 -2.31194232 0.572371 0.5249510000000001 0.892086
4700 3.55091589 7.3748637 -1.9251438300000001 -0.06165 0.26918000000000003 0.934987
4720 3.3840085500000003 6.40832364 -1.57547619 -0.481361 0.35397 0.8742629999999999
4740 2.7217943100000004 9.254057490000001 -1.7036045999999998 -0.888166 0.6318 0.7460829999999999
4760 0.6749476200000001 12.291086340000001 -2.90306349 -1.292824 0.842792 0.547501
4780 -2.0877053400000003 15.509698290000001 -1.5645478499999999 -1.636901 0.975914 0.322737
4800 -1.9535830200000002 18.71798031 -2.7783685800000004 -2.099275 1.025741 -0.01491
4820 0.41478642000000004 16.067583180000003 -3.57860952 -2.483844 1.043398 -0.366927
4840 1.0075556700000001 13.94485614 -3.4317636300000003 -2.653034 0.814145 -0.697896
4860 3.2133636000000005 12.348121680000002 -4.364478810000001 -2.544082 0.319563 -0.984921
4880 5.099748120000001 11.74517946 -5.52486447 -2.189519 -0.194658 -1.102494
4900 6.142472639999999 10.23586191 -6.4409517 -1.535198 -0.887033 -1.150448
4920 4.2685272 8.34544548 -5.240600100000001 -0.913919 -1.348918 -0.735319
4940 2.0975840100000003 7.17023691 -3.71287899 -0.049298 -0.530419 -0.245356
4960 1.25184429 5.691762000000001 -3.03134886 0.725599 1.810184 0.365944
4980 1.16861625 4.51281582 -2.73421377 0.371302 2.805167 0.668774
5000 0.7726944600000001 3.24689418 -2.4689611800000004 -0.935309 1.874519 0.369215
5020 0.51552531 2.79558513 -1.85778837 -0.75143 -0.502514 0.044533
5040 0.75473235 2.19967668 -1.33162902 -0.345515 -2.304301 -0.205627
5060 0.7126670700000001 2.7496350900000004 -1.11757482 -0.409971 -0.947775 0.541008
5080 0.47361699000000007 3.85418223 -1.05335856 -0.54057 -0.921406 0.187548
5100 0.22244175000000002 6.92430021 -1.84775274 -0.377011 -1.05548 -0.257654
5120 0.83256489 9.59520024 -2.87223066 -0.253228 -0.062164 -0.218538
5140 0.8665467300000002 11.41316982 -4.778362710000001 -0.164983 0.31062 -0.013301
5160 2.69664147 12.41293635 -5.16875166 -0.061492 -0.126652 0.024302
5180 5.6567403 8.93551698 -4.781658870000001 -0.024024 -0.515949 -0.15653499999999998
5200 5.65913394 7.70103639 -4.6360098 -0.060029 -0.6142569999999999 -0.315826
5220 3.12699636 8.597670390000001 0.42391953000000004 -0.231462 0.021853 -0.468458
5240 1.96436421 12.94942563 4.15805679 -0.218873 0.327079 -0.352325
5260 3.8363770800000006 18.10574802 -0.43394535 0.09524 0.116527 -0.185355
5280 8.96321061 12.03437826 -0.9874942200000001 0.401934 -0.206422 -0.142206
5300 6.75874665 9.5205069 -1.7248628700000002 0.70698 -0.281827 -0.197663
5320 0.56402595 14.986236690000002 -1.3105277100000001 0.916763 0.065945 -0.236167
5340 2.37869937 15.752937240000001 -1.15485282 1.007691 0.175129 -0.180124
5360 5.269941810000001 12.945383910000002 -0.7174543500000001 1.027602 -0.379948 -0.180342
5380 5.2040774700000005 12.238995240000003 -0.5695686 1.31518 -0.5033920000000001 -0.195267
5400 2.447114310000001 9.53412318 0.08098155 1.626702 -0.653975 -0.104236
5420 1.36156914 7.247775150000001 -0.13187583 1.7730689999999998 -1.3445790000000002 0.111316
5440 2.0956416300000003 6.00551523 -0.45670455000000004 1.924346 -1.284716 0.460536
5460 3.5206814700000004 6.662049480000001 -1.32998094 2.24994 -0.4583100000000001 0.772604
5480 4.6783693799999995 8.43764967 -2.2643442 2.369375 0.0025440000000000003 0.77178
5500 3.93996087 8.32868019 -2.8544157 2.187135 0.005367 0.490629
5520 2.76580197 6.36341346 -2.0092743900000003 1.675739 0.230478 0.316921
5540 2.5346783700000004 5.826031469999999 -2.8455867 1.072607 0.281075 0.44083
5560 2.52494685 5.5932696 -1.6769606400000001 0.571946 0.330301 0.552638
5580 1.74297213 5.640122160000001 -2.8234259100000005 0.09352 0.5287890000000001 0.6142029999999999
5600 2.0510355600000003 6.50681604 -3.56528754 -0.16053299999999998 0.587908 0.702084
5620 4.188438360000001 6.087693600000001 -2.40370506 -0.442968 0.5912689999999999 0.6392180000000001
5640 3.9246867 7.115605020000001 -0.6723970199999999 -0.8161109999999999 0.557791 0.543719
5660 1.8658718100000002 12.319231230000002 -2.5533860400000004 -1.210299 0.523587 0.381844
5680 0.6500988900000001 16.923505679999998 -4.67627985 -1.652462 0.436529 0.158814
5700 0.6116240700000001 17.27003412 -2.86518708 -2.019077 0.443351 -0.163154
5720 1.2088863 14.065205220000001 -2.274968430000001 -2.155825 0.374585 -0.430009
5740 2.05657821 12.046346459999999 -3.1783419 -2.185429 0.199863 -0.6660689999999999
5760 2.40729552 13.035488760000002 -4.708162350000001 -2.140899 -0.024413 -0.828908
5780 3.1988448000000007 13.488897150000001 -5.410195379999999 -1.986276 -0.092921 -0.880083
5800 3.5763630300000004 11.02337928 -6.2465076900000005 -1.588242 -0.192793 -0.758602
5820 4.33992438 9.59534739 -5.507343810000001 -1.073118 -0.291187 -0.575417
5840 3.8061328500000005 8.69631975 -3.98591091 -0.438897 -0.379739 -0.293135
5860 3.1515507900000004 6.84062091 -2.86713927 0.206856 0.400015 -0.047138
5880 2.23770024 5.19914304 -2.6906573700000003 0.370969 1.557458 0.204626
5900 1.2148704000000001 4.96622421 -2.8041198300000003 0.15073 1.899238 0.172739
5920 0.70428933 4.40189415 -2.5806382200000004 -0.615643 1.1855209999999998 -0.232283
5940 0.26494848000000004 3.8706532200000003 -2.13815817 -1.378602 0.026688 -0.416656
5960 0.77958108 4.10910489 -1.69986699 -1.451311 -0.642478 -0.5765399999999999
5980 1.18238949 5.08642614 -1.6727717700000002 -1.0004 -0.520139 -0.12703
6000 1.46275929 6.38945901 -1.8917702100000002 -0.918949 0.005103 0.319382
6020 1.2472041600000001 9.28399761 -2.6334748800000005 -0.812908 -0.433929 0.261933
6040 1.37563668 12.37072392 -3.4913397600000002 -0.686066 -0.879035 -0.158558
6060 1.3671117899999998 12.079131480000001 -3.9820163400000004 -0.480776 0.04658 -0.042942
6080 2.5725547800000004 9.30435336 -4.65442317 0.09707 0.819585 0.351073
6100 5.0507962200000005 7.22652669 -3.75614109 0.229749 0.487592 0.409041
6120 4.20235875 5.788459169999999 -2.49800859 0.115087 -0.27828600000000003 0.228692
6140 1.8302418900000001 5.66915976 -1.5111029699999998 -0.005442 -0.241877 0.0195
6160 -0.45894123000000003 7.230862709999999 -0.76356135 -0.33570500000000003 0.5157510000000001 -0.280744
6180 0.032186610000000004 10.213406820000001 -1.99579545 -0.473233 1.002992 -0.5301560000000001
6200 2.4670188000000004 12.66097239 -1.2237092100000002 -0.532373 0.737644 -0.455454
6220 5.69805021 13.714929360000001 0.9954305100000002 -0.643043 0.502959 -0.27860100000000004
6240 8.77041468 12.907360350000001 0.26853894 -0.549574 0.316696 -0.133499
6260 4.617145170000001 9.83948886 -0.2956341600000001 -0.241516 0.087376 -0.062688
6280 1.44090261 15.43904667 -1.05665472 -0.020337 -0.082747 -0.068402
6300 2.7232854300000007 19.817288910000002 -1.9423603800000002 0.365624 -0.021822 -0.187562
6320 6.352337970000001 11.912979510000001 1.00021779 0.567652 0.31405 -0.173762
6340 5.704485570000001 11.28053862 0.9607031100000001 0.900417 0.32235 -0.14047
6360 3.1600756800000003 10.27792719 -0.19728891 0.997653 -0.363997 -0.147457
6380 1.6673860800000002 8.69811498 -0.08232552 1.121455 -0.717594 -0.273258
6400 1.51155423 8.82339849 1.27415223 1.15027 -0.687978 -0.245321
6420 1.58700294 9.28264383 1.50362775 1.287251 -0.932953 -0.107317
6440 3.07624923 9.2486718 -0.09550035000000001 1.605809 -1.255829 -0.092928
6460 4.28065236 8.418490740000001 -0.7276371300000001 1.878794 -1.392599 0.040545
6480 4.50533079 7.3527127199999995 -0.47630493 2.094306 -1.627612 0.282702
6500 3.3751795500000004 6.4984383 -0.7535355300000001 2.59487 -1.447746 0.4227
6520 2.16689166 6.56983548 -2.4343907400000004 3.08273 -0.555081 0.5414
6540 2.31763212 6.84810594 -2.4179197500000003 3.179741 0.16131800000000002 0.324311
6560 3.33686169 7.06440663 -1.4437475100000001 2.639783 0.588119 -0.178867
6580 3.8538879300000004 8.76561759 -1.6437341699999999 2.209089 1.262476 0.184728
6600 3.7344315600000004 8.48884806 -1.41590673 1.662459 0.792321 0.749807
6620 2.7937899 6.43886217 -0.97327953 0.971627 0.676562 0.992957
6640 3.58684011 5.951471939999999 -0.20716758000000002 0.323198 0.483912 0.981197
6660 3.0726587700000003 6.480623340000001 -0.61671546 -0.15625999999999998 0.187056 0.775266
6680 2.3185248300000003 7.268287860000001 -2.5911153000000002 -0.42521 -0.097504 0.508833
6700 3.12804603 8.35322481 -2.22811587 -0.695924 -0.189686 0.353236
6720 2.01241359 10.33779762 -0.8752285799999999 -1.042813 0.098698 0.197688
6740 -0.31000581 14.780864340000003 -3.66363279 -1.486073 0.431558 -0.07395800000000001
6760 -0.7717919400000001 17.4797523 -3.505113 -1.952378 0.6493369999999999 -0.317845
6780 -0.40521186000000003 15.98375673 -2.0368110600000007 -2.2526200000000003 0.6933739999999999 -0.414002
6800 1.5829612199999998 13.48351146 -3.58968501 -2.556338 0.835741 -0.5882890000000001
6820 2.3920213500000003 15.67480059 -4.75351398 -2.707627 0.803345 -1.145848
6840 5.10018957 16.488814769999998 -5.5160256599999995 -2.334462 0.15684800000000002 -1.500268
6860 4.0182446700000005 11.463759990000002 -6.9088788899999996 -1.874421 -0.397016 -1.386318
6880 4.161794400000001 7.378905420000001 -6.021083699999999 -1.343494 -0.638662 -0.8246879999999999
6900 4.20685173 6.108500610000001 -4.418208180000001 -0.626328 -0.213375 -0.442072
6920 3.46395024 5.585333310000001 -3.0774460500000003 0.130511 0.520595 -0.031802
6940 1.65870423 5.03493345 -2.1288681 0.731622 1.420655 0.536333
6960 -0.34038738 4.26717342 -1.8242577900000003 0.183677 1.537535 0.55372
6980 -0.7023371400000001 3.20393619 -2.2558095 -0.6148560000000001 1.234401 0.595532
7000 -0.02439747 3.0873345300000006 -2.39337513 -0.684454 -0.873983 0.440719
7020 0.97956774 3.24390213 -2.10088017 -0.23777 -1.217483 0.174019
7040 1.3790799900000001 3.7003025700000003 -2.04280497 -0.099023 -0.183549 0.964148
7060 0.5215192200000001 3.9434041800000004 -1.95014952 -0.39633 -0.680763 0.621946
7080 0.6406714800000001 6.254139870000001 -2.03127822 -0.845949 -0.462542 -0.012794
7100 1.6462749600000002 10.557992880000002 -2.7328698 -0.628923 0.657932 -0.41757
7120 2.0490931800000003 13.357472580000001 -4.06943325 0.054371 0.686869 -0.254737
7140 2.7973803600000005 13.193262990000003 -5.8627110600000005 -0.005717 0.949793 -0.152945
7160 4.6505286 9.59175693 -7.174877040000001 -0.438892 0.974623 -0.126092
7180 3.4296642900000003 6.824758139999999 -9.867182490000001 -0.693778 0.6807479999999999 -0.206544
7200 2.0574709200000005 7.98724314 -4.68001746 -0.784972 0.613658 -0.399375
7220 2.65263381 9.45464256 4.54649355 -0.7503310000000001 0.428418 -0.458716
7240 3.4373062800000005 13.18653333 3.0734043300000002 -0.725527 0.352286 -0.355896
7260 2.19728304 16.90479801 1.75674537 -0.540003 0.374881 -0.306559
7280 8.39664387 11.547135180000001 -1.8670686300000001 -0.282244 0.329042 -0.255562
7300 5.5142304300000005 7.81988454 3.3431499 0.034053 0.249982 -0.206249
7320 -0.20372427 8.9219007 0.17558919000000003 0.531038 0.179126 -0.233665
7340 1.9205037 17.82972405 -1.23882642 0.905336 0.316549 -0.292116
7360 5.848035300000001 21.31537401 -2.14414227 1.056893 0.368064 -0.25266700000000003
7380 4.03979724 11.13504651 -0.13861530000000005 0.905313 -0.592316 -0.246086
7400 5.122801620000001 9.99755739 0.27063828 1.017948 -1.043931 -0.35902
7420 4.61130822 9.09987372 -0.17244018 1.327856 -0.910866 -0.337798
7440 4.12182846 7.940233620000001 -0.30821058 1.661252 -0.908262 -0.212627
7460 3.62740446 7.7799186 -0.91339929 2.186607 -1.496096 -0.184703
7480 3.6489668400000004 7.34776848 -1.5928398900000003 2.682998 -2.025616 -0.063053
7500 3.3123072600000003 7.25690826 -1.39330449 3.095085 -1.837949 0.067772
7520 3.1699543500000003 7.6950522900000005 -0.9535123800000002 3.352538 -1.206406 0.152082
7540 2.8288214100000006 7.650289260000001 -1.3840242299999999 3.080342 -0.675411 -5.1e-05
7560 2.80606221 7.38983376 -2.16315405 2.607721 -0.352493 -0.15759
7580 2.32616682 6.611900760000001 -2.27736207 1.991678 0.084992 -0.336574
7600 2.85950709 5.9457821399999995 -1.88921961 1.397186 0.468808 0.098889
7620 4.26358296 6.418349460000001 -2.9509657200000006 0.7476189999999999 0.665486 0.494683
7640 3.5146875600000005 6.72551037 -1.7449243200000002 -0.033368 0.944037 0.776223
7660 2.84064246 6.27884145 -1.10395854 -0.763771 1.233416 0.970508
7680 3.3908951700000003 6.8256606600000005 -1.2434665500000002 -1.241215 1.547366 0.928314
7700 3.20977314 7.266492629999999 -1.64807019 -1.731241 1.694979 0.669397
7720 1.87604478 7.48323477 -1.96122501 -2.357144 1.453444 0.34273200000000004
7740 0.46582785000000004 10.27403262 -3.0855294900000003 -2.742082 0.980807 0.05757
7760 0.93570723 14.12297631 -4.142782620000001 -2.836109 0.554484 -0.339919
7780 1.6464221100000003 19.344574440000002 -4.14323388 -2.862639 -0.169853 -0.8615370000000001
7800 1.1539503 19.768337010000003 -0.69859953 -2.4944610000000003 -0.83395 -1.072827
7820 0.53364438 12.64360869 -1.94026104 -1.614958 -1.1993049999999998 -1.044851
7840 0.61282089 10.71486459 -5.306915699999999 -0.780018 -0.991451 -0.734842
7860 0.95575887 12.85407243 -6.499331010000001 -0.566596 0.25313800000000003 -0.208312
7880 2.1143493000000007 12.2394465 -4.79452959 -0.954997 1.532512 0.133439
7900 1.8010571400000002 8.38840347 -4.54619925 -1.525028 2.323163 0.04085
7920 1.96002819 5.42456703 -3.87649017 -1.356945 1.676322 0.215905
7940 2.03981292 3.6077942700000003 -3.6627302700000004 -0.036882 -0.335473 0.275774
7960 2.24054514 2.4131324700000003 -4.13694567 -0.421469 -0.407582 0.792335
7980 2.67298956 1.88936676 -4.19682591 -0.147884 -1.094263 0.716078
8000 2.38678281 0.9484308 -3.5621385300000004 -0.33002600000000004 -1.093583 0.172148
8020 1.17655254 1.0529073 -2.71520199 -0.287441 -0.158552 -0.060557000000000014
8040 0.42047622 3.19675527 -2.6773353900000005 -0.198101 0.486713 -0.06503300000000001
8060 0.96654006 7.13282157 -2.6541347400000004 -0.445508 0.417645 -0.160676
8080 1.85344254 9.96762708 -3.4049725200000003 -0.452634 0.485771 -0.407572
8100 1.39719906 11.22904593 -4.0894947 -0.358153 0.762786 -0.500202
8120 0.96025185 6.85394289 -3.21426612 -0.245461 0.922142 -0.488937
8140 0.30926025 5.96569644 -2.9503673100000007 -0.009816 0.328427 -0.338048
8160 0.32138541 11.04239106 -2.95381062 0.112843 -0.2839 -0.229584
8180 4.496050530000001 17.80502247 1.18987452 0.484718 -0.858334 -0.223046
8200 7.375314960000001 20.949088229999997 5.37142626 0.798419 -0.8424159999999999 -0.213397
8220 9.45179766 12.69120681 -1.75210524 1.03595 -0.469268 -0.22824
8240 6.332129370000001 9.27905337 -0.03637548 1.108822 0.023916 -0.281774
8260 1.66378581 13.95233136 -1.6328058300000001 1.136615 0.30598600000000004 -0.248826
8280 2.37151845 17.605791179999997 -0.60923043 1.002884 0.32415700000000003 -0.148302
8300 4.3605842400000006 12.600945000000001 -0.11286405000000001 1.014248 -0.323099 2.1e-05
8320 3.6878831100000005 11.40852969 -0.25012557 1.490955 -1.175415 0.143312
8340 2.36073726 9.405690660000001 0.42062337 2.193512 -1.92388 0.22715900000000006
8360 1.8814402799999999 8.23048209 0.5496543 2.751846 -2.660345 0.36553
8380 2.3842420200000003 9.28204542 -0.26405577 3.235401 -2.44334 0.290649
8400 4.4936568900000005 9.982293030000001 -0.47287143000000004 3.187336 -1.430508 0.12771400000000002
8420 4.60876743 7.8926355 -1.53790389 2.876395 -0.054495 -0.054614
8440 3.33476235 5.780081429999999 -1.5170968800000002 2.17466 0.625844 -0.152255
8460 2.49157323 4.7604006000000005 -1.58999499 1.646856 0.7563310000000001 -0.092015
8480 2.03771358 5.62993938 -2.65577301 1.106875 0.6681189999999999 0.324137
8500 2.02484286 7.062758550000001 -1.4112666 0.308052 0.8378260000000001 0.6676489999999999
8520 1.4615624699999998 6.91382313 -2.9617371 -0.687268 1.0609879999999998 0.8676450000000001
8540 2.54246751 6.60531825 -1.94445972 -1.366399 1.136981 0.8339620000000001
8560 3.8284407900000006 6.44245263 -1.3723503300000002 -1.864294 1.269301 0.410504
8580 3.95073225 6.930284310000001 -2.40130161 -2.387618 1.28951 0.073537
8600 4.1891839200000005 9.47544957 -3.2627667600000003 -2.897948 1.389419 -0.22605300000000006
8620 2.38574295 10.301431950000001 -1.5328125000000001 -3.273735 1.299152 -0.503095
8640 -0.15777423000000002 14.582820060000001 -4.30160652 -3.518492 0.741522 -0.966631
8660 -1.0102534200000002 17.445917610000002 -2.8771650900000005 -3.14914 0.288547 -1.228389
8680 -0.9686394 15.415993170000002 -0.10104300000000001 -2.212011 -0.499057 -1.150331
8700 0.78586929 10.161914130000001 -3.3383626200000003 -1.297453 -1.117922 -0.627199
8720 1.69283322 9.058858110000001 -5.455409670000001 -0.592908 -1.442231 -0.32276
8740 3.33341838 10.931469390000002 -5.55943491 0.177713 -0.297997 0.042216
8760 2.44291563 10.847191680000002 -4.96936341 0.317331 2.288305 0.7662680000000001
8780 1.9323345600000001 8.35278336 -5.08986945 -1.031776 2.7961400000000003 0.679281
8800 1.9646683200000001 4.78360125 -4.94616276 0.14344500000000002 -0.831241 0.489176
8820 2.4462117900000004 2.74319973 -4.36267377 0.012346 -1.294111 0.471762
8840 2.75875839 1.22220828 -4.04129817 0.191032 -0.498628 0.918508
8860 2.19069072 1.0671318 -3.45826044 0.22288 -1.672132 0.251527
8880 1.58879817 2.1963805200000004 -2.8984233600000002 -0.189903 -1.205372 -0.4975729999999999
8900 0.96115437 3.36979386 -2.40938505 -0.341502 -0.387446 -0.846852
8920 0.95381649 7.51841343 -2.03067981 -0.673746 0.519927 -1.030865
8940 1.87634889 10.90452132 -2.8261236600000004 -0.924866 0.783351 -1.154734
8960 1.9874177100000001 12.14574138 -3.7314395100000004 -1.114084 0.937516 -0.915904
8980 0.96130152 9.871371360000001 -5.63877819 -1.230269 1.047406 -0.5910479999999999
9000 2.2499725500000007 6.7340450700000005 -5.58712854 -1.207992 1.009128 -0.362244
9020 3.91810419 6.619680090000001 -3.3781716000000004 -1.049051 0.73068 -0.397097
9040 3.8444507100000003 10.5127884 -0.07275096 -0.855073 0.459275 -0.625062
9060 1.31770863 14.817386970000001 5.12399844 -0.647759 0.127932 -0.7941050000000001
9080 2.04849477 19.02318903 0.8090699400000001 -0.5175489999999999 0.001265 -0.931902
9100 13.52811753 16.20335358 -0.62015877 -0.378905 0.030446 -0.8903780000000001
9120 8.32717926 10.69391043 0.57151098 -0.321556 0.165711 -0.933948
9140 1.59224148 14.359485600000001 -1.03419963 -0.358738 0.262534 -0.872375
9160 2.41133724 15.72375249 0.43829118000000006 -0.418849 0.405543 -0.885797
9180 2.74349403 14.4665127 -0.30716091 -0.298095 0.171987 -0.925246
9200 1.90045206 11.77106805 0.5903756099999998 -0.195505 -0.248049 -0.668686
9220 1.8244049400000002 10.14874911 0.8885505600000001 -0.222878 -0.515844 -0.542484
9240 2.32915887 8.347691970000001 0.7445495700000001 -0.047232 -0.7766390000000001 -0.4778979999999999
9260 3.2115683699999997 7.809858720000001 0.55759059 0.223744 -1.010904 -0.4703640000000001
9280 3.6330942600000005 7.6526829 -0.41643450000000004 0.8619969999999999 -1.062762 -0.575866
9300 3.5194846500000003 7.42710195 -0.78286743 1.816304 -1.064561 -0.686702
9320 2.84932431 6.9669639000000005 -0.5786919 3.000888 -1.433032 -0.4109
9340 2.2905369 6.82341417 -0.42272271 3.771203 -2.579638 0.344773
9360 2.40490188 6.56609787 -0.41268708000000004 3.102649 -2.702688 1.3251620000000002
9380 2.20625919 6.07077135 -1.16442738 2.675355 -0.544475 1.703971
9400 1.8250033500000002 5.568420870000001 -2.3454729000000003 2.680668 1.233918 1.58743
9420 2.3321509200000006 6.8946642 -2.0718425700000003 1.824005 0.4627310000000001 1.5130000000000001
9440 3.64641624 8.44379073 -0.96280245 0.8897200000000001 -0.6865140000000001 1.476968
9460 4.94242515 8.27135055 0.70473078 0.7519520000000001 -1.270337 1.8752
9480 3.8227509900000003 7.243135020000001 0.26405577 0.816333 -1.615902 1.923095
9500 4.607570610000001 8.67236373 -1.84176864 0.274214 -1.608839 1.958823
9520 5.23791216 9.274118940000001 -1.9023944400000001 -0.3894780000000001 -1.29903 2.047794
9540 3.7655685000000005 11.414366639999999 -3.7095828300000004 -0.8936270000000001 -1.037006 1.960615
9560 3.07849572 11.9991996 -4.80007224 -1.370377 -1.4489 1.74951
9580 4.255352370000001 10.19020617 -3.1684632300000004 -1.492705 -1.616958 1.259625
9600 5.958358560000001 9.87047865 -0.38215836 -1.717868 -2.061951 0.5835060000000001
9620 3.48071553 10.79196138 -2.16180027 -1.528941 -1.99389 -0.0829
9640 0.48858705 17.412543990000003 -3.9944456100000005 -1.346863 -1.547536 -0.5073529999999999
9660 -0.7960422600000001 25.18588008 4.36013298 -1.199769 -1.144253 -0.786716
9680 -2.43334107 17.21016369 1.6693284600000002 -0.7779510000000001 -1.203719 -0.933245
9700 -0.90696393 16.695236790000003 -4.716687240000001 0.360565 -2.133363 -0.940124
9720 5.2753274999999995 15.05389626 -5.388495659999999 1.932852 -2.364873 -0.619061
9740 6.890769629999999 10.23122178 -2.65757805 2.15103 -1.0307389999999998 -0.111841
9760 5.47785495 8.42253246 -1.8425141999999999 1.611059 -0.074292 0.398045
9780 3.7420637400000003 8.83043226 -0.52211763 -0.07297000000000001 -0.095068 1.191748
9800 1.7055567900000002 9.80251497 0.9261228600000001 0.053755 -0.7820779999999999 0.79293
9820 -0.04879494 9.21244347 0.75293712 -0.25460900000000003 -0.5867640000000001 1.233838
9840 -0.83376171 7.6231940400000004 -0.8583161400000001 -1.427728 -1.917757 0.503095
9860 -0.21510387 5.91076044 -2.03097411 -2.110631 -3.519381 -0.373428
9880 -1.23927768 4.50862695 -2.44291563 -2.604362 -2.759162 -0.381056
9900 -2.2978747800000003 3.1930078500000003 -0.82089099 -2.385558 -1.364105 -0.191172
9920 -1.83188997 3.4675407000000003 -1.3477959000000002 -2.037517 -0.650205 -0.001648
9940 -0.41777847 4.88434014 -2.73167298 -2.071117 -0.200911 0.090476
9960 1.5736809600000001 7.59685419 -5.8586693400000005 -1.982063 0.462029 -0.07105299999999999
9980 4.64469165 11.71254159 -10.01013381 -1.571508 0.714849 -0.24797
10000 8.517885660000001 14.26653585 -10.507245750000001 -1.169956 0.491003 -0.561072
10020 6.4852634700000005 8.47657575 -3.0383826300000005 -1.107927 0.071934 -0.7769510000000001
10040 2.43049617 8.940009960000001 -0.8728349400000001 -1.070771 -0.241247 -0.811541
10060 -0.047902230000000004 16.72711929 1.0946782800000001 -0.910792 -0.405137 -0.7247560000000001
10080 5.92049196 20.677851540000002 3.71646945 -0.95945 -0.30486 -0.717747
10100 6.58989693 8.75200131 4.24996668 -1.121017 -0.059841 -0.84524
10120 3.51798372 11.89231965 3.7749959100000003 -1.287666 0.055026 -0.921326
10140 0.15732297 11.20973985 0.9937824300000001 -1.224141 0.174154 -0.930649
10160 -1.0207305 11.47334436 2.03845914 -0.832966 0.285989 -0.732576
10180 0.48783168000000005 12.96514125 1.5796650600000002 -0.368034 0.16237 -0.325382
10200 -0.37108287 14.2581483 0.1733427 0.0111 0.138277 0.042629
10220 0.15237873000000005 11.786342220000002 -0.92238525 0.557763 -0.541966 -0.015706
10240 0.11211849 10.27358136 -1.5498819000000004 1.06141 -1.441882 0.019944
10260 1.13448726 9.0756234 -1.75404762 1.836806 -1.6473240000000002 0.107876
10280 2.36972322 7.81299792 -1.2907703700000002 2.669781 -1.598464 0.220454
10300 2.5146169200000004 6.444699120000001 -1.07491113 3.14038 -1.6497669999999998 0.387245
10320 2.7388539 5.36663898 -1.0434798900000002 3.113586 -1.497949 0.805606
10340 2.76564501 5.5760530500000005 -0.57256065 3.033353 -0.8412120000000001 1.27529
10360 2.63122839 6.613097580000001 0.01212516 2.875309 0.052355 1.728104
10380 2.20252158 7.4922207300000006 0.47346984000000003 2.138768 0.180717 1.70143
10400 2.11615434 7.839200430000001 0.1651023 1.301059 -0.894206 1.377558
10420 2.6322780600000004 8.069568660000002 -0.20776599 1.031053 -1.654707 1.58495
10440 3.58219998 9.114843780000001 -0.6577310700000001 0.935914 -2.054214 1.940515
10460 3.42637794 11.87061012 -0.44338257000000003 0.459094 -2.45205 2.47501
10480 1.0295595 13.34624994 -0.8039785500000001 0.109173 -2.415805 2.505634
10500 0.68317821 13.388011109999999 -2.1200391 -0.164668 -2.97146 2.105987
10520 2.77058925 14.25680433 -0.7548795 -0.359213 -3.181304 1.7384959999999998
10540 2.9821026600000007 13.74860709 0.92059002 -0.5323640000000001 -2.783434 1.492154
10560 4.53451554 13.966859970000002 2.90725236 -0.735251 -2.285496 1.554192
10580 4.43737692 13.4540226 3.4955286300000004 -0.946658 -1.912713 1.487076
10600 0.71087184 9.751169430000001 0.27632808 -1.111485 -1.512939 1.289928
10620 -0.53573391 10.19259981 -0.90411903 -1.297652 -0.955112 1.01338
10640 -0.33320646000000004 12.231068760000001 -0.79439418 -1.47685 -0.596162 0.648473
10660 0.71072469 14.25455784 -1.5018227100000001 -1.585685 -0.528109 0.24170100000000005
10680 3.7503041400000003 12.64914153 -0.8906499 -1.553725 -0.689643 -0.148838
10700 5.41289313 8.88253317 0.57600396 -1.455202 -1.023762 -0.328251
10720 5.79474738 8.717568210000001 -0.6122224800000001 -1.458361 -1.344029 -0.420798
10740 5.9998254300000005 8.22120183 -1.4349185100000001 -0.904185 -1.649831 -0.351374
10760 5.310506159999999 8.22284991 0.40071888000000006 0.357542 -1.084923 0.07439
10780 1.8250033500000002 8.267004720000001 0.8340658200000001 0.754316 -0.333194 0.617787
10800 -0.17767872 8.45217828 0.567018 0.369426 -0.163881 0.967395
10820 -0.54307179 7.85745684 -0.49951539 -0.221645 -0.322052 0.808577
10840 0.50250744 7.88485617 -0.80173206 -1.269579 -0.6338630000000001 0.30706999999999995
10860 0.59157243 7.80162813 -0.91894194 -2.689876 -0.411882 0.105653
10880 0.50504823 8.2860165 -0.53888292 -1.893079 -1.0667719999999998 0.682488
10900 0.43080615000000005 8.21027349 -0.16226721000000002 -0.554247 -1.7607389999999998 0.971535
10920 0.52211763 7.474857030000001 -0.61761798 -0.5073300000000001 -1.997747 0.261799
10940 0.33425613 7.73591094 -1.1921210100000001 -0.313799 -2.648545 -0.7251890000000001
10960 0.8993317500000001 8.211176009999999 -1.8390708900000001 -0.786626 -2.383323 -1.371901
10980 1.6422332400000001 9.05452209 -2.41956783 -1.0923969999999998 -1.124919 -0.919519
11000 2.19608622 8.979671790000001 -5.31140868 -0.929714 -0.078983 -0.221105
11020 3.77170956 10.29962691 -7.35944238 -1.635945 -0.012499 0.547269
11040 6.975498600000001 11.928243870000001 -8.26776009 -1.536931 -0.004647999999999999 0.363148
11060 8.346642300000001 11.76373998 -5.08836852 -1.206465 -0.226834 -0.036979000000000005
11080 6.085898370000001 8.20923363 -5.9062674600000005 -1.033651 -0.284857 -0.32839
11100 6.652013850000001 4.55697063 -5.520969900000001 -1.095052 -0.144273 -0.533029
11120 6.649168950000001 4.158802350000001 -0.88001586 -0.985668 -0.238473 -0.513985
11140 3.64507227 7.562578050000001 1.0180327500000002 -0.730791 -0.399558 -0.411585
11160 3.39419133 19.30595247 3.2090275800000003 -0.655624 -0.477791 -0.359685
11180 1.5792138 24.22247922 -0.7286868000000001 -0.6765439999999999 -0.472041 -0.447433
11200 -1.8646749900000001 6.83958105 -4.14653004 -0.755046 -0.494711 -0.5707979999999999
11220 -1.45437174 6.865626600000001 0.8566680600000001 -0.806399 -0.474501 -0.518839
11240 -0.4340925 7.14883149 2.38199553 -0.900099 -0.234331 -0.558258
11260 1.08599643 6.62148513 5.692066110000001 -0.914232 0.081444 -0.6591739999999999
11280 4.02722082 11.26857042 5.97677193 -0.8410770000000001 0.158124 -0.717513
11300 2.65637142 14.890883490000002 0.87941745 -0.762846 0.132698 -0.8205520000000001
11320 3.6318974400000004 9.377997030000001 -1.06787736 -0.66801 0.121654 -0.80492
11340 1.8522457200000002 9.04464342 0.22842585 -0.388092 0.125386 -0.649146
11360 2.1026754000000003 9.30509892 1.70405586 -0.171693 0.07471599999999999 -0.420038
11380 1.8781441200000002 9.183553020000002 1.52786826 -0.063837 -0.097342 -0.376335
11400 1.0309034700000002 9.42814575 0.32662395 -0.114986 -0.275249 -0.330531
11420 1.3930003800000001 8.948544660000001 -0.38993769 -0.085387 -0.288329 -0.282238
11440 1.9118218500000002 8.851994640000001 -0.17678601 0.139526 -0.08886799999999999 -0.274513
11460 1.9152651600000001 9.15002244 0.32048288999999996 0.611504 -0.16323800000000002 -0.200618
11480 1.99834605 9.21618108 0.8182030499999999 1.15967 -0.430366 0.058858000000000014
11500 2.2781174400000004 9.095988960000001 0.94917636 1.868967 -0.965182 0.520629
11520 2.06256231 8.815315049999999 0.92463174 2.291779 -1.368997 1.237672
11540 1.85509062 9.13160907 1.06773021 2.584757 -1.738228 1.677094
11560 1.4166522899999998 9.000037350000001 1.06638624 2.884461 -1.447683 1.752523
11580 1.32430095 9.0724842 0.89828208 2.9273 -0.808228 1.643044
11600 1.8676670400000002 10.29034665 0.38065743 2.706291 -0.177806 1.357613
11620 2.2356009 10.7991423 0.12439080000000001 2.323073 0.24847800000000006 1.11404
11640 2.27152512 9.64758564 0.76161897 2.013885 0.324008 1.141694
11660 2.20596489 9.81254079 0.76595499 1.773266 0.035961 1.455508
11680 4.0499800200000005 9.59056011 0.8107180199999999 1.61314 -0.765139 1.863477
11700 4.39755813 10.039475520000002 0.48409407000000004 1.43092 -1.263717 2.028417
11720 3.3534798300000004 11.765535210000001 -0.19205037000000003 1.105976 -1.477456 1.948441
11740 2.8506682800000003 12.197381220000002 -0.43394535 0.881877 -1.307182 1.652897
11760 3.5838480600000002 11.53710936 0.22992678000000003 0.67383 -0.93756 1.308071
11780 4.2487600500000005 10.696608180000002 0.7937957700000001 0.403271 -0.883295 1.026237
11800 3.53893788 10.33076385 1.54044468 0.27015300000000003 -0.705647 0.672566
11820 0.5944173300000001 10.804527990000002 1.41904593 0.029497 -0.425574 0.372493
11840 -1.7702145 12.67728642 0.17798283 -0.34973200000000004 0.00257 0.193038
11860 -2.6750889 13.619124900000001 -0.40071888000000006 -0.779363 0.270554 0.14910199999999998
11880 -1.6377402600000002 15.88406751 -0.43769277 -1.0663280000000002 0.372263 0.004893
11900 -0.6650689500000001 16.95165057 -1.3736943 -1.214191 0.26918600000000004 -0.196833
11920 0.7548795 13.010640030000001 -1.2506474699999999 -1.3496290000000002 0.103129 -0.377028
11940 1.75674537 9.49939578 -0.76176612 -1.459919 -0.06342300000000001 -0.455565
11960 2.1013314300000006 8.330926680000001 -0.99333117 -1.4993299999999998 -0.12689 -0.5337390000000001
11980 2.5147738800000004 8.424778950000002 -1.67681349 -1.45405 -0.302644 -0.576995
12000 2.0181033900000003 8.73104715 -1.8995495400000002 -1.366737 -0.482301 -0.480015
12020 2.6470911600000004 9.65357955 -1.70121096 -1.239421 -0.26492 -0.340535
12040 1.51305516 8.38945314 -1.49554431 -1.070511 -0.061489 -0.211429
12060 -0.0896634 6.83613774 -2.0341231200000003 -0.771046 -0.180487 -0.016905
12080 -0.70907661 6.2405235900000005 -2.5791372900000002 -0.7263569999999999 -0.500954 0.165416
12100 -0.14400099 5.92258149 -2.50399269 -1.076281 -0.691658 0.207013
12120 0.8491830300000001 5.281919820000001 -2.5008534900000003 -1.308981 -0.703688 0.220358
12140 1.8675198900000003 4.78689741 -2.5065334800000003 -1.154092 -0.725167 0.395588
12160 2.7988812900000006 4.918626090000001 -2.6207513100000006 -1.23601 -0.510352 0.559246
12180 2.689902 4.251310650000001 -2.69200134 -1.027325 -0.726949 0.198854
12200 2.33813502 3.81496185 -2.8433402100000005 -0.232615 -1.894472 -0.227797
12220 2.257310430000001 3.9285812700000005 -2.7614561400000004 -0.474012 -0.942709 -0.402686
12240 2.3128448400000003 4.1415858000000005 -2.29412736 -0.097886 0.428897 -0.34520100000000004
12260 2.5147738800000004 5.0049933300000005 -2.07454032 0.27365100000000003 0.644501 0.29271
12280 2.85126669 6.56115363 -2.17272861 0.065309 -0.266116 0.158894
12300 3.18477726 8.51594328 -3.24569736 -0.631788 -1.041567 -0.053285
12320 3.9002892300000003 10.033785720000001 -4.49695305 -0.955889 -0.756102 -0.297333
12340 4.73809266 9.064096650000002 -4.49695305 -1.124548 0.142528 -0.567786
12360 4.6217853 6.880743810000001 -3.86256978 -1.114285 0.177034 -0.68099
12380 3.4822066500000006 6.152204159999999 -3.78023445 -0.979944 0.238137 -0.360732
12400 2.5523461800000002 7.04883816 -3.0837342600000004 -0.7890739999999999 0.65637 -0.154836
12420 1.81722402 7.948474020000001 -2.57674365 -0.423265 0.666651 -0.112769
12440 1.3632172200000001 11.215723950000003 -2.2722706800000005 0.028378 0.280468 -0.099506
12460 2.4905235600000006 13.850248500000001 -0.8035272900000001 0.319543 0.018473 -0.101409
12480 4.030821090000002 14.3130843 3.83981058 0.622182 -0.135681 -0.174941
12500 0.8587674 13.949339310000001 1.71139374 0.803033 -0.053063 -0.213308
12520 -0.77613777 13.445635050000002 -2.81235042 0.932766 -0.38588 -0.213044
12540 3.1952543400000004 18.45422865 -0.9632439 0.961215 -1.1711129999999998 -0.206498
12560 6.51879405 21.114945900000002 -5.4705268799999995 1.174118 -1.2072889999999998 -0.13552999999999998
12580 7.694149770000001 8.330622570000001 2.06495595 1.622972 -1.272672 0.108039
12600 4.62388464 9.628573860000001 0.8020361700000002 2.229301 -2.113296 0.145398
12620 3.13957278 9.87301944 0.04625415 2.76092 -1.953594 0.239706
12640 1.51275105 9.429038460000001 1.5522755400000001 2.970916 -1.223781 0.29899000000000003
12660 1.02910824 9.457928910000001 0.48543804 3.171929 -0.77327 0.416253
12680 2.8818052200000004 9.25195815 -0.7198578 3.090569 0.321285 0.623653
12700 5.07384972 7.627088610000001 -1.5236793900000003 2.515314 0.527658 0.396112
12720 4.1436851400000005 6.5370602700000005 -1.6290584099999998 1.805514 0.928558 0.389572
12740 3.51349074 6.739283610000001 -0.74650176 1.063693 0.8481870000000001 0.618434
12760 2.79214182 7.09269867 -2.08126998 0.370696 0.453473 0.826676
12780 2.05148682 6.258780000000001 -2.87312337 -0.335054 0.295343 1.022774
12800 2.78436249 6.0176403899999995 -2.40459777 -0.8413870000000001 0.390862 1.018047
12820 3.78398187 6.3978465600000005 -1.7788963500000001 -1.352393 0.563379 0.942686
12840 3.4643916900000002 6.931186830000001 -1.0795512600000001 -1.818586 1.051705 0.7069989999999999
12860 2.46013218 7.722137700000001 -3.7503041400000003 -2.386382 1.193322 0.4165680000000001
12880 3.1984033500000004 6.14427768 -0.9723770100000001 -3.007486 1.035003 0.054578
12900 2.89423449 5.67350559 0.08756406 -3.38167 0.8868540000000001 -0.400772
12920 1.17894618 9.35689572 -3.7473120900000003 -3.4313260000000003 0.74624 -0.890184
12940 0.93764961 13.230982440000002 -4.45278843 -3.05269 0.359682 -1.252376
12960 1.31187168 14.707819080000002 -2.5503939900000003 -1.992597 -0.695369 -1.264983
12980 -0.19728891 16.531027200000004 -2.24712765 -1.082707 -1.460041 -1.037594
13000 -0.613125 15.89664393 -2.44755576 -0.78403 -1.662389 -0.5118199999999999
13020 0.61686261 11.838580470000002 -2.85965424 0.008849 0.226134 -0.081413
13040 1.5976271700000002 11.97749007 -4.46895531 0.626028 1.84406 0.239155
13060 5.0900166 13.21452126 -7.1301238200000014 0.63589 2.58239 0.207299
13080 5.7669066 11.20015548 -7.72333452 -0.413992 1.369443 -0.048444
13100 6.235579350000001 8.00265465 -5.78726235 -0.976447 -0.143246 -0.094231
13120 3.9360663 6.811132050000001 -3.97768032 -1.053049 -1.15221 0.275063
13140 2.18171457 5.39239023 -3.3564718800000004 -0.5271060000000001 -0.129354 0.8361059999999999
13160 1.05770439 4.303548900000001 -2.7770246100000002 -0.413785 -0.660996 0.489339
13180 1.28642454 4.329898560000001 -2.60982297 -0.013878 -0.814592 -0.339816
13200 0.70697727 3.2085763199999997 -2.3067037800000003 0.794808 0.017377 0.026894
13220 0.39577464 2.6946990900000003 -2.46073059 0.17669400000000002 -0.62474 -0.297067
13240 -0.15163317 3.42832032 -1.96885719 -0.301613 -0.757178 -0.595068
13260 -0.23261472000000002 6.746474340000001 -1.7745603300000001 -0.604412 -0.363489 -0.483388
13280 1.0581458400000003 9.148374360000002 -1.69283322 -0.461012 -0.2193 -0.435569
13300 0.73826136 10.60125498 -2.6605701 -0.389386 0.036173 -0.449283
13320 1.5864045300000003 10.759470660000002 -4.8277560600000005 -0.368723 0.207273 -0.364968
13340 4.783002840000001 9.54400185 -3.81316662 -0.230126 0.321291 -0.227414
13360 4.02213924 7.49626245 -3.76078122 0.035302 0.30106900000000003 -0.195624
13380 2.12826969 6.471941490000001 -1.1945146500000001 0.474926 0.34098 -0.168035
13400 0.5718150900000001 8.522525790000001 3.0882272399999997 0.8106899999999999 0.271637 -0.167737
13420 3.1617237600000005 11.65865526 0.8641530900000001 1.074762 -0.1604 -0.246524
13440 6.796613250000001 13.55386878 1.59508638 1.074021 -0.533361 -0.217209
13460 12.88220751 12.741502680000002 0.85008555 1.157089 -0.921893 -0.09649
13480 3.56199138 8.541988830000001 -3.3934457700000005 1.611671 -1.1365459999999998 -0.090904
13500 1.8366772500000002 24.06156579 -6.9177177 2.219085 -1.33759 0.108013
13520 8.39753658 14.19603138 0.46986957000000007 2.536718 -1.563675 0.426715
13540 3.52860795 9.51721074 1.1801430000000002 2.921071 -1.353626 0.5786819999999999
13560 3.1988448000000007 10.2668517 0.49876002 3.050643 -0.466978 0.647885
13580 2.6258427 9.83679111 0.017363700000000003 2.8612580000000003 0.047453 0.570059
13600 2.09743686 9.235791270000002 0.13472073 2.105162 0.006761 0.213385
13620 2.9404886400000003 8.31700629 -1.15754076 1.293057 -0.126299 0.35957100000000003
13640 4.78883979 8.02780749 -2.37646269 0.684733 -0.701222 0.538724
13660 4.4638639200000005 6.467899770000001 -1.46170962 0.008237000000000001 -0.498422 0.759134
13680 3.25019034 5.59716417 -1.6302552300000002 -0.562612 -0.021384 0.772695
13700 2.7098163000000004 5.45809761 -0.86669388 -1.022545 0.350192 0.689958
13720 2.3513098500000003 6.23648187 -2.19817575 -1.348011 0.6025050000000001 0.479058
13740 2.1183910200000002 6.86187918 -3.2745878100000003 -1.7612419999999998 0.8336520000000001 0.309232
13760 3.22579287 6.26686344 -1.9074858300000002 -2.243665 1.0100049999999998 0.049263
13780 2.9731167000000003 5.66975817 -1.41396435 -2.701103 0.978824 -0.280768
13800 3.2013954000000004 6.96381489 -2.8729762200000004 -3.068106 0.872834 -0.6292989999999999
13820 3.4967254500000005 9.37814418 -2.58467994 -3.21734 0.73649 -1.035023
13840 1.70495838 11.31870933 -1.99939572 -2.950919 0.259015 -1.207739
13860 -0.44502084000000003 14.193932040000002 -3.2976413100000004 -2.1830000000000003 -0.401362 -1.097911
13880 -0.53288901 16.98443559 -5.249880360000001 -1.245723 -1.2979 -0.685359
13900 1.8826371000000002 15.67180854 -2.9059083900000005 -0.205339 -1.598009 -0.06454800000000001
13920 4.1118026400000005 9.88844076 -3.42862443 0.533327 1.448108 0.768853
13940 4.5984375 11.852952120000001 -5.74894449 0.423551 3.513602 1.148931
13960 4.6768782600000005 12.25606464 -6.46849818 -0.995934 2.420035 0.398003
13980 3.16756071 9.8043102 -6.3559284300000005 -0.286275 -1.5298 -0.268163
14000 1.93487535 7.838003610000001 -4.3875225 0.555706 -2.239794 -0.069092
14020 1.52726985 6.60501414 -2.78855136 -0.8207270000000001 1.091073 0.919017
14040 1.674567 4.85350731 -1.71618102 -0.631779 -0.048896 -0.011828
14060 0.5480062200000001 3.8350233 -1.69267626 -0.478566 -0.203756 -0.311798
14080 -0.55309761 3.25992186 -1.9622648700000003 -0.204105 0.3990260000000001 -0.242287
14100 -0.10148445 3.44852892 -2.14967511 -0.114857 0.228624 -0.330108
14120 0.80651934 2.8108593 -1.9898113499999999 -0.082789 -0.197738 -0.295154
14140 0.5999501700000001 3.31770276 -2.01331611 -0.12732000000000002 -0.891966 -0.339441
14160 0.36194976 6.29111376 -1.98442566 -0.380148 -0.473248 -0.402632
14180 0.74799288 9.90490194 -2.50279587 -0.4724310000000001 0.373905 -0.387271
14200 1.22220828 12.388686029999999 -4.10716251 -0.429897 1.0089549999999998 -0.194439
14220 1.68654501 12.9160422 -7.37980794 -0.170124 1.041515 -0.037774
14240 5.883066810000001 8.97084279 -5.631891570000001 0.369249 0.463313 -0.033266000000000004
14260 6.183645210000001 8.58045384 -1.71318897 0.954185 0.17517 -0.144179
14280 2.7378042300000005 8.57087928 4.49530497 1.587213 0.140405 -0.25721700000000003
14300 -1.91556927 14.0702868 1.4004854100000002 2.123854 -0.252754 -0.17178
14320 0.9159498899999999 14.05067661 -2.22153336 2.429211 -1.151737 0.06865
14340 12.32941401 10.477609740000002 0.8873537400000001 3.012388 -2.0958650000000003 0.169006
14360 8.132892210000001 12.68342748 -3.0686170500000003 3.370746 -2.342196 0.187848
14380 -0.6590750400000001 18.90793134 -3.44149515 3.247997 -2.0777400000000004 0.227244
14400 4.8933261 15.4872432 -0.86999004 2.9123490000000003 -1.394299 0.102246
14420 5.31619596 11.68844823 -0.5017520700000001 2.481328 -0.208204 0.098784
14440 3.38266458 9.671688810000001 0.01212516 1.929225 0.010645 0.193992
14460 0.8182030499999999 8.173898009999998 0.8940932100000001 1.188747 -0.251868 0.416687
14480 0.45699885 7.2691805700000005 0.56821482 0.603526 -0.22806 0.5642560000000001
14500 3.1445072100000004 8.529716520000001 -0.95276682 -0.210535 -0.259098 0.7733220000000001
14520 5.98530663 9.37141452 0.1505835 -0.7384569999999999 0.19372 0.945311
14540 5.16216915 8.8615692 -0.9410929200000001 -1.306101 1.019602 0.8313290000000001
14560 3.36020949 7.03417221 -1.39359879 -1.8364 1.549339 0.4188850000000001
14580 2.50413984 6.68599569 -2.3583436200000003 -2.149001 1.6616099999999998 0.053363
14600 2.27123082 6.5250822600000005 -1.9553880600000002 -2.457216 1.64782 -0.22651
14620 3.0063529800000004 6.410118870000002 -2.8518651000000004 -2.973971 1.346889 -0.446583
14640 3.34434672 6.72970905 -3.8749892400000006 -3.257116 0.862619 -0.841046
14660 2.90216097 6.518195639999999 -3.40137225 -2.984055 -0.172428 -0.91152
14680 2.13725565 7.35315417 -4.18874247 -2.203451 -1.358884 -0.588353
14700 1.22550444 8.32717926 -2.84138802 -1.26294 -2.124899 -0.052032
14720 -0.12873663 9.110802060000001 -0.51807591 0.134678 -0.635023 0.977041
14740 -1.1951130600000002 10.0963539 -2.37481461 -0.809466 1.47978 0.938894
14760 -1.24435926 13.141623150000001 -2.7056274300000003 -1.353444 0.567096 -0.25053000000000003
14780 3.0523030200000005 10.90497258 -3.63204459 0.524662 -1.681175 -0.6778430000000001
14800 4.00372587 9.75731049 -5.251979700000001 -0.339082 2.159834 0.695617
14820 4.1038663500000006 12.085115580000002 -5.52755241 0.794046 0.489065 1.148985
14840 4.09862781 10.18347651 -4.81279581 0.550791 -1.494687 0.347594
14860 1.59538068 6.959478870000001 -3.70389303 -0.249011 -2.15365 -0.400631
14880 0.16406244 5.26979466 -3.51604134 -0.93279 -0.986862 -0.6846399999999999
14900 1.06204041 4.2081957 -3.58848819 -1.4086 0.667091 -0.699697
14920 1.88727723 3.79161405 -3.2418126 -1.44894 0.76078 -0.650961
14940 1.90897695 4.286783610000001 -3.81691404 -1.407668 0.97572 -0.359323
14960 1.4618567700000002 3.9350166300000002 -4.1891839200000005 -1.035507 0.939359 -0.114191
14980 1.3822290000000002 5.28295968 -2.7385596000000003 -0.421623 0.82737 -0.079849
15000 2.69080452 7.90595748 -2.0562741 0.510655 0.423019 -0.202074
15020 3.6208219500000003 9.2000142 -2.78974818 1.487678 -0.020802 -0.349573
15040 3.6564420600000003 9.54146106 -5.92587765 1.994037 -0.037892 -0.51052
15060 6.777307169999999 11.039389200000002 -1.11338595 2.034182 0.296783 -0.32373
15080 4.1851422000000005 9.69833277 2.75292144 2.3660330000000003 -0.465582 0.094035
15100 -2.60068986 16.81917633 -2.5752427200000003 3.003793 -1.838173 0.202798
15120 -4.9081392 14.152318020000001 0.6930568800000001 3.084294 -2.075576 0.094706
15140 15.685434630000001 24.245385570000003 -4.62254067 3.259456 -2.045244 0.08307200000000001
15160 11.82765213 13.86730809 -0.72284985 2.739158 -1.607276 -0.033287
15180 4.54455117 9.82062423 -0.89888049 2.203963 -0.8637610000000001 -0.090321
15200 1.4275806300000002 9.182356200000001 0.31270356000000005 1.829438 0.41334 0.009044
15220 2.2065633 11.327842440000001 2.0966913000000007 1.386906 0.799162 0.344085
15240 1.5670886400000001 11.545644059999999 0.95816232 0.845684 0.738275 0.58821
15260 2.4667245 11.29895199 -0.87103971 -0.096445 1.212465 0.836327
15280 5.156479350000001 8.90303607 0.07559586 -1.144878 1.442383 0.991079
15300 4.86128664 7.45778763 0.32482872 -1.899776 2.036176 1.004273
15320 3.5266655700000005 9.202113540000001 -1.7594431200000002 -2.529418 2.664821 0.7181270000000001
15340 0.68408073 9.15436827 -2.99767113 -2.89751 2.398495 -0.025449
15360 0.00209934 7.02594162 -3.6534500100000002 -2.929696 1.767041 -0.859146
15380 1.50886629 5.614076610000001 -3.3055776 -2.8258240000000003 1.191007 -1.284971
15400 3.4088572800000003 5.00305095 -1.9805310900000002 -2.334448 0.379671 -1.279431
15420 4.0460854500000005 5.735475360000001 -2.4152318100000008 -1.31243 -0.677917 -0.891718
15440 2.48887548 7.83380493 -4.575236850000001 -0.44307 -1.656543 -0.40476
15460 2.01765213 6.987466800000001 -3.3172515000000002 0.450121 -0.438355 0.539953
15480 2.40175287 5.75733204 1.1094913800000001 -1.129401 2.32407 0.80205
15500 1.0139910300000001 6.32569401 1.14017706 -1.625306 2.044585 -0.003291
15520 -0.68348232 6.529869540000001 -0.7315317000000001 0.290685 -2.1059 -0.5550189999999999
15540 -2.0142088200000003 12.524456429999999 -3.1608310500000005 -0.785863 0.355479 0.495051
15560 2.35804932 16.711550820000003 -4.6726795800000005 0.120292 0.097175 0.6352399999999999
15580 5.27427783 10.332863190000001 -4.51056933 0.409441 -0.259246 0.273452
15600 4.2370861500000006 9.61031745 -3.72739779 -0.220533 -0.954483 -0.076161
15620 3.0915234000000003 9.342219960000001 -3.89804274 -0.464907 -0.708811 -0.295032
15640 1.59927525 7.48024272 -3.93996087 -0.648706 0.013673 -0.458543
15660 1.21801941 5.28161571 -3.8459516400000004 -0.7528560000000001 0.329296 -0.709639
15680 1.9850240700000001 3.5820528300000003 -3.80748663 -0.8307469999999999 0.778145 -0.734259
15700 2.10926772 2.46522357 -3.8556831600000003 -0.758035 1.273418 -0.511127
15720 2.17078623 3.55885218 -2.98898928 -0.512426 1.034258 -0.323235
15740 2.13306678 7.988439960000001 -1.83803103 -0.207871 0.704946 -0.285434
15760 1.6603425000000003 11.92554612 -2.54710764 0.192722 0.578921 -0.285679
15780 0.55624662 11.736791909999999 -5.675143860000001 0.4943520000000001 0.516067 -0.280287
15800 1.5043733099999999 10.655141310000001 -5.15797047 0.602491 0.30182 -0.34228200000000003
15820 8.08243938 7.82437752 0.9874942200000001 0.783688 0.067724 -0.299056
15840 5.5839893400000005 10.39093839 3.89459943 1.2394690000000002 -0.715187 -0.17843299999999998
15860 -0.7577244000000001 20.417396040000003 1.6384956300000002 1.53228 -1.566261 -0.185979
15880 6.12481464 15.369886170000001 -3.3482412900000003 1.593424 -1.739012 -0.194945
15900 12.14020854 18.538653510000003 -2.9352500999999998 1.7436330000000002 -1.5361280000000002 -0.1792
15920 5.9839528500000005 14.554380870000001 0.28515708 2.075797 -1.686343 0.067935
15940 4.33169379 11.94950214 -0.8497814400000001 2.62166 -2.249525 0.30641
15960 3.23177697 11.55177531 0.6598304100000001 3.014847 -1.831392 0.362032
15980 0.7801794900000001 10.54108044 1.4651529300000001 2.98695 -0.811188 0.46842
16000 -0.32198382000000003 9.19283328 0.5185173599999999 2.394814 -0.012874000000000002 0.07763300000000001
16020 0.8253839700000001 8.655902549999999 -0.048353490000000006 1.517003 0.631968 -0.047897
16040 3.87813825 9.57723813 0.21075804 0.800103 0.71949 0.264245
16060 4.614153120000001 8.69152266 -0.45819567 -0.053254 0.613634 0.835259
16080 3.5096059800000003 7.0223511599999995 -1.7917768800000002 -0.8721559999999999 0.784644 1.136968
16100 3.1299884100000006 5.67679194 -1.4317695000000001 -1.307395 1.04816 1.149614
16120 3.4151454900000004 4.8835945800000005 -1.06039233 -1.416731 1.310884 0.8120229999999999
16140 3.294198 5.041515960000001 -2.69080452 -1.62178 1.320743 0.389699
16160 4.06823643 6.0153939 -2.56206789 -2.098347 0.857975 -0.152489
16180 4.81727898 7.450901010000001 -2.4441222600000003 -2.401017 0.277997 -0.571535
16200 3.6561477600000005 7.10228304 -2.0694489300000005 -2.49175 -0.255307 -0.8588370000000001
16220 2.00851902 5.71916133 -1.8369813600000002 -2.552753 -0.5947859999999999 -1.15793
16240 1.7836934400000002 5.083129980000001 -2.66789817 -2.233382 -1.161921 -1.3322969999999998
16260 2.54171214 6.4179080100000006 -0.51059088 -1.614194 -1.470133 -1.2495969999999998
16280 1.30005063 9.16948548 -0.59920461 -0.980901 -1.387735 -0.826536
16300 0.41045040000000005 14.139143190000002 -5.419632600000001 -0.12548199999999998 -0.685449 -0.304441
16320 1.6253208000000001 16.61275431 -4.943317860000001 0.901775 2.053727 0.580507
16340 1.9441556100000001 16.9161678 -0.9035206200000001 -0.397187 2.576353 0.747021
16360 1.88772849 14.08226481 -1.4584134600000003 -1.442987 0.157301 0.274934
16380 2.9111469300000006 11.331138600000001 -4.04369181 0.28837 -2.895005 -0.353199
16400 2.74978224 12.272525820000002 -6.233038560000001 -1.612554 0.503948 0.845873
16420 2.9720670300000007 12.638664450000002 -5.72828463 -0.5238520000000001 -0.694833 0.255741
16440 2.25640791 9.45194481 -4.321815120000001 -0.8126770000000001 -1.095572 0.022433
16460 1.41215931 7.247775150000001 -2.3770611 -0.968348 -0.7906569999999999 -0.170257
16480 1.09287324 4.1553590400000004 -1.3115773800000001 -0.988691 -0.626413 -0.466507
16500 0.9473811300000001 2.0540276100000003 -1.5829612199999998 -0.931628 -0.163878 -0.833101
16520 1.40153508 1.02162321 -1.8045004500000001 -0.7827310000000001 0.28791 -0.989669
16540 1.97484129 1.94654925 -1.49090418 -0.786732 0.392248 -0.705683
16560 1.10126079 3.5334050400000003 -1.83548043 -0.705368 0.587441 -0.571837
16580 -0.36867942 6.86053521 -1.7122864500000001 -0.446326 0.634097 -0.476084
16600 -0.10987200000000001 10.69061427 -2.85831027 -0.095115 0.571631 -0.344296
16620 0.18771435 11.223356129999999 -4.47928524 0.41002 0.365764 -0.182407
16640 0.8818209 9.274864500000001 -4.82237037 0.90368 0.343614 -0.132997
16660 4.62074544 5.8308285600000005 -4.76998497 1.266131 -0.24972600000000006 -0.185252
16680 4.79603052 9.740398050000001 -2.29128246 1.353452 -1.880284 -0.355605
16700 3.0461619600000005 12.09649518 2.71325961 1.539276 -2.156516 -0.435138
16720 2.0228906700000007 15.11032338 4.3581906 1.976078 -2.298531 -0.197964
16740 6.865773750000001 14.46232383 -2.1080709 2.365585 -3.3081620000000003 0.200224
16760 16.748819010000002 18.823506480000002 -2.7735813000000005 2.798439 -2.996939 0.583136
16780 4.23588933 18.153944550000002 -0.22512969000000002 2.826085 -1.347912 0.8301120000000001
16800 5.04570483 15.88167387 -0.036826740000000004 2.233238 0.401272 1.076898
16820 5.20766793 12.85840845 0.81311166 1.900242 0.911161 0.6615850000000001
16840 2.4845296500000003 12.358000350000001 0.11451213 1.552152 0.798371 0.132664
16860 -0.26344755000000003 10.726097039999999 0.8675963999999999 1.046712 0.246846 0.23239
16880 -0.61866765 7.386086340000001 0.7123727700000001 0.506492 -0.377168 0.6406810000000001
16900 0.79305021 4.64963589 -0.1240965 0.121302 -0.336612 0.689214
16920 2.9585979000000004 4.89766212 -0.37182843 -0.214096 -0.070767 0.565821
16940 3.15663237 4.63391046 -1.2734066700000002 -0.5696899999999999 0.366989 0.359814
16960 2.84707782 4.81743594 -2.64125421 -1.05654 0.920716 0.037374
16980 3.13298046 5.270088960000001 -2.6782281 -1.650816 1.2047709999999998 -0.15301199999999998
17000 3.5262143100000003 5.67290718 -2.7678915 -2.290389 0.977363 -0.271488
17020 3.58354395 6.82775019 -3.99459276 -2.523291 0.218426 -0.486855
17040 2.44950795 7.16844168 -4.966675470000001 -2.209074 -0.696431 -0.8125
17060 2.2674834 6.64229214 -2.5972465500000004 -1.6496990000000002 -1.525339 -0.99981
17080 3.6646824600000003 4.82910984 1.08404424 -0.367738 -1.702908 -0.596454
17100 2.0929438800000004 6.3194058 1.4153083200000003 1.337218 -0.344536 0.285383
17120 -1.13074965 10.664274420000002 -3.1295469600000003 1.612796 0.719713 0.569023
17140 -2.4204703500000004 16.6875948 -3.37996683 1.485904 0.277885 0.347581
17160 -1.75330206 22.908508200000004 0.32198382000000003 1.340816 0.340996 0.408444
17180 -0.9819613800000001 15.14236284 -2.0187018 -2.179035 1.368108 0.748941
17200 1.5832555200000002 13.42543626 -5.87737701 -0.13203199999999998 0.01046 0.42849
17220 5.44238199 14.734158930000001 -5.17743351 -0.957826 0.294473 0.71505
17240 6.211485990000001 12.513223980000001 -4.568203080000001 -1.545098 -0.8262430000000001 0.170796
17260 1.77501159 8.01029664 -3.733686 -1.0961610000000002 -2.48156 -0.248031
17280 0.18845991 6.151007340000001 -2.34023436 -1.6581419999999998 -1.939644 -0.482319
17300 0.41179437 4.79543211 -1.54613448 -1.787316 -0.046248 -0.470692
17320 0.27527841000000003 4.118090850000001 -1.75315491 -1.697399 0.649289 -0.7924899999999999
17340 -0.42332112000000005 3.3479371800000006 -2.70592173 -1.737626 1.229969 -0.517914
17360 -0.92702538 4.07722239 -4.35339351 -1.625908 1.537843 -0.616873
17380 -0.6231508200000001 4.51027503 -5.14345167 -1.236661 1.080328 -0.560157
17400 0.11645451 6.6575565 -5.72858874 -0.869324 1.028416 -0.683575
17420 2.25057096 9.469612620000001 -6.37060419 -0.700221 1.037964 -0.5542189999999999
17440 5.382060300000001 12.139904430000001 -6.83657919 -0.5948289999999999 1.217654 -0.560122
17460 7.624390860000001 12.684320190000001 -7.07548212 -0.450115 1.608102 -0.5585439999999999
17480 4.47060339 8.736884100000001 -5.631891570000001 -0.15154700000000002 1.53053 -0.5990880000000001
17500 1.14961428 4.85560665 -8.93491857 0.07289 1.3339219999999998 -0.64427
17520 -1.01085183 11.10360546 3.53505312 0.098258 0.728116 -0.484151
17540 1.17401175 15.60954447 3.6797996700000004 -0.079636 -0.171266 -0.257778
17560 2.72074464 23.23797705 15.7562334 0.041419 -0.798922 -0.04462
17580 5.853273840000001 15.035335740000003 -2.31299199 0.642473 -0.8758790000000001 0.031247000000000007
17600 13.4628516 18.525478680000003 -2.05537158 1.438216 -1.128008 0.055289
17620 4.07167974 13.214217150000001 0.7682014800000001 2.482744 -1.764688 0.126426
17640 0.31000581 13.8647673 3.9251379600000003 3.5900260000000004 -2.606313 0.512321
17660 -1.53670707 12.12523848 2.4974101800000006 3.94961 -2.35574 1.472707
17680 -3.50600571 13.59427617 -1.0916764200000002 3.878904 -1.250625 1.694055
17700 -1.07506809 11.885737140000002 -0.8985861900000001 3.3706339999999995 0.10903 1.24545
17720 1.7304055200000004 9.15286734 -0.2803698 2.584048 1.164426 0.935228
17740 1.96735626 6.138136620000001 0.9123496200000001 1.977685 0.440802 1.003491
17760 3.12594669 5.19644529 0.83960847 1.508114 -0.5204300000000001 1.498166
17780 1.71947718 4.51715184 -0.13531914 0.869883 -1.273201 2.222132
17800 2.4873745500000006 5.031637290000001 -1.4076761400000002 0.31458800000000003 -1.973678 2.584483
17820 3.03823548 5.817506580000001 -3.80119842 0.109689 -2.6221330000000003 2.421513
17840 3.3902967600000005 8.00609796 -3.97827873 -0.479509 -3.158153 2.17987
17860 5.0409175500000005 10.317598830000001 -2.1445935300000003 -0.98063 -3.170032 1.855919
17880 5.2753274999999995 9.75671208 -0.5364892800000001 -1.17415 -2.757434 1.407521
17900 4.98029175 9.26647695 -0.49023513 -1.176441 -2.053605 0.956882
17920 4.20086763 9.16977978 -2.07947475 -1.187868 -1.473248 0.755233
17940 3.82664556 10.19364948 -1.87829127 -1.276867 -1.023799 0.590597
17960 3.81511881 12.589869509999998 -1.21127994 -1.523402 -0.558625 0.35968
17980 3.2528880900000003 13.53874176 0.02754648 -1.747273 -0.20046 -0.036517
18000 2.99422782 11.793071880000001 2.16404676 -1.7914759999999998 0.133063 -0.553204
18020 2.9177294400000005 13.222899000000002 1.27460349 -1.560523 0.145335 -0.891301
18040 0.29099403 16.773373440000004 -0.74200878 -1.2505620000000002 -0.529601 -0.739789
18060 -1.8348820200000002 18.61978221 -1.82590587 -1.300523 -1.228982 -0.290588
18080 -0.45819567 18.51888636 0.8357139 -1.087793 -1.413634 0.14696900000000002
18100 4.52314575 12.96902601 0.6231508200000001 -0.372098 -0.967592 0.402429
18120 5.616323100000001 8.0773578 -1.5938895600000003 -0.025642 -0.445129 0.515274
18140 7.6215557700000005 7.005880169999999 -2.78615772 0.07117799999999999 -0.103217 0.441805
18160 6.78703869 8.0081973 -2.37915063 -0.028479 -0.256154 0.146476
18180 4.36267377 8.624167200000002 -2.23919136 -0.71878 -0.514894 -0.350465
18200 2.04594417 8.656049700000002 -1.45108539 -1.752113 -0.548854 -0.020081
18220 0.14969079000000002 6.763681080000001 1.1493101700000001 -1.118883 -1.218545 0.137956
18240 -0.025898400000000002 4.71624579 1.01833686 -0.887656 -1.652276 0.244813
18260 -0.2891988000000001 4.160303280000001 -0.30177522 -0.97269 -1.019776 -0.145425
18280 -0.44846415 4.74169293 -1.39764051 -1.02092 -1.087926 -0.642397
18300 -0.19025514000000002 5.86180854 -1.60002081 -0.900385 -1.952757 -0.789998
18320 -0.08935929000000001 6.83657919 -1.6227800100000003 -1.009626 -2.495767 -0.765496
18340 -0.17303859 7.46722485 -1.8811361700000002 -1.41788 -2.261664 -0.6137560000000001
18360 0.13217994000000002 8.07645528 -2.31163821 -1.583882 -1.5945 -0.27928000000000003
18380 0.9804604500000001 8.190369 -2.3252643 -1.420619 -0.785713 0.050904000000000005
18400 2.68511472 8.5228299 -2.5700041800000006 -0.939896 -0.200201 0.26395100000000005
18420 4.60831617 10.101592440000001 -4.4396136 -0.4486810000000001 0.17715999999999998 0.307492
18440 5.8823212499999995 12.478055130000001 -6.928194780000001 -0.198283 0.1812 0.145797
18460 7.05902094 12.867090300000001 -7.0325241300000005 -0.12314 -0.208989 -0.110619
18480 4.81443408 10.57850559 -4.17002499 -0.32931900000000003 -1.042136 -0.172949
18500 3.82664556 7.950720510000001 -3.78068571 -0.664582 -1.698808 -0.299431
18520 4.11898356 6.290819460000001 -3.8464029 -0.934402 -1.800696 -0.426167
18540 3.56737707 7.478898750000001 -3.04916382 -1.04895 -1.471954 -0.486141
18560 3.83442489 14.344966800000002 -1.8021068100000002 -1.076631 -0.971231 -0.473089
18580 4.712802480000001 25.106536800000004 1.21787226 -1.03634 -0.564387 -0.485079
18600 1.76528007 10.59781167 -0.30431601 -0.929892 -0.339086 -0.442964
18620 -0.13307265000000001 6.32315322 -0.4773546 -0.8224100000000001 -0.188089 -0.468044
18640 0.5291514 6.4984383 1.8901221300000002 -0.7277680000000001 -0.116657 -0.564682
18660 1.05964677 6.70710681 2.48213601 -0.6595989999999999 -0.196569 -0.6196510000000001
18680 1.03510215 8.35891461 3.20064003 -0.5170710000000001 -0.366152 -0.692146
18700 1.1160837000000001 10.00774017 3.4578091800000004 -0.2997 -0.407469 -0.671346
18720 0.11226564 11.255994000000001 1.7863813800000001 -0.195032 -0.218873 -0.506351
18740 0.49442400000000003 10.451564190000001 0.10942074000000002 -0.0602 -0.067258 -0.443646
18760 2.1155461200000003 10.5819489 -0.28156662 0.03873 -0.169716 -0.48128
18780 3.5751662100000003 10.18826379 -0.44293130999999997 0.095711 -0.6159899999999999 -0.5497449999999999
18800 4.10102145 9.47904003 -0.85637376 0.311546 -0.752151 -0.519221
18820 3.61018791 9.1129014 -1.30648599 0.803331 -0.661596 -0.41442
18840 2.9222224200000007 8.74781244 -1.3931573400000001 1.41974 -0.725391 -0.180365
18860 1.70675361 8.84944404 -0.35850645000000003 2.122619 -1.134049 0.173308
18880 1.00635885 9.24387471 1.3085755200000002 2.404535 -1.638339 0.564757
18900 0.85008555 9.2723139 1.51514469 2.513529 -2.044493 1.073444
18920 1.28956374 9.02158992 1.15813917 2.693289 -1.629799 1.3743379999999998
18940 1.90718172 8.61608376 1.00800693 2.78331 -0.8375100000000001 1.365406
18960 1.90179603 9.13729887 1.00201302 2.425198 0.028339 1.198357
18980 1.40287905 8.43286239 1.00351395 1.702105 -0.076081 1.032139
19000 1.5458401800000001 9.19103805 0.9891423 1.090956 -0.794845 1.221071
19020 1.84296546 9.71404839 0.92507319 0.8281139999999999 -1.230025 1.585124
19040 1.8785953800000001 9.48757473 0.5198711400000001 0.699417 -1.674409 2.0035380000000003
19060 2.3493674700000002 10.29469248 0.40340682000000005 0.67414 -2.275182 2.280801
19080 2.10851235 10.265056470000003 0.7006890600000001 0.32356 -2.495116 2.439935
19100 0.6548861700000002 10.40681097 0.14505066000000003 -0.156198 -2.133682 2.247046
19120 2.0959457400000003 10.707830820000002 0.2083644 -0.42599 -2.057515 1.815638
19140 2.91488454 10.83147606 0.32138541 -0.357539 -1.915644 1.443125
19160 2.5300382400000005 11.05945065 -0.60250077 -0.36449 -1.536598 1.231083
19180 3.11561676 11.17126503 -0.9651960900000001 -0.382488 -1.121777 1.139627
19200 4.41387216 11.14253154 -0.48529089000000003 -0.355416 -0.882898 1.051916
19220 4.08126411 10.411902360000001 0.53932437 -0.348267 -0.8716459999999999 0.895991
19240 3.65480379 9.755662410000001 2.0158569 -0.341387 -0.98583 0.673995
19260 1.60451379 11.681855910000001 2.46043629 -0.398106 -1.0410700000000002 0.418364
19280 -0.39981636000000004 13.020528510000002 0.53020107 -0.507125 -1.060073 0.203983
19300 -2.19324132 15.360311610000002 -0.36479466 -0.616825 -1.162441 0.05807
19320 -1.5337150200000003 14.898672630000002 -0.48424122 -0.7779689999999999 -1.2287629999999998 0.000413
19340 -0.9080136000000001 13.86730809 -0.61132977 -0.999541 -1.141748 0.010505
19360 1.15949295 10.989544590000001 -1.9562807700000002 -1.22106 -1.012246 0.05152
19380 3.6576486900000003 7.21125252 -1.7901288000000002 -1.099294 -0.954188 0.079002
19400 4.605618420000001 6.16687992 -0.19175607 -0.398562 -0.892091 0.192776
19420 4.1472756 7.055126370000001 -0.08487612 0.354269 -0.6733060000000001 0.504333
19440 3.87888381 8.577010529999999 -0.9018725400000001 0.409595 -0.6618539999999999 0.788852
19460 3.51872928 9.68546205 -1.58071473 0.015911 -0.886374 0.800277
19480 2.227370310000001 10.11926025 -0.82507986 -0.25832 -1.196332 0.4964520000000001
19500 0.14983794 9.818534699999999 -0.4288539600000001 -0.5730930000000001 -1.28546 0.414251
19520 -1.33836849 8.99150265 -0.37451637000000004 -0.917145 -0.819162 0.5191399999999999
19540 -0.08981055 9.198218970000001 -0.66282246 -1.227577 0.009202 0.6270060000000001
19560 1.43027838 9.75162069 -1.38132648 -1.558758 0.756574 0.760467
19580 1.8535995 9.70462098 -1.9529846100000001 -1.348936 0.232453 0.31395100000000004
19600 1.80614853 8.95991445 -2.05237953 0.478347 -2.079907 -0.02604
19620 2.1086693100000007 7.85281671 -1.91556927 0.091788 -1.290765 0.365491
19640 2.40474492 6.981482700000001 -1.92365271 -0.669759 -0.919248 -0.5055649999999999
19660 2.5346783700000004 6.85394289 -2.04145119 -0.930259 -0.975063 -1.2390450000000002
19680 2.5126745400000003 7.3110987000000005 -2.06645688 -1.081595 -0.6030409999999999 -0.901952
19700 2.4611818500000004 6.7791024 -2.21105628 -1.242524 -0.960405 -0.106793
19720 2.1333610800000002 6.348747510000001 -2.62344906 -1.559895 -1.097465 0.344092
19740 1.86736293 6.69168549 -4.13485614 -1.437727 -0.429191 0.417796
19760 2.5885647 8.60440986 -5.16725073 -1.103222 0.22765 0.236625
19780 3.75179526 10.94254488 -5.348225610000001 -0.779096 0.5846319999999999 -0.072421
19800 4.412675340000002 11.98243431 -4.79766879 -0.704902 0.511681 -0.274771
19820 4.211197560000001 11.17470834 -5.26125996 -0.702382 0.25960700000000003 -0.375912
19840 4.33348902 9.65702286 -5.9182454700000005 -0.637582 0.155154 -0.418054
19860 5.00813253 7.0186037400000005 -4.876109550000001 -0.473774 0.056533000000000014 -0.4061010000000001
19880 4.47330114 6.4396077300000005 -3.8981898900000003 -0.343542 -0.046664 -0.286487
19900 4.0957829100000005 6.281087940000001 -3.65600061 -0.380932 -0.193949 -0.185078
19920 4.15206288 7.259449050000001 -2.5842286800000003 -0.466739 -0.35416 -0.006011
19940 4.3623794700000005 9.648036900000001 -1.4266879200000002 -0.4839020000000001 -0.400758 0.206505
19960 3.0868832700000004 12.18780666 -0.8940932100000001 -0.419403 -0.44288 0.294604
19980 1.8486552600000001 21.429434880000002 -3.7407197700000006 -0.16891099999999998 -0.5829439999999999 0.20573400000000006
20000 1.21651848 21.991067190000003 -2.86534404 0.05804 -0.555458 0.062005999999999985
20020 -1.2289477500000001 3.50780094 1.3145694300000001 0.104333 -0.645433 -0.12129
20040 -1.37294874 5.8249916100000005 2.9126478600000003 0.17666800000000002 -0.92704 -0.356501
20060 1.3308834600000001 5.75088687 5.467377870000001 0.18878 -0.718899 -0.4699140000000001
20080 4.59469989 9.649537830000002 4.024228770000001 0.179911 -0.343679 -0.256813
20100 5.01547041 13.66089588 0.5923179900000001 0.110894 -0.323938 -0.072518
20120 1.9745469900000003 10.434053339999998 -0.8177517900000001 0.197176 -0.380592 -0.098548
20140 0.47945394 9.183553020000002 -0.12529332 0.257279 -0.409129 -0.20705
20160 -0.24040386000000002 9.293876280000001 0.32931189000000005 0.402245 -0.297391 -0.303389
20180 1.00770282 9.477539100000001 -0.28934595 0.6219180000000001 0.037871 -0.41872
20200 2.53707201 8.94105963 -1.2900150000000001 0.7319359999999999 0.27834200000000003 -0.443897
20220 3.65105637 8.15609286 -2.0694489300000005 0.8996350000000001 0.4095 -0.3553
20240 3.68009397 8.13528585 -2.20625919 1.28466 0.355113 -0.142101
20260 3.53369934 8.848698480000001 -1.5826571100000002 1.832554 -0.330074 0.235414
20280 3.91406247 9.54251073 -0.58677534 2.45496 -1.191799 0.473738
20300 3.9764835 9.409428270000001 -0.42481224000000006 2.757547 -1.855063 0.377357
20320 3.7351869300000002 8.780440500000001 -0.64306512 2.855366 -0.972321 0.385454
20340 3.2763830400000002 8.71772517 -0.79679763 2.7870790000000003 -0.378255 0.26778
20360 2.46537072 9.10766286 -2.0184075 2.034476 -0.106763 0.159626
20380 2.4818417100000003 9.43532667 -3.02221575 1.517107 0.602679 0.615507
20400 3.10484538 8.61997833 -2.7970860600000007 1.121297 0.497115 0.98355
20420 2.6601188400000004 7.860605850000001 -1.34674623 0.806426 0.449388 1.203602
20440 1.81617435 6.43527171 1.2567885300000001 0.392187 0.273383 1.088771
20460 1.61245008 6.6783635100000005 2.05237953 -0.063608 0.014811 0.878683
20480 1.40992263 8.084833020000001 0.8619066000000001 -0.408274 -0.046754 0.590071
20500 0.6586335900000001 9.768385980000001 -1.4531749200000001 -0.687268 0.075534 0.354025
20520 0.8135629200000001 9.171280710000001 -0.8559225 -0.927089 0.35020100000000004 0.339179
20540 1.43401599 8.175997350000001 -0.30866184 -1.160145 0.7588560000000001 0.37762
20560 1.48401756 7.24822641 -0.22962267000000003 -1.499117 0.999977 0.312987
20580 1.4100697800000002 6.583010310000001 -0.030087270000000003 -2.018214 1.015999 0.21961
20600 1.5459873300000002 6.27450543 -1.19855637 -2.341189 1.076689 -0.025211
20620 3.1237002 8.28063081 -2.6785322099999997 -2.470395 1.078941 -0.475837
20640 4.575835260000001 9.17606799 -1.3765392 -2.522108 0.878986 -1.0421
20660 3.13493265 8.833434120000001 -1.99071387 -2.225625 0.105664 -1.315708
20680 1.2771442800000001 12.44916468 -3.64626909 -1.436857 -1.145983 -1.213522
20700 0.3817071 16.808395140000002 -4.3824409200000005 -0.6483899999999999 -1.256584 -0.612874
20720 1.42399017 18.23836941 -3.96166059 -0.31528 0.075937 0.197458
20740 2.56402008 16.361127810000003 -2.4191165700000004 0.300189 2.383791 0.8781889999999999
20760 3.12220908 13.95847242 -2.39307102 -0.41381 2.576809 0.647559
20780 2.6304828300000005 13.84441155 -6.342910560000001 -1.423864 1.1242530000000002 0.071935
20800 1.7335447199999998 13.23188496 -6.5749268700000005 -1.052805 -1.054598 -0.15875799999999998
20820 2.04878907 10.938807270000002 -5.26829373 -0.671573 -1.458462 0.07409
20840 2.17632888 8.00415558 -4.3086402900000005 -0.14941 -0.650433 0.548856
20860 1.8827842500000003 6.34350897 -3.28027761 0.279672 -0.599871 0.319984
20880 1.36934847 5.317844040000001 -2.57569398 0.0463 -0.580886 0.037387
20900 1.23927768 4.798571310000001 -2.22497667 -0.009979 0.572313 -0.056351
20920 0.79020531 4.63241934 -1.67023098 0.158247 1.020119 0.232671
20940 0.7292852099999999 3.93202458 -1.36097073 0.362208 0.217784 0.101596
20960 1.10350728 4.305196980000001 -1.8483609600000002 0.439773 -0.636658 -0.208688
20980 0.46403262 2.7801638100000003 -2.8141456500000004 0.029467 -0.756851 -0.431454
21000 0.31075136999999997 2.186649 -2.13800121 -0.434815 -0.022687 -0.60869
21020 -0.23665644 1.21831371 -1.5067669500000003 -0.672636 0.773541 -0.785492
21040 -0.11016630000000001 2.5234557300000002 -1.7661727800000002 -0.679974 1.084556 -0.501794
21060 1.41920289 7.71061095 -1.3736943 -0.477191 1.218775 -0.143764
21080 3.63084777 12.93594669 -1.8990982800000002 -0.025615 0.7022470000000001 0.230725
21100 4.422701160000001 15.82359867 -4.72417227 0.627497 -1.1132 0.5174880000000001
21120 4.70352222 12.85990938 -6.70830363 1.324323 -1.96312 -0.128171
21140 5.666766120000001 5.90327541 -5.18551695 1.7674729999999998 -1.758693 -0.485328
21160 2.4688140300000003 4.81653342 -2.6156599200000006 1.96908 -1.896186 -0.375854
21180 -0.22603221 8.29529676 3.30063336 2.332374 -2.235196 -0.361131
21200 -0.0489519 15.971935680000001 -1.42069401 2.774879 -1.5656709999999998 -0.345011
21220 5.949382409999999 17.76954951 2.68810677 3.267608 -0.789088 -0.238947
21240 10.889256959999999 16.251707070000002 3.66677199 3.228211 -0.54379 -0.009869
21260 4.43677851 11.749819590000001 -1.84999923 3.227306 0.58717 0.613585
21280 -0.8961827400000001 9.350460360000001 -1.4359681800000001 2.766547 0.419131 0.411893
21300 1.7360855100000003 14.129568630000001 -0.49112784 2.194953 -0.046337 0.360427
21320 7.014414870000001 16.400191230000004 -0.70428933 1.4581879999999998 -0.225648 0.552063
21340 6.258632850000001 12.61007811 -0.7937957700000001 0.455045 0.360931 0.719493
21360 3.3670961100000003 10.49617026 -1.1731092300000001 -0.446495 0.913317 0.558664
21380 1.7784549 8.43525603 -0.05747679000000001 -1.002902 1.172358 0.463646
21400 1.8194705100000002 7.100330850000001 -1.5263771400000001 -1.443461 1.068798 0.103916
21420 2.73227139 6.33153096 -0.77329287 -2.023765 1.253272 0.029123000000000007
21440 3.6625831200000003 5.24524023 -1.6859465999999999 -2.698171 1.6383 -0.034833
21460 5.66257725 6.800213520000001 -3.6297981000000004 -3.2009060000000003 1.613207 -0.24982
21480 6.388860600000001 7.56497169 -2.6343675900000005 -3.451071 0.946355 -0.567975
21500 5.31485199 5.24928195 -1.9453524300000002 -3.557535 0.475731 -1.330826
21520 1.77485463 8.29050948 -3.92334273 -3.003128 0.151035 -1.331879
21540 0.93031173 7.85297367 -3.9210962400000002 -1.940416 -0.772872 -0.84364
21560 1.48565583 5.20617681 -0.14684589 -0.8393799999999999 -1.000125 -0.11354000000000003
21580 -0.21360294000000002 5.4824950800000005 -1.2891222900000001 -0.37814 1.364916 0.519038
21600 -0.80651934 8.93417301 -3.2784823800000003 -0.129129 2.8164 0.690901
21620 1.26891369 11.24760645 -2.99437497 -0.934116 2.195784 -0.052067
21640 2.35789236 16.642694430000002 -2.6785322099999997 -0.5242140000000001 -1.065554 -0.274693
21660 1.6872905700000003 19.34801775 -1.20154842 0.410221 -1.849513 -0.306685
21680 0.05403348 14.74762806 -2.43363537 -0.364133 0.907181 1.221545
21700 0.89333784 8.4624984 -2.5234557300000002 0.68403 -0.455802 0.703979
21720 1.2307429799999998 11.947854060000001 -5.14764054 0.329239 -0.031235 0.066433
21740 3.95761887 9.78993855 -6.22749591 -0.040787 -0.422248 -0.131135
21760 3.55735125 6.173756730000001 -6.07705956 -0.382385 -0.714071 -0.383111
21780 3.10618935 4.33588266 -4.65846489 -0.634709 -0.247161 -0.510454
21800 3.2682996 3.7532961900000004 -3.9502809900000004 -0.631605 0.221488 -0.495009
21820 2.8726721100000003 2.2203365400000004 -3.66633054 -0.459025 0.501717 -0.39375
21840 1.6774119 2.36613276 -3.1976479800000006 -0.356736 0.610528 -0.254306
21860 1.4714411400000003 3.45630825 -3.05125335 -0.292858 0.6335270000000001 -0.200479
21880 1.1921210100000001 3.8811303 -4.36851072 -0.063972 0.50497 -0.217943
21900 0.7288339500000001 5.4009151200000005 -4.24382562 0.120502 0.30488200000000004 -0.157646
21920 1.29780414 9.53622252 -2.7770246100000002 0.283771 -0.137874 -0.132437
21940 1.2769971300000003 11.77256898 -2.9015625600000003 0.466276 -0.228633 -0.237868
21960 1.1186244900000002 11.99216583 -3.7089844199999997 0.571412 -0.372668 -0.273269
21980 3.1003524000000002 9.52558848 -3.9754338300000005 0.717879 -0.257257 -0.224324
22000 6.50023353 7.81120269 -1.88233299 1.12789 -0.565863 -0.128129
22020 4.384677600000001 9.33248844 -1.13508567 1.366915 -0.987655 -0.08319
22040 0.33021441000000007 11.272013730000001 4.76339265 1.841446 -1.193116 0.003709000000000001
22060 -2.91623832 18.194067450000002 -1.40992263 2.237992 -1.650699 0.337146
22080 5.0286452399999995 15.96968919 -0.7592253299999999 2.655383 -2.0972310000000003 0.5532100000000001
22100 14.81559174 12.545116290000001 1.19975319 3.160952 -1.260181 0.711629
22120 2.64814083 13.09671297 -4.2252651 3.060926 -0.633826 0.8052
22140 4.4060830200000005 13.837524930000002 -1.22520033 2.76724 -0.02873 0.5224989999999999
22160 4.88988279 12.892243140000001 0.15402681000000001 2.123176 0.109397 0.105489
22180 2.58407172 12.071646450000001 0.59485878 1.382176 0.204713 0.08844099999999999
22200 1.28582613 10.29454533 0.7514361900000001 0.766369 0.14841600000000002 0.314947
22220 0.78706611 8.784629370000001 0.32003163 0.100508 0.240805 0.431955
22240 1.7880294600000002 7.49626245 -0.10448631000000001 -0.584549 0.567639 0.5442560000000001
22260 3.71587104 7.58458188 -1.3385156400000002 -1.035154 0.985623 0.5694140000000001
22280 4.16284407 7.02204705 -2.37196971 -1.388965 1.278764 0.29630700000000004
22300 3.87094752 6.34455864 -2.223927 -1.869993 1.422623 0.168849
22320 3.7335388500000004 6.6202784999999995 -1.73249505 -2.376892 1.274669 0.045857
22340 3.13328457 6.9826795200000005 -1.4430019500000002 -2.667176 0.747326 -0.226823
22360 3.8983468500000003 6.759197909999999 -1.4718924000000002 -3.045147 0.253949 -0.659324
22380 4.34755656 6.06313917 -1.8498520800000002 -3.096031 -0.090408 -1.07905
22400 3.8233494 5.873335290000001 -1.7342902800000002 -2.183525 -0.769888 -1.112398
22420 3.0487125600000002 6.897656250000001 -3.2548304700000004 -0.83588 -1.234461 -0.6548039999999999
22440 2.4984500400000003 7.14883149 -2.38409487 -0.177549 -0.448368 0.125385
22460 3.15887886 7.0838696699999995 -2.10417633 -0.302571 2.674396 0.921676
22480 3.1115750400000004 9.01021032 -1.7501628599999999 -0.64099 3.157809 0.738163
22500 0.78226902 12.43269369 -3.56947641 -1.32029 1.220631 0.388729
22520 0.86953878 15.73782003 -4.29112944 -0.331606 -1.450533 -0.072028
22540 1.21187835 17.534384190000004 -2.8074159900000004 -0.313729 0.143425 0.634285
22560 0.93585438 14.897466 -1.37594079 -0.264991 0.373082 0.702697
22580 1.509759 10.379862900000001 -3.3611120100000003 -0.320168 -0.809368 -0.315256
22600 2.33020854 8.34619104 -4.89631815 -0.059747 -0.252421 -0.492544
22620 1.8968517900000001 9.69862707 -5.741763570000001 0.303449 -0.452637 -0.554912
22640 2.1427983000000004 10.45111293 -4.84422705 -0.094918 -0.302243 -0.7896920000000001
22660 2.38005315 8.3437974 -4.563710100000001 -0.460744 0.038544 -0.713635
22680 2.0686935600000007 6.56714754 -3.2335722000000002 -0.804243 0.313402 -0.686477
22700 1.4726379600000001 3.92004657 -3.0889728 -0.992603 0.446048 -0.661257
22720 1.7019565200000002 3.50062002 -3.1186186200000003 -1.109876 0.6491819999999999 -0.476466
22740 1.93922118 2.8035214200000005 -2.7048720600000005 -1.159602 0.907552 -0.310501
22760 1.9369746900000002 2.8544157 -2.9404886400000003 -0.991435 0.901304 -0.225997
22780 0.25597233 2.4328898100000007 -3.23177697 -0.458886 0.77558 -0.149477
22800 -0.23351724 5.57171703 -2.5373761200000002 0.288735 0.850198 -0.010823
22820 1.25409078 10.73313081 -2.20671045 1.010162 0.7853899999999999 0.119281
22840 1.95852726 12.100841010000002 -3.65719743 1.187183 0.037021 0.102249
22860 2.9065068000000007 10.80947223 -5.250930030000001 1.625142 -0.960822 0.174953
22880 6.599324340000001 6.2843841000000005 -2.0959457400000003 2.4157580000000003 -2.056871 0.258792
22900 4.869968490000001 9.89801532 -4.10625999 2.919025 -2.708007 0.152046
22920 0.46673037000000006 11.3772456 3.1521492 3.275055 -3.215401 0.190435
22940 0.8584632900000001 13.13982792 -0.5423262300000001 3.602843 -2.654309 -0.016298
22960 7.47964431 14.77053441 0.01062423 3.262382 -1.296866 -0.057803
22980 14.49556011 16.2680211 -1.2460073400000002 2.854662 0.048037 -0.101899
23000 0.37242684 10.87473816 -3.2485422600000002 2.279628 0.785107 0.154854
23020 5.88366522 22.478006160000003 -1.11742767 1.830172 0.909481 0.343835
23040 4.802308920000001 14.02852563 -1.2278980800000001 1.168564 0.964706 0.426737
23060 2.43004491 9.90205704 0.40012047 0.275202 0.8783489999999999 0.41954
23080 3.11981544 9.37170882 0.7969447800000001 -0.6086520000000001 0.8830120000000001 0.286242
23100 2.34502164 7.87362372 0.18681183 -1.250541 1.109341 0.187464
23120 2.5563879 6.65007147 0.65129571 -1.93405 1.106737 0.099372
23140 3.75179526 7.034770620000001 0.21255327 -2.625784 0.908261 -0.0163
23160 4.070482920000001 7.468715970000001 -0.52406001 -3.026181 0.8519680000000001 -0.243352
23180 3.04526925 6.68180682 -1.00141461 -3.196292 0.854038 -0.613079
23200 2.2956282900000002 6.29710767 -1.05770439 -2.967917 0.737433 -1.220221
23220 2.2987674900000004 6.34365612 -0.6479995499999999 -2.016469 -0.21405700000000005 -0.930345
23240 1.9981989000000002 5.98724901 -1.4406083100000002 -0.907554 -0.75598 -0.369634
23260 2.29592259 6.8109849 -4.21299279 -0.33789 -0.066124 0.577769
23280 4.37120847 9.064400760000002 -4.24607211 -1.054659 2.311132 0.775883
23300 4.80036654 9.11245014 -2.8894374000000003 -1.7340509999999998 1.7469990000000002 -0.081649
23320 2.7828615600000006 8.09831196 -2.7964876500000004 -0.653388 -1.871431 -0.8289700000000001
23340 2.24054514 6.34515705 -1.8824899500000003 -0.191997 -0.7069840000000001 -0.721485
23360 2.5495012800000003 7.9077527100000005 -0.7595196300000001 -0.581549 1.0923200000000002 0.400462
23380 1.5459873300000002 10.95153084 -2.86803198 0.326585 -0.43264 0.017791
23400 0.21345579 14.42385882 -3.2768343 0.541451 -0.22081 0.137593
23420 -0.82808172 15.09565743 -0.31270356000000005 0.27512600000000004 0.314045 0.346555
23440 0.04984461 12.95421291 -1.4480933400000002 -0.014514 -0.355852 0.024924
23460 1.7492603400000002 9.656414640000001 -2.5761452400000002 -0.170628 -0.5785399999999999 -0.360441
23480 2.7993325500000004 8.919654210000001 -3.2630610600000005 -0.161688 -0.417047 -0.527228
23500 3.71228058 9.139398210000001 -4.126017330000002 0.262944 -0.098198 -0.445622
23520 3.4793617500000003 6.981335550000001 -4.19098896 0.569126 0.428996 -0.14933
23540 3.6220187700000004 5.7929521500000005 -3.9161520000000003 0.8837139999999999 0.847823 0.06704299999999999
23560 3.9306806100000005 4.01674374 -4.1441364 1.240703 0.536506 0.08809600000000001
23580 3.49313499 2.81385135 -4.3902202500000005 1.37813 -0.316871 -0.008126999999999999
23600 2.5116248700000003 0.08157996 -4.61280915 2.003614 -1.257339 -0.060237
23620 0.36434340000000004 1.4630535900000003 -2.88046125 2.804003 -1.438059 -0.049074
23640 -0.24668226000000004 7.98275016 -1.4180060700000001 3.235843 -1.589384 -0.143072
23660 1.2629197800000003 15.5680776 -1.84356387 3.4137470000000003 -1.534114 -0.265814
23680 0.38919213 16.64224317 -6.29395866 3.137702 -0.460668 -0.205024
23700 4.31837181 10.520871840000002 -5.23266381 2.630771 0.8687819999999999 -0.028671
23720 5.536685520000001 5.711823450000001 4.859648370000001 1.838517 1.049226 0.288167
23740 0.60563997 9.91597743 1.2543948900000002 1.3754030000000002 1.187628 0.44392
23760 -2.0619639 15.47691327 0.023504760000000003 0.763415 1.019403 0.419565
23780 11.77840593 15.067071089999999 1.13015124 -0.131218 1.011274 0.297958
23800 6.583608720000001 11.38368096 -3.0540982500000005 -0.95533 1.197048 0.109297
23820 0.68348232 17.396377110000003 -5.091360570000001 -1.7532450000000002 1.27833 -0.07797799999999999
23840 6.418653570000001 14.47849071 -1.0295595 -2.398907 1.200823 -0.115503
23860 7.28654427 10.230476220000002 0.42945237 -2.888904 1.091917 -0.16151500000000002
23880 3.5127451800000005 9.07368102 -0.9397489500000001 -3.264447 1.239532 -0.254058
23900 1.4485347899999998 7.6769332200000004 0.17858124000000003 -3.505853 1.2557 -0.890289
23920 1.8230609700000002 7.8303714300000005 0.60893613 -3.047842 0.321144 -0.943576
23940 2.6988879600000004 7.40884554 0.47002653 -2.069849 -0.767312 -0.524085
23960 3.1142727900000002 6.6621966299999995 -1.9610680500000002 -1.746448 -1.012019 -0.082473
23980 3.9910023000000003 7.8600074399999995 -4.495746420000001 -1.434171 -0.20925900000000006 0.559613
24000 3.78023445 7.6651121700000004 -2.91428613 -0.166457 1.020073 0.791219
24020 2.2023744300000003 6.09143121 -2.51506818 -0.896501 0.8957620000000001 0.011818
24040 1.15364619 6.260428080000001 -4.10252238 -0.389987 -0.880741 -0.5207510000000001
24060 2.16734292 6.758893800000001 -3.5392419900000003 0.684331 -0.544034 -0.406856
24080 1.59313419 6.58884726 -1.04527512 -0.4775140000000001 1.162582 0.5880380000000001
24100 0.32586858 8.696918160000001 -0.91639134 0.235447 -0.699882 0.327281
24120 -0.42361542 11.4760323 -2.97476478 0.938181 -1.157693 0.18643
24140 -1.28881818 15.97208283 -2.0868126300000003 0.534267 -1.337332 -0.093899
24160 -0.08876088000000001 16.083308610000003 -3.24121419 -0.011742 -0.650251 -0.413719
24180 2.52494685 10.23975648 -4.082156820000002 -0.266141 -0.066679 -0.675822
24200 4.23275013 7.39162899 -3.3073728300000003 -0.456623 0.246247 -0.7106680000000001
24220 3.31859547 7.97107626 -3.9562749 -0.669895 0.379707 -0.601234
24240 3.71826468 6.773863860000001 -4.63046715 -0.689959 0.61126 -0.414732
24260 3.9134640600000004 5.1739902 -5.373829710000001 -0.455834 0.380961 -0.035719
24280 3.8713987800000003 4.75530921 -5.0783427 0.066916 -0.441658 0.100378
24300 2.85052113 4.33977723 -4.51685754 0.726165 -1.011445 0.027733
24320 1.8666173700000002 3.2248903500000003 -4.21448391 1.237099 -1.012362 -0.185546
24340 0.27422874 2.7924459300000004 -2.57584113 1.651216 -0.728352 -0.173403
24360 1.1981051100000002 9.00557019 -0.27138384000000004 2.087566 -1.6396700000000002 0.107482
24380 4.00298031 11.31002748 -0.12244842 2.811111 -2.9039490000000003 0.228456
24400 4.11075297 10.62894861 -3.5372898000000004 3.4644220000000003 -2.544191 0.271014
24420 5.17758066 8.209527930000002 -4.80216177 3.60938 -1.731464 0.165231
24440 3.62486367 7.348671 -2.4608777400000004 3.194677 -0.370297 -0.210083
24460 0.03202965 9.902204189999999 4.21837848 2.446343 0.767694 -0.163357
24480 -2.1490767 17.56762047 -5.48205363 1.956557 0.990009 0.076491
24500 3.30079032 16.32699882 4.56041394 1.460539 0.545561 0.562842
24520 17.90876322 11.367062820000001 2.23619931 0.726302 -0.024699 0.750724
24540 4.72402512 12.13017291 -4.8557538 -0.205299 -0.155335 0.661063
24560 2.84932431 17.26195068 -3.03015204 -0.993215 0.097088 0.556959
24580 1.86407658 13.62511881 -0.8196941700000001 -1.6326040000000002 0.622829 0.438588
24600 1.4718924000000002 11.11349394 0.09609875999999999 -2.095026 0.875265 0.315393
24620 1.75165398 9.864936 0.82239192 -2.522138 0.8763209999999999 0.15538
24640 2.24458686 8.5635414 -0.51327882 -2.97016 0.922393 -0.055044
24660 4.0481847900000005 8.1294489 -1.53745263 -3.272727 0.720114 -0.35600000000000004
24680 6.5419947 8.66652678 -1.9107721800000002 -3.339084 0.14085 -0.891969
24700 6.424490520000001 8.39947896 -2.4089436 -2.792686 -0.6753279999999999 -0.78883
24720 4.59169803 6.92011134 -2.3354470800000002 -2.304223 -1.29011 -0.650034
24740 2.59650099 5.79969162 -2.16420372 -1.859142 -1.6985860000000002 -0.384687
24760 1.5989711400000002 6.218971020000001 -3.6609350400000005 -0.855769 -0.900787 -0.166125
24780 2.85142365 6.173158320000001 -1.6374459600000002 1.299901 0.20818000000000006 0.358122
24800 2.8419864300000004 6.2942627700000005 -1.7178290999999999 0.738021 1.255223 0.609228
24820 0.86130819 7.89937497 -2.98584027 -0.582805 1.107961 0.219904
24840 0.3379937400000001 9.14418549 -2.89827621 0.826416 -0.6725220000000001 -0.100188
24860 1.09781748 10.0733004 -2.7369115200000005 0.011713 1.6789619999999998 0.499995
24880 -0.45415395000000003 11.41301286 -1.4892561 -0.489335 0.298265 0.6926800000000001
24900 -0.58348899 13.117971240000001 -1.63325709 -0.366359 -0.987519 0.053186
24920 1.47293226 14.290334910000002 -3.7693159200000004 -0.827428 -1.720177 -0.408431
24940 4.64124834 10.182426840000002 -5.02460352 -1.292545 -1.261555 -0.6761189999999999
24960 4.73674869 8.690629950000002 -4.02707367 -1.588465 -0.616222 -0.895862
24980 1.80555012 8.75484621 -3.99923289 -1.507261 -0.435075 -0.978848
25000 1.6229271600000001 7.469314379999999 -4.66130979 -1.473455 -0.017564 -0.722774
25020 1.9067304600000001 6.04847322 -5.263055189999999 -1.412642 0.311027 -0.630903
25040 2.5906640400000005 4.61625246 -4.67283654 -1.2409370000000002 0.438646 -0.726007
25060 3.38536233 3.7323420300000003 -3.6964178100000002 -1.039974 0.47543 -0.774857
25080 2.9642877000000003 3.2308842600000003 -3.2222024100000004 -0.858535 0.490775 -0.773609
25100 1.56244851 2.70637299 -3.17070972 -0.676294 0.533468 -0.685865
25120 0.41509053000000007 4.1556631500000005 -2.01735783 -0.6792590000000001 0.6419100000000001 -0.629409
25140 -0.41688576 10.149945930000001 -0.40581027000000003 -0.605183 0.4978770000000001 -0.638321
25160 0.6509916 12.26474649 -0.40371093 -0.075501 0.001218 -0.770717
25180 0.97641873 10.989250290000001 -2.16958941 0.48476 -0.357939 -0.68409
25200 1.38790899 8.5606965 -4.342769280000001 0.9577 -0.483117 -0.160402
25220 3.7064436300000003 11.42604054 -4.589451540000001 1.370373 -0.809081 0.277664
25240 5.09899275 12.358451610000001 -1.4461411500000003 1.239939 -2.102642 0.469623
25260 0.9963232200000001 11.268119160000001 0.9083079000000001 1.098574 -2.781562 0.144766
25280 -5.748346080000001 16.93697481 -5.07160323 1.410423 -2.6839060000000003 -0.303971
25300 4.94003151 10.43824221 3.1998944700000003 2.021159 -2.034473 -0.470384
25320 17.13531339 17.65788228 -1.8509017500000002 2.477978 -2.296679 -0.29701
25340 8.68403763 18.38147769 -3.5603433 3.030769 -2.690715 -0.00636
25360 5.163209010000001 13.30313499 -0.6140275199999999 3.055489 -1.430385 0.743157
25380 2.0676537 12.30965667 0.7051820400000001 2.777845 -0.105951 1.175355
25400 2.5276446 12.11759649 1.2298404600000001 2.361715 0.788385 1.127505
25420 1.2778898400000003 11.06708283 0.28245933 1.541034 0.5045470000000001 0.8924690000000001
25440 0.9381008700000001 8.85169053 0.44621766 0.7995359999999999 0.299374 1.162086
25460 1.27145448 7.58262969 0.58049694 0.117421 -0.099323 1.557347
25480 0.7080269400000001 7.29882639 0.32991030000000005 -0.308728 -0.641161 1.829598
25500 0.94647861 6.894065790000001 -0.24384717000000003 -0.5641229999999999 -1.111615 1.685275
25520 2.3842420200000003 7.3139436 -0.7244979300000001 -0.8856299999999999 -0.8650059999999999 1.299221
25540 3.08927691 6.581362230000001 -0.78826293 -1.26527 -0.700358 0.94705
25560 3.1732505100000004 6.33033414 -1.3218975000000002 -1.498792 -0.367666 0.535863
25580 3.2037890400000006 6.91188075 -3.00739284 -1.64442 -0.13454100000000002 0.17242000000000002
25600 3.97019529 9.62079453 -4.07528001 -1.7428259999999998 -0.093263 -0.207539
25620 5.89818402 11.042989470000002 -3.75359049 -1.753054 -0.241374 -0.4552479999999999
25640 7.71256314 7.995924990000001 -1.16652672 -1.670179 -0.549658 -0.6882149999999999
25660 7.017554070000001 5.69550942 1.2510987299999998 -1.4199620000000002 -1.1492719999999998 -0.938867
25680 3.9041838 3.60764712 0.6712002000000001 -0.876783 -1.453317 -1.03296
25700 1.37130066 5.638621230000001 -3.9193010100000003 0.007517 -1.335568 -0.8763139999999999
25720 0.8008393500000001 9.02472912 -2.4092379 0.7850050000000001 -0.563137 -0.511883
25740 1.9434100500000002 10.795551840000002 -2.74184595 0.958327 0.255681 -0.035294
25760 2.13845247 8.386608240000001 -0.07334936999999998 0.643929 0.278509 0.388701
25780 -0.04056435 7.271427060000001 0.8707356 0.526695 -0.156828 0.40019
25800 -2.16165312 11.057508270000001 -1.2723570000000002 1.949551 0.042562 0.4526020000000001
25820 -0.35625996000000004 15.06467745 -2.4927700500000003 -0.535171 0.5352819999999999 1.39922
25840 1.2960089099999998 16.598382660000002 -1.2772914300000002 -1.812913 -0.236805 0.051734
25860 2.4039993600000003 13.80788892 -1.3078299600000003 -0.082135 -2.124346 -0.946433
25880 2.06555436 13.3154073 -3.18178521 -0.605216 0.334671 -0.317645
25900 1.95942978 17.29563822 -6.4834682400000005 -0.909484 -0.330439 -0.225983
25920 4.75366113 14.081067990000003 -6.89825466 -1.683334 -1.84348 -0.00085
25940 5.16650517 9.52379325 -5.006641409999999 -1.791409 -1.643077 -0.205892
25960 4.90829616 7.5513456 -2.96593578 -2.043725 -0.347952 -0.457142
25980 3.28357377 5.83995186 -1.35198477 -1.592618 0.164575 -0.613813
26000 0.32916474 4.85560665 -0.9862974000000001 -1.162418 0.272581 -0.557535
26020 -2.2010206500000002 5.32128735 -1.13239773 -1.177325 0.338441 -0.497903
26040 -2.6304828300000005 6.3420080400000005 -1.6880361300000002 -1.005242 0.043275 -0.625578
26060 -1.37548953 7.12354131 -2.49516369 -0.713715 -0.060417999999999986 -0.7879149999999999
26080 -0.59681097 6.6575565 -3.40856298 -0.452151 0.034321 -0.730661
26100 -0.18067077 5.53010301 -4.63466583 -0.234566 -0.065053 -0.577327
26120 0.56596833 5.57470908 -5.200938270000001 -0.194951 -0.212435 -0.518109
26140 1.7338488300000001 6.59962845 -4.22287146 -0.336316 -0.125529 -0.550186
26160 4.2749625600000005 8.3409525 -3.68712774 -0.570343 0.17287 -0.64407
26180 6.43107303 10.111775220000002 -5.44118517 -0.661489 0.240571 -0.7120920000000001
26200 4.371355620000001 9.31078872 -7.309450620000001 -0.277878 -0.275549 -0.646794
26220 3.48415884 6.25578795 -7.489827090000001 0.560245 -1.037043 -0.352612
26240 3.2067810900000002 5.63907249 -6.27345576 1.7127139999999998 -1.75223 0.076166
26260 3.4998744600000005 12.91903425 -8.54767863 2.289364 -2.808586 0.807938
26280 5.43460266 12.406353840000001 2.3186817900000003 2.434355 -3.118452 1.714132
26300 0.5830377300000001 19.3652343 12.691952370000001 3.11997 -2.762892 1.447137
26320 -7.83066573 22.904466480000004 1.22160987 3.268046 -1.126505 0.756003
26340 8.378976060000001 15.27737787 -1.19496591 2.799898 0.137254 0.543878
26360 11.93977062 13.886319870000001 6.17600322 2.248887 0.134589 0.888273
26380 5.719602780000001 12.81545046 -0.13501503 1.814823 -0.416107 1.251279
26400 1.76767371 12.957352110000002 1.43581122 1.364283 -0.68176 2.00691
26420 -0.46986957000000007 13.15614195 2.3599917 0.8979719999999999 -1.452078 2.441543
26440 -1.2663630900000002 14.10905592 0.07559586 0.511704 -2.19082 2.902331
26460 0.9104072400000001 11.941869960000002 -1.4317695000000001 -0.084367 -2.83535 2.895789
26480 1.74597399 9.20720493 -2.09714256 -0.668401 -2.907147 2.443148
26500 0.95965344 7.314385050000001 -1.7169265800000002 -0.994387 -3.246166 1.992652
26520 1.17221652 5.997726090000001 -1.17026433 -0.931838 -3.080488 1.532473
26540 1.7465724 5.05214019 -1.51394787 -0.8861049999999999 -2.6789810000000003 1.252404
26560 2.0417553 4.39216263 -1.94805018 -1.092003 -1.983626 1.231915
26580 2.9422838700000002 5.42606796 -1.86047631 -1.395576 -1.061619 1.092949
26600 3.94369848 7.782910650000001 -2.08846071 -1.571235 -0.389493 0.728734
26620 4.50982377 9.42619356 -3.0677243400000003 -1.619979 -0.034977 0.294241
26640 5.160364110000001 10.006092090000001 -3.85193574 -1.51212 -0.00471 -0.175062
26660 5.7318849 8.84300868 -3.7631748600000003 -1.274714 -0.4664640000000001 -0.524257
26680 5.93396109 8.42088438 -3.0458676600000008 -1.159144 -1.243946 -0.666664
26700 6.11463186 10.002354480000001 0.50549949 -1.073758 -1.822131 -0.539276
26720 6.5649010500000005 14.05906416 3.95926695 -0.586471 -1.468637 -0.118651
26740 -0.66267531 13.71806856 1.61917974 -0.0055060000000000005 -0.14103 0.37402
26760 -6.56639217 17.608331970000002 0.9876413700000001 0.094814 0.354031 0.6261869999999999
26780 -5.86211265 19.198326960000003 0.27872172 0.074132 0.273099 0.636828
26800 -0.9232779600000001 18.253192320000004 0.43829118000000006 -0.405467 0.123488 0.371955
26820 4.2090982200000004 13.81506984 0.4912749900000001 -1.528605 0.244145 -0.055856
26840 5.90776839 9.82241946 0.45475236 -2.800116 0.27327 0.156348
26860 5.25257811 7.966887389999999 -0.35671122 -1.214351 -1.303553 0.16730799999999998
26880 3.49388055 9.0608103 -2.19982383 -0.665953 -1.550425 0.1565
26900 3.0485556 9.88035732 -3.15663237 -0.570998 -1.082226 -0.327341
26920 3.8064369600000005 9.96103476 -2.0755801799999998 -0.562823 -1.673554 -0.841409
26940 3.31665309 9.51870186 -0.1790325 -0.817076 -2.674338 -1.296965
26960 1.75121253 7.09883973 0.42047622 -1.111369 -2.657142 -1.080057
26980 0.89498592 5.60015622 1.08195471 -1.545446 -1.181036 -0.34684
27000 -0.30625839 5.298381000000001 0.7429014899999999 -1.554711 0.23010500000000006 0.28047
27020 -0.7637085 5.8679496 0.33560010000000007 -0.920707 0.638754 0.633683
27040 -1.4150042100000002 6.98447475 -0.48289725 -0.500617 0.446079 0.501201
27060 -1.49718258 7.582178430000001 -1.14840765 -0.274929 0.123263 0.049196
27080 -1.3696525800000003 7.6034367000000005 -1.6199351100000001 -0.438087 -0.743785 -0.363166
27100 -0.91070154 7.67753163 -1.86302691 -0.8334010000000001 -1.476913 -0.498516
27120 0.49083354000000007 7.54177104 -2.0291788800000004 -0.973605 -1.578677 -0.5025689999999999
27140 2.21449959 8.47746846 -3.2377708800000002 -0.900517 -1.366249 -0.409396
27160 3.2233992300000005 9.28758807 -6.21687168 -0.819064 -1.014058 -0.376163
27180 5.967187560000001 11.52752499 -7.3488181500000005 -0.837575 -0.658048 -0.41200000000000003
27200 8.83387557 12.6530361 -4.95469746 -0.758985 -0.59509 -0.506603
27220 5.90028336 10.37462436 -3.7236601800000004 -0.468254 -0.58278 -0.374265
27240 4.567604670000001 6.818774040000001 -5.490735480000001 -0.026335 -0.642358 -0.243984
27260 4.8469248 5.758077600000001 -5.735926620000001 0.518278 -0.8738229999999999 -0.108492
27280 4.452337170000001 6.41071728 -2.0869597800000004 1.321863 -1.258053 0.17642
27300 4.217780070000001 13.77974403 -0.50564664 1.967802 -1.333819 0.714072
27320 4.84557102 32.36929182 3.11233041 2.332166 -1.509328 1.131312
27340 2.1399534 8.33661648 -2.9105485200000003 3.10772 -1.979881 0.917278
27360 -0.41688576 5.90177448 -2.3195745 3.469475 -2.023615 0.618622
27380 0.32318064 4.89631815 2.24578368 3.450017 -1.467184 0.280215
27400 -0.39966921 5.3290666799999995 4.20431094 2.970803 -1.1285 0.181362
27420 -1.56005487 7.62498927 4.18694724 2.40145 -0.16843699999999998 0.346002
27440 0.2891988000000001 12.28884966 2.88615105 1.792763 0.5724779999999999 0.736043
27460 1.4141115 13.85579115 0.89019864 1.253034 0.356217 1.205773
27480 3.43460853 9.32485626 0.5263065 0.8575219999999999 -0.125521 1.606347
27500 4.59829035 9.00377496 0.01092834 0.48257 -0.924202 1.862193
27520 4.253105879999999 9.87002739 -0.28680516 0.258642 -1.851369 1.618262
27540 3.85029747 9.49805181 -0.85801203 -0.043335000000000005 -1.864265 1.37582
27560 3.05634474 9.273961980000001 -0.5490558900000001 -0.411056 -1.255043 1.1908729999999998
27580 2.3703216300000003 9.796226760000001 1.09437417 -0.769896 -0.581883 0.993087
27600 2.30311332 9.20675367 1.3913522999999999 -1.049226 -0.008124 0.8088029999999999
27620 3.23148267 8.8789329 0.9668441700000001 -1.232118 0.410876 0.6147090000000001
27640 3.22399764 9.57947481 -0.00194238 -1.429389 0.487936 0.429498
27660 2.49246594 8.983115100000001 -1.26157581 -1.627498 0.438945 0.06605
27680 1.6991214300000002 8.9367138 -1.76901768 -1.803564 0.466898 -0.37746
27700 2.0014852500000004 8.93192652 -1.5736809600000001 -1.885238 0.517256 -0.911138
27720 2.5861710600000003 9.66749994 -1.60047207 -1.899146 0.250958 -1.170472
27740 2.92596984 10.3419963 -0.9306158400000001 -1.890804 -0.267747 -0.932603
27760 3.3871575600000003 12.24334107 0.51148359 -1.577585 -0.703917 -0.5538420000000001
27780 1.2762417600000002 13.258224810000002 0.2721294 -1.046519 -1.01971 -0.09787
27800 -0.8707356 13.782736080000001 0.69066324 -0.660166 -0.959171 0.411088
27820 -1.3720462199999999 12.4591905 0.32946885000000004 -0.31535100000000005 -0.415996 0.673447
27840 -1.4892561 12.21235128 -0.93645279 -0.183047 -0.06335 0.548937
27860 -0.02694807 12.83760144 -0.7324244100000001 -0.34775300000000003 -0.123726 0.33956
27880 2.32392033 13.85429022 -1.10485125 -0.581018 -0.247771 0.12765
27900 2.22077799 11.34400932 0.040711500000000005 -1.139806 -0.573339 -0.022182
27920 2.9166895800000003 8.74152423 -1.2590350200000002 -1.6348 -1.834583 0.129801
27940 3.42263052 7.820787060000001 -2.6147672099999997 -1.4205139999999998 -1.858811 0.142011
27960 2.8449882900000003 8.74526184 -3.07206036 -0.913598 -0.28975100000000004 0.257841
27980 2.06749674 8.40038148 -3.64043214 0.025774 -0.5300050000000001 0.384351
28000 1.9293425100000001 7.50748509 -3.1443600600000003 1.181647 0.481202 0.116596
28020 1.59044625 6.098317830000001 -2.25626076 1.827675 0.693156 1.162353
28040 1.2493035 5.363342820000001 -1.77096987 1.1621860000000002 -0.8424379999999999 0.275185
28060 0.59845905 5.239108980000001 -1.7498587500000002 0.14724600000000002 -2.21277 -0.079457
28080 0.52121511 5.60254986 -1.49554431 -0.639728 -1.665721 -0.336687
28100 0.43035489 5.647901490000001 -1.8651262499999999 -1.017847 -0.236392 -0.47362
28120 0.90007731 5.476216679999999 -2.3462184600000002 -0.933618 0.276574 -0.422414
28140 1.13957865 5.32397529 -2.52719334 -0.4433220000000001 0.926748 -0.137812
28160 0.7232913 5.12967843 -2.43334107 -0.103966 0.501572 0.13322699999999998
28180 0.6245046000000001 5.689074060000001 -1.73084697 0.128494 -0.352065 0.019508
28200 1.52278668 7.409139840000001 -1.6831017000000001 0.252388 -0.021559 -0.155238
28220 2.92596984 9.69204456 -2.26853307 0.432259 -0.06618099999999999 -0.340863
28240 3.5025624000000004 10.68343335 -3.82784238 0.671766 -0.732527 -0.410976
28260 3.6702153 10.668914549999998 -6.1611901200000005 0.7724840000000001 -1.428076 -0.251284
28280 4.23215172 9.01845072 -6.30039402 1.31194 -1.711354 -0.207629
28300 4.06150677 6.83598078 -3.95567649 1.982992 -1.769936 -0.258414
28320 2.4340866300000004 5.0379255 -2.9213297099999997 2.6565060000000003 -1.966056 -0.2823
28340 1.7691746400000001 3.72679938 -2.6491905000000004 3.063908 -1.594349 -0.350433
28360 2.21000661 3.1012549200000006 -1.36037232 3.236119 -0.116058 -0.15564
28380 1.01848401 2.6204472000000005 1.7973097200000003 2.746485 0.112866 0.295709
28400 -0.8072747100000001 4.64184675 2.12603301 2.395513 1.15145 0.61453
28420 1.8796450500000002 11.411973 1.75599981 1.7784810000000002 1.161859 0.943492
28440 7.8920370900000005 17.596658070000004 4.527040320000001 1.166558 0.362723 0.986175
28460 5.360350770000001 23.466098790000004 -1.8389237400000003 0.4375560000000001 0.068108 1.234629
28480 -1.70764632 25.1873712 -7.79938164 -0.300087 0.47856 1.260997
28500 10.177188300000001 16.61679603 -1.60451379 -0.872669 1.025878 1.017015
28520 7.78770774 6.296656410000001 2.06435754 -1.417278 1.099258 0.721492
28540 3.4058652300000003 8.7545421 -0.83047536 -1.9216 1.069353 0.379381
28560 2.7387067500000004 8.89809183 1.55706282 -2.445058 1.095808 0.078725
28580 1.11982131 9.20900016 0.08442486000000002 -2.9348080000000003 0.997622 -0.25037800000000004
28600 2.6789834700000004 10.41908328 -1.33822134 -3.3586970000000003 0.6019800000000001 -0.575435
28620 6.4635637500000005 11.02577292 -1.2639694500000003 -3.532011 0.282685 -1.029162
28640 6.061795200000001 7.65119178 -2.40729552 -3.411544 -0.195158 -1.249898
28660 3.26425788 7.2094572900000005 -3.83592582 -2.746713 -0.820867 -1.195315
28680 2.68601724 6.406381260000001 -2.72493351 -1.9773 -1.632374 -0.855615
28700 2.36912481 5.89174866 -2.33184681 -1.3211190000000002 -2.150995 -0.667701
28720 1.83143871 5.95926108 -2.2037184 -0.06502100000000001 -0.711436 -0.251643
28740 2.16853974 6.11254233 -3.2076836100000006 0.84105 2.097299 0.127101
28760 2.75920965 7.4414736 -3.19376322 0.8795639999999999 2.473589 -0.234171
28780 1.9711036800000001 7.8023736900000005 -2.6984367 -1.113648 1.201251 -0.271033
28800 0.32377905 9.35659161 -1.83219408 0.399608 -2.379819 -0.6137279999999999
28820 -2.1183910200000002 11.31392205 -1.6938730800000001 -0.889285 -0.144679 0.454377
28840 -1.84715433 13.62691404 -3.6504579600000002 -0.517473 0.244004 0.966018
28860 -0.35475903000000003 15.54053112 -3.2986909800000004 0.638115 -1.098319 0.782462
28880 1.09796463 15.11796537 -1.95718329 -0.149393 -1.491684 -0.062157
28900 3.91061916 10.072701990000002 -4.05252081 -0.472226 -1.177398 -0.322256
28920 3.3271301700000007 10.7385165 -5.60853396 -0.95239 -0.090926 -0.411392
28940 5.04241848 10.942240770000002 -6.484066649999999 -0.931972 0.76599 -0.53733
28960 3.88038474 8.51594328 -5.7062808 -0.741392 0.656755 -0.558291
28980 3.0482613 7.296275790000001 -4.49275437 -0.6262439999999999 0.7009569999999999 -0.257373
29000 2.9166895800000003 5.67544797 -4.0082188499999996 -0.463786 0.725165 -0.058648
29020 3.0888256500000004 4.846620690000001 -4.11030171 -0.164446 0.4203810000000001 -0.023052
29040 2.20386555 4.8437757900000005 -3.5941779900000004 0.347095 0.056406 -0.021149
29060 2.69678862 4.60398015 -2.9568026700000005 0.742009 -0.142055 -0.017068
29080 2.6508385800000003 4.080812850000001 -2.30535981 1.038467 -0.204745 -0.048031
29100 1.9809823500000001 2.21763879 -2.14983207 1.291326 -0.383757 0.01058
29120 0.77104638 2.6984367 -2.19683178 1.934881 -0.448285 0.138003
29140 0.30462012 5.90731713 -2.4459174900000002 2.346658 -1.388305 0.159176
29160 0.83167218 9.261836820000001 -2.29098816 2.291548 -1.995412 0.182001
29180 0.08038314 12.32133057 -3.5073594900000002 2.888172 -2.04173 0.325097
29200 -0.44786574 11.25135387 -4.37989032 3.160639 -2.51636 0.234673
29220 2.60742933 7.4342926799999995 -3.63279996 3.208975 -2.0168310000000003 -0.051913
29240 3.7026962100000005 9.893522339999999 -4.38782661 2.891269 -0.54775 -0.059219000000000015
29260 0.58677534 11.721674700000001 0.70757568 2.333997 0.5834 0.200358
29280 -0.35776089000000005 15.38860365 2.32961013 1.834296 0.568974 0.510943
29300 2.25146367 11.332031310000001 5.16126663 1.262299 0.702396 0.674488
29320 15.36509889 13.04881074 -2.19862701 -0.336791 1.105874 0.794192
29340 11.56944312 20.67994107 -9.73860282 -1.224353 1.20877 0.873318
29360 4.9612799700000005 12.43075131 1.10740185 -1.7999009999999998 1.405334 0.701335
29380 1.9098794700000001 10.613831399999999 0.09026181000000001 -2.271246 1.410241 0.416026
29400 2.4489095400000003 11.57887053 1.8990982800000002 -2.769923 1.251259 0.113645
29420 1.2470570100000002 11.06559171 2.06270946 -3.280546 1.228893 -0.243475
29440 -0.6599775600000001 10.405162890000001 -0.6577310700000001 -3.592623 0.983227 -0.608536
29460 1.62367272 10.110725550000002 -0.6706017900000001 -3.445474 0.789324 -1.2620790000000002
29480 4.78719171 8.39679102 0.14055768000000002 -2.644547 0.114029 -0.913788
29500 4.18379823 7.113211379999999 -0.6277909500000002 -1.39214 -0.92107 -0.489244
29520 3.89639466 6.87639798 -1.28013633 -0.166296 -2.154277 -0.049676
