time Ax Ay Az Gx Gy Gz
20 5.1522904800000004 5.73038397 -3.7380220200000003 0.313564 0.818025 1.085387
40 3.6591398100000005 5.66915976 -1.97648937 0.838858 0.464291 0.6461979999999999
60 4.22660907 8.28377001 2.79573228 -0.141317 -0.0008960000000000002 0.346186
80 2.1374028 10.90243179 3.74655672 -0.028178 -1.008873 0.038484
100 1.66378581 9.59369931 1.4555685600000001 0.111079 -0.8730459999999999 0.049965
120 5.322631320000001 8.41999167 -5.7152667600000004 0.184568 -0.723813 0.22868
140 11.25419877 9.0810189 0.2874035700000001 0.339923 -0.763976 0.281091
160 10.801987200000001 6.831046350000001 3.02655177 0.173045 -0.132931 0.059063
180 10.17090009 4.760547750000001 3.39299451 0.27163000000000004 0.48641 -0.130117
200 9.54026424 6.797967030000001 0.8104139100000001 0.6305149999999999 0.356197 -0.112488
220 7.556888250000001 7.693551360000001 -1.96706196 0.862554 0.219099 -0.12778399999999998
240 7.38024939 7.696690560000001 0.52795458 1.007634 -0.62236 -0.014597
260 9.41272443 9.821821049999999 -1.00875249 1.230209 -1.794297 0.092077
280 9.114990930000001 7.757169210000001 -0.58528422 1.180066 -2.750603 0.32368800000000003
300 8.266710419999999 6.01927866 -2.78855136 1.142067 -3.39476 0.5389609999999999
320 8.16117444 6.502627169999999 -2.35520442 1.248507 -3.60426 0.623294
340 8.207879850000001 7.042854060000001 -1.6983660600000001 0.5975090000000001 -3.409289 0.38242
360 8.45022609 6.10041717 -2.8969224300000005 -0.034815 -2.740915 0.020361
380 8.51204871 5.225482889999999 -2.9026122300000003 -0.2893 -2.163786 -0.228916
400 6.68150271 5.09061501 -2.9475224100000004 -0.635571 -1.315921 -0.43752
420 6.86546964 5.28161571 -2.65457619 -0.691267 -0.111167 -0.371086
440 7.384143959999999 5.08941819 -1.47009717 -1.083862 1.1119450000000002 -0.341213
460 7.5181191300000005 5.254520490000001 -0.8855585100000001 -1.764154 1.751986 -0.502745
480 7.94667879 6.2010089100000005 -1.7691746400000001 -1.945363 2.285165 -0.481193
500 7.542065340000001 7.723040220000001 -1.4437475100000001 -1.8933830000000005 3.243322 -0.644428
520 5.6476071899999996 7.847578169999999 0.50444982 -2.381496 3.575128 -1.146054
540 2.68302519 6.660999810000001 -0.8809183800000001 -3.076956 3.236035 -1.524355
560 2.23036236 5.84415054 -2.41867512 -2.692556 0.690103 -0.8123130000000001
580 2.85831027 5.45959854 -1.0597939200000002 -1.074534 -2.036707 0.373255
600 4.03979724 6.348149100000001 -2.0242444500000003 0.23569 -1.284795 0.878166
620 4.07318067 6.030059850000001 -3.6438754500000003 0.599776 1.136647 1.343351
640 3.78608121 5.3649909000000005 -3.28162158 -0.077287 2.772222 0.50545
660 4.1116456800000005 5.6576330100000005 -3.51977895 -0.978191 2.069054 -0.821333
680 5.328615419999999 6.950198610000001 -5.041663110000001 -0.723671 1.7486099999999998 -0.560635
700 8.89525674 10.8364203 -6.00057099 -0.105638 -0.196776 0.282593
720 11.213183160000002 12.38030829 -6.29740197 0.546851 -0.938742 0.11718599999999997
740 10.80093753 9.09688167 -5.904923490000001 0.5409470000000001 0.010884 0.005901
760 8.62326468 3.6289053900000003 -7.69654341 0.248302 0.77203 0.124659
780 4.89137391 0.61776513 -4.79347992 0.161456 0.391267 0.314684
800 3.06936261 1.4416481700000001 1.09407006 0.257265 0.645278 0.379121
820 2.60862615 6.345451350000001 4.0983237 0.227215 0.60915 0.382162
840 3.8040433200000003 16.9764993 6.76023777 -0.045227 0.162226 0.495131
860 0.7641597600000001 20.583400859999998 4.65202953 -0.014763 0.329117 0.292168
880 2.8316663100000006 10.706182740000003 1.28762136 -0.464162 0.300538 -0.16279200000000002
900 5.936354730000001 6.8918193 -0.15103476000000002 -0.537519 -0.139184 -0.4244560000000001
920 9.549387540000001 7.197930540000001 0.64890207 -0.700627 -0.35484 -0.431728
940 9.61151427 7.15033242 -0.09744273000000002 -0.729038 -0.524993 -0.213791
960 12.286004759999999 8.66697804 -2.27931426 -0.528489 -0.550007 0.006626999999999999
980 14.846277420000002 10.826384670000001 0.44307846000000006 -0.33657600000000004 -0.8520030000000001 -0.029033
1000 9.333390960000001 6.23184174 2.338733430000001 -0.307843 -0.902034 -0.062951
1020 7.249727340000001 5.153330340000001 1.24855794 -0.122199 -0.88676 -0.047787
1040 5.9183926200000005 6.23498094 -1.10245761 -0.14336600000000002 -1.045575 -0.007139
1060 6.5476845 7.29448056 0.32811507000000006 -0.279615 -1.08291 0.123348
1080 8.479116540000001 7.23865185 0.06137136000000001 -0.065479 -1.76795 0.220794
1100 9.32021613 6.3279405 -0.14579622 0.11888 -2.314869 0.435358
1120 9.126370529999999 4.6783693799999995 -0.41538483 0.488771 -3.069316 0.704896
1140 8.933123340000002 3.46903182 -2.96653419 1.059932 -3.915087 0.728129
1160 8.52656751 3.21845499 -4.098029400000001 1.069685 -4.261825 0.584432
1180 7.568415 3.9612093300000004 -1.4865583500000001 0.219302 -4.113689 0.506731
1200 6.8050008 4.35953457 0.18486945000000002 0.239952 -3.594918 0.227405
1220 6.242917230000001 4.6268766900000005 1.1407754700000001 0.5645600000000001 -2.794118 0.018206
1240 6.089635980000001 4.95574713 0.27437589 0.0072980000000000015 -2.313136 0.099155
1260 5.64940242 4.40129574 -0.40131729000000005 -0.082327 -0.681552 0.5472279999999999
1280 5.45914728 4.3602801300000005 -0.97612443 -0.540988 0.704087 0.483496
1300 5.463189 5.69924703 -1.34854146 -1.1948530000000002 0.8177770000000001 0.324959
1320 5.832623790000001 9.12442815 -1.8911718000000002 -1.665562 0.302624 0.090528
1340 5.98141206 11.567942190000002 -0.28051695 -2.1578150000000003 0.66968 -0.165482
1360 6.51250584 11.429631 1.09227483 -2.661867 1.486368 -0.432832
1380 5.69415564 10.56368268 -0.37137717000000003 -2.644484 1.832147 -0.871124
1400 5.61257568 9.62034327 -3.8112242400000005 -2.3773720000000003 1.807273 -0.7431760000000001
1420 5.82932763 8.057443500000002 -0.0928026 -0.749028 0.242323 0.256172
1440 5.40480969 6.358773330000001 -0.17303859 0.630714 -1.319982 0.544481
1460 3.6033111000000004 5.79864195 -3.1385231100000004 -0.019139 -0.8796370000000001 1.010463
1480 2.5222589100000006 6.358930290000001 -3.1850813700000002 -0.153524 -0.224819 0.942456
1500 2.22077799 5.50300779 -2.77223733 0.412979 0.225594 -0.030519
1520 2.9412342 4.74438087 -3.64956525 0.7580319999999999 0.408023 -0.661798
1540 3.7612324800000003 4.9491548100000005 -4.608021870000002 0.35638800000000004 0.8270129999999999 -0.132098
1560 6.739430760000001 6.4014370199999995 -5.535488699999999 -0.379791 1.0495 0.809987
1580 10.52251992 11.072321370000003 -7.682328720000001 -0.335667 1.69328 0.417433
1600 12.28899681 11.62362375 -8.513696790000001 1.080132 2.02547 0.033791
1620 10.83970665 11.789187120000003 -11.389665059999999 1.058977 0.906049 0.5382100000000001
1640 6.194867850000001 10.03094082 -9.18384732 0.919261 -0.103579 1.660161
1660 4.61190663 6.39679689 -3.4073661600000005 -1.0539889999999998 -1.059677 0.578313
1680 5.510041560000001 6.881940630000001 0.14086179000000001 -1.617341 -0.773838 -0.084013
1700 6.892712010000001 11.966865839999999 2.24174196 -1.591085 -0.372508 -0.303329
1720 4.29367023 12.469520430000001 5.03986788 -1.779421 -0.466895 -0.511759
1740 3.4967254500000005 7.18535412 6.639888689999999 -2.095262 -0.720367 -0.52005
1760 5.16470994 7.42606209 5.023701 -2.029064 -0.681295 -0.491863
1780 10.79734707 12.529694970000003 4.856205060000001 -2.05524 -0.453815 -0.613047
1800 12.764556180000003 11.47708197 1.57263129 -2.281388 -0.222872 -0.627741
1820 13.02486453 3.96600642 -3.66796881 -2.224325 0.195318 -0.561649
1840 11.53052685 2.6180535600000003 -6.702613830000001 -2.011432 0.093351 -0.55469
1860 7.316190090000001 4.23588933 1.56918798 -1.84713 0.050341 -0.597284
1880 8.29036233 7.3142379 2.8589086800000003 -1.603962 0.147035 -0.480342
1900 9.314683290000001 9.198218970000001 0.7059276 -1.337865 0.03627 -0.450567
1920 8.74975482 8.13947472 -0.27258066000000003 -0.8824540000000001 -0.034411000000000004 -0.485752
1940 7.840250100000001 6.776110350000001 0.06287229000000001 -0.476339 -0.075408 -0.44227
1960 6.489609300000001 6.561310590000001 0.37063161000000006 -0.375545 -0.274557 -0.277873
1980 5.579045100000001 6.66294219 1.26741276 -0.311312 -0.5417390000000001 -0.117917
2000 5.72230053 6.652769220000001 2.23814169 -0.181519 -0.942298 0.039464
2020 6.665335830000001 6.63584697 1.19107134 0.062031 -1.427428 0.20202
2040 6.537805830000001 6.017934690000001 0.01691244 0.688589 -1.843867 0.4365979999999999
2060 5.23102554 5.6556906300000005 0.32736951 1.969453 -2.325858 0.7794479999999999
2080 4.812638850000002 5.708076030000001 1.2546891900000001 2.343706 -2.265821 0.892012
2100 5.952217500000001 6.024370050000001 1.4545287000000002 1.401312 -2.379554 0.8471190000000001
2120 7.404803820000001 6.549930990000001 1.13254488 0.950043 -2.5891040000000003 0.628454
2140 7.741600740000001 6.10430193 -0.1505835 1.045253 -2.890312 0.745942
2160 7.633828080000002 5.41903419 -1.3488455700000002 0.486846 -2.813312 1.154276
2180 7.82572149 5.28460776 -0.46328706 -0.001403 -1.646508 1.761462
2200 8.56982961 5.405408100000001 -0.21794877000000001 -0.22952 -1.489573 1.873967
2220 9.65521782 6.812034570000001 -0.8087658299999999 -0.628361 -2.228284 1.805898
2240 9.67842828 8.67266784 -1.82215845 -1.134566 -2.864417 1.7529709999999998
2260 10.930272570000001 10.0354338 0.6114769200000002 -1.705464 -3.277279 1.598893
2280 9.78005988 10.71651267 2.20161906 -1.879336 -3.239621 1.390395
2300 8.75319813 10.495875960000001 3.97827873 -1.966036 -3.084883 1.131081
2320 8.97294213 10.099345950000002 4.08111696 -1.906335 -2.863599 0.886592
2340 11.58485463 8.66757645 1.87529922 -1.805446 -2.495462 0.645407
2360 14.94192492 7.54641117 0.6406714800000001 -1.776702 -2.008943 0.432408
2380 13.056001470000002 6.416259930000001 -0.044007660000000004 -1.810591 -1.390363 0.281827
2400 9.118591200000001 6.0974251200000005 -0.5565409200000001 -1.890695 -0.8515 0.126753
2420 6.233038560000001 6.466850100000001 -1.17356049 -1.968159 -0.488212 -0.07935199999999999
2440 5.3012258999999995 6.866225010000001 -0.72509634 -1.926703 -0.047442000000000005 -0.317841
2460 4.83734043 6.3020421 0.5773479300000001 -1.983252 0.229455 -0.516211
2480 4.151317320000001 5.62424958 0.79769034 -2.041589 0.245877 -0.5764600000000001
2500 3.6146808900000003 4.8184758 0.44592336000000005 -1.968028 -0.182854 -0.517713
2520 3.66377994 4.5731375100000005 -0.04027005 -1.49785 -1.007565 -0.079674
2540 3.65600061 4.81892706 -0.47346984000000003 -0.6326149999999999 -1.78329 0.818261
2560 3.45496428 5.321728800000001 -0.44442243000000003 -0.5071399999999999 -1.217413 1.719991
2580 3.5248703400000005 5.930517780000001 -0.5126804100000001 -0.6768649999999999 -0.701365 2.0193830000000004
2600 3.9570204600000003 6.51415392 -1.8206673300000003 -0.937806 -0.576141 1.56661
2620 4.65397191 6.867421830000001 -2.26778751 -1.498166 0.658227 -0.004899000000000001
2640 5.63053779 7.0066257300000006 -3.2699476800000005 -1.171971 0.406781 0.521131
2660 6.7460230800000005 7.10826714 -5.181328080000001 -0.226879 -1.11163 1.663061
2680 8.73553032 6.6942262800000005 -6.784645050000001 -0.598759 -1.176767 1.491768
2700 11.05511463 5.751642240000001 -7.231608270000001 -1.457208 -1.305541 0.07588400000000001
2720 13.38396939 4.57643367 -6.1079022 -1.075662 0.215069 -1.167878
2740 13.9544307 3.47098401 -4.43288394 -0.8492569999999999 1.374677 -1.244695
2760 10.16506314 2.8175889600000006 -2.22586938 -0.768077 2.299567 -0.574469
2780 7.53922044 3.91511214 -2.114055 -0.839469 1.795293 -0.147033
2800 10.77235119 8.86756311 0.36194976 -0.781896 -0.117277 -0.629153
2820 13.837976190000001 18.64972233 5.73203205 -1.772628 -1.569467 -0.514571
2840 3.3715890900000005 11.9527983 5.99279166 -2.639123 -1.6811 -0.351702
2860 1.8248562 8.87953131 -2.16569484 -2.432975 -1.1980030000000002 -0.395746
2880 1.3301379000000002 6.806344770000001 -9.29117853 -2.179956 -1.049132 -0.282006
2900 1.4846159700000001 4.336932330000001 1.24017039 -1.896615 -0.457745 -0.301081
2920 1.82455209 5.61032919 6.20324559 -1.465258 0.027838 -0.362784
2940 5.61826548 8.29844577 6.40772523 -1.0867209999999998 0.103682 -0.476673
2960 10.579104000000001 9.61974486 4.32330624 -0.928454 -0.158499 -0.583122
2980 14.212345410000001 7.50764205 -0.06840513000000001 -0.8795209999999999 -0.574493 -0.491448
3000 12.987596340000001 5.98514967 -4.21568073 -0.669582 -0.69734 -0.322114
3020 9.07293546 5.525011620000001 -1.81093581 -0.4591 -0.666922 -0.119857
3040 6.7458759299999995 6.07107546 3.64027518 -0.361754 -0.576734 0.15203599999999998
3060 4.66819641 7.000788780000001 4.39126992 -0.16883399999999998 -0.8182 0.429294
3080 4.35414888 7.882756830000001 2.6930510100000005 0.347181 -1.424758 0.618478
3100 4.88089683 8.19874674 1.19945889 1.167935 -1.95527 0.973132
3120 5.37202467 8.088276330000001 -0.11616021000000001 2.392459 -2.556667 1.38838
3140 6.279891120000001 7.604035110000001 -1.2159200700000001 1.759797 -4.062561 1.302569
3160 6.8831374499999995 6.75470493 -1.78264377 -0.574626 -3.743969 0.910909
3180 7.538622030000001 5.37816573 -1.8089836200000002 -1.404252 -3.664327 0.89433
3200 8.645572620000001 4.17721572 -1.2939095699999998 1.468313 -2.833324 2.109738
3220 9.707308920000001 4.133502360000001 -0.33455042999999995 0.784625 -2.706318 2.908103
3240 9.868232160000002 4.731215850000001 0.05223825 -1.550766 -3.67961 1.911341
3260 9.09448803 4.963526460000001 -0.6179122800000001 -1.1786530000000002 -3.032428 1.183516
3280 8.42882067 6.20864109 -1.6935787800000002 -1.059043 -2.565162 0.911356
3300 8.02106802 7.609430610000001 -1.00186587 -1.188945 -1.685453 0.5439890000000001
3320 8.05100814 11.51405586 0.08996751000000001 -1.145845 -0.5431779999999999 0.165744
3340 5.1380659799999995 13.06153431 -1.38866436 -1.096649 0.490692 -0.014698
3360 4.34726226 11.399092470000001 3.0279055500000003 -1.004286 0.953296 -0.163129
3380 5.7637674 11.80340181 5.70388716 -1.0280129999999998 1.149326 -0.147522
3400 12.303211500000002 8.22404673 3.97737621 -1.462881 1.784414 -0.083008
3420 18.37189332 8.17375086 -9.6338124 -1.731166 2.569501 -0.377512
3440 14.181512580000001 6.702908129999999 -2.72283417 -1.402691 2.988921 -1.119238
3460 6.6145985099999995 6.952592250000001 0.66775689 -0.8308559999999999 2.834869 -1.98351
3480 0.07424208000000002 5.62993938 -1.18882485 -0.6666850000000001 1.303919 -1.822305
3500 -0.7258419 3.5202302100000002 -0.9999234900000001 -1.102354 -0.738153 -0.92863
3520 -1.18089837 1.43506566 -0.7656606900000001 -2.056509 -1.327713 -0.253013
3540 -0.31030011 1.7125905600000002 -1.2073853700000001 -1.582328 -0.795245 0.176905
3560 0.5146326 1.5566115600000001 -1.49583861 -0.49553 0.35046 0.69898
3580 1.2159200700000001 1.44644526 -0.668061 0.113963 0.842928 0.891681
3600 1.6277144399999999 2.0966913000000007 -0.65503332 0.749255 1.389375 0.617681
3620 2.0676537 3.4703856 -1.39719906 0.224907 1.962189 0.349433
3640 3.40930854 5.013528030000001 -1.89191736 -0.721475 0.8488469999999999 0.6689890000000001
3660 5.358261240000001 6.774315120000001 -1.81646865 0.002006 -1.326564 0.604191
3680 7.65628317 10.15997175 -3.06113202 1.787848 -1.238453 0.7308520000000001
3700 10.924877069999999 10.660232700000002 -3.2394091500000006 0.734759 0.286919 0.6040369999999999
3720 13.56119685 7.2453815100000005 -5.581291590000001 -0.606729 0.8934270000000001 0.343926
3740 10.454860350000002 3.33476235 -3.6833901300000003 -0.482548 0.707805 0.302302
3760 7.55868348 4.76384391 -1.66258899 -0.778609 0.931903 -0.070726
3780 7.91494344 8.7198147 -0.82239192 -1.072917 0.555454 -0.24642
3800 7.24433184 10.27792719 2.8349526600000003 -0.6014010000000001 -0.139906 -0.454811
3820 5.42771604 12.660373980000001 6.37883478 -0.141747 -1.567945 -0.17844200000000002
3840 2.8478233800000003 14.70796623 7.28864361 -0.078312 -2.088246 0.144202
3860 6.03829044 13.11632316 2.21015376 0.5067520000000001 -1.576496 0.331368
3880 13.127104350000002 7.803717659999999 -8.04696642 1.124036 -1.216282 0.557408
3900 10.27448388 3.51709101 -4.114343430000001 1.585444 -1.726492 0.409597
3920 4.74184008 3.5631882 7.492367880000001 1.532065 -2.484627 0.370672
3940 6.045922620000001 5.3410446899999995 5.444922780000001 1.3250620000000002 -3.276066 0.534746
3960 10.626250859999999 7.019055000000001 -2.0448945000000003 0.826883 -3.737616000000001 0.771139
3980 10.33166637 6.522090210000001 -3.01278834 0.496995 -3.768605 0.548821
4000 11.10615606 7.39567071 0.68796549 0.654566 -2.939225 0.263644
4020 9.85027005 7.9258717800000005 -0.64321227 0.625468 -1.7571279999999998 -0.153613
4040 8.221054680000002 5.876484300000001 -3.46139964 -0.105013 -0.278027 -0.177702
4060 7.54146693 5.387750100000001 -2.00043558 -0.6277189999999999 0.767442 -0.099372
4080 5.455409670000001 4.87146942 -1.99579545 -1.400581 1.169409 -0.317861
4100 4.97280672 5.68667061 -4.05641538 -2.329493 1.464504 -0.581101
4120 4.54619925 4.51879992 -0.58109535 -2.974435 2.430277 -0.446907
4140 3.92379399 3.4456840200000003 0.57031416 -3.09151 3.221057 -0.431646
4160 4.3755543 3.35692314 0.1704978 -2.256255 3.300699 -0.559442
4180 5.572913850000001 4.161794400000001 0.9310671 -1.294971 2.729006 -0.417399
4200 5.3646966 5.620060710000001 2.14264134 -0.133958 2.670123 -0.2853
4220 5.23057428 8.86052934 -0.21943989 0.5854 2.61716 0.080852
4240 5.71871007 11.675126250000002 -2.8322647200000004 0.570376 0.924862 0.785806
4260 7.20571968 9.36257571 -1.7465724 0.292245 -0.002775 0.97199
4280 6.9368766299999995 6.374793060000001 -2.15057763 -0.4426350000000001 0.5853079999999999 0.797325
4300 5.60644443 6.02855892 -5.00200128 -0.313986 0.472842 0.306985
4320 5.3374542300000005 6.01523694 -6.148613699999999 -0.5835140000000001 -0.267293 -0.049667
4340 5.46438582 5.93949393 -6.76891962 0.817978 -1.024442 0.001685
4360 5.954915250000001 5.216801040000001 -6.95393622 2.155707 1.654682 1.780845
4380 7.04180439 3.93052365 -5.80237956 0.268869 0.39505 0.873041
4400 8.67087261 5.55404922 -3.0550007700000004 -1.567741 0.208618 0.071035
4420 9.399108150000002 10.56188745 0.09445068 -1.366643 -0.516061 -0.296236
4440 6.7515559199999995 12.5895654 0.20656917 -0.120465 -0.060412 -1.0369389999999998
4460 4.60831617 8.65650096 -2.3433735600000007 0.440765 -0.11292 -0.381336
4480 2.9782080900000003 4.904097480000001 -2.81175201 0.545847 -2.765375 1.369339
4500 2.65143699 2.77687746 2.4277984200000002 1.522178 -4.7696760000000005 1.717354
4520 4.2610421700000005 8.025561000000001 3.1542387300000003 1.713899 -6.649853 1.808697
4540 8.819062470000002 11.43173034 0.66251835 1.016463 -4.288682 1.484606
4560 19.693947780000002 9.29522025 -0.9984225600000001 0.743332 -1.758771 0.6868350000000001
4580 19.673739180000002 8.629405740000001 -5.94697896 0.643637 -2.644896 -0.33715100000000003
4600 5.06067489 5.954768100000001 3.8227509900000003 0.439934 -0.158875 -1.673832
4620 0.7914021300000001 3.79804941 4.34695815 1.091647 2.34892 -1.739791
4640 5.99652927 5.71885722 -0.56373165 0.085789 4.006167 -1.320584
4660 13.551465330000001 11.009606040000001 -3.85717428 -1.202974 4.712952 -0.8636790000000001
4680 15.507157500000002 8.56009809 -1.33836849 -2.763036 4.504757 -1.258869
4700 13.915965690000002 5.385503610000001 1.0075556700000001 -1.589765 3.789755 -1.426014
4720 6.4694007000000004 5.67798876 0.6423097500000001 0.314069 1.849522 -0.8547540000000001
4740 1.26307674 6.259388220000001 -0.18067077 0.5252 -0.25419200000000003 -0.556822
4760 -0.6761444400000001 6.1688223 4.0261809600000005 -0.572494 -0.727276 -0.113094
4780 -6.06942738 3.3455435400000004 0.5029587000000001 -1.065721 0.35063 0.08611
4800 -4.59109962 1.46754657 1.04766876 0.34074 1.685517 0.17434000000000002
4820 -0.6782437800000001 2.00343744 3.14136801 0.445346 1.137939 0.090315
4840 1.37025099 3.88307268 -1.7378905500000001 -0.748939 0.196045 0.905711
4860 5.67080784 5.7175132500000005 -3.2103715500000005 -0.938578 -0.347026 1.015109
4880 10.22523768 6.18573474 -1.0886843700000002 -0.267248 0.368627 0.486907
4900 13.847550750000002 8.41160412 1.53341091 1.285139 1.435423 0.359651
4920 15.88751082 13.629758940000002 -2.06031582 0.914546 1.823308 0.117283
4940 12.307106070000001 14.470112970000002 -8.58284748 0.230455 1.6441689999999998 0.220625
4960 9.64115028 8.9944947 -9.59085441 0.408363 -0.752292 0.496267
4980 8.266710419999999 6.62536989 -6.805452060000001 0.26158000000000003 -1.738631 0.5969180000000001
5000 9.24746517 7.10243019 -0.70833105 0.278959 -0.964211 0.5907060000000001
5020 11.08220004 10.52147025 3.4826579100000004 0.335002 -0.108216 0.131734
5040 6.9957072 12.962894760000001 5.436397889999999 0.462701 0.221754 -0.17865
5060 0.95561172 9.433531440000001 3.98127078 0.4899770000000001 0.116316 0.057753
5080 3.45347316 5.4248711400000005 1.02731301 0.812938 -0.726971 0.473423
5100 5.6615275800000004 2.51417547 -5.3649909000000005 0.799852 -1.827955 0.623225
5120 9.7465293 4.23828297 -3.17279925 1.035201 -2.729625 0.530953
5140 10.435701420000001 8.577608940000001 2.80142208 1.457831 -2.718233 0.512526
5160 13.18412988 10.618618680000003 3.69865449 1.606878 -3.165607 0.373135
5180 11.862830790000002 5.336257409999999 -0.01961019 1.6887849999999998 -3.520376 0.310068
5200 9.61180857 2.7419930999999997 -3.0600823500000005 0.6710699999999999 -3.548585 0.25492600000000004
5220 6.600079710000001 3.0130826400000004 -1.91796291 -0.644324 -3.345756 -0.042942
5240 6.55576794 5.2317711000000005 0.9800091900000001 -0.46601 -2.394963 -0.072825
5260 8.70424623 6.94900179 0.8857056600000001 -0.452341 -1.077968 0.102907
5280 9.68919966 6.25833855 0.48005235 -0.866856 0.686546 0.091342
5300 10.694057579999999 4.719090690000001 -3.3024285900000003 -1.976176 1.418981 -0.425819
5320 8.79974658 5.75088687 -4.1011686 -2.509992 2.069402 -0.646162
5340 6.95663397 6.71742693 -1.2271525200000002 -2.20096 3.014091 -0.329021
5360 5.08567077 6.72191991 0.44786574 -1.603038 3.800536 -0.11648
5380 5.59117026 7.6014943200000005 -0.12364524000000002 -1.24471 4.327214 -0.26847600000000005
5400 8.03903013 8.708140799999999 -3.17220084 -1.329148 4.21055 -0.5904510000000001
5420 9.202859100000001 8.4909474 -2.77792713 -1.231288 2.8416900000000003 -0.945868
5440 8.379878580000002 6.7127868 1.5299676 -0.5384 0.601348 -0.198948
5460 5.62111038 4.17257559 0.62824221 0.195065 0.767224 0.572946
5480 3.86017614 5.163513120000001 -0.6060912300000001 0.559109 1.582924 0.865
5500 2.98074888 7.53952455 -3.54417642 0.405228 1.998604 0.144479
5520 3.09361293 7.754922720000001 -5.926623210000001 0.206179 0.787305 -0.461041
5540 4.913083439999999 4.9810373100000005 -4.68929772 -0.051679 -0.021459 0.082988
5560 4.05971154 3.68698059 -4.54694481 0.275302 -0.489712 0.215127
5580 4.22002656 3.6613863 -4.15311255 0.091697 0.556659 0.572494
5600 4.81129488 4.10296383 -3.17174958 0.514846 1.140392 1.013741
5620 6.3714969 5.795502750000001 -4.15775268 0.695561 0.7413029999999999 0.76021
5640 9.385030800000001 9.66734298 -3.97827873 0.071189 0.812954 0.167166
5660 10.64212344 10.79704296 -5.666462010000001 -0.245278 0.38269 -0.117572
5680 10.32672213 5.12728479 -1.9715549400000003 -0.092002 -0.222823 -0.40735
5700 6.261624899999999 3.68922708 0.52810173 -0.235283 0.055156 -0.5347569999999999
5720 4.27391289 6.75814824 2.22886143 -0.404962 -0.195534 -0.300612
5740 3.8883112200000003 12.258605430000001 2.23036236 -0.151232 -0.5442670000000001 0.1086
5760 3.6724617900000003 14.306354640000002 2.68242678 0.200327 -0.715598 0.291804
5780 7.85536731 9.64893942 3.36260313 0.5779449999999999 -0.589751 0.194936
5800 11.16707616 7.009774740000001 2.7255319200000003 0.992758 -0.566973 0.266171
5820 14.13884889 5.3302635 -0.71910243 1.420605 -0.917072 0.865676
5840 11.286532529999999 5.369631030000001 -2.35056429 1.279625 -2.494508 1.460644
5860 6.680453040000001 6.45038892 4.05911313 1.017714 -4.145395 1.348766
5880 4.7624999400000005 8.032300470000001 3.5874385200000005 1.374584 -4.039327 0.622596
5900 8.542135980000001 7.38548793 -1.4406083100000002 0.5894739999999999 -4.635961 -0.008102
5920 11.78558685 7.266188520000001 -0.9090632700000001 0.641886 -3.568137 -0.15758699999999998
5940 10.731031470000001 6.49514214 2.1315658500000003 0.593644 -1.334793 -0.247312
5960 9.704022570000001 4.50518364 1.27040481 0.217615 0.177248 -0.2914
5980 8.917260570000002 4.303254600000002 -2.018250540000001 -0.5217470000000001 1.006003 -0.175849
6000 8.345749589999999 6.2248079700000005 -2.82837015 -1.532073 1.031699 -0.397652
6020 7.378002899999999 5.9341082400000005 -0.49891698 -1.816871 1.255445 -0.426633
6040 6.73284825 4.49635464 0.65683836 -1.72492 2.334968 -0.33978
6060 5.489538659999999 3.77425035 -2.4424741800000005 -2.103889 3.595686 -0.933701
6080 6.762189960000001 4.69183851 -6.525229410000001 -1.889043 4.828809 -0.737228
6100 7.6948953300000005 4.67418051 -0.20627487000000003 -1.6624990000000002 2.900423 -0.608192
6120 4.249211310000001 5.094951030000001 3.1271435100000002 -1.338885 -0.940324 -0.249565
6140 3.37697478 4.60217511 2.90500587 -0.293038 -0.8108479999999999 0.297026
6160 4.23798867 5.6684142 1.4488389000000002 1.03443 1.971891 0.418101
6180 4.03546122 7.164547110000001 0.9282222 0.713659 2.2139580000000003 0.101493
6200 3.3124642200000003 6.89825466 -0.22768029 0.122764 1.995574 0.081622
6220 4.5933461100000015 7.12967256 -1.5031764900000002 -0.938674 0.7086680000000001 -0.050194
6240 5.680392210000001 6.37239942 -2.7258360300000004 -0.868193 -0.544127 -0.369631
6260 7.452549090000001 5.4748629 -2.8436345100000002 1.040373 -0.388399 0.056903
6280 9.43951554 6.655614120000001 -2.60009145 1.461052 0.479174 0.381333
6300 9.96492933 10.28870838 -2.8110064500000003 -0.31505500000000003 0.496294 0.5697300000000001
6320 10.90138212 13.388011109999999 -8.00984538 0.336621 -0.10411 0.967089
6340 8.08963011 9.26528013 -9.74248758 1.019621 0.755957 1.076512
6360 7.7406982200000005 3.8845736100000003 -7.689205530000001 0.990896 1.277707 0.628058
6380 9.11020365 0.01257642 -0.15208443 0.5062479999999999 1.1081 0.040572
6400 6.00207192 4.19307849 2.09234547 0.245723 0.428937 -0.120611
6420 4.295318310000002 8.374483080000001 3.96555516 -0.284218 0.393804 -0.46503
6440 4.60831617 13.29191235 1.2927127500000002 -0.268965 0.326129 -0.6037060000000001
6460 6.928194780000001 13.68393957 -2.72074464 -0.374985 0.472451 -0.60677
6480 8.07959448 11.44340424 -0.49277592000000003 -0.574858 0.411282 -0.587792
6500 9.21199221 8.545128029999999 1.5323612400000002 -0.455203 0.274251 -0.522687
6520 7.791445350000001 9.317969640000001 5.870196090000001 -0.287898 0.393389 -0.358233
6540 6.11238537 5.6339811 7.4860796700000005 -0.09299 0.295973 -0.142034
6560 6.32614527 1.8200689200000002 -1.9604696400000001 0.386432 -0.067881 0.123495
6580 9.23564412 4.12317243 -4.8181815 0.890774 -0.653123 0.320048
6600 11.51300619 9.67647609 1.39495257 1.200987 -1.29187 0.21300700000000006
6620 13.094623440000001 10.561141890000002 3.14750907 1.09178 -0.950517 -0.074477
6640 13.226793570000002 7.655979060000001 -1.0090467900000002 0.577018 -1.256777 -0.02961
6660 8.9480934 6.11508312 1.6790599800000001 0.407122 -1.588187 0.410803
6680 8.60321304 6.483321090000001 1.1726579700000002 0.8949219999999999 -2.934263 0.678718
6700 9.01410489 5.97273021 0.17543223 0.8589479999999999 -4.439624 1.007272
6720 8.578962720000002 5.06681595 1.03120758 0.465672 -4.931996 1.135479
6740 8.52357546 4.929701580000001 -0.09924777 0.384944 -4.228389 0.8082050000000001
6760 7.34238279 5.00963346 -0.46388547 0.581779 -2.689849 0.5672590000000001
6780 6.51460518 5.41798452 0.2601612 0.182735 -1.794606 0.278109
6800 6.79436676 5.99279166 -0.38319822000000003 -0.385867 -1.263474 0.082245
6820 6.945107220000001 5.7490916400000005 -3.59911242 -0.821371 -0.256866 -0.053478
6840 7.277568120000001 4.89676941 -3.69177768 -0.967926 0.7474109999999999 -0.389074
6860 5.821244190000001 4.308944400000001 1.2440649600000002 -0.99328 1.892001 -0.487926
6880 4.4000989200000005 3.64327704 2.26164645 -1.377131 2.716441 -0.666852
6900 3.92604048 2.07827793 2.36702547 -1.805621 3.555934 -1.107824
6920 5.49597402 3.4361094600000004 -1.2777426900000002 -1.993643 3.847703 -1.7141240000000002
6940 7.100330850000001 5.65898679 -3.08853135 -2.272832 2.950848 -1.4991450000000002
6960 8.5493169 9.20390877 0.45804852 -1.930706 0.5392170000000001 -0.503423
6980 8.46490185 9.9893268 2.97865935 -0.781795 -0.697855 0.435541
7000 6.79751577 9.837840779999999 0.09669717 -0.134122 0.167753 1.054251
7020 4.45309254 8.42268942 -4.526137800000001 -0.257016 2.045212 1.315906
7040 4.24966257 6.54274026 -2.09339514 -0.348769 2.764019 0.128618
7060 3.5390948399999997 4.06315485 -0.7641597600000001 -0.45601 2.016109 -0.02286
7080 3.9977319600000003 4.13021601 -1.9730460600000002 0.368969 -2.057851 -0.118699
7100 3.6980560800000006 4.58032824 -3.0698138700000004 1.624451 -0.958689 -0.623017
7120 4.0383061200000006 4.46506074 -3.7564353900000005 0.823133 1.771612 -0.727184
7140 5.38759314 5.284460610000001 -3.5435780100000005 0.782395 0.975309 -0.290614
7160 7.366034699999999 6.545889270000001 -4.107456810000001 1.558186 1.606398 0.788628
7180 11.113189830000001 9.31168143 -6.05026845 -0.03115 1.112695 0.6884279999999999
7200 11.769576930000001 6.696924030000001 -4.597534980000001 -0.8839969999999999 -0.11514 0.255687
7220 11.37649023 4.13694567 -3.67920126 -0.332896 -0.465383 0.252508
7240 6.93776934 3.56827959 -3.50361207 0.0189 -0.829715 -0.050079000000000005
7260 5.469771510000001 5.18432013 0.39921795000000004 -0.699473 -0.7333270000000001 -0.354323
7280 4.46251995 10.042761870000001 3.8146675500000002 -0.6902119999999999 -0.349798 -0.369705
7300 1.5358045500000002 15.88107546 3.41155503 -0.305948 -0.011556 -0.307634
7320 -0.62135559 16.46261226 -2.6598147300000003 0.051408 0.093257 -0.188836
7340 6.49499499 8.143967700000001 2.36044296 0.28503 0.0044670000000000005 -0.032198000000000004
7360 9.67812417 7.28938917 2.3028092100000004 0.621336 -0.202106 0.186197
7380 17.09355222 11.359126530000001 2.2312648800000003 0.82594 -0.827525 0.566578
7400 22.740708150000003 6.71937912 -1.4395586400000002 0.871091 -2.47 0.748459
7420 11.45447973 2.9708702100000006 1.8015084000000001 1.142197 -3.624664 0.7561060000000001
7440 6.16987197 5.70419127 5.595368939999999 0.810933 -4.010191000000002 0.485094
7460 6.7918259700000005 6.270610860000001 3.3332712300000003 -0.448124 -4.927618 0.301218
7480 8.73463761 6.959174760000001 -2.10118428 -0.288831 -4.713557 0.44413
7500 7.838749170000001 6.827897340000001 -3.36694896 -0.257454 -3.765066000000001 0.5841390000000001
7520 6.605759700000001 5.4687316500000005 1.04063499 -0.30678 -3.103487 0.350074
7540 6.987015540000001 4.941826740000001 0.06496182 -0.549884 -2.483212 0.223668
7560 8.35742349 4.99481055 -2.90770362 -0.874554 -1.5065879999999998 0.563048
7580 8.67266784 4.8557538 -2.70338094 -0.843406 -0.09709 0.5016390000000001
7600 7.95116196 4.2728632200000005 -0.51148359 -0.962703 0.773084 0.377913
7620 6.85574793 3.04945812 -0.10837107 -1.255945 0.994818 0.326442
7640 6.60651507 2.26943559 -3.8838280500000004 -1.604557 1.224268 0.258552
7660 7.69639626 3.05529507 -5.2200972 -1.719674 2.2131830000000003 0.273572
7680 6.991665480000001 4.75171875 -0.7791298200000001 -2.24332 3.0464580000000003 -0.128532
7700 4.95125415 6.935228550000001 2.60967582 -2.334961 2.705015 -0.974766
7720 5.68427697 6.694530390000001 3.02955363 -1.119942 0.917754 -1.296206
7740 6.62192658 7.33923378 1.7872839 0.054902 -0.625418 -0.022316
7760 6.4873628100000005 7.488473310000001 -1.0627859700000002 0.21003400000000005 -0.6315 0.830148
7780 6.1667229599999995 8.18228556 -2.72403099 0.5514439999999999 0.452508 1.443235
7800 6.26238027 7.486678080000001 -1.8938597400000001 0.884259 0.114857 0.878767
7820 7.104823830000001 6.45637302 -0.64395783 0.589329 0.171042 -0.393481
7840 5.3790682499999996 6.5274759 -1.65885138 0.137203 1.763455 -0.756534
7860 3.3894040500000004 6.785841870000001 -1.5054229799999999 -0.342535 0.21842 -0.245159
7880 2.39771115 7.06112028 -1.1621808900000001 0.209841 -0.284316 -0.20967800000000006
7900 1.9785887100000001 7.13565666 -2.6176023 0.30790700000000004 1.199064 0.108505
7920 3.1166664300000004 7.8023736900000005 -6.017934690000001 2.1028 0.273531 1.964911
7940 5.508697590000001 7.38024939 -8.3204496 1.677536 1.741884 1.4344940000000002
7960 11.02682259 7.045993260000001 -9.44161488 -2.621065 1.582058 -0.156
7980 15.322582350000001 9.39461517 -7.50643542 -1.972782 -0.182101 -0.169507
8000 14.706622260000001 7.041205980000001 -8.491545810000002 -1.291294 -1.102353 -0.795955
8020 8.671166910000002 4.82566653 -6.144876090000001 -2.54731 -0.6782 -0.549967
8040 5.261858370000001 5.20512714 -0.94169133 -2.092978 -0.50921 -0.580125
8060 3.682193310000001 7.622301330000001 3.11891292 -1.6455959999999998 -0.325941 -0.71183
8080 2.64814083 11.8893276 4.92610131 -1.6533779999999998 -0.257338 -0.811317
8100 1.43776341 13.653410850000002 3.07715175 -1.495972 0.091588 -0.8266879999999999
8120 3.30063336 11.865822840000002 2.00328048 -1.316701 0.121765 -0.803042
8140 14.122682009999998 12.68357463 4.74977637 -1.25787 0.084561 -0.8741540000000001
8160 15.241159350000002 6.52972239 0.44936667 -1.3200120000000002 0.056957000000000015 -0.843575
8180 15.70234707 0.5944173300000001 -1.15649109 -1.316818 -0.020405 -0.681083
8200 11.91626586 5.98679775 -1.86736293 -1.137189 -0.038607 -0.547346
8220 8.12644704 7.03013049 3.7194615 -1.008772 -0.352544 -0.472339
8240 14.024935170000001 6.340664070000001 2.66385645 -0.935144 -0.772727 -0.420012
8260 11.714640930000002 7.21409742 -1.40138793 -0.681743 -1.168546 -0.223318
8280 9.01620423 7.35570477 0.78556518 -0.284158 -1.546689 -0.042732
8300 6.615795330000001 7.140296790000001 1.4323679100000002 0.270858 -1.931103 0.237239
8320 5.738163300000001 7.224427350000001 1.1831350500000002 0.957127 -2.310645 0.5170520000000001
8340 6.696619920000001 7.85281671 0.79618941 1.352265 -2.486518 0.732614
8360 7.45479558 7.813449180000001 -0.4107447 1.3690639999999998 -2.651165 0.8664700000000001
8380 7.938291240000001 6.51685167 -1.5331166100000002 0.770417 -2.691744 0.611308
8400 7.932003030000001 5.2971841799999995 -1.7899816499999999 0.232606 -2.583974 0.500591
8420 7.37052768 4.74004485 -0.6421626 -0.395378 -2.935581 0.528702
8440 7.089255360000001 3.91002075 0.5695686 -0.499175 -2.138901 0.92113
8460 7.30930347 3.5953748100000005 0.69410655 -0.36705 -1.447846 1.4157540000000002
8480 7.4297997 3.23717247 -0.41643450000000004 -1.090396 -2.724245 1.559751
8500 7.672597199999999 3.22653843 -1.6387899300000002 -1.715782 -3.746736 1.525715
8520 7.814950110000002 4.08456027 -1.29645036 -1.858166 -3.629015 1.513887
8540 8.84645199 5.95371843 0.18157329000000003 -1.817942 -3.170242 1.569128
8560 9.680370660000001 7.21440153 0.059428980000000006 -1.745138 -2.630433 1.57749
8580 10.57386546 8.07091263 0.9831582000000001 -1.85251 -2.475981 1.407763
8600 10.52297118 8.50501494 0.48962690999999997 -2.019207 -2.523491 1.179129
8620 10.691820900000002 8.94584691 0.27557271000000005 -2.1413330000000004 -2.41657 0.920697
8640 9.986933160000001 9.35240274 2.2246725600000006 -2.153664 -1.835003 0.683789
8660 9.433678590000001 8.91501408 3.09841002 -2.244439 -1.1932969999999998 0.393912
8680 10.308465720000001 7.515568530000001 3.0874816800000002 -2.315937 -0.743524 0.133259
8700 12.18376494 5.86840086 1.66378581 -2.289422 -0.294218 -0.095731
8720 12.066260760000002 6.0299127 -0.96025185 -2.240587 0.305489 -0.393124
8740 9.688306950000001 6.652916370000001 -2.39546466 -2.255753 0.483366 -0.6402180000000001
8760 8.561746170000001 6.53271444 -0.94183848 -1.799088 0.079911 -0.574554
8780 7.43998248 6.379580340000001 0.7924517999999999 -1.104562 -0.730457 -0.188377
8800 6.39964179 5.864957550000001 2.0657015100000002 -0.594381 -1.572656 0.591795
8820 5.5580909400000005 5.38864281 2.6252442900000004 -0.397908 -1.236744 1.132189
8840 4.5378117 5.15932425 2.0727352800000003 -0.052718 -0.7103189999999999 1.054877
8860 3.9472889400000004 5.444481330000001 1.23343092 -0.115384 -0.190504 0.320973
8880 3.2486894100000003 5.6393766 0.81924291 -0.427483 -0.250623 -0.091327
8900 2.8247796899999997 5.660625060000001 -0.15822549 -0.007206999999999998 0.321852 0.503738
8920 3.15050112 5.8884525 -1.2448105200000001 0.006920999999999999 0.99343 0.643981
8940 3.62815983 6.29845164 -2.44097325 -0.418655 1.2058209999999998 0.114103
8960 4.24157913 6.34111533 -3.23476902 -1.170048 0.8206760000000001 -0.686477
8980 5.93515791 7.04869101 -4.52823714 -1.748464 0.271036 -0.7282689999999999
9000 8.24126328 6.74212851 -5.7429603899999995 -1.824949 0.288681 -0.5461600000000001
9020 11.116633140000001 5.83905915 -5.47756065 -1.233152 0.11361 -0.168992
9040 13.011689700000002 6.60381732 -5.40466254 -0.757274 0.385737 0.096765
9060 10.52221581 7.45898445 -5.6046492 -1.268414 0.719408 0.213477
9080 7.51078125 4.94003151 -4.6807630200000006 -1.671359 0.400795 0.054041999999999986
9100 6.42778668 5.3554163400000006 -2.25446553 -1.712923 -0.310736 -0.194233
9120 10.56069063 11.868373440000001 -0.73901673 -1.830805 -0.529361 -0.297325
9140 9.452690370000001 12.02898276 3.41499834 -1.7854310000000002 -0.456867 -0.350512
9160 6.58435428 8.609942700000001 5.357505870000001 -1.6515509999999998 -0.350768 -0.359327
9180 4.355944110000001 7.43953122 1.0880859600000001 -1.415022 -0.184346 -0.357888
9200 3.38775597 6.6925782 -1.3156092899999998 -1.095831 0.108505 -0.343215
9220 2.85950709 7.0760805300000005 1.53924786 -0.934006 0.260313 -0.351893
9240 5.394479760000001 8.123160689999999 3.3739827300000003 -0.912381 0.29338600000000004 -0.382763
9260 9.441163620000001 7.159906980000001 1.4076761400000002 -0.895964 0.208927 -0.321652
9280 11.26497015 5.91344838 0.6655202100000001 -0.826217 0.095622 -0.285768
9300 11.017689480000001 5.328919530000001 -0.07753824000000002 -0.723414 -0.192769 -0.183199
9320 8.26415982 5.52800367 -0.64246671 -0.507797 -0.571984 -0.10963599999999997
9340 6.47837685 6.24875418 0.7059276 -0.268613 -0.8355469999999999 0.059015
9360 6.10909902 6.762189960000001 0.7264403100000001 -0.176021 -1.2400950000000002 0.180889
9380 6.14667132 6.86651931 0.16046217000000002 0.03851 -1.95226 0.401217
9400 6.0733219499999995 6.84181773 0.8759741400000002 0.348182 -2.596575 0.887043
9420 5.89773276 6.90260049 1.44764208 1.151348 -2.785002 1.224043
9440 5.75882316 6.64842339 1.88472663 2.058056 -2.772367 1.274157
9460 5.79669957 6.23812995 2.04998589 1.819532 -2.595111 1.1098940000000002
9480 6.19202295 5.7946002299999995 1.4437475100000001 0.749654 -3.046269 0.842353
9500 7.07533497 5.56976484 0.74679606 -0.5855229999999999 -3.817453 0.649213
9520 8.032143510000001 5.6199135600000005 0.38319822000000003 -0.749517 -3.247912 1.152606
9540 9.24507153 5.753133360000001 -0.18995103 0.352745 -1.7187689999999998 1.942421
9560 9.621245790000001 5.30302113 -0.7927559100000001 -0.324901 -2.113057 2.297115
9580 10.182721140000002 4.92879906 -0.74650176 -0.777217 -3.014142 1.856071
9600 9.76434426 4.497992910000001 -0.053140770000000004 -0.7331409999999999 -2.306744 1.538211
9620 8.75903508 4.02707367 -0.5855785200000001 -0.984425 -1.667027 1.351902
9640 8.25279003 4.22077212 -0.93315663 -1.3030700000000002 -1.522477 1.177507
9660 9.230258430000001 6.9948046800000006 2.03427027 -1.421125 -1.424234 0.954366
9680 10.0875249 8.40980889 3.3959865600000008 -1.352048 -1.255173 0.707873
9700 10.699148970000001 8.542587240000001 1.03285566 -1.30596 -0.80985 0.392499
9720 9.943523910000001 9.08805267 0.058977720000000004 -1.348008 -0.110378 0.00034
9740 8.85812589 10.989397440000001 0.12274272000000001 -1.526417 0.610966 -0.415233
9760 8.260275060000001 12.067908840000001 1.94879574 -1.563572 1.245306 -0.7741600000000001
9780 8.96620266 9.3878757 3.24734544 -1.444885 1.7264959999999998 -1.064504
9800 11.975998950000001 6.2442612 3.68099649 -1.283868 2.130839 -1.354453
9820 9.74803023 6.423440850000001 -1.90359126 -1.023571 2.117073 -1.600445
9840 8.94539565 6.708450780000001 -2.19743019 -0.812072 1.190746 -1.633032
9860 7.803874620000001 6.814575360000001 -1.15349904 -0.736224 -0.088019 -0.792309
9880 5.74729641 7.37606052 -1.2040990200000001 -0.896619 -1.084365 -0.043329
9900 4.417011360000001 7.40779587 -0.89888049 -0.684654 -0.30685100000000004 0.33957800000000005
9920 4.44021201 6.195466260000001 -0.30806343 -0.007284 0.8064439999999999 0.53089
9940 4.261483620000002 4.8698213400000006 -0.026496810000000003 0.256562 0.8705379999999999 0.524105
9960 3.2322282300000005 4.02123672 0.03922038 -0.124795 0.870266 0.390051
9980 1.9407123000000002 3.62606049 -0.24399432 -0.5772550000000001 1.228028 0.292428
10000 1.5676870500000002 3.4108094700000002 -1.48117266 -0.7008939999999999 1.408826 0.208012
10020 2.15880822 2.48004648 -1.30034493 -0.117725 1.06171 0.19437
10040 2.6646118199999997 2.36807514 -1.51485039 0.432853 0.785272 0.382304
10060 3.4259266800000003 2.6198487900000003 -1.8074925000000002 0.437116 0.576454 0.650725
10080 4.6093658400000015 3.0305934900000002 -1.56139884 0.496554 0.27889200000000003 0.420786
10100 6.51489948 4.93628409 -2.00762631 0.459305 0.19104 0.31168
10120 10.0673163 7.88889789 -3.20034573 0.474368 -0.184386 0.144555
10140 12.047700240000001 8.73493191 -3.4037757 0.098101 0.173508 -0.05188
10160 10.08841761 6.7096476 -3.9597182100000006 -0.255616 0.553843 -0.019587
10180 6.214026780000001 4.736895840000001 -2.72613033 -0.26211100000000004 0.845449 0.055838
10200 4.856499360000002 4.941669780000001 -1.46560419 -0.571865 0.713581 0.0015
10220 5.095107990000001 5.90327541 -1.06024518 -0.98206 0.272221 -0.091598
10240 5.250930030000001 6.55741602 -1.44405162 -1.110004 -0.07940499999999999 -0.225569
10260 6.979383360000001 6.58585521 -1.7651329199999999 -1.1933200000000002 -0.184243 -0.309338
10280 9.58771521 8.78582619 -0.26195643 -1.177332 -0.289351 -0.411641
10300 10.44243108 11.970162 1.8625756500000001 -1.05869 -0.211055 -0.381002
10320 8.94479724 13.9860189 3.06412407 -0.7994760000000001 -0.081487 -0.240489
10340 7.683221430000001 11.450585160000003 0.89514288 -0.38695 0.101373 0.026009
10360 8.056393830000001 8.74631151 0.7837699500000002 0.166984 0.181451 0.298968
10380 8.27209611 7.61675868 0.02185668 0.609757 0.008261 0.6013850000000001
10400 9.488614590000001 8.276137830000001 -2.13890373 1.082121 -0.585331 0.78277
10420 10.29334851 7.16126076 1.66095072 1.122162 -1.513968 0.677417
10440 10.361008080000001 6.416858340000001 3.6033111000000004 0.944576 -2.183166 0.350158
10460 9.62708274 5.35212018 0.8918467200000001 0.899805 -1.419489 0.154451
10480 9.30734541 5.42771604 -0.2817137700000001 1.048286 -1.242654 0.29199400000000003
10500 8.2945512 4.88928438 0.67643874 0.516799 -2.354366 0.6432869999999999
10520 7.08327126 4.3698645 1.09571814 0.433775 -3.641201 0.976573
10540 6.5628017100000005 4.62208941 -0.34667559 1.440976 -4.6232989999999985 1.413224
10560 7.260204420000001 4.8539585700000005 -0.5926221000000002 0.937695 -4.309357 1.661407
10580 8.064477270000001 5.15168226 -0.13307265000000001 -0.575012 -3.658262 1.322062
10600 8.171504370000001 5.24434752 -0.80038809 -0.505648 -2.645884 0.904643
10620 7.17023691 4.57389288 -0.8116107300000001 -0.089772 -1.45359 0.4819350000000001
10640 5.79969162 4.09683258 0.5891787900000001 -0.217186 -0.339091 0.271314
10660 4.99511466 4.365077220000001 0.14818986 -0.902274 0.5899310000000001 0.041012
10680 4.92161814 4.993466580000001 -1.9050921900000002 -1.444641 1.491715 -0.161553
10700 5.70419127 5.55045876 -4.91727231 -1.660216 2.393824 -0.196262
10720 7.28250255 4.796776080000001 -2.14039485 -1.4292129999999998 2.852714 -0.335173
10740 7.885003320000001 3.8414586600000002 2.82837015 -0.790185 3.367903 -0.521514
10760 7.144338510000001 3.3027327000000004 2.2119489900000002 -0.370907 4.297237 -1.253644
10780 7.240447080000001 3.32368686 1.67546952 -0.551964 4.871495 -2.179657
10800 8.21670885 4.60742346 -1.34420544 -0.7099770000000001 3.781042 -1.341877
10820 11.39430519 7.78919886 -4.017195 -0.767942 -0.301537 -0.117141
10840 13.687686990000003 11.905043220000001 -3.5043674400000002 0.406273 -0.06844299999999999 -0.019507
10860 11.69039061 11.13908823 0.77014386 0.854182 1.341597 0.487084
10880 6.79272849 7.32351816 0.80651934 0.338085 2.354228 0.247172
10900 5.000500350000001 6.45038892 -2.52779175 -0.598061 1.667612 0.137896
10920 4.5810738 6.927743520000001 -3.00963933 -0.833009 0.56203 0.031917
10940 5.738614560000001 6.330638250000001 -4.145774670000001 -0.382353 -0.897487 -0.335874
10960 4.267026270000001 4.84497261 -4.01166216 0.264956 -0.063191 -0.14441500000000002
10980 2.1194406900000002 3.74176944 -4.65516873 0.8845639999999999 1.421412 0.214797
11000 1.5769673100000001 2.15971074 -4.4973945 0.692779 1.3917540000000002 0.6044649999999999
11020 3.02341257 1.58729724 -3.5121467700000006 0.895373 0.800187 0.513702
11040 5.639219639999999 3.3687441899999997 -2.59740351 0.939848 1.078669 0.630092
11060 11.3428125 10.80079038 -3.7552385700000004 0.020218 0.840197 0.8568469999999999
11080 12.748095000000001 16.32444822 -5.018766570000001 0.119435 -1.528608 0.147003
11100 11.34999342 7.87737114 -6.290819460000001 -0.421223 -0.8446049999999999 0.059029
11120 9.58217256 0.05687838 -3.24734544 -0.166327 -0.16049000000000002 0.052455
11140 5.37502653 0.28470582000000005 -0.19759302 0.025629 0.111337 0.106859
11160 4.86877167 4.86488691 4.23634059 0.191132 -0.17006500000000002 0.271813
11180 3.9880102500000003 11.1230685 4.905 0.255408 -0.861391 0.4729060000000001
11200 4.40399349 12.438236340000001 2.7598080600000006 0.493289 -1.891939 0.6393260000000001
11220 5.6755951200000005 10.770850260000001 -2.41971498 0.758283 -2.258325 0.658738
11240 9.15944985 7.909400790000001 -2.11794957 1.166354 -1.760716 0.806229
11260 8.438248080000001 5.41408995 2.15911233 1.225114 -2.233838 0.790154
11280 7.140748050000001 2.49949971 4.202662860000001 0.48897 -3.074335 0.8939790000000001
11300 8.96605551 3.25033749 2.16360531 0.728793 -4.257844 0.949514
11320 17.12334519 10.029145590000002 -1.39779747 0.87298 -4.454381 0.956114
11340 16.542553950000002 6.796917360000001 0.4767561900000001 -0.08985 -3.265089 0.348592
11360 10.21925358 2.86654086 -0.52286319 -0.353457 -2.072337 0.133714
11380 7.341480270000001 3.6408834000000003 -0.005542650000000001 0.152043 -1.221664 0.08274400000000001
11400 6.647079420000001 4.13515044 1.7552542500000001 -0.069034 -0.304831 0.100321
11420 7.8441348600000005 4.7054646 0.11346246 -0.685063 0.7382810000000001 0.049816
11440 9.393565500000001 4.88074968 -1.19781081 -1.510499 1.358515 -0.360532
11460 9.66630312 5.21934183 -3.67710192 -1.863847 1.748727 -0.400888
11480 9.00212688 4.0459383 -4.37165973 -1.82615 2.437178 -0.5040560000000001
11500 9.442360440000002 5.25856221 -3.41769609 -1.481638 3.146444 -0.484399
11520 7.888740930000001 4.06913895 -1.0005219 -1.02433 3.788104 -0.705285
11540 5.24524023 3.4045212600000005 -0.7562234700000001 -0.68481 3.976632 -1.524618
11560 4.45563333 4.89481722 0.2881491300000001 -0.461797 3.711697 -1.797254
11580 5.96584359 6.16148442 -0.6141746700000001 -0.086498 2.247078 -0.8260149999999999
11600 9.242530740000001 7.3919331 -1.6483743 0.155598 0.4415310000000001 0.004794
11620 11.97509643 8.44244676 -1.85494347 0.112399 0.725453 0.16863499999999998
11640 10.66652091 7.037017110000001 -0.30192237 0.288037 1.427715 0.487292
11660 8.401284 5.285059020000001 -0.6665600700000001 0.099114 1.366649 0.205108
11680 7.6690067399999995 6.25384557 -1.3504936500000002 -0.339819 0.563866 0.210548
11700 6.48481221 6.4692437400000005 -2.83181346 -0.87949 -0.224225 0.09242
11720 5.55914061 6.62672367 -5.172047820000001 -0.120131 -0.21872 -0.077471
11740 4.17182022 4.520752110000001 -5.259759030000001 1.138035 0.410383 0.015969
11760 4.00521699 3.51154836 -4.44365532 0.936333 1.1101219999999998 0.493295
11780 3.36769452 2.38678281 -3.9974376600000006 0.64512 1.461198 0.595497
11800 3.3298279200000005 1.93053933 -3.27309669 0.73085 1.23111 0.51841
11820 5.10423129 3.3585614100000005 -3.0729628800000004 -0.331418 1.126048 0.805954
11840 7.936044750000001 6.694530390000001 -3.54283245 -0.260459 -0.910919 0.7844909999999999
11860 9.80670384 9.66958947 -2.7155061000000003 -0.31158600000000003 -1.593735 0.556409
11880 11.064090779999999 8.8265475 -2.3635821600000004 -0.385534 -1.141053 0.369442
11900 11.525876910000001 4.87132227 -2.06435754 -0.000414 -0.894467 -0.090724
11920 8.077652100000002 4.116138660000001 -0.28216503000000004 0.504108 -0.334318 -0.215036
11940 6.543338670000001 5.96689326 2.31239358 0.929798 0.12351 0.008473
11960 4.46161743 9.31722408 2.65113288 1.300307 0.026157 0.323106
11980 3.57426369 9.86972328 -0.11316816 1.191866 -0.34744200000000003 0.338851
12000 5.907464280000001 8.429723189999999 -2.47644621 1.109373 -0.83 0.407259
12020 10.587628890000001 7.34972067 -0.02365191 1.02105 -1.539926 0.596627
12040 11.573779140000001 5.39029089 2.5222589100000006 0.852902 -3.597393 0.5809979999999999
12060 9.223823070000002 3.08853135 4.644985950000001 0.711012 -5.482488 0.593105
12080 10.30667049 5.2257869999999995 1.8821858400000002 -0.177059 -4.738355 0.953416
12100 15.430060710000001 9.08640459 0.10164141000000002 -0.788464 -3.4786050000000004 0.802253
12120 12.841643160000002 4.45488777 0.31584275999999994 -1.101653 -3.006442 0.214075
12140 9.0289278 2.79274023 -0.48679182000000004 -0.536011 -2.260664 -0.030757
12160 5.75822475 4.22392113 -0.69814827 -0.409234 -0.603791 -0.232821
12180 4.9223637 5.162610600000001 -0.5709125700000002 -1.046821 0.7583439999999999 -0.390707
12200 7.01202123 5.462590590000001 -2.58272775 -1.604391 1.518939 -0.437237
12220 9.06126156 3.8390650200000005 -0.10328949000000001 -1.573057 2.323096 -0.432708
12240 9.0810189 2.94542307 -0.25088094 -1.223923 3.0294790000000003 -0.495268
12260 9.937686959999999 3.78996597 -2.4071483700000003 -1.090945 4.018998000000002 -0.845983
12280 9.747431820000001 4.45878234 -1.96915149 -1.359604 4.907513 -1.430111
12300 8.641079640000001 3.17220084 -0.29219085 -1.297863 4.802245 -1.266107
12320 7.081476030000001 3.2621683500000005 -0.65803518 -0.942179 2.142013 -0.4505020000000001
12340 8.07061833 6.2026471800000005 -3.78398187 -0.674226 -0.095119 0.12894
12360 12.02105628 8.63509554 -4.9223637 0.043889 1.036361 0.532021
12380 13.37378661 9.65836683 -1.44045135 0.475738 1.62859 0.706263
12400 11.35359369 7.777672110000001 2.186649 0.531072 0.842283 0.425646
12420 6.52493511 5.47157655 2.1342636 0.39144 0.413287 0.20303
12440 4.42913652 4.55622507 0.43454376000000006 -0.06526599999999999 -0.165455 -0.125226
12460 3.99758481 5.80478301 -1.94850144 -0.14259000000000002 0.041146 -0.042709
12480 4.40339508 6.19995924 -2.1749751 0.720993 -0.046205 0.007232
12500 4.58002413 5.28206697 -1.6799526900000001 0.28630700000000003 0.812917 0.256263
12520 3.9788771400000003 5.043909600000001 -1.92409416 1.075798 0.501963 1.142391
12540 4.13665137 4.96577295 -2.82327876 1.3525459999999998 -0.478443 1.256676
12560 6.0703299 5.626054620000001 -2.8666880100000003 0.381341 0.027109 0.880707
12580 8.757387000000001 7.68845997 -4.01704785 -0.543439 0.966505 -0.136426
12600 10.453065120000002 9.10931094 -5.6019514500000005 -1.091826 0.771058 -0.334422
12620 10.31250744 7.26753249 -5.5561485600000005 -0.91933 -0.377088 0.258981
12640 10.359055890000002 3.35302857 -5.2750332 -0.556773 -1.919496 0.183373
12660 7.369625160000001 0.65937915 -2.7881001000000003 -0.655189 -1.07951 0.131403
12680 4.85080956 2.54710764 0.09236115 0.15393099999999998 -0.418085 -0.009071
12700 2.35205541 4.41282249 1.57292559 0.8247469999999999 -0.099378 -0.105207
12720 3.0588855300000004 7.721990550000001 1.28792547 1.156182 -0.4826 0.070651
12740 5.78651679 11.03490603 0.5728549500000001 1.321375 -1.569144 0.45028
12760 7.390726470000001 10.425371490000002 0.44487369000000004 1.034942 -3.072341 0.721534
12780 10.661282370000002 9.69383979 1.9799326800000001 0.667068 -4.43574 0.7356659999999999
12800 12.15621846 9.12038643 4.956796800000001 0.589296 -5.188357 0.669858
12820 11.90339514 2.6960430600000005 3.01114026 -0.122533 -4.496859 0.454628
12840 9.28907919 -0.16361118 -1.6593026400000002 -0.718946 -3.3083089999999995 -0.018942
12860 7.727081940000001 1.7989578 -1.32265287 -0.398582 -2.424714 -0.150296
12880 10.69735374 7.64909244 2.95904916 -0.26118800000000003 -1.122082 -0.219372
12900 13.176350550000002 11.0331108 3.71048535 -0.483771 0.358491 -0.252734
12920 14.803162470000002 6.16268124 1.20469743 -0.527219 1.519098 -0.345324
12940 11.6203374 3.34853559 -4.18470075 -0.7788609999999999 2.391809 -0.45609
12960 7.73232048 5.3652950100000005 -1.13015124 -1.371351 2.939629 -0.5421159999999999
12980 4.53451554 5.39119341 -0.56163231 -2.051349 3.71457 -0.872598
13000 5.40211194 4.464462330000001 -2.40804108 -2.049823 4.253528 -1.388161
13020 7.9577542800000005 3.9176529300000005 -2.8163921400000005 -1.7522349999999998 4.257951 -0.8882969999999999
13040 10.0354338 3.72096243 -3.3552750600000003 -0.906623 2.358646 -0.310594
13060 9.44295885 4.35204954 -3.10783743 -0.12756199999999998 1.099731 0.285051
13080 8.139621870000001 4.9223637 -2.9530552500000002 0.079069 1.413823 0.679198
13100 8.384214600000002 6.6126463200000005 -2.01765213 -0.002478 1.817717 0.711226
13120 9.78904584 8.58210192 0.77209605 1.1863860000000002 1.295069 0.11345
13140 7.8802160400000005 8.130488759999999 3.1702584600000003 1.437553 0.071805 -0.022097
13160 3.7166166 5.29254405 0.84095244 -0.073114 -0.125341 0.238932
13180 3.1127816700000004 5.15168226 -1.06204041 0.558476 -0.747058 -0.142556
13200 3.6398337300000003 5.0826787200000005 -0.3876912 1.330233 0.364234 -0.06488200000000001
13220 4.60398015 3.81631563 0.54995841 -0.466353 2.010288 0.375522
13240 5.4826520400000005 4.08679695 -1.07521524 -0.316075 1.081796 0.670454
13260 5.813906310000001 4.97505321 -3.4892404200000002 1.6644720000000002 0.045805 1.219727
13280 7.189847100000001 5.4944730900000005 -3.68099649 -0.742811 -0.055678 0.713796
13300 9.031468590000001 6.73538904 -4.1327568 -0.444504 -2.350108 0.41224
13320 11.79816327 8.776850040000001 -7.4838331799999995 -0.15348 -1.686407 0.417696
13340 9.862542359999999 7.8143517000000005 -6.47897526 0.126902 -0.78743 -0.062198
13360 8.28900855 6.08185665 -3.8420570700000005 0.520408 -0.430661 -0.378237
13380 6.869815470000001 5.00229558 -3.2195046600000006 0.873559 -0.152834 -0.099456
13400 4.603823190000001 4.7717802 -2.9479736700000005 0.95987 -0.560218 0.469963
13420 5.34717594 5.26200552 0.74365686 1.016399 -1.894409 0.8032159999999999
13440 4.80694905 8.48196144 2.33274933 0.736024 -3.041764 0.793114
13460 4.140094680000001 9.60103719 1.4804172899999999 0.50372 -3.856294 0.626961
13480 6.450084810000001 7.278166530000001 -1.98232632 -0.022624 -4.30349 0.49567
13500 10.648705950000002 6.65621253 1.5064628400000002 -0.181168 -3.583529 0.408183
13520 10.60664067 7.26544296 6.5089153799999995 -0.156136 -2.073069 0.145776
13540 9.08970075 5.525757179999999 6.28362873 -0.519 -1.080533 -0.262887
13560 18.1799901 8.30832444 0.11346246 -0.459919 0.085118 -0.373995
13580 19.17347823 6.3020421 -5.38864281 -0.799139 1.09492 -0.326383
13600 9.218280420000001 3.2019938100000003 2.1188422800000004 -1.185183 1.319114 -0.379574
13620 7.14838023 4.524636870000001 -1.7850374100000002 -1.7831150000000002 1.56564 -0.505843
13640 7.2097614 6.65949888 -3.1585845600000004 -2.520833 2.049127 -0.628052
13660 7.662561570000001 6.312519180000001 -2.18485377 -2.970478 3.237708 -1.236261
13680 10.141264080000001 5.3530227 -1.72246923 -2.6980880000000003 3.603106 -0.942134
13700 10.0556424 3.2563314 -0.95231556 -2.137112 1.742123 -0.377151
13720 8.013435840000001 1.839375 -2.47675032 -0.103457 0.769396 0.288848
13740 7.67274435 2.9472183000000003 -3.91540644 1.206234 2.060668 0.977867
13760 7.042402800000001 4.080361590000002 -2.1278282400000004 0.8488559999999999 2.7035150000000003 0.8997709999999999
13780 5.558542200000001 4.78390536 0.60219666 -0.091811 1.048211 0.350529
13800 6.21717579 5.79369771 1.6970220900000001 0.204143 -0.440371 0.192134
13820 6.27525099 5.895044820000001 1.5817644000000004 -0.054130999999999985 -0.562737 -0.151345
13840 5.259160620000001 6.223905450000001 -0.25746345000000004 0.523196 -2.08566 -0.756383
13860 5.21186661 5.475461310000001 -0.02140542 2.666161 -0.6638930000000001 -0.6556420000000001
13880 5.5875798 4.91442741 0.81430848 0.666357 2.421541 -0.08711100000000001
13900 6.16987197 4.9293974700000005 1.1020063500000001 -1.339988 2.053771 0.382182
13920 6.78928518 5.3411918400000005 -0.47182176000000003 0.204222 -0.250272 0.604224
13940 7.2018251100000015 6.07122261 -2.52120924 2.066238 -0.063373 0.735564
13960 9.29342502 7.40884554 -3.0087466199999997 -1.803549 0.493654 0.123502
13980 11.180702250000001 10.20996351 -5.117258970000001 -1.286174 -1.432099 -0.124653
14000 9.07458354 8.01927279 -11.42035074 -0.712327 -1.046107 -0.179892
14020 7.914492180000001 2.46537072 -6.865626600000001 -0.506196 -0.398678 -0.293581
14040 6.91007571 1.54314243 -1.9098794700000001 0.025741000000000003 0.026448000000000003 -0.24234
14060 4.44695148 3.58953786 0.35027586000000005 0.535062 -0.006562999999999999 0.111636
14080 3.5892337500000004 7.8926355 0.46343421000000007 0.7524270000000001 -0.855825 0.514826
14100 3.55885218 10.736270010000002 1.00157157 0.598299 -1.976668 0.691442
14120 4.95275508 10.355171130000002 1.2150273600000001 0.246351 -2.9170700000000003 0.6709609999999999
14140 5.70374001 10.562633009999999 -1.9723005000000002 -0.11581099999999997 -3.2832449999999995 0.648604
14160 11.640546000000002 9.51915312 -7.599699090000001 -0.461163 -3.27115 0.587424
14180 16.0163946 5.96704041 3.80748663 -0.405732 -3.199345 0.431759
14200 11.402241479999999 7.23669966 8.195156279999999 -0.326363 -2.785673 0.276891
14220 8.62356879 4.006717920000001 8.625216870000001 -0.301576 -2.408039 0.123825
14240 11.69024346 3.13897437 2.5791372900000002 -0.70973 -1.686003 0.266395
14260 18.02806263 5.68772028 -7.76989278 -1.050923 -0.718382 0.47428
14280 10.003992750000002 6.02826462 -2.66026599 -0.8470979999999999 -0.3459 0.12271300000000003
14300 7.98184764 3.59642448 2.02963014 -0.8412059999999999 0.26963200000000004 -0.099157
14320 7.77902589 4.915025820000001 -2.67134148 -1.355561 0.6688649999999999 -0.390613
14340 8.004606840000001 6.20055765 -2.01750498 -1.749035 1.022343 -0.7997380000000001
14360 9.14808006 5.08941819 -2.1023811 -2.757807 1.735564 -1.394153
14380 10.01133063 2.91728799 -2.1794680800000004 -3.902423 2.244606 -1.161382
14400 9.84083283 1.16143533 -4.23828297 -2.900258 0.564026 -0.5390689999999999
14420 9.30868938 1.51963767 -4.15626156 -1.013748 -1.278979 -0.290657
14440 7.2706815 3.3591598200000004 -1.0412334 0.517303 -1.030549 0.190805
14460 4.85096652 4.448148300000001 1.44778923 1.121476 1.164318 0.898307
14480 4.79737449 6.186186000000001 2.73555774 1.289855 1.826364 0.891157
14500 5.28476472 7.98184764 2.54246751 1.057939 0.622791 0.246942
14520 6.492748500000001 8.9162109 1.1741589000000001 0.712875 -0.235724 -0.276729
14540 7.8144988500000006 9.62363943 -1.1723636700000002 -0.40236 0.016342 0.523802
14560 8.51324553 8.1559359 -2.64050865 -0.29412 -0.595474 0.516796
14580 8.15324796 5.54447466 -0.722997 0.370917 -0.764145 0.030276
14600 6.638848830000001 3.08628486 0.91205532 0.270255 1.107671 0.085926
14620 5.15902014 3.0546966600000003 -0.057633750000000004 1.0944040000000002 0.996526 1.057498
14640 4.0547673 5.445678149999999 -1.16038566 1.13885 1.57949 1.486487
14660 4.69020024 7.58308095 -1.7901288000000002 -1.1035700000000002 0.908178 0.282752
14680 7.970477850000001 10.978469100000002 -5.10228891 -1.948527 -0.096497 -0.019896
14700 11.96791551 12.89313585 -8.24171454 -1.973263 -0.7108 -0.35470300000000005
14720 11.35852812 8.97923034 -8.80543638 -2.038028 -0.64462 -0.597727
14740 10.026153540000001 4.569547050000001 -9.33653016 -1.877043 -0.331443 -0.7337359999999999
14760 7.925273370000001 1.64761893 -7.819590240000001 -1.6576099999999998 -0.058993 -0.8586030000000001
14780 6.13454616 0.81744768 -3.4290658800000005 -1.400387 0.47049 -0.8254379999999999
14800 3.69461277 1.44449307 -0.0953532 -1.143127 0.878099 -0.684226
14820 4.11000741 4.89586689 1.43207361 -1.1449049999999998 0.54018 -0.6261220000000001
14840 6.09891624 12.707079390000002 2.16105471 -1.406058 -0.120443 -0.6281680000000001
14860 5.39523513 14.199170580000002 3.8987883 -1.629583 -0.609058 -0.521212
14880 4.352647950000001 8.81157744 3.95597079 -1.386698 -0.494578 -0.32311
14900 3.7938605400000003 6.034101570000001 2.5030901700000006 -1.02067 -0.611314 -0.218922
14920 10.92877164 7.92960939 3.38086935 -0.6818390000000001 -1.123008 -0.156079
14940 18.48850479 9.48592665 0.31000581 -0.341967 -1.727987 0.05751000000000001
14960 21.67462602 4.2131399400000005 -4.0718367 0.206145 -2.3526130000000003 0.208485
14980 11.48487111 3.18881898 1.22160987 0.63102 -2.731361 0.250394
15000 8.95138956 6.62387877 3.0982530600000002 0.426497 -2.710098 0.438014
15020 10.01642202 7.804767330000001 0.9285165000000001 -0.104582 -2.685657 0.646849
15040 9.34686009 8.04457278 -0.79170624 -0.247235 -2.542711 0.720445
15060 8.597817540000001 7.46842167 -0.02365191 -0.289056 -2.28504 0.788189
15080 8.521181819999999 6.489452340000001 0.9050215500000001 -0.713996 -1.939131 0.966375
15100 9.04793958 5.933215530000001 0.43769277 -0.968079 -1.6740959999999998 1.506917
15120 9.744135660000001 5.42651922 -2.00762631 -0.8445290000000001 -1.4869139999999998 1.742549
15140 9.44176203 4.50128907 -2.5128216900000004 -0.8795440000000001 -1.884279 1.7769970000000002
15160 8.51384394 3.2885082000000003 -1.41096249 -1.68072 -3.037394 1.794243
15180 7.753873050000001 2.2031199900000003 -0.2891988000000001 -2.414637 -3.289286 1.75312
15200 7.5496975200000005 1.8248562 0.69455781 -2.521611 -3.078248 1.551276
15220 8.12136546 2.00403585 -0.42301701 -2.403027 -2.801813 1.316741
15240 8.36445726 2.1308202900000004 -2.14219989 -2.1846520000000003 -2.190048 1.053632
15260 9.06155586 3.61842831 -2.02528431 -2.071029 -1.441335 0.733
15280 10.171194390000002 5.63758137 -1.80988614 -2.05151 -0.749783 0.403237
15300 11.29790232 7.78231224 0.20087937 -2.091302 -0.21774 0.054037
15320 11.16707616 8.77429944 3.1464594000000004 -2.070191 0.290831 -0.338504
15340 10.201889880000001 8.01463266 4.431235860000001 -2.021514 0.75671 -0.7350720000000001
15360 10.45395783 7.277568120000001 4.62642543 -1.798109 1.041506 -1.02016
15380 10.3943817 6.553521450000001 3.3970362300000003 -1.523455 1.031416 -1.132528
15400 10.83417381 5.59281834 2.0887550100000003 -1.28272 0.489455 -0.8748469999999999
15420 11.546389620000001 4.46356962 1.57996917 -0.8281200000000001 -0.752532 -0.235556
15440 12.311451900000002 4.25774601 2.13800121 -0.36195 -0.832392 0.416213
15460 10.842551550000001 4.747529879999999 1.18793214 0.566893 -0.15398199999999998 0.7187979999999999
15480 8.29081359 5.495071500000001 -1.4383618200000001 0.8403780000000001 0.535668 0.377993
15500 7.412730300000001 6.900049889999999 -1.96137216 -0.018974 0.040073 1.182338
15520 6.52193325 7.02579447 0.36867942 -1.143891 0.30238400000000004 1.294853
15540 5.2376080499999995 6.656653980000001 1.08839007 -1.692538 0.979257 0.600082
15560 4.5952983000000005 5.57800524 1.03180599 -0.899226 0.122942 -0.394203
15580 4.96936341 5.33700297 0.49322718000000004 -1.042282 -0.563113 -1.064099
15600 5.282214120000001 5.88141873 -0.29728224000000003 -1.976228 -0.195476 -1.082844
15620 5.246142750000001 6.111639810000001 -1.0383885000000002 -2.234603 -0.190393 -0.798371
15640 5.328919530000001 6.48361539 -1.55675871 -2.314532 -0.8759620000000001 -0.31414699999999995
15660 5.60345238 6.56609787 -2.46612609 -1.896468 -0.435224 -0.07251
15680 6.148466550000001 5.52740526 -2.6876653200000002 -1.545773 0.022477 -0.018304
15700 7.538622030000001 4.15670301 -2.7828615600000006 -1.819352 -0.432041 -0.136068
15720 8.93402586 3.92573637 -4.293071820000001 -1.968461 -0.802538 -0.327847
15740 9.37006074 3.33057348 -6.023477340000001 -1.960835 -0.758922 -0.319304
15760 11.21961852 2.5727019300000005 -6.884030159999999 -1.793376 -0.230319 -0.254718
15780 10.06506981 0.9777627 -2.36537739 -1.643376 0.048662 -0.354441
15800 13.189368420000001 6.510710610000001 1.6363962900000002 -1.450708 0.124946 -0.417286
15820 15.30822051 13.828244670000002 4.23784152 -1.200338 0.314637 -0.38587
15840 7.20811332 8.6996061 3.5405859600000005 -1.047281 0.224468 -0.347298
15860 4.99571307 4.54709196 3.59492355 -1.000552 -0.07604 -0.362609
15880 2.9553017400000003 5.2551189 1.22385636 -0.908619 -0.383671 -0.234455
15900 4.74153597 7.07533497 -2.06749674 -0.475753 -0.452169 0.002597
15920 6.61324473 8.24155758 0.35236539 -0.203197 -0.842791 0.215441
15940 8.763822359999999 8.677307970000001 3.8724484500000003 -0.16076300000000002 -1.516565 0.308468
15960 10.736426970000002 7.225771320000001 4.47284988 0.21952800000000006 -2.35829 0.550417
15980 11.71478808 4.8469248 2.7842055300000004 0.8231229999999999 -3.014824 0.906919
16000 9.869880240000002 4.24157913 0.91774512 1.566312 -3.06861 1.1920540000000002
16020 8.08678521 5.7651113700000005 -1.59179022 2.063053 -3.26276 1.095359
16040 6.78254571 6.068976120000001 -1.1511054 1.419999 -3.371683 0.920092
16060 5.57260974 5.511091230000001 1.3004920800000002 -0.6297229999999999 -4.685173000000002 0.83375
16080 4.83509394 4.90889457 3.19704957 -1.584431 -4.358111 1.12256
16100 5.260210290000001 5.36364693 3.97797462 -0.6193029999999999 -2.27962 2.114743
16120 5.853273840000001 6.42014469 1.55376666 -0.18264 -0.986658 2.871369
16140 7.2194831100000005 6.1599933 -0.87013719 -0.422077 -2.18813 2.240985
16160 7.966583280000001 5.25542301 -1.28388375 -1.017611 -2.9342580000000003 1.534892
16180 8.73089019 4.39950051 -0.38589597 -1.330858 -2.297691 1.124895
16200 10.08917298 4.25071224 0.6963530400000001 -1.394549 -1.655493 1.220836
16220 11.50687494 4.436170290000001 1.1814967800000005 -1.6534400000000002 -1.06574 1.015309
16240 10.48195557 4.3384234500000005 0.74829699 -1.635268 -0.6162340000000001 0.743532
16260 8.72865351 4.28603805 -0.70293555 -1.57504 -0.339309 0.437018
16280 8.23018779 4.120327530000001 -1.85479632 -1.552846 -0.05449 0.054385
16300 8.884328400000001 4.7544165000000005 -1.54044468 -1.545019 0.663666 -0.258402
16320 10.200536099999999 6.18259554 -0.33440328 -1.477963 1.076757 -0.523382
16340 10.989397440000001 6.9668167500000004 -0.7280883900000001 -1.519639 1.75757 -0.778782
16360 11.134448100000002 7.94128329 -0.8122091400000001 -1.47348 2.266617 -1.046167
16380 10.12000581 9.889186320000002 0.59381892 -1.193797 2.558296 -1.5028549999999998
16400 9.62663148 11.83049703 2.79678195 -0.683196 1.865636 -1.621246
16420 11.51630235 8.81980803 4.4062399800000005 -0.156452 1.006903 -0.983011
16440 13.46105637 5.23072143 3.5751662100000003 -0.056057 0.329432 -0.016837
16460 13.01768361 3.99055104 -0.27527841000000003 -0.5698479999999999 0.391251 0.419602
16480 9.61196553 4.72866525 -3.69027675 -0.677384 1.321994 0.589642
16500 7.848627840000001 6.2505494100000005 -3.06113202 -0.07294099999999999 1.430761 0.571292
16520 5.81810499 6.657850800000001 -1.5798122100000003 0.020418 0.928221 0.423037
16540 3.4742703600000002 6.31775772 -1.11443562 -0.571434 0.99513 0.188081
16560 4.11718833 4.97101149 -1.49419053 -0.945047 1.063933 -0.176744
16580 4.41387216 3.76032996 -0.997677 -0.8770120000000001 0.71887 0.008976000000000001
16600 3.8892137399999998 2.94482466 -0.8071177500000001 -0.517641 -0.075725 0.204785
16620 2.9379380400000006 2.5554853800000004 -0.9951264000000001 -0.293484 -1.160315 0.04537
16640 2.7496350900000004 2.44860543 -0.59081706 0.6916939999999999 -0.373114 0.265956
16660 2.3831923500000003 2.19353562 -1.19781081 1.227529 0.7686890000000001 0.643181
16680 2.5427618100000005 2.12123592 -1.76692815 1.048335 1.02293 0.8883629999999999
16700 3.1451056200000003 2.2270662000000003 -2.5279389000000005 0.354954 0.728452 0.805917
16720 5.234910300000001 2.410591680000001 -2.8352567700000004 -0.388438 0.138355 0.634838
16740 7.313345190000001 3.0587383800000003 -2.88615105 -0.871216 -0.408992 0.20381
16760 10.54781991 5.75673363 -2.29323465 -1.057018 -0.811674 -0.165508
16780 10.71322632 6.6168450000000005 -2.39591592 -1.020239 -0.741434 -0.446284
16800 9.48757473 5.3112517200000005 -3.1617237600000005 -0.993683 -0.4352180000000001 -0.5896319999999999
16820 6.64483293 3.14136801 -2.70038889 -0.648015 -0.2656 -0.41652
16840 5.753584620000001 3.4636461300000003 -1.25753409 -0.526389 -0.5468609999999999 0.01732
16860 6.118075170000001 5.06187171 -0.96594165 -0.199485 -1.009878 0.17188399999999998
16880 7.1417977200000005 7.277715270000001 -0.96219423 0.058525 -0.8540120000000001 0.130758
16900 8.338411709999999 9.63755982 0.50131062 0.341042 -0.486169 0.071371
16920 7.846832610000001 11.00826207 3.8865159900000004 0.530087 -0.5280199999999999 -0.015916999999999997
16940 7.7091198300000014 11.81867598 5.25003732 0.994041 -1.134204 0.124833
16960 9.27546291 12.16864773 -0.210915 0.882727 -2.080007 0.446802
16980 11.48246766 8.98940331 -3.28221999 0.383032 -3.61419 0.65999
17000 10.304424000000001 3.70075383 -0.7240466700000001 0.500001 -4.884311 0.902785
17020 12.58209018 5.51288646 0.6086320199999999 -0.065847 -4.392625 1.244306
17040 13.066929810000001 5.31889371 2.03501583 -1.270501 -3.475585 0.997571
17060 10.002197520000001 3.78353061 1.7765027100000002 -0.7183970000000001 -2.782515 0.625594
17080 8.01029664 3.3150050100000006 0.1158561 -0.244534 -2.039625 0.383329
17100 6.93013716 4.168082610000002 0.5104339200000001 -0.588771 -0.498286 0.178124
17120 6.57222912 4.79288151 1.02611619 -0.5500970000000001 0.993995 0.187164
17140 7.3845952200000005 5.12728479 0.3441348 -0.833411 2.167269 0.065109
17160 10.12464594 5.384601090000001 0.22034241 -1.334205 2.943679 -0.255578
17180 11.995305029999999 4.93284078 -0.90442314 -1.7623650000000002 3.650948000000001 -0.664331
17200 10.266547590000002 3.5574984000000005 -3.0587383800000003 -1.6631 4.2549790000000005 -1.021198
17220 8.15145273 4.993466580000001 -2.01331611 -1.260832 4.466672 -1.2953290000000002
17240 6.88882725 4.90005576 -0.77523525 -0.728025 4.009409 -0.8936430000000001
17260 6.756353010000001 3.85912647 -2.14129737 -0.407678 2.115854 -0.23309
17280 8.03170206 3.18133395 -2.66970321 -0.495283 0.016354 0.069159
17300 8.291107890000001 2.8157937299999998 -1.5375997800000003 0.012258 0.487424 0.373339
17320 7.9501221000000015 3.7050996600000006 -1.32923538 1.151285 1.357042 0.629076
17340 9.32396355 5.50794222 -2.20461111 1.666404 1.07275 0.149134
17360 11.249254530000002 7.08865695 -2.6951405400000006 0.972333 0.437076 -0.121955
17380 11.3368284 8.89824879 0.31614687 -0.17001 0.377755 -0.01449
17400 8.78762142 7.4720121299999995 3.36305439 -0.390657 0.578059 -0.097473
17420 4.77850986 6.0715267200000005 -0.49277592000000003 -0.27195 1.065851 0.091806
17440 4.721180220000001 6.821913240000001 -1.62965682 1.326886 0.712233 0.556354
17460 3.89370672 5.58712854 0.6974027100000001 1.6639 1.272223 1.148717
17480 2.37196971 4.91846913 -0.47017368 0.120466 -0.561118 0.8892530000000001
17500 3.31770276 5.2775739900000005 -2.5177659300000004 -0.701613 -0.7871100000000001 0.309097
17520 5.2175466 5.57275689 -2.9900291400000003 -0.929849 0.151135 0.040313
17540 6.627920490000001 5.05933092 -2.9548504799999997 -0.107638 0.094908 0.068561
17560 7.32246849 3.90762711 -4.049381610000001 0.150102 -0.001876 0.072622
17580 8.71921629 4.84362864 -3.9371159700000002 0.322614 0.137179 0.046943
17600 8.56009809 6.2923105800000005 -3.35302857 0.686812 0.3039 0.12939
17620 8.640186930000002 7.01351235 -3.94968258 0.892446 0.055835 0.181351
17640 8.923843080000001 5.095255139999999 -5.86211265 0.8736149999999999 -0.595957 0.158553
17660 5.82303942 3.8423611800000006 -2.6988879600000004 0.731588 -1.101461 0.156073
17680 5.63457951 5.30646444 0.08143281000000001 0.6829430000000001 -1.522859 0.351758
17700 6.06672963 8.46160569 1.3013946 0.553158 -2.360782 0.617912
17720 6.82670052 11.02367358 2.7334682100000003 0.170457 -4.395321 0.648824
17740 8.056992240000001 10.17628578 4.43482632 0.668505 -5.601022 0.435931
17760 9.71839422 9.00632556 3.8749892400000006 -0.100138 -4.862774 0.566348
17780 13.23233622 6.32000421 1.09975986 -0.676242 -3.57749 0.658954
17800 20.51454447 8.233326990000002 -5.36873832 -0.590689 -2.490732 0.274667
17820 13.77570231 4.04668386 1.0129413600000001 -0.018777 -1.599846 -0.033332
17840 7.609430610000001 3.5733709800000004 1.7263638000000001 0.233027 0.052638 -0.045442
17860 6.67596987 5.96959101 2.54171214 -0.187139 1.2484110000000002 -0.080887
17880 6.55502238 4.104768870000001 1.82620017 -0.8041739999999999 1.457959 -0.267063
17900 8.93791062 2.70038889 -2.86384311 -1.294974 1.685411 -0.511133
17920 8.83208034 3.47517288 -1.2750449400000001 -1.552964 2.171144 -0.545604
17940 8.27299863 4.959788850000001 1.07701047 -1.550378 2.897999 -0.631975
17960 7.738902990000001 4.795128 -0.016618140000000003 -1.097078 3.906793 -1.018934
17980 7.729024320000001 3.9481914600000003 -2.34697383 -0.739896 4.738646 -1.562299
18000 9.3964104 3.23237538 -1.99340181 -0.508202 4.396685 -1.229093
18020 10.260857790000001 2.8437816600000003 -1.24435926 -0.423999 1.07745 -0.012888
18040 9.40404258 2.37376494 -1.13957865 -0.160108 -0.249799 0.003475
18060 6.4725399 2.7940940100000002 -0.20776599 0.040941000000000005 1.137501 0.816018
18080 6.3818268300000005 5.37082785 -2.9294131500000002 0.731535 1.89675 0.557086
18100 8.70739524 8.07705369 -2.3667311700000004 0.939962 1.289693 0.339266
18120 10.9434474 9.66076047 -0.95276682 0.182414 0.52242 0.531511
18140 10.88731458 8.83358127 1.03389552 0.309417 -0.771019 -0.062012
18160 7.71540804 6.31088091 0.9499219200000001 1.147948 0.322563 -0.14194600000000002
18180 5.401513530000001 6.234833790000001 -0.08517042 1.201296 1.594306 0.659032
18200 5.546711340000001 7.28250255 0.023504760000000003 1.572255 0.973435 0.8237200000000001
18220 4.90454874 6.696472770000001 -1.81258389 0.943674 0.875611 0.524625
18240 5.03029332 5.471870850000001 -2.0249900100000002 0.170656 -0.185874 0.779096
18260 4.604872860000001 4.0618010700000005 -2.9491704899999998 0.450036 -1.6515650000000002 0.771175
18280 4.086198540000001 2.3733136800000008 -3.36799863 -0.00378 -0.534813 0.54652
18300 4.09308516 1.3796784000000002 -3.79056438 0.323056 -0.018178 0.269335
18320 5.21620263 1.7649759600000003 -3.2518384200000003 0.450844 0.15176900000000002 0.016842
18340 9.28399761 5.89743846 -4.8814952400000005 0.564945 0.068565 -0.053826
18360 11.6926371 11.54354472 -5.54326803 0.6684720000000001 -0.176743 -0.06988
18380 11.1432771 10.467878220000003 -3.3840085500000003 0.7108359999999999 -0.645914 0.005793
18400 11.26857042 4.8418334100000004 -3.9480443100000002 0.6696 -1.140599 0.140735
18420 6.28034238 3.4986776400000004 -4.01180931 0.6859109999999999 -1.851879 0.311607
18440 5.83501743 3.8974443300000003 0.47046798 0.435112 -3.450311 0.392021
18460 4.19666895 8.75529747 4.32540558 0.395436 -4.869212 0.680913
18480 3.1305868200000004 8.82055359 3.0972132 0.13438599999999998 -4.859298 1.091411
18500 6.92325054 9.07322976 -1.14751494 -0.290114 -3.687973 1.046352
18520 11.75116356 7.9198778700000005 1.4416481700000001 -1.309103 -3.4239620000000004 0.376599
18540 12.947777550000001 4.4740467 2.7255319200000003 -0.617993 -2.347123 0.08308099999999999
18560 11.33308098 2.8872007200000005 1.2957048 -0.310163 -1.0454290000000002 -0.16533299999999998
18580 13.111987140000002 7.84712691 -1.30109049 -0.316211 0.435415 -0.187569
18600 11.662098570000001 5.37142626 1.49583861 -0.599125 1.595361 -0.17394
18620 10.946282490000002 3.01009059 -0.91325214 -0.993285 2.106319 -0.271352
18640 9.72227898 3.84789402 -0.08442486000000002 -1.281514 2.669175 -0.385181
18660 7.4263563900000005 4.56251328 0.5855785200000001 -1.757748 3.211146 -0.7075319999999999
18680 8.60006403 4.24172628 -3.33595917 -1.853598 3.865833 -1.042326
18700 9.2316024 4.556077920000001 -1.77635556 -1.506864 4.213476999999999 -1.167468
18720 9.127420200000001 4.585713930000001 -1.31830704 -0.7600399999999999 3.699917 -0.725759
18740 8.632849049999999 3.67889715 -2.14923366 0.045599 2.606233 -0.181414
18760 8.264012670000001 2.95814664 -2.1335180400000002 0.517069 2.274866 0.225023
18780 7.636074570000001 2.21165469 -0.15717582000000002 0.393663 2.186703 0.5340590000000001
18800 7.462731870000001 4.6687948200000005 -0.44757144 0.207437 1.575797 0.288918
18820 9.08206857 6.5906424900000005 -2.96593578 0.189471 1.15172 0.062873
18840 11.4182514 7.99322724 -4.20206445 0.360613 0.052645 -0.423769
18860 12.492269819999999 8.781038910000001 -1.7435705400000001 0.357327 -0.299455 -0.281267
18880 9.994869450000001 8.41714677 0.93451041 0.442894 0.193698 -0.07193
18900 6.577771770000001 5.57275689 1.14706368 1.097878 0.779034 0.300431
18920 4.45938075 5.4663281999999995 -1.9020903300000003 0.621255 1.514824 0.25984
18940 4.32196227 5.71511961 -0.79364862 0.747884 1.328522 0.385945
18960 4.35564 5.59087596 -0.6616256400000001 1.520313 0.297321 0.7846989999999999
18980 3.9772290600000004 5.05797714 -2.16734292 1.11264 0.220223 0.971026
19000 4.27974984 4.85560665 -3.11606802 -0.039451 -0.523433 0.661625
19020 5.36978799 4.469700870000001 -4.507724430000001 -0.7782439999999999 -1.222533 0.306983
19040 6.19666308 3.3998811300000003 -4.794382440000001 -0.55528 -0.92858 0.129771
19060 7.283856330000001 3.2672597400000005 -5.69805021 0.150299 -0.912667 0.067381
19080 9.46840599 4.39411482 -6.2625274200000005 0.4283520000000001 -0.979776 0.091842
19100 9.820182780000001 5.3275755600000005 -4.09907907 0.626602 -0.831034 0.285316
19120 9.652529880000001 6.66593424 -2.72703285 1.006516 -0.927535 0.644879
19140 8.478066870000001 5.71047948 -2.52974394 1.259766 -1.340355 1.096899
19160 6.753056850000001 5.40810585 -0.9714843000000001 0.989306 -2.205346 1.061935
19180 4.74633306 6.129749070000001 0.5749542900000001 0.625179 -3.301117 0.7456699999999999
19200 4.65591429 9.023238 -0.63093996 0.818699 -4.207081 0.697976
19220 5.754330179999999 11.8719639 -0.6598304100000001 0.29778000000000004 -4.518406 0.682986
19240 6.11254233 9.32800527 -0.1733427 -0.368619 -3.585556 0.810664
19260 6.72791382 5.125793669999999 1.92889125 -0.683415 -2.1709650000000003 0.5748479999999999
19280 9.30868938 3.8708003700000004 5.79055851 -0.868225 -2.13691 -0.054601
19300 11.15554941 5.5321925400000005 6.165378990000001 -0.695186 -1.243449 -0.394232
19320 12.47685831 4.910542649999999 1.27564335 -0.55978 0.4295020000000001 -0.362315
19340 16.86602889 5.986650600000001 -4.89421881 -0.805639 1.749166 -0.362519
19360 14.75795799 6.1111885500000005 -0.07873506000000001 -1.314629 2.048783 -0.522418
19380 8.125554330000002 5.154380010000001 3.46888467 -1.754107 2.267778 -0.56102
19400 6.580165409999999 3.9143567700000004 2.53213758 -2.13523 3.300695 -0.6632819999999999
19420 7.95536064 4.61984292 -1.2081407400000002 -2.127408 4.151472 -0.841643
19440 9.44416548 4.74153597 -4.08769947 -1.38299 4.20605 -0.483999
19460 9.29656422 3.7715526000000006 -1.0075556700000001 -0.555732 3.731731 -0.334471
19480 8.34140376 3.1984033500000004 -0.053739180000000004 -0.008287000000000001 2.996169 -0.14597100000000002
19500 8.49528342 2.4224127300000005 -2.2320104400000003 0.312823 2.197703 0.251469
19520 9.1040724 2.3363397900000002 -4.34920464 0.005827000000000001 1.484327 0.4275640000000001
19540 8.78238288 3.4063164900000005 -3.60704871 -0.13075 0.805964 0.225585
19560 8.07136389 3.5657388000000005 -1.22070735 -0.08141799999999999 0.480401 0.080001
19580 7.97316579 4.90095828 -0.9231308100000001 -0.238814 -0.246234 -0.286568
19600 9.509578560000001 7.08072066 -1.24435926 -0.761827 -1.432408 -0.23529
19620 9.49879737 6.82505244 -0.84933018 -0.118013 -1.648429 -0.31811
19640 6.05266209 5.49102978 -0.6740451000000001 1.582386 0.4857010000000001 -0.023752
19660 4.32016704 4.313584530000001 -0.9819613800000001 1.139151 2.063982 0.474262
19680 4.55682348 4.916075490000001 -1.26187992 1.4747629999999998 1.355155 0.820413
19700 5.41618929 5.857315560000001 -1.17970155 2.947149 1.138348 1.546685
19720 5.843100870000001 6.822060390000001 -2.31299199 0.246779 0.578009 1.225165
19740 6.13079874 7.50973158 -3.42562257 -0.773784 -2.027242 0.409527
19760 8.07540561 8.06328045 -4.258050120000001 -0.98529 -1.256998 0.04814
19780 10.099345950000002 8.41774518 -5.462590590000001 -0.332671 -0.396435 -0.205846
19800 8.367302160000001 6.09802353 -5.940700560000001 -0.073909 0.145025 -0.504903
19820 7.629482250000001 2.0755801799999998 -5.771095470000001 0.153437 0.775403 -0.369527
19840 8.19082026 1.2460073400000002 -2.66715261 0.323983 0.599823 -0.032689
19860 8.108641890000001 4.388719320000002 -1.1177219699999998 0.489292 -0.087788 0.483162
19880 7.7427975600000005 6.597234810000001 -1.8769473 0.648523 -1.3106799999999998 0.8661280000000001
19900 6.334679970000001 5.116062149999999 -1.25858376 0.702066 -2.199482 0.644383
19920 4.0938405300000005 3.61154169 0.48454533 0.940345 -2.04742 0.23992800000000006
19940 3.5136477 4.674033360000001 1.86377247 0.711032 -2.555626 0.189839
19960 4.694683410000001 9.46332441 -0.07933347 0.102936 -3.515381 0.16973
19980 5.46842754 12.07599228 -3.76781499 -0.042923 -4.311933 0.493403
20000 8.7864246 11.30299371 -0.6604288200000001 0.142488 -4.257498 0.8385959999999999
20020 8.917103610000002 6.99779673 6.49064916 -0.526304 -3.169122 0.703275
20040 7.857162540000001 1.6518176100000002 6.806344770000001 -1.1861700000000002 -2.475012 0.32283
20060 12.29213601 2.16734292 0.44143038000000007 -0.390199 -1.575342 0.021726
20080 23.44889205 4.81473819 -7.015464540000001 -0.357267 -0.503562 -0.300952
20100 14.830257690000002 5.73681933 -0.5881291200000001 -0.514155 0.772667 -0.43828
20120 10.434200490000002 6.099514650000001 1.99415718 -0.832359 1.60492 -0.497116
20140 8.1009999 4.4506989 2.6200057500000002 -1.190739 1.893563 -0.707225
20160 8.08408746 4.52089926 -3.0656250000000003 -1.544032 2.304936 -0.977275
20180 9.277552440000001 5.57710272 -1.27116018 -1.881935 2.8377220000000003 -0.987795
20200 11.10525354 5.20482303 0.8114635800000001 -1.794415 3.319988 -0.987802
20220 10.31879565 3.42458271 -0.16810416000000003 -1.679055 3.711001 -1.101797
20240 8.68254651 2.2001279400000002 -1.32669459 -1.41565 3.3218730000000005 -0.988364
20260 8.07047118 2.8725249600000002 -5.714521199999999 -1.030351 1.291218 -0.197927
20280 9.28070145 4.456535850000002 -4.53616362 -0.478115 0.537225 0.332462
20300 7.361237610000001 5.13312174 0.16002072 -0.018417 1.119063 0.949155
20320 4.37899761 5.09540229 0.2080701 0.958482 1.762117 0.728691
20340 5.045410530000001 5.08941819 1.08000252 1.020173 1.598121 0.128992
20360 7.60269114 6.34126248 -0.5327418599999999 0.344337 0.8662479999999999 0.4552890000000001
20380 11.10795129 6.31701216 -3.7630277100000002 0.365244 -0.392123 0.241267
20400 12.84044634 7.224574500000001 -2.8497755700000003 1.194647 -0.533611 0.0068920000000000006
20420 8.80738857 6.21837261 0.65189412 1.468699 0.8673069999999999 0.015557
20440 5.098845600000001 4.76534484 0.14354973000000004 0.559553 1.250054 0.19245
20460 3.83801535 5.54701545 -2.14983207 0.710056 -0.240351 0.349235
20480 4.524038460000001 6.28003827 -1.76782086 0.691357 -0.549431 0.402912
20500 4.472104320000001 5.25377493 -2.35849077 -0.167658 0.350465 0.147931
20520 4.604127300000001 4.67777097 -2.4508519200000007 -0.473644 0.115221 0.10123
20540 4.74318405 4.252654620000001 -3.58953786 -0.342249 -0.042006 0.14507799999999998
20560 4.29576957 3.2799833100000004 -4.312829160000001 -0.199057 -0.28622 0.087639
20580 4.89122676 3.26171709 -4.00492269 -0.190229 -0.670916 0.11276300000000003
20600 7.66795707 4.99316247 -4.94630991 0.245509 -0.999553 0.400374
20620 10.88641206 7.46751915 -4.896014040000001 0.911904 -1.369014 0.840269
20640 10.534497930000002 7.26304932 -4.379439060000001 1.224275 -2.162435 1.049634
20660 10.65484701 4.49215596 -3.8817287100000004 1.31696 -2.680537 0.7977770000000001
20680 7.1753283 4.28424282 -3.9724417800000005 1.071709 -3.31606 0.366385
20700 6.7599434700000005 4.7563588800000005 0.45071064 0.732395 -3.837777 0.32729600000000003
20720 6.24262293 9.33877665 3.8209557600000004 0.213334 -3.936202 0.349433
20740 5.010683129999999 13.63753827 3.93681186 -0.39404 -3.34266 0.297428
20760 5.03717994 10.71651267 0.36135135 -0.692086 -2.357902 0.178717
20780 8.84376405 6.4873628100000005 -3.42637794 -0.405274 -1.454459 0.174221
20800 13.449235320000001 6.9190616700000005 0.92148273 -0.397194 -0.058315 0.009051
20820 12.50798544 7.43982552 5.2019781300000005 -0.718858 1.107718 -0.13355899999999998
20840 10.72026009 5.889806280000001 3.58818408 -1.338008 1.772243 -0.34383400000000003
20860 11.459571120000001 3.4066206 -2.57584113 -1.986297 2.019707 -0.6606
20880 11.58575715 3.6937200600000004 -0.05239521 -2.187776 2.340757 -0.852563
20900 8.528519700000002 4.6360098 2.29847319 -2.138649 3.446603 -1.183717
20920 8.53570062 3.4793617500000003 0.28006569000000003 -1.709509 3.760564 -0.68333
20940 9.800121330000001 3.47337765 -2.47465098 -1.106641 2.682382 -0.110512
20960 9.52199802 4.16299122 -2.04295212 -0.84949 1.6730470000000002 0.062425
20980 8.917407720000002 3.89041056 -1.3624618499999999 -0.610395 1.177156 0.255942
21000 8.79316407 3.0097864800000003 -2.66281659 0.203355 0.8580040000000001 0.241739
21020 8.519985 3.2292361800000005 -5.751642240000001 1.026081 0.967643 0.082839
21040 7.83396189 3.3757779599999997 -4.96323216 0.257436 0.991942 -0.26546
21060 6.499782270000001 4.21044219 -2.01375756 -0.7824760000000001 0.256524 -0.6007939999999999
21080 5.735622510000001 5.576504310000001 -0.61506738 -1.087759 -0.546466 -0.6595810000000001
21100 7.234306020000001 6.806648879999999 -0.27692649 -0.39005 0.300724 -0.27337
21120 8.71218252 7.23100986 0.7461976499999999 -0.526804 1.32457 0.082217
21140 8.24081202 6.79242438 0.9324110700000001 -0.070587 1.321666 0.412283
21160 6.25190319 5.2551189 0.19474812000000002 1.209337 1.072042 0.7217140000000001
21180 5.85402921 5.484741570000001 -0.34892208 0.8576739999999999 0.332314 0.600565
21200 5.57530749 5.71436424 -0.71072469 0.922324 -0.702445 0.372675
21220 5.98260888 5.7490916400000005 -2.46027933 0.468509 -0.648383 0.034014
21240 6.66698391 5.4607953600000005 -4.060457100000002 -0.419094 -0.716454 -0.288293
21260 7.2693375300000005 4.997959560000001 -4.61280915 -0.518205 -0.626996 -0.4621520000000001
21280 8.993003580000002 5.604492240000001 -3.9206449800000005 -0.34720300000000004 0.289057 -0.323262
21300 10.440488700000001 7.253769060000001 -4.62343338 -0.354952 0.575196 -0.21152
21320 10.5737085 7.14270024 -6.73030746 -0.5939479999999999 0.220796 -0.088821
21340 10.46234538 6.92279928 -6.678510660000001 -0.14931 -0.429873 0.270836
21360 8.45531748 5.9282712900000005 -5.26844088 -0.262681 -1.2283389999999998 0.246498
21380 7.024744800000001 4.8798569700000005 -2.8542685500000005 -0.938184 -2.163738 0.054972
21400 4.76145027 3.55196556 0.23665644 -1.201578 -3.327038 0.287495
21420 2.6310812400000003 4.16329533 1.4566182300000001 -1.0904049999999998 -3.992996 0.763415
21440 2.3921783100000003 7.1876006100000005 0.84573972 -0.5445760000000001 -3.757709 0.857725
21460 4.23679185 10.52790561 -0.36599148000000004 -0.7448600000000001 -3.4630730000000005 0.610258
21480 5.5184291100000005 6.935522850000001 1.16158248 -1.139606 -3.45226 0.379955
21500 6.905886840000001 3.6271101600000004 2.76729309 -0.690473 -3.68906 0.866232
21520 10.519822170000001 3.4387974000000003 4.04923446 0.17679 -2.316273 1.799884
21540 11.97734292 3.4712783100000006 3.2814744300000003 -0.803439 -1.407726 2.415715
21560 13.536348120000001 5.564830410000001 -1.3073787000000001 -1.719963 -1.694365 1.89907
21580 14.85001503 8.38122255 -7.29178281 -2.013305 -1.859986 1.480626
21600 11.43621351 5.71436424 -2.21314581 -2.37062 -1.4536870000000002 1.150734
21620 8.00310591 4.91009139 1.7402841900000001 -2.62054 -1.046069 0.664561
21640 7.11785151 4.34126835 2.40175287 -2.7920130000000003 -0.920229 0.246596
21660 9.59579865 3.64208022 0.82748331 -2.68231 -0.460736 -0.204016
21680 10.91709774 1.9387699200000001 0.8714909700000001 -2.622922 0.409169 -0.681143
21700 11.73095496 0.25312743 1.54179846 -2.687174 0.99866 -0.989995
21720 12.219090750000001 -0.01691244 0.80053524 -2.682216 0.4742810000000001 -1.194387
21740 11.95803684 0.55280331 -2.64724812 -1.6873060000000002 -1.062957 -0.714382
21760 10.38076542 2.01570975 -5.467083570000001 -0.852001 -1.661441 0.374328
21780 8.845402320000002 2.8578590100000003 -0.6286934700000001 -0.270568 -1.5774290000000002 0.705158
21800 8.90633223 5.716914840000001 1.68578964 0.523942 -1.237989 0.645111
21820 9.55342926 8.13558015 0.2555210700000001 0.623247 -0.22130100000000005 0.455427
21840 10.213710930000001 9.66599901 -0.33859215 -0.098767 1.377386 0.089412
21860 9.102865770000001 10.00623924 1.8089836200000002 -0.8897139999999999 1.424353 0.218423
21880 9.537419340000001 11.34924786 3.4979222700000006 -1.325864 0.5509430000000001 -0.231089
21900 12.187953810000002 11.72571642 1.2340293300000003 -1.147376 -0.0879 -0.466169
21920 15.855481170000001 8.1471069 -3.29314833 -0.973731 -0.364376 -0.208229
21940 14.152318020000001 5.530701420000001 -3.3431499 -1.475401 -0.164433 0.042248
21960 11.327695290000001 5.43624093 -1.46979306 -1.736768 0.06567 0.26765900000000004
21980 8.32134231 6.809935230000001 -1.15155666 -2.541441 -0.149255 0.101012
22000 6.5647440900000005 8.44573311 -1.13598819 -2.813248 -0.411108 0.019332
22020 4.55981553 8.79166314 -0.78690915 -2.683573 -0.8479549999999999 -0.072138
22040 2.91593421 7.05856968 -1.25184429 -2.521553 -0.950506 -0.141377
22060 3.1443600600000003 4.19891544 -2.2519149300000003 -2.39506 -0.827332 -0.151334
22080 4.5870579000000005 2.4179197500000003 -3.1253482800000003 -2.198561 -0.4312470000000001 -0.272246
22100 6.56999244 1.63893708 -3.6158777100000004 -1.676506 -0.07859400000000001 -0.469877
22120 8.19096741 0.98719992 -4.90275351 -1.170305 -0.002456 -0.50169
22140 10.99643121 1.29780414 -6.863831370000001 -1.242788 0.204642 -0.547327
22160 12.011776020000001 3.7961070300000004 -5.34583197 -1.314301 0.185763 -0.559553
22180 7.9472772 2.04295212 -3.7859242500000003 -1.243596 0.28020700000000004 -0.52927
22200 7.20242352 4.00925871 -0.67165146 -1.179867 0.32005 -0.425258
22220 7.20242352 7.58398347 4.17078036 -1.112011 0.06277999999999999 -0.349679
22240 7.27876494 12.398564700000001 6.82984953 -0.954182 -0.383234 -0.304208
22260 5.01142869 12.478947840000002 4.510422180000001 -0.764009 -0.963698 -0.230565
22280 4.88643948 9.6164487 3.12864444 -0.618829 -1.735041 -0.069397
22300 9.231308100000001 7.031631419999999 1.4632105499999999 -0.451912 -2.682014 0.303655
22320 13.73199876 4.75306272 0.08726976 -0.095922 -3.467099 0.787848
22340 14.275512 3.12101226 -1.61948385 0.8447690000000001 -3.711268 1.092765
22360 11.87405343 4.60202796 0.40251411 1.689764 -3.4129690000000004 1.153833
22380 10.578799889999999 5.88411648 2.23889706 1.187791 -2.706572 1.026576
22400 9.5205069 6.56265456 3.16157661 0.464693 -2.229785 0.968571
22420 8.77594752 6.80724729 2.17452384 -0.521749 -2.445495 0.889318
22440 7.95730302 7.087165830000001 0.20372427 -1.1860620000000002 -2.399257 1.090786
22460 6.42494178 6.6524651100000005 -0.6749476200000001 -0.725625 -2.014952 1.820968
22480 5.8594149 5.76930024 0.13682007 -0.7329899999999999 -1.886344 2.165788
22500 5.323828140000001 4.77087768 1.8631740600000002 -0.8952600000000001 -2.38974 1.920677
22520 5.53489029 4.188889620000001 2.37646269 -1.484156 -2.606129 1.932864
22540 6.23648187 4.605471270000001 1.48595994 -2.0217400000000003 -2.619002 1.888533
22560 6.93477729 4.615654050000001 0.6725539800000001 -2.356368 -2.448915 1.7353580000000002
22580 7.93888965 4.044290220000001 -0.18860706000000002 -2.279277 -2.071437 1.576248
22600 8.92982718 3.58190568 -0.8765725499999999 -2.244097 -1.669791 1.270467
22620 9.8043102 3.18657249 -1.1322407700000001 -2.242317 -0.939626 0.890325
22640 10.69331202 3.14091675 -1.29061341 -2.268443 -0.243466 0.5132369999999999
22660 11.014393320000002 3.28013046 -0.79050942 -2.212426 0.400414 0.08551399999999999
22680 10.26670455 3.0850880400000005 -0.5333402700000001 -2.080517 1.078109 -0.339585
22700 10.794050910000001 3.98471409 -0.39068325000000004 -1.920518 1.559844 -0.801625
22720 11.2645287 5.640122160000001 1.23777675 -1.7463419999999998 1.634597 -1.2641129999999998
22740 11.20794462 5.238353610000001 -1.24495767 -1.561443 1.245076 -1.250571
22760 11.41451379 5.616774360000001 -2.0809756800000003 -1.161763 -0.13711800000000002 -0.399977
22780 11.41585776 8.245305 1.5473313000000002 -0.750472 -1.584184 0.413395
22800 10.98550287 10.42611705 4.44336102 -0.605759 -1.288901 1.035732
22820 10.607543190000001 10.218498210000002 4.036658040000001 0.290924 -0.345483 1.161496
22840 9.784248750000001 8.868308670000001 1.9760381100000002 0.311136 0.367795 0.459969
22860 10.84314996 4.5640044 -0.17977806 -0.115633 0.319398 0.412185
22880 12.53567907 2.75996502 -2.64245103 -0.6190479999999999 0.236842 1.24626
22900 11.34625581 3.9218418000000006 -1.03255155 -1.18105 0.405375 0.879992
22920 8.34738786 5.654640960000001 -1.6646883300000002 -0.934689 -0.4508390000000001 -0.198231
22940 6.62627241 7.11380979 -0.9247788900000001 -1.6455959999999998 -0.338673 -0.724633
22960 6.137538210000001 6.97234959 0.36733545 -1.250474 0.488713 -0.451605
22980 5.60345238 5.335659000000001 1.1530477800000003 -0.349791 1.049074 -0.17363499999999998
23000 5.124744 4.32870174 0.9608502600000001 0.099907 1.4107459999999998 -0.166684
23020 4.17451797 4.432128570000001 0.21225897000000002 -0.564635 1.261555 -0.110246
23040 3.07236447 4.40384634 -0.46598481 -1.015529 0.7597189999999999 -0.229189
23060 3.0798495000000004 4.4740467 -1.5187449600000003 -1.076741 0.357565 -0.30601300000000003
23080 3.72739779 4.371355620000001 -2.59200801 -1.357032 -0.029304000000000007 -0.286111
23100 4.80755727 4.16614023 -3.4280260200000003 -1.554133 -0.30614 -0.149332
23120 6.639741540000001 4.68855216 -4.032616320000002 -1.274591 -0.232825 -0.078039
23140 9.66749994 5.727843180000001 -4.277052090000001 -0.851308 0.034848000000000004 0.015373
23160 12.047396130000001 7.761210930000001 -4.4262916200000015 -0.5192220000000001 0.11989 0.038948
23180 13.543538850000001 7.723491480000001 -5.4866937600000005 -0.319805 0.121238 0.061704
23200 13.031604000000002 4.11060582 -7.51482297 -0.180525 0.084249 0.13322699999999998
23220 10.48045464 0.97522191 -2.30371173 -0.110596 0.062353 0.22027
23240 11.49743772 5.38864281 1.5386494500000003 -0.03207 0.040482 0.293485
23260 12.58732872 12.5519931 3.76826625 0.072749 -0.032747000000000005 0.400065
23280 6.2884258200000005 12.01042224 5.054092379999999 -0.034964 -0.209413 0.4508140000000001
23300 3.63907836 6.110894249999999 1.4115609000000002 -0.153102 -0.743275 0.326759
23320 3.84026184 3.78517869 -5.61242853 -0.407437 -1.061064 0.098927
23340 4.4304903 4.944671639999999 -2.5020503100000004 -0.649008 -1.269648 -0.010384
23360 6.778808100000001 6.006555090000001 4.55832441 -0.6463439999999999 -1.358199 0.020727
23380 9.50418306 7.022949570000001 4.0197456 -0.311711 -1.588759 0.112022
23400 11.111090490000002 6.6023163899999995 -0.36494181 -0.067855 -1.668532 0.13626
23420 10.359958409999999 5.14480545 -2.81385135 -0.042934 -1.7234490000000002 -0.004501
23440 8.669077380000001 3.9163089600000003 -0.19159911000000002 0.022849 -1.597852 -0.035181
23460 8.080192890000001 3.5172381600000002 1.5901421400000002 -0.143557 -1.725412 0.30672
23480 7.83949473 3.5118426600000006 0.88391043 -0.5219699999999999 -2.691844 0.690943
23500 7.5218567400000005 3.75478731 0.59157243 -0.480998 -3.989508 0.961016
23520 7.35675444 4.09248675 1.22804523 -0.304231 -4.885364 1.329799
23540 7.801480980000001 4.57299036 1.0785114 -0.961561 -5.2755480000000015 1.440007
23560 7.534580310000001 5.0436153 0.36913068000000004 -1.633094 -4.476187 1.388358
23580 7.27082865 5.043909600000001 -0.7204562099999999 -0.842874 -3.011573 1.271292
23600 7.866442800000001 4.5274817700000005 -1.34734464 -0.090259 -1.50378 0.778962
23620 8.47432926 4.155810300000001 -1.2641166000000001 -0.3899510000000001 -0.325696 0.267954
23640 8.25623334 3.72859461 0.10193571 -0.781663 0.494177 0.1723
23660 7.72617942 3.46304772 1.16951877 -0.7993640000000001 1.069474 0.17571199999999998
23680 6.999896070000001 3.1076902800000004 1.4055768 -0.756376 1.83426 0.15900899999999998
23700 6.4030851 2.9910788100000003 0.68916231 -0.835752 2.599764 0.068811
23720 6.443953560000001 3.85044462 -0.7803266400000001 -0.925702 2.919877 -0.251626
23740 6.72327369 4.14548037 0.0142245 -0.8611780000000001 2.992039 -0.770423
23760 7.33624173 4.25444985 1.21637133 -1.0152219999999998 2.986574 -1.400675
23780 8.413850609999999 4.509225360000001 1.5039220500000001 -1.328342 3.145176 -1.36461
23800 9.19627659 4.58691075 -0.15313410000000002 -1.524625 2.948969 -0.613701
23820 9.56615283 3.8995436700000004 -2.4730029000000004 -1.617617 1.40625 -0.217132
23840 9.69204456 3.5196318000000004 -2.8544157 -1.123389 -0.305763 -0.084367
23860 9.72557514 3.7450656 -1.0782072900000002 -0.333057 -0.105954 0.411211
23880 9.65821968 4.082009670000001 1.17774936 0.453267 1.139705 0.7067319999999999
23900 9.7291656 4.540656600000001 0.8186445 0.8272079999999999 1.660565 0.397824
23920 10.225983240000001 5.56078869 -2.7526271400000004 0.933743 1.432894 -0.034838
23940 11.15166465 6.63914313 -4.937628060000001 0.746838 1.171407 -0.015512
23960 11.384426520000002 8.73822807 -3.6768076200000004 -0.147897 0.770942 0.20735100000000006
23980 10.69735374 9.41721741 0.9773212500000001 -0.325635 0.222563 0.035896
24000 7.932601440000001 7.74219915 2.24458686 1.281734 0.083126 0.477796
24020 6.48451791 7.122638790000001 -4.096234170000001 1.516419 0.3104 0.7141529999999999
24040 6.366415320000001 7.9537125600000005 -5.67499671 1.1760620000000002 -0.14338800000000002 0.7379939999999999
24060 6.64992432 7.6293351000000005 -3.32399097 0.836425 0.449069 0.459261
24080 5.7154139100000005 6.04173375 -2.12199129 0.287347 0.883868 0.094878
24100 4.08860199 4.848563070000001 -1.4296799699999998 -0.20539 0.7403689999999999 -0.088909
24120 2.7141523199999997 4.0835106 -1.97020116 -0.7241989999999999 0.470395 -0.056936
24140 2.23889706 3.4033244399999996 -2.66535738 -0.871713 0.053898 0.064345
24160 3.0497622300000002 2.7913962600000004 -2.6846634600000003 -0.669656 -0.076828 0.07981
24180 4.76025345 3.01278834 -3.4925365800000003 -0.445155 -0.055982 0.000167
24200 7.7567179500000005 5.557796639999999 -3.45032415 -0.177535 -0.092076 0.003151
24220 8.753050980000001 7.31633724 -2.87013132 0.10304 -0.017734 0.082996
24240 9.349410690000001 5.93231301 -5.69640213 0.369614 0.17207999999999998 0.069659
24260 9.18220905 4.83569235 -5.88860946 0.453306 0.399158 -0.046483
24280 7.590860280000001 3.7732006800000004 -3.20632983 0.5947979999999999 0.113006 -0.004536
24300 7.10347986 3.92423544 -0.8157996000000001 0.7288140000000001 -0.484846 0.203333
24320 5.650452090000001 5.89084614 -1.52667144 0.676637 -1.406041 0.447704
24340 5.619462300000001 7.9014645 -1.27310256 0.6438510000000001 -2.266661 0.71136
24360 7.30435923 9.51106968 2.8925864100000007 0.965917 -2.628532 0.617934
24380 8.22404673 10.30352148 5.44477563 0.851957 -3.1169740000000004 0.320798
24400 9.88409493 8.468188200000002 2.76564501 -0.386151 -4.496139 0.237005
24420 13.82195646 6.52807431 -2.19922542 -0.0326 -4.367449 0.514911
24440 12.94717914 4.655315880000001 -3.20947884 -0.362552 -3.337927 0.418351
24460 8.54393121 3.15199224 0.32467176000000003 -0.730971 -2.1354900000000003 0.270027
24480 10.08513126 5.59491768 2.0847132900000003 0.060096 -1.058124 0.290196
24500 11.278743390000002 7.802972100000001 3.3203907 -0.678275 -0.242281 0.170761
24520 11.490256800000001 5.4947772 0.63707121 -1.068267 0.322685 0.150221
24540 12.07763055 3.73922865 0.23306598000000003 -0.64898 1.449592 0.091886
24560 10.133926200000001 3.3453963900000003 0.62075718 -0.091269 2.489834 0.007922
24580 7.68217176 3.83442489 -0.9500788800000001 0.150541 3.256282 -0.329997
24600 6.968307870000001 4.03111539 -2.31628815 0.044354000000000005 3.86557 -1.023727
24620 6.611302350000001 3.50331777 -2.35190826 -0.337294 4.521038 -2.104001
24640 6.358479030000001 2.73915801 -1.38986118 -0.722805 4.805339 -1.738521
24660 6.477032879999999 3.0198221100000002 -1.13673375 -0.675579 2.00283 -1.039188
24680 8.141269950000002 4.8499168500000005 0.23696055000000005 -0.534601 -0.908455 -0.6573899999999999
24700 9.74234043 5.710773780000001 0.15806852999999998 0.843783 0.195365 0.228902
24720 10.55454957 3.8496990600000003 -1.09003815 1.362526 1.702084 0.7390680000000001
24740 9.41033079 1.55407077 -1.52338509 0.7301489999999999 1.984425 0.477916
24760 8.05115529 2.05163397 -3.17968587 -0.675084 2.444022 0.248526
24780 6.918463260000001 3.0889728 -3.17789064 -1.424574 0.892324 -0.002548
24800 5.57470908 4.15117017 -1.42817904 -0.750341 -1.1411129999999998 -0.36377
24820 5.9841098100000005 7.40330289 -0.27138384000000004 1.067356 0.5948979999999999 0.021648
24840 9.533073510000001 7.387734419999999 0.053140770000000004 1.777218 1.755307 0.390452
24860 12.914845380000001 8.490044880000001 -1.43506566 1.22153 1.494359 0.328152
24880 12.688518870000001 9.023532300000001 -0.6493533300000001 1.536861 1.105799 0.520996
24900 10.220744700000001 8.793016920000001 -0.020208600000000004 1.127904 1.1188049999999998 1.085349
24920 8.43855219 9.23174955 -3.9962408400000005 0.318387 -1.252873 0.549691
24940 6.46505487 6.71997753 -4.34427021 0.181035 -1.113377 0.150106
24960 4.4131266 3.97034244 -1.3124700900000001 0.56965 -0.306439 -0.051176
24980 1.9432629 3.54417642 -0.79888716 0.361197 -0.231919 -0.124298
25000 1.09437417 3.34479798 -2.6761385700000004 0.373453 -0.613132 0.092057
25020 2.03831199 3.59956368 -3.6190267200000004 0.539585 -0.913916 0.5743020000000001
25040 5.085229320000001 5.57156007 -3.1922622900000004 0.5959770000000001 -2.191885 1.23329
25060 8.49887388 10.038573000000001 -3.5176894200000004 0.81255 -4.255313 1.309018
25080 10.113266340000001 9.250467030000001 -4.85904996 0.314255 -3.776728 0.607375
25100 13.722267240000003 5.15392875 -7.51078125 0.222545 -3.84969 0.285294
25120 11.862830790000002 0.21735036 -5.047804169999999 0.316947 -4.362865 0.131718
25140 7.739207100000001 -0.27497430000000006 -0.2565707400000001 0.113326 -3.4469190000000003 -0.17638900000000002
25160 4.7306174400000005 1.46665386 3.64476816 -0.009245 -1.692357 -0.349341
25180 3.58010064 6.04398024 5.9718276900000005 0.244383 0.408539 -0.080001
25200 4.24592496 11.194024230000002 4.5463464 -0.354698 0.8321850000000001 -0.009953
25220 4.87924875 11.08624176 -0.69276258 -1.052292 1.135849 -0.219246
25240 9.78005988 8.22494925 -3.7125748800000005 -1.657305 1.967141 -0.321745
25260 12.433890510000001 6.54918543 -0.90426618 -1.974797 2.703586 -0.397546
25280 8.8470504 4.03680519 2.86429437 -1.6825290000000002 4.017399 -0.7326090000000001
25300 12.73087845 7.2489719699999995 1.14766209 -1.009518 5.171789 -0.956919
25320 19.273922820000003 8.056992240000001 0.21555513 -0.566657 5.735747 -0.649037
25340 12.46742109 1.6040625300000002 1.4069207700000002 -0.231777 3.447089 -0.29552399999999995
25360 7.75986696 0.46538640000000003 -0.24713352 0.023602 0.8241069999999999 0.083498
25380 8.406218430000001 2.77687746 1.1443659300000002 0.533764 0.616888 0.312722
25400 9.51211935 5.96135061 -1.39330449 0.7417699999999999 1.368057 0.361283
25420 10.555147980000001 4.78465092 -1.49284656 0.704835 1.001549 0.140372
25440 10.57446387 2.9817985500000006 -0.57450303 0.506081 0.062238 -0.018977
25460 9.24477723 1.4917968900000003 -1.02057354 0.071099 -0.262547 0.060653
25480 7.851021480000001 0.07963758 -5.4428332500000005 1.926037 -0.252353 0.165464
25500 9.05317812 2.4899251500000004 -7.072794180000001 2.0071380000000003 1.419821 0.172434
25520 6.90903585 4.6148986800000005 1.0300107600000001 0.115848 1.681409 0.596859
25540 3.51334359 5.819743260000001 2.9500632 1.30977 -1.976819 1.443099
25560 5.0130767700000005 7.287446790000001 1.09377576 0.263046 -2.397789 0.799667
25580 7.22772351 8.55935253 -0.7493368500000002 -0.890158 -0.01517 0.302518
25600 8.578060200000001 8.41624425 -0.7339253400000001 -0.417577 -0.371231 -0.041965
25620 8.221957200000002 7.144191360000001 1.3253408100000001 -0.045455 -0.398295 -0.25618
25640 5.622905610000001 5.789214540000001 -0.6247989 -0.082352 -0.031833 -0.225929
25660 6.24126915 4.45353399 -2.3870869200000002 -0.004262 -0.5642159999999999 -0.091174
25680 6.0478748100000015 3.5091547199999997 -3.7562882400000004 0.383252 -1.286291 0.32586
25700 5.78666394 2.74215006 -3.92767875 0.565184 -2.1686330000000003 0.5077229999999999
25720 7.16814738 3.2199559200000003 -2.90036574 0.340441 -2.819603 0.7238359999999999
25740 8.46235125 5.11396281 -3.05649189 -0.037642 -4.080699 0.737766
25760 11.097327060000001 8.85139623 -4.32241353 0.267444 -5.055364 0.724055
25780 10.58389128 10.05100227 -5.48145522 -0.149234 -4.968613 0.702873
25800 9.29522025 6.90753492 -5.15542968 -0.817392 -3.35162 0.241072
25820 6.267167550000001 2.412534060000001 -1.75495014 -0.860455 -2.337198 -0.323482
25840 3.42532827 3.06816579 0.046107 -0.332429 -1.18634 -0.33836
25860 3.5398404 4.63691232 1.4522822100000001 -0.46895 0.256481 -0.329412
25880 5.564526300000001 6.43346667 2.1775257 -0.772458 1.187142 -0.235516
25900 7.67528514 6.508464120000001 -2.54874591 -1.388443 1.853855 -0.196876
25920 11.68200306 5.3730743400000005 -0.44053767000000005 -1.901243 2.563332 -0.28575700000000004
25940 14.02403265 8.03648934 6.13275093 -2.191539 3.595 -0.420498
25960 15.12425358 13.317506640000001 5.893848 -2.025803 4.75802 -0.764798
25980 15.99857964 1.20110697 -3.44793051 -1.890581 5.481536 -0.930355
26000 11.45538225 2.50698474 -5.128481610000001 -1.669793 3.816765 -0.919202
26020 6.575378130000001 3.00440079 6.39560007 -0.919219 0.509246 -0.545457
26040 6.4930428000000004 3.6976146300000003 2.03456457 -1.122812 -1.456846 0.061322
26060 11.90219832 4.729116510000001 -4.89137391 -0.92755 -1.0436040000000002 0.711635
26080 12.342735990000001 4.0917411900000005 -2.2977178200000004 0.390083 0.901204 0.997153
26100 10.98310923 3.9742370100000004 -0.47002653 0.651265 1.325249 0.754879
26120 9.96208443 3.1364237700000004 -1.5832555200000002 0.14713099999999998 -1.1255620000000002 0.562218
26140 9.707613030000001 3.68862867 -4.32959445 1.264016 -2.32214 -0.6024229999999999
26160 8.205937470000002 3.73038984 -2.1794680800000004 1.380918 1.033489 -0.7063189999999999
26180 6.3105768 4.05895617 -1.19781081 -0.344798 2.160248 0.065326
26200 6.483321090000001 5.40705618 -0.7354164599999999 1.787468 0.640872 1.75073
26220 7.841142810000001 7.2069165 -2.7762790500000003 -0.08190399999999999 -1.155009 0.931329
26240 9.27022437 9.186250770000001 -0.36449055 -2.160891 -1.185974 0.088975
26260 7.44566247 7.988135850000001 1.37548953 -0.774872 -0.801391 0.2146
26280 5.67080784 5.34613608 -1.29615606 -1.220437 -0.555679 -0.10608900000000003
26300 5.49911322 5.291043120000001 -0.52391286 -1.22394 -0.271806 -0.230391
26320 3.5420868899999998 4.446353070000001 -0.35700552 -0.507568 -0.046801 -0.110308
26340 3.8107729800000003 3.9808195200000003 -1.4810157 -0.099757 -0.354399 0.001894
26360 4.57688493 3.8981898900000003 -2.380651560000001 0.001449 -1.0198040000000002 0.08250199999999999
26380 4.961584080000001 3.8044847700000006 -2.86683516 0.057078 -1.6709919999999998 0.11043
26400 5.816152800000001 3.7474592400000004 -3.01009059 0.14459 -1.949037 0.30261
26420 7.96523931 4.66055442 -4.01345739 0.155415 -2.4186330000000003 0.51159
26440 9.24956451 4.678967790000001 -4.8838986900000005 -0.012263 -3.4808980000000003 0.437005
26460 9.73440414 6.654260340000001 -2.86235199 0.025307 -3.965484 0.375931
26480 10.5298578 8.13198969 -3.5545063500000005 -0.563832 -3.1205700000000003 0.316254
26500 8.79974658 4.183945379999999 -4.62058848 -1.219909 -2.526417 0.419869
26520 7.907311260000001 3.67740603 0.2576106 -0.614946 -2.500898 0.4400850000000001
26540 5.71271616 7.855210350000001 3.25528173 -0.539499 -1.841812 0.4547229999999999
26560 2.8080144000000002 10.375526879999999 0.06870924 -0.5238470000000001 -1.073389 0.351298
26580 6.055811100000001 10.27792719 -5.462590590000001 -0.703649 -0.297159 0.063832
26600 12.22523181 6.90843744 4.15341666 -1.25283 0.453619 -0.198408
26620 14.622491700000003 9.80206371 5.35271859 -1.548663 0.7820060000000001 -0.278875
26640 18.05829705 3.6597382200000004 2.6420095800000003 -1.739944 0.990135 -0.479167
26660 15.950079 -0.42586191 -2.30535981 -2.057912 1.202129 -0.736965
26680 11.196417870000001 1.40916726 -2.31134391 -2.640959 1.772056 -0.765269
26700 9.02682846 0.79499259 2.60982297 -2.814793 1.957445 -0.356523
26720 9.64474074 2.4776430300000003 -3.2102244000000004 -1.980958 0.363386 -0.178809
26740 10.13272938 5.9402493000000005 -2.3504171400000002 -0.877138 -0.684405 -0.180438
26760 9.664949340000001 6.3141672600000005 0.18891117000000002 -0.06047200000000001 -0.444781 0.192428
26780 9.06035904 5.2338704400000005 -2.32915887 0.828556 0.649159 0.511293
26800 8.446184370000001 3.78817074 -3.2986909800000004 1.440963 1.1210950000000002 0.508556
26820 8.238565529999999 3.34269864 -2.5813837800000003 0.8282709999999999 0.381424 0.067254
26840 7.520208660000001 2.98329948 -0.53379153 0.293391 0.453931 -0.018829
26860 6.0833477700000005 3.35871837 0.8665467300000002 -0.214443 1.365931 0.655845
26880 5.35391541 4.376299860000001 0.08098155 -0.253576 1.786529 1.002205
26900 7.04928942 7.002142560000001 -0.43693740000000003 0.470438 0.948754 0.492384
26920 9.82406754 8.132588100000001 -1.7525565 1.671431 -0.6307510000000001 0.175921
26940 10.520273430000001 9.21558267 -0.41658165 1.428631 0.599544 -0.12111199999999997
26960 9.13295304 7.432644600000001 0.15657741000000003 0.060212 1.6154620000000002 0.08808099999999999
26980 8.26820154 6.3279405 -1.00740852 -0.66473 0.464745 0.238316
27000 7.09838847 5.2376080499999995 -0.37632141 -1.267615 -0.019075 0.008262
27020 6.393059280000001 4.795128 -0.77673618 -1.323787 0.086383 -0.208047
27040 6.33722076 5.54701545 -3.7546401600000006 -1.911142 0.346585 -0.300077
27060 4.59619101 5.207216669999999 -3.76047711 -2.185956 0.231224 -0.5165609999999999
27080 3.7737990900000002 5.3115558300000005 -2.0115208800000004 -2.159908 -0.093029 -0.702903
27100 3.9062733300000003 5.04017199 -1.82875077 -1.745251 0.003772 -0.761019
27120 4.86369009 5.4607953600000005 -2.80277586 -1.6490029999999998 0.003641 -0.811621
27140 9.06994341 8.34619104 -4.46641452 -1.5500969999999998 -0.063826 -0.808707
27160 10.57685751 8.19874674 -4.844521350000001 -1.28441 -0.006365 -0.7567189999999999
27180 9.26049285 6.299050050000001 -7.607782530000001 -1.171725 -0.06865700000000001 -0.728078
27200 8.82190737 5.197190850000001 -9.19627659 -1.043092 -0.193543 -0.511239
27220 7.67528514 5.50300779 -10.41040143 -0.8931629999999999 -0.125547 -0.329749
27240 5.98770027 3.0455635500000007 -3.8986411500000004 -0.619907 -0.445521 -0.202448
27260 4.64050278 3.14256483 -0.26659656 -0.38179 -0.741971 -0.06687799999999999
27280 5.6637740700000005 5.942338830000001 2.71430928 -0.195448 -1.119381 0.113301
27300 8.88342588 11.336975550000002 4.00521699 0.274227 -1.812133 0.319363
27320 8.69886054 13.04567154 5.182220790000001 0.746088 -2.4496740000000004 0.569167
27340 5.14689498 6.48272268 5.49746514 0.82257 -3.0515 0.755275
27360 4.15640871 5.51722248 2.8449882900000003 0.588359 -3.235693 0.933336
27380 8.17180848 7.225025760000001 -2.10147858 0.08124400000000001 -3.02756 0.739384
27400 15.135476220000003 9.42740019 -5.053935419999999 -0.433918 -3.3576269999999995 0.611226
27420 18.028955340000003 7.79668389 0.1707921 -1.315286 -3.165813 0.825946
27440 15.539638410000002 2.53453122 4.0806657 -1.141162 -2.090363 1.858755
27460 11.884089059999999 0.25536411 3.5545063500000005 -0.522365 -1.440102 2.276714
27480 11.81492856 3.3879031200000003 1.81691991 -1.041564 -2.232329 2.109596
27500 11.605063229999999 7.165145520000001 2.11494771 -1.846656 -3.254722 1.940777
27520 10.260710640000001 7.6350248999999994 2.42525763 -2.461042 -3.259998 1.661959
27540 9.10586763 7.241643900000001 1.44284499 -2.924358 -3.331853 1.6513369999999998
27560 8.413850609999999 7.07458941 0.12948219000000002 -2.8026470000000003 -3.253794 1.472626
27580 8.00236035 7.113211379999999 -0.40789980000000003 -2.366862 -2.753339 1.151358
27600 8.382713670000001 6.06509136 -0.1790325 -2.110394 -1.9978 0.8648290000000001
27620 8.34738786 4.746931470000001 -1.23029172 -2.01925 -0.986055 0.586432
27640 7.9873902900000004 3.8944522800000003 -1.82739699 -1.989827 -0.193473 0.290792
27660 7.4357838 3.05215587 -0.86384898 -1.84608 0.382526 -0.020863
27680 7.827820830000001 2.7550207800000006 -0.31449879 -1.733329 0.958581 -0.319915
27700 7.829164800000001 2.59829622 -0.60309918 -1.723213 1.469021 -0.637761
27720 7.828723350000001 2.36178693 -1.15829613 -1.80885 1.6852900000000002 -0.8341209999999999
27740 8.337214890000002 2.44052199 -2.11735116 -1.755269 1.532639 -0.801504
27760 8.641226790000001 3.0005062200000006 -2.65009302 -1.423436 0.681026 -0.708364
27780 8.979073379999999 4.77671463 -0.50131062 -0.703721 -0.978168 -0.127576
27800 9.80925444 6.6862998 2.4212159100000004 -0.415036 -1.201941 0.702599
27820 11.60701542 7.0280311499999994 1.91227311 0.193015 -0.127528 1.086825
27840 12.728926260000001 7.729024320000001 2.3185248300000003 0.5979220000000001 0.956206 0.383238
27860 12.361149359999999 7.7585131800000005 2.49995097 0.150174 1.733008 -0.34727600000000003
27880 13.17305439 6.13648854 2.87402589 -0.274568 1.202516 0.8147989999999999
27900 15.093263790000002 2.95381062 3.0413746800000006 -0.6173029999999999 0.572391 0.716004
27920 15.59591838 3.63534075 0.3529638 -0.966282 -0.182987 -0.02147
27940 11.94695154 4.94003151 -2.19623337 -0.951159 -0.752632 -0.63593
27960 9.091348830000001 5.946380550000001 -1.52667144 -1.334739 -0.180361 -0.890375
27980 7.9396352100000005 6.91652088 -0.27872172 -1.4135719999999998 0.48717 -0.723002
28000 5.13222903 6.41341503 0.5751014400000001 -1.47908 0.630361 -0.24508
28020 4.312976310000001 4.69034739 1.5413472000000001 -1.728746 0.168944 0.009073
28040 4.1646393 3.7456640100000005 1.4867055 -1.339807 0.5414859999999999 0.014517
28060 4.19202882 4.517760060000001 0.35071731 -1.469019 0.235307 -0.028722
28080 4.48677027 5.89608468 -0.70982217 -1.967246 -0.605063 -0.162517
28100 4.07542716 6.537501720000001 -1.4687433900000002 -1.894155 -0.7617520000000001 -0.202398
28120 4.38139125 6.36701373 -2.0074791600000004 -1.590929 -0.518678 -0.246525
28140 5.3612532900000005 6.042037860000001 -2.9267154 -1.361475 -0.259573 -0.239913
28160 6.45472494 5.74700211 -3.4506282600000002 -1.284706 -0.106146 -0.313281
28180 7.70852142 5.40855711 -4.38288237 -1.146949 0.05041 -0.422546
28200 9.24881895 4.1655418200000005 -5.11231473 -0.926414 0.205226 -0.435091
28220 10.904374169999999 3.24091008 -5.639975010000001 -0.8615079999999999 0.211211 -0.38978
28240 11.91447063 3.0147307199999998 -5.639975010000001 -0.941798 -0.050713 -0.353686
28260 12.01641615 3.2241447900000004 -6.2405235900000005 -1.11249 -0.4753560000000001 -0.306264
28280 8.29605213 0.6423097500000001 -1.06443405 -1.068523 -0.740341 -0.145384
28300 8.740023299999999 3.62441241 2.4766031700000006 -0.8348459999999999 -1.041173 0.024345
28320 13.401185940000001 13.24774773 2.74693734 -0.743371 -1.603743 0.237213
28340 8.18422794 14.40229644 3.3763763700000005 -0.450548 -2.304036 0.6172380000000001
28360 5.86644867 8.627757660000002 1.60331697 0.116554 -2.974432 1.0087540000000002
28380 5.87513052 5.44028265 -5.0407703999999995 1.111942 -3.272647 1.195551
28400 5.6693069099999995 4.701275730000001 -4.16703294 1.318766 -3.215255 1.049507
28420 5.50150686 5.3850523500000005 1.31830704 -0.060643 -3.35257 0.887292
28440 7.047347040000001 5.34912813 4.54409991 -1.292965 -3.640125 0.6066560000000001
28460 9.75731049 5.5847349 4.6645961400000004 -1.2514610000000002 -3.686094 0.345291
28480 11.820922470000001 4.8937773600000005 4.19188167 -0.013323 -2.876007 1.282254
28500 11.27321055 3.47547699 2.24966844 0.058802 -1.805022 2.454293
28520 8.28496683 4.826863350000002 -0.70608456 -1.275053 -3.008655 2.246761
28540 6.9846219000000005 5.81196393 -1.5304188600000002 -1.792875 -3.321471 1.53745
28560 6.443953560000001 5.93081208 -0.33619851000000006 -1.444234 -2.789531 1.409949
28580 6.30369018 5.79624831 0.8077161600000001 -1.148619 -1.984553 1.246476
28600 6.440058990000001 5.98260888 1.34330292 -1.1294959999999998 -1.108848 0.951726
28620 6.87385719 5.91270282 1.5147032400000002 -1.143615 -0.411317 0.754181
28640 7.638164100000001 5.826335580000001 0.94902921 -1.239559 0.10016 0.534938
28660 7.92286992 5.35032495 0.1998297 -1.397794 0.38125 0.175618
28680 8.14904928 4.73464935 -0.12453795000000001 -1.51871 0.90399 -0.174136
28700 8.45711271 4.298310360000001 0.33710102999999997 -1.499308 1.43003 -0.405411
28720 9.6511761 4.343514840000001 0.9577110600000001 -1.307482 1.8341490000000005 -0.666303
28740 10.8771318 4.337383590000002 0.80502822 -1.052882 2.373596 -0.991024
28760 11.269168830000002 3.6847341 0.29847906 -0.72104 2.43486 -1.413937
28780 10.61323299 2.62434177 -0.30866184 -0.235279 1.572257 -1.635901
28800 10.036483470000002 2.6596675800000003 -0.61671546 0.08404099999999999 0.452947 -0.921869
28820 10.604099880000001 4.191734520000001 -0.10642868999999999 -0.273505 -0.193554 -0.110621
28840 11.40748002 5.265448830000001 -0.31479309 -0.79952 -0.255205 0.310936
28860 11.96880822 6.5738772 -2.2671891000000004 -0.5156569999999999 0.66768 0.508289
28880 10.12030011 8.96964597 -1.06923114 0.260804 1.815419 0.525061
28900 7.061865840000001 11.01843504 2.35176111 0.296237 1.237468 0.371157
28920 7.19643942 11.39849406 5.049000990000001 0.057841 0.34589000000000003 0.296926
28940 7.7029787700000005 8.964407430000001 6.111639810000001 -0.362024 0.877008 0.242038
28960 11.68589763 5.8158585 0.7815234600000001 -0.615641 1.299159 0.120085
28980 14.327907210000001 4.2888829500000005 -4.910542649999999 -0.458073 0.864693 0.4742560000000001
29000 12.33614367 4.73464935 -5.1404596200000015 -0.119483 0.092948 0.568409
29020 8.69122836 5.5872855 -0.9982754100000001 0.226702 -0.923693 0.626609
29040 5.10723315 6.1804962 0.83496834 2.584237 -2.024209 1.26726
29060 3.7482048 6.268511520000001 0.76715181 1.001517 -0.579209 0.919999
29080 3.14750907 5.3869947300000005 -0.31569561 -0.022743 1.103736 -0.007983
29100 3.5093018700000003 4.34786067 -1.21367358 -0.233861 1.564731 -0.289922
29120 3.30811839 3.3187524300000004 -1.6733701800000003 -0.12829000000000002 0.201692 0.022346
29140 2.87941158 2.29802193 -1.5416415 -0.8179930000000001 -0.220645 -0.056705999999999986
29160 2.57748921 1.9217005200000001 -1.7631807300000002 -1.20624 0.248477 -0.086724
29180 2.58467994 1.5182937 -1.3804337700000002 -1.064208 -0.407377 -0.298536
29200 2.59260642 1.26351819 -1.72710936 -0.891359 -0.80255 -0.459192
29220 3.11756895 1.53685422 -1.7000141400000002 -0.744775 -0.947932 -0.460118
29240 4.37091417 2.56866021 -2.0291788800000004 -0.465834 -1.158331 -0.300872
29260 7.73621505 4.96801944 -3.57621588 0.14941 -1.036643 -0.096973
29280 12.501854190000001 8.54692326 -4.39246674 0.736224 -0.6684760000000001 0.031636000000000004
29300 13.261226670000001 7.574850360000001 -5.45211351 1.065919 -0.925082 0.246844
29320 9.01979469 5.04331119 -4.0112109 0.6301680000000001 -1.741468 0.720206
29340 5.7591272700000005 2.8797156900000003 -1.48730391 0.318803 -3.490975 1.070649
29360 5.02714431 3.54971907 -0.6474011400000002 0.244668 -4.793439 1.308946
29380 5.625603360000001 4.982086980000001 -1.22775093 -1.050082 -4.266961 0.775799
29400 6.72177276 6.270758010000001 -0.42841251 -0.995441 -2.791853 0.537145
29420 8.90573382 9.023836410000001 -0.8490358800000001 -0.095687 -2.0121740000000004 0.04998
29440 10.958260500000002 11.203304490000003 -0.06825798 -0.103759 -0.28741300000000003 -0.228956
29460 9.62708274 11.10136878 3.65779584 -0.360939 1.0168549999999998 -0.098896
29480 7.7724335700000005 8.62715925 4.3177734 -0.8930950000000001 1.7612759999999998 -0.118522
29500 11.0766672 8.964260280000001 -0.8015849100000001 -1.602296 2.180745 -0.24045
29520 13.477223250000002 4.43737692 -9.417511710000001 -2.238396 2.969574 -0.35272600000000004
29540 8.617878990000001 4.24442403 -3.9037325400000005 -2.256733 4.158081 -0.783802
29560 6.78733299 6.199507980000001 6.76996929 -1.423088 4.876594 -1.102571
29580 8.64796626 7.99980975 6.09666975 -0.480558 3.909097 -0.265807
29600 11.787234930000002 4.12646859 -0.9348047100000001 -0.054158000000000005 2.086536 0.131544
29620 14.236595730000001 1.0811993400000002 -4.18709439 -0.031777 1.518175 0.520193
