time Ax Ay Az Gx Gy Gz
20 1.39120515 4.70591586 2.37765951 0.760079 1.023321 -0.023776
40 1.1300040900000001 5.54895783 2.98748835 0.226265 2.34397 -0.286638
60 0.18531090000000003 5.15677365 3.72306177 1.067875 1.099009 -0.303734
80 -0.38245266 3.5681324400000003 4.01255487 0.11889 -1.0129290000000002 -0.405932
100 -0.78226902 1.40782329 3.21845499 0.182662 0.549791 -0.451286
120 -2.73077046 4.54544388 -0.21780162 0.193506 1.04635 -0.22965700000000006
140 -3.45735792 10.709184600000002 -0.20327301 0.311371 -0.964398 -0.454856
160 -1.8756033300000001 12.7310256 5.23731375 -0.084083 -0.699682 -0.510301
180 1.4422465800000002 10.657839059999999 7.5854745900000005 0.008611 0.019979 -0.4742560000000001
200 2.61056853 7.369321050000001 7.57200546 0.505777 -0.38885 -0.16581600000000002
220 1.3850739 7.049436570000001 4.299212880000001 0.658341 -0.910006 0.027129
240 1.04677605 11.46615363 5.89818402 0.6184 -0.60058 0.203778
260 -2.12438493 13.533807330000002 3.5206814700000004 0.638044 -0.011616 0.220252
280 -1.96675785 14.598545490000001 -4.058210610000001 0.35392 0.220265 0.287405
300 -3.69821304 12.560233500000002 3.6182713500000006 0.241238 0.162774 0.376422
320 -6.80170464 8.31266046 1.64388132 0.23694 -0.13633299999999998 0.321228
340 -4.07467179 8.15429763 1.0315018800000002 0.159642 -0.291401 0.27281700000000003
360 -1.07550954 18.34120764 1.26771687 0.12601800000000002 -0.436072 0.250335
380 -5.1343185600000005 21.7833012 2.32660827 0.104613 -0.368153 0.33342
400 -4.1995138500000015 10.50470496 2.79214182 -0.027793 -0.290339 0.436012
420 0.92463174 5.980813650000001 -2.6747847900000004 -0.237823 -0.425178 0.505221
440 0.7274899800000001 6.88867029 -3.87634302 -0.25516300000000003 -0.685196 0.542821
460 -0.02095416 9.11304855 4.374504630000001 -0.153135 -1.014703 0.538614
480 -0.50804028 11.82032406 2.1326155200000003 -0.069289 -1.5361200000000002 0.590075
500 -0.9098088300000001 10.88237034 1.15425441 -0.148361 -1.6409939999999998 0.511677
520 -1.9435572 8.30263464 0.83421297 -0.594713 -1.470251 0.291491
540 -3.41035821 6.934031730000001 1.9297839600000002 -1.293609 -1.473422 -0.17379
560 -3.7532961900000004 7.022949570000001 2.78555931 -1.83343 -1.013717 -0.913087
580 -3.4320677400000004 7.862999490000001 3.1654711800000004 -2.135709 -0.15422 -1.404477
600 -2.3192802 7.457042070000001 1.9121259600000002 -1.958777 -0.454191 -1.666708
620 -2.01630816 6.920562600000001 1.02611619 -1.538067 -0.753367 -1.806527
640 -2.71894941 7.457042070000001 1.0734200100000002 -0.33922800000000003 -0.5319520000000001 -1.739685
660 -3.9333685500000004 8.426574180000001 1.7588447100000002 0.028773000000000007 -1.144218 -1.859175
680 -4.77955953 8.78313825 1.91915973 -0.155709 -1.6131950000000002 -1.635536
700 -4.6533735 8.43615855 0.94752828 -0.201039 -1.683311 -1.112334
720 -3.5125980300000004 8.360111430000002 0.99168309 -0.393586 -2.712893 -1.080313
740 -3.31471071 8.57117358 0.5828905799999998 -0.167392 -3.044481 -0.938371
760 -3.7221592500000003 10.635236820000001 1.32908823 0.065462 -3.0853650000000004 -1.039242
780 -2.8975208400000003 14.285547630000002 3.8586752100000004 0.036226 -3.345375 -0.7271920000000001
800 -0.8381075400000001 14.37026679 5.80806936 -0.082201 -3.057434 -0.437832
820 -0.58528422 13.95653004 0.7999368299999999 0.095207 -2.418102 -0.100922
840 -0.8562168 15.147895680000003 -0.5547456900000001 0.231782 -1.997455 0.081091
860 -1.88772849 18.480117240000002 1.9591256700000002 0.20273 -1.7175779999999998 0.178805
880 -1.9502966700000002 22.712416110000003 2.5379745300000005 0.15651199999999998 -1.690245 0.043852
900 -3.51199962 13.64681853 2.0130120000000002 0.08255499999999999 -1.721171 -0.149974
920 -1.6950797100000001 9.322168320000001 2.0142088200000003 -0.117734 -2.018254 -0.274906
940 -0.05703534 9.36512631 0.9292718700000001 -0.303152 -2.022718 -0.329606
960 1.41275772 9.48936996 2.01779928 -0.192559 -1.587572 -0.287731
980 1.6287641099999999 10.6747515 2.9663772300000004 0.203438 -1.030915 -0.244017
1000 0.74978811 8.69512293 1.41396435 0.427438 -0.898157 -0.337694
1020 0.6559358399999999 7.0344763200000004 0.11016630000000001 0.447994 -1.348791 -0.615779
1040 1.60571061 5.19000993 1.3498952400000002 0.498513 -1.384816 -0.974303
1060 2.43334107 5.359899510000001 2.33260218 0.6299859999999999 -0.926917 -1.045542
1080 1.87365114 6.112091070000001 2.89124244 0.8948719999999999 -0.417338 -0.83711
1100 0.50983551 7.19283915 3.80763378 0.781738 0.059298 -0.587479
1120 -0.42855966000000006 8.02316736 4.05012717 -0.085997 -0.363359 -0.698752
1140 -1.9104778800000002 9.08790552 4.6867569300000005 -0.033788 0.048911 -0.7459180000000001
1160 -2.67958188 9.44161488 5.422918950000001 -0.023632 0.351022 0.150004
1180 -2.04264801 7.56631566 5.52142116 0.06945 0.038591 1.209663
1200 -1.5606532800000001 5.90956362 5.711676300000001 0.723805 -0.632534 1.175569
1220 -1.4419522800000002 6.2815392 5.51558421 1.248368 0.162339 0.145244
1240 -1.72740366 8.44738119 4.70981043 0.7558159999999999 0.106116 0.246562
1260 -2.2547598300000002 10.07973576 5.09375421 0.808646 -0.547886 0.181539
1280 -2.388735 9.44715753 6.514448220000001 0.8521920000000001 -1.341408 0.382617
1300 -1.1798487 8.824752270000001 7.51137966 1.048258 -1.426015 0.59133
1320 0.5294457 11.47049946 4.81982958 1.136469 -1.229387 0.626946
1340 0.69889383 16.271464410000004 0.41449212 1.0799450000000002 -1.320419 0.530528
1360 -1.26052614 16.62128901 3.03104475 0.920973 -1.45568 0.394995
1380 -0.9710330400000001 7.150783680000001 3.0690683100000005 0.955383 -1.16177 0.391654
1400 4.63032 2.3540076 0.22842585 1.003351 -0.921235 0.404499
1420 4.909188870000001 3.4793617500000003 -0.12484206 0.980589 -0.697712 0.470284
1440 -1.7895303900000001 11.894262029999998 -0.56687085 0.89325 -0.613459 0.521908
1460 -8.583298740000002 17.14549617 -2.06734959 0.810284 -0.5843 0.494586
1480 -4.65786648 12.62026089 0.6122224800000001 0.768267 -0.529456 0.402355
1500 -1.70914725 9.37246419 2.35954044 0.766914 -0.386579 0.371184
1520 -0.2484873 7.81299792 1.3763920500000002 0.840039 -0.40743 0.460384
1540 0.25866027 8.87055516 1.6154421300000001 0.845018 -0.4639970000000001 0.482924
1560 0.7220944800000001 9.88724394 1.02162321 0.827011 -0.393793 0.524369
1580 0.89124831 10.447826580000001 1.2145761000000002 0.84721 -0.361036 0.5736060000000001
1600 0.66956193 9.3821859 1.9257422400000002 0.719795 -0.234849 0.562941
1620 0.53094663 8.43750252 1.3900083300000001 0.573047 -0.236031 0.452958
1640 0.29069973 8.09008137 0.8834591700000001 0.646992 -0.326179 0.289084
1660 -0.25866027 8.41699962 0.23411565 0.45967 -0.362262 0.15109
1680 -0.33081282000000006 9.83798793 0.12513636 0.184807 -0.320637 0.103183
1700 -0.44652177000000004 10.370582640000002 0.5445629100000001 -0.075876 -0.350824 0.152675
1720 -0.61806924 9.712400310000001 0.90397188 -0.554329 -0.400525 0.209217
1740 -0.19623924 9.19357884 0.92582856 -0.924393 -0.80006 0.01166
1760 0.48498678000000006 9.30749256 0.65309094 -1.557834 -1.348152 -0.369145
1780 0.31614687 9.565260120000001 0.92956617 -2.094172 -2.118209 -0.737236
1800 0.08292393 9.89203122 0.73332693 -2.56941 -2.752302 -0.7942229999999999
1820 -0.26794053 9.302705280000001 0.34937334000000003 -2.965871 -2.212839 -0.825457
1840 -0.55324476 9.53486874 -0.32287653 -2.985619 -0.148571 -1.015179
1860 -0.5327418599999999 9.99411408 -0.89364195 -2.3847970000000003 0.994827 -1.092564
1880 -0.24114942 10.221048810000001 -0.05837931 -1.935326 0.056053 -1.14911
1900 -0.7071342300000001 11.09073474 0.5043026700000002 -1.714779 -1.360875 -1.312396
1920 -1.2479595300000004 12.04335441 0.8749342800000001 -1.532083 -2.143973 -1.44044
1940 -1.3900083300000001 10.88146782 0.8884034100000001 -1.448245 -2.118246 -1.553119
1960 -2.5204538700000003 11.283383520000001 0.18427104 -1.364171 -2.35522 -1.505226
1980 -3.3949368900000003 12.36818313 -0.30955455000000004 -1.247127 -2.930753 -1.535718
2000 -2.7533727 13.19550948 -0.72913806 -1.091389 -3.0161990000000003 -1.614637
2020 -2.20386555 14.071336470000002 0.08532738000000001 -0.843458 -2.648632 -1.57492
2040 -0.6502460400000001 14.85660735 1.070271 -0.612594 -2.586463 -1.604366
2060 0.6556317300000001 13.762978740000001 1.2946551300000002 -0.42916 -2.714484 -1.716152
2080 1.5238265400000002 12.67818894 1.62950967 -0.414876 -3.392879 -1.775003
2100 2.4307904700000003 11.860133040000001 -1.03584771 -0.5977640000000001 -3.973858 -1.7819459999999998
2120 2.70083034 11.687094450000002 -3.2708502 -0.639732 -3.433138 -1.635517
2140 -0.27437589 11.21363442 -1.3335812100000002 -0.436967 -2.223623 -1.385687
2160 -3.2995836899999995 12.976363890000002 -0.17229302999999999 -0.299687 -1.550892 -1.107852
2180 -2.96847657 12.878469899999999 0.62525016 -0.372591 -1.6516419999999998 -0.891383
2200 -1.23059583 11.11393539 0.11436498 -0.386833 -2.064438 -0.745676
2220 -0.14744430000000003 9.349410690000001 -0.73452375 -0.292608 -2.307215 -0.5876779999999999
2240 0.2951829 7.342677090000001 -0.88391043 -0.050867 -2.216142 -0.395962
2260 0.32677110000000004 6.36656247 0.16585766999999998 0.307069 -2.005774 -0.300796
2280 0.20402838 7.22727225 0.43319979 0.5858939999999999 -1.837715 -0.212538
2300 0.40610457000000005 8.856036360000001 0.6535422000000001 0.5441520000000001 -1.842994 -0.188254
2320 1.0464719400000002 9.51002001 -0.23755896 0.225872 -1.604752 -0.34994699999999995
2340 1.31067486 8.971598160000001 -0.5697157500000001 -0.178482 -0.846339 -0.782101
2360 0.9843550200000001 7.50599397 1.5214329000000002 -0.437553 -0.624805 -1.079023
2380 0.5007122100000001 6.7997622600000005 3.63744009 -0.376128 -1.1908299999999998 -1.3075370000000002
2400 0.5772007800000001 7.024891950000001 3.86391375 -0.008156 -1.986674 -1.605185
2420 0.69336099 7.70178195 2.9318067900000004 0.501083 -2.305168 -1.520035
2440 0.1130112 7.4762010000000005 2.5506981000000004 0.886085 -1.052964 -1.181392
2460 -0.38874087000000007 7.60493763 2.6158070700000002 1.151891 0.16808800000000002 -0.94075
2480 -0.06151851 6.916069620000001 3.1841788500000003 -0.49448 -0.7809159999999999 -1.150792
2500 0.7062317100000001 6.412061250000001 3.9802211100000005 -2.121643 -1.784936 -0.939749
2520 0.6846791400000001 6.409971720000001 5.17953285 -0.298926 -1.181503 0.28677800000000003
2540 -0.21929274 7.10721747 6.41954628 0.626696 -0.59636 0.7390100000000001
2560 -1.7875782 8.602908930000002 7.51482297 1.979614 2.689475 -0.031279
2580 -2.13575472 10.19020617 7.681877460000001 1.655861 3.102896 0.491495
2600 -1.3073787000000001 11.1057048 7.48533411 0.410214 -0.631596 0.6809270000000001
2620 -0.77463684 10.46997756 6.693333570000001 0.581331 -1.27574 0.179816
2640 -0.6765957 8.90947143 5.61123171 1.367553 -0.619981 0.143875
2660 -0.90726804 6.27135642 6.20759142 1.517715 -1.025719 0.512912
2680 1.64598066 8.403677640000002 8.107445069999999 1.145718 -0.6008859999999999 0.6219319999999999
2700 -1.68654501 13.29564996 4.14038898 0.913554 -0.264648 0.388076
2720 -0.28231218 22.177879020000002 0.58887468 0.955547 0.117401 0.4477
2740 1.04752161 22.015464660000003 4.95484461 0.948676 0.390526 0.350094
2760 7.548049440000001 0.70099317 0.8911011600000001 0.696006 0.227112 0.143439
2780 6.9120279 -3.24659988 -1.9318833 0.317956 0.07095599999999999 -0.170922
2800 -3.4356581999999998 2.22017958 2.29143942 0.051688 0.090214 -0.493273
2820 -8.47268118 12.092904720000002 -7.57035738 -0.059404999999999986 0.376731 -0.652513
2840 -3.7901229300000003 18.897905520000002 -6.23169459 -0.157096 0.097596 -0.559902
2860 -1.07895285 18.30648024 3.30856965 -0.30611700000000003 0.887589 -0.320538
2880 0.9830012400000001 10.88820729 2.2688273700000003 -0.166323 2.173584 -0.227205
2900 2.9047115700000004 7.6122657 1.2626254799999999 -0.266034 1.682465 -0.13433699999999998
2920 3.98277171 7.522160850000001 1.15619679 -0.580515 0.511918 -0.175626
2940 4.75007067 8.27658909 1.4528806200000002 -0.676916 0.476899 -0.126048
2960 2.6761385700000004 8.38002573 2.27511558 -0.112667 1.018897 -0.025594
2980 0.36194976 9.15960681 2.40490188 -0.321103 1.077625 0.12029
3000 -1.6290584099999998 9.47963844 1.125207 -0.25353000000000003 0.770237 0.20875
3020 -3.08628486 9.26872344 0.45535077 -0.321754 -0.07158400000000001 0.06514199999999999
3040 -2.9529081 8.968154850000001 0.9544149000000001 -0.468842 -0.177046 -0.073551
3060 -1.1762582400000001 8.20878237 2.86235199 -0.96348 -0.04564 -0.27159
3080 0.31973733000000004 7.2554171400000005 4.81608216 -2.356827 -0.013424 -0.725745
3100 0.77613777 6.4928956499999995 6.75829539 -3.027607 -0.549715 -1.095075
3120 -0.79110783 5.5411785 7.467372 -2.916687 -0.611671 -1.1487
3140 -0.31270356000000005 4.649027670000001 2.1604563000000003 -2.436806 -0.312425 -1.273918
3160 1.05216174 5.97677193 -2.47225734 -2.051013 -0.957733 -0.87195
3180 -0.48888135 7.8860529900000005 2.7846567900000005 -1.288969 -0.333181 -0.5426880000000001
3200 -1.47832776 9.19283328 4.90065417 -0.806194 0.014587 -0.550443
3220 -0.7011403200000002 7.415428050000001 1.2639694500000003 -0.6864239999999999 -0.233747 -0.622996
3240 -0.23172201 6.2670204 1.46455452 -0.285699 -0.100879 -0.631049
3260 -1.99325466 8.72744688 0.8934948 0.108311 -0.134737 -0.49793
3280 -3.48310917 10.35576954 1.54223991 0.410651 -0.22751 -0.204075
3300 -4.75830126 9.64160154 2.70262557 0.740889 -0.099658 0.03735
3320 -5.35466097 9.795775500000001 1.84236705 1.048184 0.127418 0.260327
3340 -2.9018666700000004 14.17567563 4.7196891 1.375533 0.427441 0.605128
3360 -0.20192904000000003 16.764985890000002 6.364914389999999 1.659698 0.503396 1.077033
3380 2.74528926 15.72360534 3.1677078600000006 1.971702 0.549636 1.496828
3400 4.970118780000001 11.501479439999999 -0.118701 2.1355150000000003 0.253891 1.786772
3420 4.17227148 9.39461517 3.63698883 1.948029 -0.809905 1.845577
3440 0.55324476 13.93467336 8.274941010000001 1.861829 -1.386597 1.216531
3460 -1.30558347 18.04167891 6.35713506 1.969446 -0.8710399999999999 0.334271
3480 -0.89648685 14.006825910000002 4.37120847 1.468152 -0.854425 0.07758
3500 1.12700223 8.905135410000002 4.89467007 1.30508 -0.482581 -0.06290499999999999
3520 1.4335647300000003 6.0794532 4.10790807 1.668927 0.327421 -0.209884
3540 1.25050032 4.92879906 2.8836004500000003 1.425541 0.5646399999999999 -0.18091
3560 1.1855385 4.5354180600000005 2.73376251 0.236895 1.52747 0.094769
3580 0.38979054 3.16322469 3.01563324 -0.441917 1.583697 0.208528
3600 0.64995174 1.793268 3.27803112 -1.183312 -1.1966290000000002 -0.224649
3620 0.9936352800000001 0.71625753 2.6587748700000002 0.012349 2.399295 -0.35016
3640 0.35071731 0.32467176000000003 2.3224194000000002 -0.075436 2.038591 -0.646209
3660 -0.42676443000000003 2.07992601 1.7360855100000003 -0.456039 0.399114 -1.642349
3680 -1.5802634699999998 7.302416850000001 1.02881394 -1.118235 0.734874 -1.384622
3700 -2.13290982 11.180545290000001 2.3079006 0.344664 -0.460559 -0.474498
3720 -0.41897529 9.93080034 3.59522766 0.4730970000000001 0.094372 0.231783
3740 -0.14115609 8.55112194 2.5852783500000003 -0.354635 -1.435829 0.798393
3760 -0.86969574 7.70881572 4.034862810000001 0.411363 -0.067618 0.036075
3780 0.49547367000000003 7.79713515 3.6329471100000004 0.218076 0.452457 -0.117629
3800 3.0118858200000003 8.58120921 4.531974750000001 0.009714 0.403139 0.141625
3820 4.446205920000001 11.24521281 3.8995436700000004 0.064564 0.14372 0.499126
3840 4.765040730000001 14.84912232 -0.7544282400000001 0.120642 0.118706 0.578599
3860 2.68750836 12.51637299 7.516922310000001 0.095361 0.364066 0.5140140000000001
3880 -7.046895780000001 10.840903470000002 5.2913472299999995 0.035777 0.579692 0.455638
3900 -3.7389245399999997 17.473012830000002 -1.2705617700000003 0.06479299999999999 0.593572 0.422708
3920 -8.08917885 30.50985537 -0.85606965 -0.08078400000000001 0.402668 0.337546
3940 -4.49485371 12.010569390000002 4.24846575 -0.354244 -0.001876 0.243219
3960 2.35281078 0.9686394 1.1870296200000001 -0.666479 -0.032299 0.129982
3980 2.8607039100000002 2.9812001400000003 -4.09473324 -1.204171 0.059663 -0.023443
4000 1.8163215000000001 10.615322520000001 4.30818903 -1.865794 0.009618000000000002 -0.52045
4020 0.28381311 20.46004992 6.08753664 -2.576257 -0.431339 -0.98632
4040 -1.64567655 12.473258040000001 1.66064661 -3.066014 -0.933664 -1.481547
4060 0.18381978000000002 5.61048615 2.53782738 -3.038995 -0.7924439999999999 -1.65566
4080 -0.77943393 4.37151258 3.44702799 -2.493584 -1.17057 -1.607568
4100 -2.3047614000000003 4.978800629999999 3.0744540000000002 -1.623314 -0.893874 -1.493954
4120 -2.92356639 6.713983620000001 2.9618940600000006 -1.21343 -1.312828 -1.241658
4140 -2.4848337600000003 8.23871268 3.14226072 -1.019253 -1.419273 -0.632347
4160 -1.7191730700000003 8.54108631 2.7898953300000002 -0.7212970000000001 -0.7507699999999999 -0.501868
4180 -2.6110197900000003 8.88596667 1.67726475 -0.189283 -0.284197 -0.42611
4200 -3.44403594 8.58525093 1.35393696 0.278348 -0.157141 -0.370664
4220 -3.2873113800000002 7.92123165 2.4727086000000003 0.481203 -0.08333600000000001 -0.08946699999999999
4240 -3.3807222 8.129743200000002 3.92199876 0.858856 0.030027 0.27088
4260 -2.37017448 11.45373417 4.31014122 1.377569 0.252389 0.689756
4280 -0.9629496000000001 14.689405709999999 5.83142697 1.901212 0.715112 1.2023629999999998
4300 0.04295799 17.378415 5.464837080000001 2.381836 1.261389 1.636582
4320 1.5362558099999999 16.792983630000002 4.8798569700000005 2.5889330000000004 1.064709 1.890381
4340 1.57652586 15.16630905 3.74640957 2.392893 0.04761 2.000342
4360 1.67262462 15.21406413 6.81652755 1.86797 -0.788662 1.398474
4380 0.47331288 10.726695450000001 4.1713787700000005 1.786687 -0.812337 0.464311
4400 -0.1619631 5.087466 3.34614195 1.860733 0.00634 -0.001966
4420 1.28642454 7.32965922 5.154380010000001 2.083878 0.868935 -0.125426
4440 2.66296374 7.68022938 4.408633620000001 1.95206 0.55693 -0.307545
4460 3.5530152299999997 6.476130360000001 2.9794049100000004 0.970018 1.120725 -0.5875239999999999
4480 3.5543592 5.62814415 1.9410164100000002 0.739765 1.274593 -0.238952
4500 2.89033992 4.1677785 1.85838678 -0.962688 -0.92195 -0.375148
4520 2.31208947 2.9966214600000005 2.24638209 -0.310845 -0.329232 -0.24744
4540 1.55990772 1.88622756 2.86938576 -0.8459260000000001 1.927782 -0.240183
4560 0.37212273 0.54561258 4.22601066 -0.813655 0.419595 -0.860799
4580 -1.0298538000000002 0.35207109 4.390965810000001 -1.1152799999999998 0.171797 -0.7023550000000001
4600 -2.06091423 4.67447481 1.87006068 0.27173800000000004 0.109959 -0.29414
4620 -1.22819238 10.53464508 -0.09640287000000002 0.643642 0.029979 0.203147
4640 -0.6372281700000001 12.17314071 1.35887139 0.394587 -1.159476 0.304412
4660 -0.5457695400000001 9.843383430000001 3.3961337100000004 0.509112 -0.608151 0.060951
4680 0.00973152 7.0921002600000005 4.63062411 -0.038445 -0.250078 0.233993
4700 0.78347565 7.941881700000001 2.79993096 -0.220116 -0.403451 0.384608
4720 0.53888292 10.85826717 4.66803945 -0.194806 -0.135478 0.481649
4740 0.97716429 14.880700710000001 5.16366027 -0.137603 0.26586 0.499694
4760 3.09870432 14.27596326 -1.77530589 -0.22267 0.696959 0.391725
4780 2.6605701 12.59166474 7.18041969 -0.192971 1.037065 0.29535700000000004
4800 -1.82470905 15.97822389 6.9269979600000005 -0.250366 1.091569 0.301296
4820 -2.21958117 24.791145300000004 0.71281422 -0.437282 0.559624 0.289989
4840 -5.476962240000001 15.79934835 -0.32272938000000007 -0.493365 0.101035 0.202591
4860 -1.46230803 4.61924451 1.03449393 -0.558954 -0.268311 0.183378
4880 -1.2391207199999998 3.4139486700000004 -2.69290386 -0.691743 -0.415772 0.145252
4900 -2.81699055 10.31774598 -1.70675361 -1.223858 -0.595121 -0.096449
4920 -1.29945222 14.99641947 4.40803521 -2.100264 -0.462338 -0.5738260000000001
4940 -0.52331445 11.93722983 1.8309972600000002 -2.803492 -0.690375 -1.0121440000000002
4960 1.43820486 8.141269950000002 2.1459375 -3.126497 -0.978673 -1.362271
4980 2.09534733 6.1152302700000005 3.94025517 -2.901898 -0.618328 -1.361164
5000 0.56028834 5.3447823 3.7990990800000004 -2.232163 -0.15745499999999998 -1.311143
5020 -0.10343664 6.8912208900000005 3.09016962 -1.205203 0.053848 -1.230533
5040 -1.06309008 7.475455439999999 2.9355444000000004 -0.8088 0.083873 -1.09107
5060 -1.89266292 7.03312254 2.8171377 -0.542585 -0.00524 -0.349887
5080 -1.6232214600000001 7.10766873 0.7620604200000001 -0.31881 -0.15363 -0.198583
5100 -1.9917537300000001 8.00969823 1.41380739 0.06905399999999999 -0.171324 -0.10612
5120 -3.38745186 9.00931761 2.31748497 0.53474 -0.17448699999999998 0.014641
5140 -4.788388530000001 8.09247501 3.1507954200000006 0.87226 -0.043644 0.300978
5160 -3.3668018100000006 7.948169910000001 2.23350156 1.303886 -0.028472000000000008 0.66076
5180 -2.1838041 9.452690370000001 3.1793915700000004 1.6682 -0.098034 0.957154
5200 -0.64335942 12.482842410000002 5.238059310000001 2.020737 0.233358 1.427074
5220 1.15829613 15.401768670000001 6.01554105 2.434169 0.753362 1.829878
5240 3.00200715 17.4595437 5.9719846500000004 2.380068 0.5831149999999999 1.827582
5260 4.73405094 16.53027183 5.14839591 2.085962 -0.340414 1.534018
5280 4.782708540000001 15.206127840000002 7.9357504500000005 1.6562009999999998 -0.914982 0.671834
5300 3.3209891100000006 13.448185650000001 6.975341640000001 1.468732 -0.7350770000000001 0.067817
5320 0.27138384000000004 7.63412238 3.4299684000000004 1.253587 0.06248400000000001 0.070633
5340 -1.20080286 5.5964088 4.72103307 1.185401 0.5516 -0.175093
5360 0.2459367 6.15729555 4.43721996 1.336728 -0.07803500000000001 -0.29180100000000003
5380 1.0524658500000001 6.107745240000001 3.42217926 0.8534950000000001 -0.274595 -0.268219
5400 1.72396035 4.91038569 2.85111954 0.715484 1.727846 -0.07947
5420 2.5204538700000003 3.59612037 3.0356848800000003 -0.552678 0.237436 0.242595
5440 2.31718086 3.8191605300000004 2.7081682199999997 -1.160995 -2.037398 0.620479
5460 1.70271189 3.08313585 2.35774521 0.720867 3.079044 0.074797
5480 0.97013052 1.56784401 2.9767071600000006 0.303748 2.194585 -0.82429
5500 -0.20656917 1.0398894300000001 2.92910904 -1.106221 0.514392 -1.668403
5520 -2.00043558 4.5218017800000005 1.07581365 -0.018669 0.993613 -1.507597
5540 -2.47076622 10.39049694 -0.18516375000000002 0.284837 -0.076558 -0.5480470000000001
5560 -0.44936667 12.96184509 3.55271112 0.293791 -0.650626 0.213326
5580 1.2573869400000002 10.56083778 6.44589594 -0.124746 -1.9898 0.606292
5600 1.41380739 8.24679612 5.65299288 0.300065 -0.334691 0.320855
5620 -0.08502327 7.68860712 2.8894374000000003 0.444261 0.32563400000000003 0.232354
5640 1.07686332 9.9284067 4.41521613 0.255045 -0.001785 0.225042
5660 1.2760946100000001 11.814035850000002 7.04988783 0.091961 0.251325 0.206487
5680 2.11794957 12.486285720000001 -1.2783410999999998 0.004649 0.119265 0.27334400000000003
5700 6.056105400000001 11.296411200000001 -0.10492776000000001 -0.129996 0.055879 0.25753000000000004
5720 6.55756317 7.41123918 7.73516538 -0.193244 0.498051 0.291773
5740 -3.24225405 10.10637972 8.228235600000001 -0.158623 0.887639 0.337449
5760 -4.91458437 17.790650820000003 -6.89091678 -0.241135 0.797416 0.327374
5780 -10.79180442 31.74299199 5.14839591 -0.279918 0.35382600000000003 0.203758
5800 -5.238510570000001 12.32282169 4.67013879 -0.274217 0.035941 0.040767000000000005
5820 2.44262133 3.69491688 -2.2965210000000003 -0.305583 -0.096955 0.002263
5840 3.7296442800000005 5.15183922 -3.6235197 -0.68984 -0.295248 -0.159332
5860 3.68174205 9.0813132 3.25961775 -1.241842 -0.480551 -0.4930310000000001
5880 3.27608874 14.250516120000002 5.42666637 -1.830314 -0.670147 -0.787455
5900 0.92059002 12.072097710000001 2.2867992900000003 -2.540837 -0.686865 -1.051975
5920 0.023799060000000004 8.66219076 1.23657993 -2.902075 -0.5527029999999999 -1.255496
5940 -2.26209771 6.768625320000001 3.4319107800000004 -2.681505 -0.279025 -1.1560290000000002
5960 -3.00619602 5.757773490000001 3.23012889 -2.347163 -0.462207 -1.190847
5980 -1.95178779 6.052367790000001 3.1554355500000004 -1.829063 -0.643571 -1.040649
6000 -0.89828208 6.1113455100000005 2.8699841700000004 -1.078414 -0.573362 -0.867785
6020 0.08712261 6.240974850000001 2.2510222200000003 -0.680469 -0.546944 -0.360838
6040 -0.20477394000000002 6.698268 1.20154842 -0.29222 -0.140002 -0.16636800000000002
6060 -1.4130618300000002 7.97930685 0.85757058 0.213267 -0.158929 -0.133971
6080 -2.6232921 9.01635138 2.4920146800000005 0.65841 -0.236535 -0.027145
6100 -3.97813158 8.96141538 2.19728304 1.061303 -0.417483 0.119043
6120 -3.7223064000000003 9.12232881 0.2080701 1.430459 -0.452597 0.321424
6140 -1.7573437800000002 11.1142395 2.6021907900000003 1.810881 -0.49984 0.616835
6160 -0.86819481 13.94155998 4.301459370000002 2.085643 -0.263572 0.966692
6180 0.6679138500000001 16.88803272 5.7062808 2.330091 0.43691 1.404404
6200 2.20850568 18.64238445 7.343128350000001 2.504287 0.372063 1.7518080000000005
6220 3.8302360200000005 16.494053309999998 6.73359381 2.0584860000000003 -0.973177 1.554933
6240 4.280946660000001 13.41001494 4.732706970000001 1.179673 -2.477213 0.686531
6260 3.3410505600000007 12.96873171 5.17473576 1.130157 -2.017502 0.053208000000000005
6280 0.6224052600000001 11.28458034 4.506233310000001 1.434321 0.234012 -0.090694
6300 -0.8116107300000001 6.548430060000001 3.5670827700000003 1.542609 1.183274 -0.209727
6320 -0.69231132 5.33401092 4.023336060000001 0.932903 0.151 0.057598
6340 0.61611705 5.89997925 3.2796792000000003 0.618819 0.237658 0.23689
6360 1.27444653 5.219194679999999 2.30864616 0.470298 0.8953620000000001 -0.007476000000000002
6380 1.79536734 4.014497250000001 1.32430095 0.299019 1.366091 -0.360721
6400 2.03127822 3.02431509 1.18089837 0.282959 0.570562 -0.670666
6420 1.7621310600000002 2.7625058100000004 1.5310172700000002 0.382072 0.546779 -0.6699430000000001
6440 0.8616123 2.2977178200000004 2.18800278 -0.085742 1.082471 -0.495505
6460 -0.25117524 1.3088796300000003 3.3043807800000002 -0.335462 -0.496965 -0.6372979999999999
6480 -0.37572300000000003 1.41815322 3.8549376 -0.186209 0.4301430000000001 -1.111734
6500 -0.44487369000000004 6.55022529 0.75413394 -0.388678 0.863949 -0.730213
6520 -0.4801995 12.72758229 -0.54352305 0.095119 0.051806 0.015553
6540 -0.32766381 14.8738239 3.46723659 0.4154850000000001 -0.6350720000000001 0.214156
6560 0.95830947 10.451868300000001 6.870708179999999 -0.219524 -1.77521 0.305185
6580 2.5135770600000003 6.6641390099999995 4.75321968 0.751491 -0.004265 0.148396
6600 4.33932597 6.49439658 3.1525906500000005 0.7221890000000001 0.141704 0.167233
6620 4.373759070000001 8.55920538 4.796776080000001 0.273028 0.005442 0.26681900000000003
6640 2.20476807 10.853479890000003 5.464984230000001 0.16984000000000002 0.140815 0.335359
6660 1.4166522899999998 15.402367080000001 3.51334359 0.024591 -0.12926300000000002 0.33575900000000003
6680 2.1189894300000005 16.55946639 -0.7342196400000001 -0.035839 -0.362023 0.25445
6700 -1.0008162 10.468476630000001 0.61237944 0.037084 -0.199718 0.095587
6720 -4.080518550000001 7.331601600000001 0.06751241999999999 -0.010072 -0.035397000000000005 0.069409
6740 -1.24690986 14.037511590000001 1.54792971 -0.261412 -0.019164 0.223593
6760 -2.68272108 27.41339754 4.87087101 -0.518145 0.023562 0.4172300000000001
6780 -5.53563585 15.36091002 5.8187034 -0.452492 -0.460708 0.518722
6800 1.17161811 5.89833117 0.5655268800000002 -0.409263 -1.237753 0.329876
6820 4.5466407 5.80597983 -4.362075360000001 -0.405885 -1.370232 0.15701800000000002
6840 1.3079771100000002 7.862999490000001 -5.25961188 -0.802387 -1.217961 -0.015794
6860 0.8660954700000001 10.56982374 7.51078125 -1.537558 -1.303656 -0.325263
6880 1.52951634 11.58126417 3.4533162 -2.07458 -0.662778 -0.554162
6900 0.34279083000000005 8.42597577 -1.87365114 -2.787293 0.111644 -0.726775
6920 -0.9259757100000001 7.870484520000001 2.46163311 -2.889091 0.306608 -0.909334
6940 -2.24562672 7.83006732 3.7073363400000003 -2.399013 0.744279 -1.028249
6960 -2.00507571 7.39342422 2.90036574 -1.893143 0.114774 -1.218325
6980 -2.1475855800000003 7.994424060000001 2.95470333 -1.269601 -0.455444 -1.418338
7000 -1.81213263 8.35023276 2.03247504 -0.5215069999999999 -0.939228 -1.2308940000000002
7020 -1.16473149 7.30076877 0.69231132 -0.046695 -1.072182 -0.8951899999999999
7040 -1.25947647 6.151007340000001 1.21801941 0.34105100000000005 -1.273425 -0.722377
7060 -1.72965015 6.74901513 1.78249662 0.762045 -1.2593530000000002 -0.610496
7080 -2.2107521700000006 8.292157560000001 1.7145329400000002 1.061848 -1.433113 -0.308008
7100 -2.82627081 10.43046288 2.0155626 1.240772 -1.527273 -0.092994
7120 -4.05177525 10.882066230000001 1.7738147700000002 1.281713 -1.494059 0.089916
7140 -3.59522766 11.22830037 0.8434932300000001 1.24394 -1.494205 0.425074
7160 0.8886977100000001 12.565766340000001 4.62807351 1.217242 -1.479172 0.684446
7180 1.8347348700000001 13.533807330000002 5.934255390000001 1.389563 -1.522561 0.99549
7200 2.7643010400000003 15.019914420000001 5.86555596 1.34371 -1.394952 1.357133
7220 2.92476321 15.40312245 4.78615185 0.837714 -2.534549 1.467222
7240 2.38843089 13.41001494 2.04564987 0.113519 -3.804712 0.8527680000000001
7260 1.711845 11.58755238 0.09430353000000001 -0.394952 -2.581045 0.312469
7280 -0.15418377 11.414660940000001 1.9880161200000002 -0.537709 0.193694 -0.286015
7300 -1.5967344600000002 11.87629992 3.788622 0.554937 2.876249 -0.481578
7320 -1.6443325800000002 9.934243649999999 3.0070985400000003 -0.31261300000000003 2.176101 -0.197252
7340 -0.46373832000000004 8.27374419 2.72163735 -0.232743 0.689772 -0.46505
7360 0.34547877 7.145986590000001 2.0098728 -0.6242340000000001 0.8713350000000001 -0.774597
7380 1.5344605800000002 5.54476896 1.5033236400000003 1.471667 0.267513 -0.774138
7400 3.25109286 3.79820637 1.3320802800000002 -0.075464 -0.8652629999999999 -0.934113
7420 4.035608370000001 2.7393051600000007 0.14205861 -0.148615 0.382493 -1.216097
7440 3.2855161500000003 3.1216106700000004 -0.1907064 0.018764 -0.343489 -0.962965
7460 3.1448113200000005 4.265231040000001 0.50100651 -0.145715 -1.857209 -0.29774
7480 3.13134219 4.36956039 1.5989711400000002 1.148241 -1.766373 -0.159563
7500 3.2401645200000004 5.0180112 2.43917802 0.923955 -1.308515 0.353166
7520 2.20461111 7.964042490000001 1.4991347700000002 0.52069 -2.220077 0.6239140000000001
7540 1.7815941 12.65707782 4.0978822500000005 0.96516 -1.708798 0.518473
7560 1.3986901800000002 12.409944300000001 9.883947779999998 1.100249 -1.268471 0.575468
7580 1.11757482 12.61082367 14.5792296 1.032265 -1.349558 0.665896
7600 0.67704696 7.72363863 10.19933928 0.928969 -1.446531 0.763575
7620 0.16181595000000001 5.083129980000001 1.48206537 1.002236 -1.132196 0.680363
7640 1.7298071099999999 10.41294222 0.79664067 0.997585 -0.8621840000000001 0.560344
7660 0.5858826300000002 15.228877230000002 4.628377620000001 0.988002 -0.84834 0.569873
7680 0.28441152000000003 15.56642952 -5.087770110000001 0.990925 -0.809342 0.671325
7700 2.5821293400000003 11.783791620000002 -0.7656606900000001 0.8773270000000001 -0.7087140000000001 0.6469010000000001
7720 -5.1901570800000005 18.74118096 3.7061395200000002 0.792196 -0.512045 0.5563239999999999
7740 -5.40047367 19.59560253 -4.75965504 0.810941 -0.477616 0.45493
7760 -1.14840765 12.399015960000002 3.59941653 0.755256 -0.681211 0.534918
7780 4.9368825 11.81073969 -2.53228473 0.466814 -0.395357 0.42892
7800 5.40600651 12.253219740000002 -4.39366356 0.456809 -0.203859 0.234188
7820 5.2573653899999995 11.77840593 0.66387213 0.479787 -0.41658 0.131004
7840 1.2650191200000003 11.63994759 2.36448468 0.389952 -0.649772 0.183018
7860 0.89543718 9.6338124 0.283509 0.080377 -0.386897 0.246748
7880 1.88772849 8.189917740000002 -0.61611705 -0.278206 -0.174718 0.243972
7900 1.9743900300000001 7.566766920000001 -0.26913735 -0.392171 -0.374571 0.238091
7920 1.56529341 7.81375329 1.12955283 -0.509156 -0.799077 0.204703
7940 0.6589278900000001 7.62289974 1.2500490600000003 -0.8627670000000001 -1.126119 -0.020607
7960 0.69604893 7.642058670000001 0.14864112000000002 -1.344747 -1.160402 -0.35294200000000003
7980 1.4688905399999999 8.17539894 0.18306441 -2.061714 -1.154854 -0.585488
8000 1.1186244900000002 9.57454038 0.34338924000000004 -2.702681 -0.920169 -0.643677
8020 1.0578515400000001 10.640475359999998 1.02372255 -3.1442900000000003 -0.388278 -0.606851
8040 1.5203930399999999 10.53524349 1.44479718 -3.087397 0.09119 -0.679707
8060 1.4432962500000002 10.233173970000001 2.03876325 -2.69257 0.202247 -0.82237
8080 -0.44068482 10.16102142 -0.2573163 -2.435568 -0.190153 -0.950395
8100 -0.32976315 10.104741450000002 -1.1454156 -2.308659 -1.006332 -1.281748
8120 1.02776427 10.46339505 -0.9113097600000001 -2.1715560000000003 -1.288444 -1.447071
8140 2.2387401000000002 10.69765785 0.43649595 -1.795306 -1.71967 -1.559258
8160 0.97761555 10.532398590000001 1.74476736 -1.504074 -2.184257 -1.779887
8180 -0.88077123 10.70199387 -0.00777933 -1.335248 -2.515537 -1.931039
8200 -1.81811673 12.687910650000001 -0.82493271 -1.040039 -2.60491 -1.948091
8220 -2.35444905 13.64547456 -0.46792719 -0.811455 -2.737979 -1.902526
8240 -2.3740592400000002 12.18556017 0.2630061000000001 -0.815312 -2.829798 -1.847956
8260 -0.9104072400000001 12.493623600000001 1.37458701 -0.811959 -3.3513610000000003 -1.690236
8280 0.8422964100000001 12.30500673 1.25184429 -0.6440640000000001 -3.585856 -1.536007
8300 1.82470905 11.68080624 2.0718425700000003 -0.430061 -3.452246 -1.301811
8320 1.7329463100000002 10.72878498 2.54486115 -0.288664 -3.074514 -1.048139
8340 2.5282430099999997 10.226728800000002 2.1127110300000003 -0.087265 -2.691456 -0.846397
8360 2.96653419 10.527758460000001 -1.03030506 0.12781900000000002 -2.165483 -0.6981539999999999
8380 2.5634216700000003 11.67422373 -2.33349489 0.388085 -1.586285 -0.579574
8400 0.42676443000000003 12.061022220000002 -3.01293549 0.5696979999999999 -1.195299 -0.478393
8420 -2.18396106 12.46787235 -0.44532495 0.617568 -1.085246 -0.336127
8440 -2.2540142700000003 13.22365437 0.57540555 0.488488 -1.493054 -0.272412
8460 -0.8473878 12.771589950000001 -0.17019369 0.032502 -2.138843 -0.351682
8480 0.54336609 10.873688490000001 -0.92777094 -0.503025 -2.3968830000000003 -0.625352
8500 1.68578964 8.88282747 -0.27333603 -0.571715 -1.6739509999999995 -1.000636
8520 2.00942154 7.7924950200000005 0.5978606400000002 -0.334037 -0.783338 -1.482953
8540 2.2356009 7.718400090000001 0.35566155000000005 -0.351866 -1.33981 -1.634052
8560 1.27085607 7.536228390000001 -0.61462593 0.441128 -2.05709 -1.7013009999999995
8580 0.25312743 8.02630656 -0.71012628 1.414842 -1.373476 -1.406956
8600 0.46373832000000004 8.215668990000001 0.44981793 2.208987 -0.044663 -0.8679319999999999
8620 1.7552542500000001 7.72394274 1.2603789900000002 1.951953 -0.041244 -0.168979
8640 3.19360626 7.82213103 1.8257489100000002 -0.468908 -1.083827 -0.015773
8660 3.7576322100000006 7.73516538 1.9815807600000002 -2.11863 -2.182446 -0.103869
8680 3.14226072 7.18087095 2.1176454600000003 -0.16760799999999998 0.28483600000000003 0.309317
8700 2.5451554499999998 7.16185917 2.3022108000000006 1.618966 -0.127711 0.96219
8720 2.6946990900000003 7.45374591 2.8879462800000004 1.860293 -0.530483 0.511465
8740 2.51117361 7.72408989 4.32930015 0.930821 0.852159 0.273534
8760 1.36066662 9.58920633 6.05909745 0.181247 0.016454 0.522537
8780 0.0026977500000000005 11.30000166 8.14561578 0.587172 -1.627453 -0.048292
8800 -2.30580126 11.509268580000002 9.36257571 0.801614 -1.6843240000000002 0.134876
8820 -4.367019600000002 10.82384388 7.837699500000001 1.161153 -0.629143 0.482139
8840 -4.59678942 9.50119101 5.0410647 1.166369 -0.312135 0.588592
8860 -3.94864272 7.8658443899999995 4.36537152 1.022393 -0.095251 0.555261
8880 -3.19944321 5.826933990000001 3.5073594900000002 0.952817 -0.237388 0.46309
8900 -0.9833053500000001 5.636227590000001 1.3368675600000002 0.989287 -0.278719 0.37794
8920 3.2808760200000004 9.819133110000001 -2.38948056 0.945964 -0.024723 0.3004
8940 5.88186999 15.34653837 -3.38864868 0.86669 0.33578600000000003 0.25772399999999995
8960 5.74401006 24.06201705 5.5212642 0.787944 0.402023 0.278453
8980 3.85313256 17.45445231 9.77886306 0.824591 0.068231 0.336821
9000 4.15626156 -2.2617936 -0.63587439 0.8530690000000001 -0.25035300000000005 0.328883
9020 6.1290035099999995 -5.12728479 -5.619168 0.893317 -0.329269 0.31537800000000005
9040 -0.33710102999999997 5.64296706 -3.89459943 0.992192 -0.205892 0.278523
9060 -6.959478870000001 19.15341678 -2.9734208100000004 1.007456 0.077526 0.25156100000000003
9080 -4.532720310000001 18.77530995 -4.768788150000001 0.822311 0.145453 0.20852
9100 -0.84124674 13.513893030000002 3.63339837 0.688896 0.031279 0.105185
9120 3.6187226100000003 6.3619223400000005 4.881348090000001 0.5070279999999999 0.002712 -0.052009000000000014
9140 4.41072315 6.85469826 1.4004854100000002 0.28988 -0.197572 -0.126977
9160 3.9046350600000013 8.55141624 -0.9005285700000001 0.134821 -0.6501859999999999 -0.024931
9180 3.29195151 8.96935167 -0.8978308200000001 -0.004768 -0.304829 0.044154
9200 1.9700540100000001 9.72691911 0.5252568299999999 -0.248016 0.211339 -0.15475899999999998
9220 0.9867486599999999 10.185723000000001 0.8521750800000001 -0.4103520000000001 -0.007875 -0.338278
9240 0.32437746000000006 9.63935505 1.0976703300000001 -1.068364 0.031666 -0.59823
9260 0.08562168 9.15585939 0.8750814299999999 -2.000869 0.135442 -0.965935
9280 0.26165232000000005 9.24238359 0.42855966000000006 -2.813605 0.013383 -0.906294
9300 0.42122178 8.97758226 0.5072947200000001 -3.3653160000000004 0.184944 -0.7074060000000001
9320 -0.28081125 9.33728553 0.48454533 -3.253541 0.751753 -0.558869
9340 -0.38544471 9.68022351 1.1180260800000001 -2.831545 0.929049 -0.5070100000000001
9360 -0.38469915000000005 9.58247667 1.7013581100000001 -2.493017 0.494322 -0.7764850000000001
9380 -0.5905227600000001 9.78261048 1.9775390400000001 -2.134514 -0.664126 -1.229695
9400 -0.95396364 10.16895771 0.4628358 -1.643462 -1.106847 -1.497026
9420 -0.56507562 9.91238697 -0.69290973 -1.54749 -1.294911 -1.436294
9440 0.8761311 10.42551864 0.11690577 -1.622759 -1.914582 -1.450981
9460 2.16435087 10.214456490000002 1.12116528 -1.562964 -2.691073 -1.526481
9480 2.42406081 9.24492438 -0.5465151 -1.337398 -2.271405 -1.44319
9500 1.7866854900000002 9.48786903 0.3381507 -0.991263 -1.7821189999999998 -1.291848
9520 1.40588091 11.490403950000001 0.6436635300000001 -0.624085 -1.533908 -1.078093
9540 0.66715848 13.711034790000001 0.71281422 -0.384944 -1.7041400000000002 -0.805944
9560 -0.7280883900000001 12.87742023 0.43724151 -0.13163699999999998 -1.81368 -0.539116
9580 -1.51918641 12.84539058 -0.27018702 0.248635 -1.4633969999999998 -0.288013
9600 -0.63393201 13.07141298 1.89266292 0.723854 -1.0710110000000002 0.007497
9620 0.50879565 12.179124810000001 3.2534865 1.084703 -0.720858 0.307603
9640 3.36948975 11.660450490000002 1.82815236 1.269615 -0.562045 0.392012
9660 3.9621118500000003 11.493396 -1.3180127400000001 1.188654 -0.925361 0.4763020000000001
9680 2.45055762 11.99051775 -3.2992893899999998 0.8367459999999999 -0.971628 0.6298630000000001
9700 -0.42301701 14.355895140000001 -1.97903016 0.527489 -0.527147 0.566245
9720 -3.3670961100000003 15.14191158 0.65713266 0.555196 -0.30457 0.5586760000000001
9740 -2.77657335 13.546678049999999 1.18343916 0.695854 -0.184257 0.718669
9760 1.04362704 10.66786488 0.82912158 0.98916 -0.13760899999999998 0.786888
9780 2.54635227 8.33796045 -0.25162650000000003 1.008504 -0.170551 0.48369
9800 1.7899816499999999 6.1599933 0.5436702 0.91527 -0.516484 0.228177
9820 1.3648653000000002 4.4771859 1.1183203800000001 0.706098 -0.399321 -0.11847
9840 1.21038723 4.324807170000001 1.4810157 0.489656 -0.064559 -0.52954
9860 0.74724732 5.18955867 1.0529073 -0.180304 0.448668 -1.220676
9880 0.49098069000000005 5.87603304 0.6224052600000001 0.473522 -1.927196 -1.179949
9900 1.0662292800000002 5.33760138 1.6313049000000004 -2.842833 -2.92859 -0.428438
9920 2.3912757900000003 4.66115283 2.70606888 0.518163 4.585178 -1.038431
9940 2.63541726 4.030664129999999 3.15139383 0.323157 3.980232 -1.700248
9960 1.3967478000000002 4.00177368 3.23297379 -2.155734 -0.794559 -1.625987
9980 -0.018413370000000002 4.82715765 2.135911680000001 0.479419 -0.5190899999999999 -0.605941
10000 -0.09550035000000001 4.7702792700000005 1.7318966400000002 0.555838 0.036365 0.280505
10020 1.36590516 4.4617743899999995 3.3374601000000004 0.36146 -1.756427 0.4320640000000001
10040 2.16509643 4.679114940000001 4.372856550000001 0.09852 -2.053137 0.002251
10060 2.97177273 5.60554191 4.465364850000001 -0.139349 -0.309912 -0.166151
10080 1.8176654700000001 5.600901780000001 3.29000913 0.031768 0.201159 0.017056
10100 0.76730877 7.346277360000001 2.4557961600000002 -0.016116 0.440163 0.228991
10120 -0.26389881000000004 9.37993941 2.33484867 0.090892 0.51032 0.706076
10140 -0.45505647 9.06994341 2.15896518 -0.097202 0.974127 0.766124
10160 -0.41089185000000006 7.82856639 1.6807080600000002 -0.325473 1.0362790000000002 0.340366
10180 -0.30730806 9.871077060000001 0.29054277 -0.627613 1.015811 0.126774
10200 -0.39637305000000006 12.980856870000002 -6.23408823 -1.610977 0.367201 -0.12175
10220 4.80246588 13.121708850000001 1.9562807700000002 -2.544091 -0.5266890000000001 -0.879151
10240 5.295987360000001 18.20364201 24.712263090000004 -2.761582 -0.70108 -1.567313
10260 1.7585406000000001 22.81345911 -0.80921709 -2.601918 -0.380698 -1.639248
10280 -4.390965810000001 17.44457364 -11.41316982 -2.8161650000000003 -0.708471 -1.536707
10300 -6.646029750000001 6.1749633600000005 8.40996585 -1.825954 -0.334069 -1.186302
10320 -4.4652177 3.3253349400000003 -0.50939406 -0.8931040000000001 -0.047307 -0.980396
10340 -1.5182937 6.588700110000001 -2.23215759 -0.705268 -0.435794 -0.42952
10360 1.10410569 14.467111110000001 1.75344921 -0.483224 -0.26976100000000003 -0.052167999999999985
10380 1.11592674 17.91744507 7.729181280000001 0.003474 -0.245921 -0.308377
10400 0.0375723 10.42162407 5.67320148 0.642224 -0.257018 -0.48443
10420 3.31949799 4.33618677 3.21261804 1.14727 -0.13204000000000002 -0.208666
10440 4.80995091 -0.14833701000000002 2.91698388 1.48204 0.297356 0.277027
10460 1.32669459 1.25873091 2.7990284400000003 1.665339 0.26810700000000004 0.771863
10480 -1.7378905500000001 8.617574880000001 3.2934524400000003 1.864162 0.044213 1.178395
10500 -3.81496185 12.982053690000003 3.3090209100000005 2.108139 -0.154068 1.533934
10520 -3.7365309000000004 11.491453620000001 2.2579088400000003 2.350527 0.145537 1.7905490000000002
10540 -4.205350800000001 13.4773704 1.60286571 2.566132 0.020843 1.884082
10560 -4.97984049 16.27280838 5.85387225 2.067586 -0.771331 1.1541549999999998
10580 -0.33320646000000004 17.234561160000002 7.347621330000001 1.660836 -1.263632 0.477897
10600 5.063068530000001 15.25821894 4.45204287 1.214911 -0.933359 0.322671
10620 7.6175140500000005 13.29729804 5.3172456299999995 1.01319 0.6579050000000001 0.029735
10640 3.9736386 12.73446891 8.31820311 0.9598 1.487209 -0.319941
10660 -0.28889469 9.617498370000002 3.38191902 0.821485 1.128458 -0.527682
10680 -1.5018227100000001 6.989713290000001 3.7821866400000004 0.42224 1.7595490000000005 -0.560122
10700 0.5706182700000001 8.02690497 4.84572798 -0.071008 0.305068 -0.038275
10720 3.2587250400000003 8.793016920000001 4.02812334 -1.440754 -3.197046 0.221564
10740 2.76489945 6.33303189 3.59312832 0.950668 2.1198 -0.266336
10760 1.7396857800000003 3.26006901 2.50549362 0.759154 2.251221 -0.730382
10780 1.3600682099999999 2.6056341 2.65263381 -1.214679 0.578863 -1.447053
10800 0.43679025000000005 1.949247 2.38110282 -0.263251 0.617897 -1.111445
10820 -0.32122845000000005 1.3084283700000001 1.8136237500000003 0.262393 0.002108 -0.221428
10840 -0.63587439 1.01444229 1.1772981 -0.11287 -1.105384 0.270888
10860 -0.65055015 2.7098163000000004 1.9779903 -0.243795 -2.224426 0.509621
10880 -0.33560010000000007 7.521405479999999 1.1771509500000001 0.518594 -0.086496 0.135125
10900 0.83181933 12.02689323 0.28755072000000004 0.582715 0.28875500000000004 0.011178
10920 2.19652767 11.66224572 3.8859175800000005 0.479882 -0.080375 -0.02966
10940 2.1622515300000003 10.07764623 7.21724643 0.372562 0.212054 -0.07244500000000001
10960 -0.6566814000000001 8.67790638 5.87408085 0.341486 0.521744 0.030559
10980 0.8176046400000001 9.00288225 4.64244516 -0.010643 0.423292 0.180981
11000 2.18425536 9.600438780000001 5.61960945 -0.318606 0.639012 0.314218
11020 0.73662309 10.923680250000002 0.12948219000000002 -0.126291 1.110627 0.489077
11040 4.3704629100000005 11.13369273 -2.31134391 -0.505736 0.419764 0.426423
11060 4.83284745 12.26414808 9.864936 -0.476073 0.33979000000000004 0.154336
11080 -3.4058652300000003 12.548853900000001 11.74458105 -0.762217 0.609865 -0.003969
11100 -2.8403481600000005 14.43582702 -8.60365449 -1.452662 0.442244 -0.377114
11120 -4.82057514 28.887232320000003 3.0229613100000003 -2.306622 -0.293649 -1.020932
11140 -6.1312500000000005 14.97006981 11.53980711 -3.017557 -1.037302 -1.446893
11160 1.3548296699999998 3.1165192800000003 -7.9357504500000005 -3.329052 -1.199583 -1.619776
11180 0.0378666 3.22668558 -6.236334719999999 -3.012149 -0.666013 -1.328758
11200 0.53244756 8.88522111 5.027889870000001 -2.362401 -0.476216 -1.137524
11220 2.11824387 15.653699280000001 6.070025790000001 -1.419038 -0.403844 -0.8735860000000001
11240 1.5157431 10.57236453 1.0464719400000002 -0.911607 -0.240563 -0.8542280000000001
11260 0.21570228000000002 6.81637059 0.90651267 -0.541588 -0.009659 -0.5774060000000001
11280 -2.17033497 6.60606381 4.97280672 -0.349142 -0.394782 -0.33842300000000003
11300 -1.73474154 6.686594100000001 4.4048862 -0.001901 -0.406041 -0.221683
11320 -0.5912683200000002 6.45921792 1.00097316 0.342492 -0.592993 -0.12183
11340 -0.54262053 5.87572893 2.9026122300000003 0.757912 -0.574872 0.047691
11360 -0.55833615 6.0990633899999995 2.41432929 1.294965 -0.16152 0.374584
11380 -1.01743434 7.658519850000001 0.93195981 1.839669 0.363373 0.7729590000000001
11400 -3.0448179900000003 9.06200712 2.40729552 2.185493 0.6149359999999999 1.232251
11420 -5.01142869 9.430235280000002 2.0850174000000004 2.351672 0.657741 1.571983
11440 -5.855677290000001 10.769800590000001 1.60301286 2.104789 0.009206 1.731323
11460 -3.4986776400000004 13.003155 3.1891230900000003 2.038309 -0.782151 1.48725
11480 -0.7756865100000001 14.857951320000002 4.3496559 2.046352 -1.3100459999999998 0.8278209999999999
11500 0.83691072 16.333434179999998 4.7834541 1.948426 -1.312904 0.296235
11520 3.2630610600000005 14.68505988 5.404211280000001 1.813712 -0.184437 0.062043
11540 5.78053269 13.76163477 5.220695610000001 1.607193 0.435987 -0.133542
11560 7.20316908 14.67608373 7.600748760000001 0.535207 0.070911 -0.08181000000000001
11580 2.33798787 10.03677777 7.19104392 0.240584 1.4862959999999998 -0.533267
11600 0.10073889000000001 7.379356680000001 4.60278333 -0.165701 1.094362 -0.73536
11620 -1.1060480700000002 8.86740615 2.7803207700000003 0.176826 1.673482 -0.402561
11640 0.12469491 7.33220001 2.1194406900000002 -1.038723 1.237281 -0.288715
11660 2.0538804600000002 5.204528730000001 1.8381781799999999 -0.964378 0.188669 -0.789985
11680 2.4971060700000005 3.8877128100000005 2.2162948200000003 -0.013522 0.233451 -0.559074
11700 2.26539387 2.5722506700000003 3.46918878 0.6240899999999999 0.299965 -0.163736
11720 2.24234037 2.160162 4.4261444700000006 0.261504 -0.5055149999999999 0.183004
11740 1.3705452900000001 0.7831715400000001 3.87424368 0.625582 -0.6688729999999999 -0.039638
11760 -0.29039562 -0.16121754000000002 2.7852552000000004 0.440789 -0.322759 -0.120421
11780 -2.0221451100000003 3.4266722400000003 0.80562663 0.341641 -0.256459 0.16828900000000002
11800 -2.042206560000001 9.461372220000001 1.052613 0.279916 -0.104383 0.286236
11820 -1.0886843700000002 12.52460358 2.47450383 0.26305500000000004 -0.08387 0.4986680000000001
11840 0.17782587000000002 11.471696280000002 3.64746591 0.055228 -0.07446699999999999 0.4587479999999999
11860 0.7430584500000001 7.018907850000001 4.22017371 -0.022656 0.130467 0.425895
11880 1.55122587 6.43841091 2.1139078500000004 0.060904 0.662888 0.407637
11900 3.5850448800000003 8.653508910000001 3.1314893400000003 -0.024914 0.584255 0.432775
11920 4.24846575 15.82059681 7.46617518 -0.085495 0.557086 0.353339
11940 2.0710970100000003 16.49989026 4.506076350000002 -0.252374 0.518964 0.174897
11960 -1.1784949200000001 13.20284736 2.92296798 -0.405259 0.177675 0.141152
11980 -2.06270946 12.063268710000001 -0.36568737 -0.636994 0.053086 0.063849
12000 -2.50953534 23.655902670000003 1.1225190600000001 -1.309906 0.08115 0.022793
12020 -6.70754826 15.00120675 4.86728055 -2.055635 0.078348 -0.22810300000000006
12040 -0.07110288000000001 5.254069230000001 -1.63190331 -2.824956 -0.13774 -0.666898
12060 0.26135802 5.86840086 -2.20761297 -3.069644 -0.387726 -1.07528
12080 -0.6134291099999999 12.379709879999998 3.16621674 -3.048955 0.010124 -1.484774
12100 -1.24660575 13.898601990000001 2.39591592 -2.747832 -0.025702 -1.577697
12120 -0.5551969500000001 10.42776513 1.5214329000000002 -2.009507 -0.238202 -1.557312
12140 2.03232789 7.73935425 1.90928106 -1.480316 -0.532537 -1.1377
12160 0.72194733 5.992036290000001 3.56947641 -1.217048 -0.635207 -0.467023
12180 -0.41897529 7.23191238 3.39254325 -0.70891 -0.249438 -0.143501
12200 -0.34353639 7.735459680000001 2.52180765 -0.270446 0.041742 -0.080991
12220 -0.36059598 7.91942661 3.9071758500000002 0.196266 0.234716 0.007479
12240 0.11226564 7.74130644 2.13979644 0.724529 0.261773 0.241871
12260 -0.05328792 7.9822989 1.40662647 1.163808 0.066053 0.587021
12280 -1.8467128800000001 8.308618740000002 1.2397191300000001 1.663098 -0.30035100000000003 0.940287
12300 -3.8047888800000003 8.81351982 1.4455427399999998 2.1807380000000003 -0.408915 1.266644
12320 -4.09219245 9.52034994 2.48842422 2.571591 -0.213546 1.620569
12340 -2.30460444 8.95019274 1.95223905 2.6472450000000003 -0.259408 1.834801
12360 -1.25423793 9.26109126 2.21045787 2.3924540000000003 -0.6306510000000001 1.655104
12380 -0.06271533 11.144326770000001 4.20206445 2.080676 -1.126557 0.732754
12400 1.48431186 15.628546440000001 5.96763882 1.944246 -0.716854 0.159777
12420 3.3988314600000002 18.508114980000002 6.192474209999999 1.536512 0.170962 0.13656400000000002
12440 4.05536571 19.0273779 4.81518945 1.67657 0.640437 -0.172844
12460 2.9222224200000007 15.70923369 4.8999086100000016 1.464633 0.613921 -0.284317
12480 1.5816074400000002 12.751528500000001 3.8146675500000002 1.436376 1.65927 -0.07221
12500 -0.019011780000000002 7.700437980000001 3.41365437 0.7587430000000001 -0.272916 -0.073399
12520 -0.50789313 5.0034924 5.181622379999999 -0.436691 -1.176059 -0.155367
12540 0.91639134 5.156028090000001 3.7673637300000005 -0.204688 1.562944 -0.134824
12560 1.6691813100000001 5.194198800000001 1.93621932 0.029501 1.848023 0.032021
12580 2.3110398 3.7426719600000005 1.61738451 0.656018 -0.5879489999999999 -0.322608
12600 2.39576877 2.54905002 1.9143724500000001 0.744976 -0.391936 -0.932193
12620 2.71311246 2.33784072 1.5338621700000001 0.281304 1.3111389999999998 -0.987821
12640 1.3504936500000002 2.5270461900000005 1.66708197 -0.666442 0.161462 -0.638318
12660 0.35970327 2.0390575500000003 2.70427365 -0.760233 -0.906747 0.17531300000000002
12680 0.17154747 2.00403585 2.8370520000000004 0.036383 -0.811153 0.35380700000000004
12700 -0.55893456 5.041820070000001 1.40916726 -0.383897 -0.6855979999999999 0.222524
12720 -0.82463841 10.08063828 1.6646883300000002 -0.242346 0.384562 -0.055597
12740 -0.39233133000000003 14.698685970000001 4.79153754 0.377774 0.765443 -0.204509
12760 0.9479795400000001 13.627208340000001 6.004916820000001 0.074227 0.636672 0.026408
12780 2.69080452 9.35090181 5.026094639999999 -0.5915020000000001 0.131099 0.228573
12800 1.9098794700000001 9.61809678 3.5839952100000003 -0.4235100000000001 -0.291109 0.172603
12820 1.21546881 11.31437331 6.5369033100000005 -0.255891 0.216308 -0.05868
12840 1.42368606 14.51711268 1.48969755 -0.34947399999999995 0.7906890000000001 -0.026955
12860 5.28056604 14.9956641 -3.0047049 -0.4821 0.433513 0.164856
12880 0.89498592 9.954452250000001 6.79706451 -0.810455 -0.106973 0.28075900000000004
12900 -4.25879568 7.38848979 4.1472756 -1.030682 -0.378115 0.345798
12920 0.81715338 9.50448717 0.52719921 -1.7002419999999998 -0.6362899999999999 0.221811
12940 -0.15328125 15.20567658 -4.488114240000001 -2.925539 -0.9944 -0.269125
12960 -4.82970825 19.64379906 2.0022406200000002 -3.5148910000000004 -1.201863 -0.623352
12980 -4.8240184500000005 16.89192729 4.25040813 -3.627656 -0.788778 -0.997479
13000 -0.6140275199999999 7.96134474 2.65847076 -3.3750400000000003 -0.473905 -1.104008
13020 2.92596984 3.63579201 0.42227145000000005 -2.910186 -0.089808 -1.123686
13040 4.115991510000001 5.537882340000001 -3.00365523 -2.2345 0.214674 -1.130039
13060 2.2269190500000002 9.849367529999999 -2.4777999900000003 -1.468078 -0.11834 -0.833702
13080 -0.39292974 11.391165990000003 6.503529690000001 -1.043657 -0.8527110000000001 -0.570218
13100 -1.1166821100000002 9.79787484 4.9223637 -0.238037 -0.6898850000000001 -0.429136
13120 -1.68923295 5.537431080000001 -1.09152927 0.429042 -0.216738 -0.249894
13140 -2.0430992700000004 4.38213681 0.7731457200000001 1.043609 0.031451 -0.244851
13160 -3.24645273 8.07674958 4.912779330000001 1.519535 0.263303 -0.030316000000000006
13180 -2.18126331 10.47416643 4.858147440000001 1.931484 0.25584 0.412679
13200 -0.44113608000000004 8.90573382 2.7006831900000003 2.386843 0.124853 0.805928
13220 -0.1038879 6.1885796399999995 1.5224825700000002 2.85623 -0.359137 1.286254
13240 -1.3817777400000002 6.67865781 1.5308701200000001 2.9719 -0.999441 1.736536
13260 -2.75891535 9.36647028 2.7274743000000004 2.882158 -1.341617 2.135862
13280 -2.3743633500000003 12.62340009 1.05964677 2.415802 -1.455868 1.808012
13300 0.94618431 15.81955695 4.24607211 1.455561 -2.802057 0.6974199999999999
13320 3.3281798400000002 17.98345656 6.10295796 1.0431469999999998 -2.562023 -0.36224
13340 5.4287657099999995 18.86631732 5.56227981 1.4408 0.162646 -0.8959969999999999
13360 4.83524109 14.842382850000002 3.4919381700000005 2.210147 2.746888 -0.468782
13380 3.58834104 11.0390949 1.88697312 1.3520219999999998 1.81759 0.102187
13400 0.6334807499999999 10.23227145 4.92026436 -0.337795 0.41522 0.085771
13420 -2.12408082 13.655206080000001 7.6929529500000005 0.079246 1.648025 -0.079539
13440 -2.55937995 13.452080220000001 4.0288689 0.019791 -0.452484 -0.347522
13460 -0.7595196300000001 5.2536277799999995 4.02977142 -0.109568 1.232682 -0.7426229999999999
13480 0.88017282 1.3913522999999999 3.4997175000000005 -0.4215680000000001 0.852556 -0.782771
13500 0.9458802000000001 0.8753757300000001 2.12737698 -0.778692 -0.7994020000000001 -1.07691
13520 0.51013962 0.23052519000000005 1.90523934 -0.49391 0.067114 -0.902979
13540 -0.10956789 -0.08876088000000001 1.5138007199999999 -0.18129 -0.45659 -0.4781760000000001
13560 0.22902426 0.16375833 2.2561038 -0.050276 -0.6013149999999999 -0.097857
13580 0.5300441100000001 0.17019369 2.05926615 -0.160915 -0.812521 0.334271
13600 -0.13741848 1.22101146 0.7881157799999999 0.331036 -1.021974 0.339044
13620 -0.92836935 5.08642614 -0.24878160000000002 0.6481140000000001 -0.467138 0.373662
13640 -0.19683765 11.184145560000001 0.12962933999999998 0.626208 -0.263965 0.466184
13660 1.58475645 17.207318790000002 0.90397188 0.486476 -0.383237 0.5775239999999999
13680 3.459751560000001 16.30469088 6.812632980000001 0.34197 -0.342842 0.723878
13700 2.9485720800000004 10.437045390000002 9.921372930000002 0.262437 -0.339903 0.8568459999999999
13720 3.17759634 3.93052365 7.293578040000001 0.144129 -0.504796 0.903233
13740 5.34403674 3.83322807 2.33753661 0.096262 -0.773889 0.83915
13760 6.36940737 10.04486121 2.5896143700000005 0.380648 -0.605755 0.637959
13780 0.6712002000000001 13.91042304 0.71341263 0.14383800000000002 -0.849989 0.382381
13800 1.6218774900000001 15.29564409 -1.37309589 -0.114028 -1.224294 0.171688
13820 -3.4983735300000003 13.13159733 7.366034699999999 -0.6150140000000001 -1.553076 -0.02367
13840 -6.646775310000001 13.157044469999999 -1.2948120900000002 -1.663735 -1.889988 -0.374531
13860 -3.1877693100000006 17.35177104 -1.3409092800000002 -1.987343 -1.170353 -0.7697510000000001
13880 -1.99370592 19.857853260000002 6.91068393 -2.029624 -0.080748 -0.956245
13900 0.022749390000000005 10.862161740000003 0.10269108 -1.994171 -0.115774 -1.284965
13920 2.47450383 7.793838990000001 -2.35281078 -1.771054 -1.096467 -1.584457
13940 1.14840765 6.945107220000001 -0.24114942 -0.914381 -0.873591 -1.586236
13960 2.20745601 7.69998672 1.24002324 -0.40964 -1.197798 -1.932672
13980 2.59350894 9.96986376 2.67313671 -0.7895949999999999 -1.554789 -1.3067540000000002
14000 1.07536239 10.30696479 2.17078623 -0.5877220000000001 -2.234951 -1.086555
14020 0.41149026 9.222626250000001 1.5669414900000003 -0.021839 -2.609786 -1.079985
14040 -1.08853722 7.2456856200000015 2.1862075500000007 -0.090878 -3.166079 -1.231442
14060 -2.14698717 5.942790090000001 2.69574876 -0.44893 -4.261101 -1.473958
14080 -2.92791222 6.702309720000001 3.65404842 -0.81371 -4.579954 -1.340433
14100 -3.29285403 8.826096240000002 2.306850930000001 -0.963973 -3.851542 -0.885217
14120 -3.8136178800000002 10.51039476 3.7491073200000002 -0.584547 -2.801016 -0.456625
14140 -3.33760725 11.511809370000002 1.69821891 -0.216974 -2.173784 -0.188874
14160 -3.2364171 10.23736284 1.01922957 -0.058999 -1.855013 -0.123017
14180 -3.6630343800000005 9.93513636 2.38484043 -0.171123 -1.7550880000000002 -0.239296
14200 -4.3989021 10.37777337 -1.13689071 -0.08651 -1.731747 -0.28894200000000003
14220 0.15971661 14.37011964 4.82327289 0.153139 -1.845294 -0.073478
14240 4.00611951 14.869026810000001 5.539079159999999 0.20578 -2.107003 0.059685
14260 3.77575128 14.48941905 -0.33335360999999997 -0.026397000000000004 -1.795287 -0.434787
14280 3.32084196 15.147150120000001 -3.2260871700000004 -0.620374 -1.696751 -1.117383
14300 2.2342569300000004 20.0247606 -0.55968993 -0.5766359999999999 -0.928224 -1.536805
14320 0.51193485 24.636068820000006 2.76999084 -0.463703 -0.538525 -1.586722
14340 -3.3970362300000003 16.224013440000004 0.8345170799999999 -0.266116 -1.6906169999999998 -1.3595389999999998
14360 -0.87553269 8.9944947 0.42691158 -0.713596 -1.570636 -1.13956
14380 1.52862363 7.687410300000001 0.9669913200000001 -0.8801030000000001 -0.13004200000000002 -1.346599
14400 4.574187180000001 8.54527518 1.05605631 0.259348 -0.182466 -0.6805479999999999
14420 4.84557102 10.014175530000001 -1.46470167 -0.22705 -0.956141 1.141569
14440 2.95769538 10.10653668 -3.4061693400000004 0.611273 -0.597692 1.085008
14460 2.07289224 6.05999997 -1.9056906 2.050949 1.587259 0.08706799999999999
14480 2.2379945400000003 3.1524435000000004 1.29091752 1.06105 -0.520408 0.549667
14500 2.2808053800000003 2.26030248 4.023336060000001 -0.006229 -1.687118 -0.064111
14520 2.0719897200000004 3.74610546 4.15251414 0.380479 -1.946687 0.043608
14540 2.12018625 5.843993580000001 3.2292361800000005 0.77063 -2.020267 0.5228550000000001
14560 1.518588 7.0982413200000005 2.9353972500000003 0.867036 -2.017074 0.440203
14580 0.33021441000000007 7.411386330000001 3.3141123000000006 1.075433 -1.806561 0.096353
14600 -0.09460764 6.97145688 4.520300850000002 1.230784 -1.213635 0.06997300000000001
14620 -0.55235205 8.212068720000001 6.261477750000001 1.178109 -0.723841 0.173663
14640 -1.25200125 10.97158248 7.0067826900000005 1.024107 -0.688623 0.291115
14660 -3.0687642 14.060859390000001 8.3899044 0.934999 -0.601917 0.263676
14680 -2.98074888 11.509562879999999 7.910146350000001 0.779434 -0.616052 0.203855
14700 -0.9018725400000001 10.89898848 6.562507409999999 0.724221 -0.56894 0.191658
14720 1.3956981300000002 16.71095241 3.76751088 0.765413 -0.431632 0.184293
14740 -0.27243351000000005 22.914198 0.61192818 0.786722 -0.353218 0.269799
14760 -3.5167869000000005 10.068513120000002 1.06009803 0.763107 -0.276872 0.378495
14780 4.78689741 -1.85568903 -1.4883535800000003 0.842759 -0.033552 0.466333
14800 11.80205784 -4.47314418 -2.23619931 0.944653 0.163922 0.544772
14820 4.01195646 3.00380238 2.5911153000000002 1.032759 0.312711 0.555879
14840 -4.7632455 19.89033417 -1.20110697 0.919062 0.498022 0.399955
14860 -8.649163080000001 20.50077123 -10.98894618 0.863118 0.380981 0.14761400000000002
14880 -1.87140465 14.794039170000001 0.33036156 0.593773 -0.067216 0.043758
14900 2.14488783 7.2471767400000004 3.10798458 0.315325 -0.778907 0.040588
14920 3.4869939300000006 7.6555278000000015 1.7354870999999998 -0.246297 -1.260838 0.367364
14940 3.25333935 10.59003234 0.63871929 -1.096064 -1.073849 0.429555
14960 3.0353905800000005 11.681404650000001 0.5397756300000001 -1.6903 -0.8874790000000001 -0.10681
14980 3.27698145 10.009231289999999 2.28574962 -2.189285 -0.9005340000000001 -0.671095
15000 2.8391415300000005 8.709337620000001 2.18590344 -2.614546 -1.416226 -0.810137
15020 1.3223487600000001 8.606352240000001 1.04257737 -2.7942560000000003 -1.028024 -1.030875
15040 0.29653668000000005 9.00557019 0.7438040100000001 -2.574726 -0.009929 -1.1438780000000002
15060 -0.17035065000000002 9.19597248 0.12259557 -2.126642 0.667221 -1.1747299999999998
15080 0.41822973 8.83972233 0.43693740000000003 -1.891318 -0.201578 -1.228589
15100 1.0659349800000002 8.477772569999999 0.82284318 -2.075255 -1.522791 -1.267705
15120 1.4636520000000002 8.108043480000001 0.7586269200000002 -2.088254 -2.029862 -1.256464
15140 1.43671374 8.1730053 0.97627158 -1.888463 -2.149136 -1.43865
15160 1.51185834 8.60754906 1.3774319099999999 -1.760574 -2.4361740000000003 -1.695898
15180 1.1220678 9.23115114 2.0838205800000003 -1.6987150000000002 -2.62951 -1.885362
15200 0.45549792000000006 9.980350650000002 2.14174863 -1.459623 -2.7055740000000004 -1.985076
15220 -0.45670455000000004 10.753633709999999 1.28238282 -1.1511049999999998 -2.904777 -1.986938
15240 -1.0629429300000002 11.285031600000002 0.41853384000000005 -0.865092 -3.024417 -1.886511
15260 -1.61663895 11.20689495 0.89648685 -0.621334 -3.172072 -1.669906
15280 -2.2180900500000007 11.98377828 0.11360961 -0.482419 -3.111772 -1.419049
15300 -2.0550772800000003 10.253078460000001 2.33140536 -0.30759200000000003 -2.854683 -1.127601
15320 -0.76580784 10.82489355 3.72574971 -0.033282 -2.353783 -0.8881129999999999
15340 -1.38866436 14.06220336 0.20687328 0.155212 -1.707752 -0.6376609999999999
15360 -0.29907747 15.34743108 -1.63460106 0.326276 -1.2519 -0.498181
15380 1.0976703300000001 15.143412510000001 1.5039220500000001 0.45184 -1.219739 -0.391591
15400 0.0113796 14.383892880000001 0.31000581 0.489794 -1.459953 -0.292742
15420 -0.00359046 13.823457390000002 -0.99976653 0.422525 -1.862733 -0.208306
15440 2.20297284 13.95233136 -1.0295595 0.325997 -2.18847 -0.183994
15460 2.83929849 12.85840845 -1.7191730700000003 0.368645 -2.100688 -0.328018
15480 0.7096750199999999 11.192072040000001 -1.1180260800000001 0.106488 -1.420906 -0.667211
15500 -0.7062317100000001 10.92877164 0.34473321000000007 -0.160615 -0.787443 -1.139906
15520 -0.80233047 11.04657993 -0.14938668000000002 -0.225217 -0.708387 -1.4064450000000002
15540 0.38335518 10.15054434 -1.5952335300000002 0.009417 -1.332927 -1.537534
15560 1.1563439400000002 8.951536710000001 -1.619631 0.569246 -1.018106 -1.631235
15580 1.4882064300000002 7.730819550000001 -0.75413394 -0.090853 -0.117198 -1.513087
15600 1.75449888 7.0383610800000005 -0.23261472000000002 -1.200601 -1.103941 -1.276019
15620 1.6522688700000001 7.31363949 0.07708698000000001 -0.615679 -1.228265 -0.264441
15640 1.5364029600000002 8.360415540000002 0.06452037000000001 0.529914 -1.032667 0.708983
15660 1.53955197 8.88672204 0.3379937400000001 1.375171 0.587221 0.608126
15680 1.5518242800000004 7.930060650000001 0.92552445 1.662066 2.207431 0.112398
15700 1.8901221300000002 6.537501720000001 2.3912757900000003 -0.128376 -0.019916 0.296095
15720 2.24083944 5.74265628 2.77313004 0.331858 -1.255834 -0.318676
15740 1.99834605 6.19561341 3.16875753 1.195794 -0.283364 -0.236975
15760 1.9375731 7.4818908 3.30976647 1.25581 -0.615099 0.085404
15780 2.18769867 8.06193648 3.2277352500000003 0.8986729999999999 -0.6241180000000001 0.252768
15800 1.79462178 7.90251417 3.7312923600000003 0.854088 -0.687314 0.37752
15820 0.7731457200000001 7.43803029 4.77386973 0.871934 -0.6484880000000001 0.242999
15840 -0.033383430000000006 8.1786951 6.145915950000001 0.837773 -0.474492 0.183785
15860 -1.19975319 9.71359713 6.93477729 0.719931 -0.358974 0.168927
15880 -2.6084790000000004 11.88737541 6.949453050000001 0.541408 -0.248434 0.119468
15900 -2.15971074 10.97906751 6.88268619 0.373148 -0.080045 -0.019724
15920 -0.8095212000000002 9.63755982 5.8562757 0.238584 0.173663 -0.2122
15940 0.23860863000000002 11.11543632 4.637510730000001 0.103128 0.205889 -0.4279
15960 -0.44053767000000005 16.22610297 2.0817212400000003 -0.082065 0.116744 -0.618155
15980 0.08308088999999999 17.70667722 -0.49951539 -0.310964 0.431918 -0.649
16000 3.1343342400000003 10.937002230000001 2.3312484 -0.473317 0.743081 -0.534096
16020 9.533524770000001 -0.79170624 2.05013304 -0.528119 0.474706 -0.239306
16040 7.97212593 -0.8878050000000001 0.6393177000000001 -0.321431 0.589381 -0.058548
16060 -0.7607164500000001 9.01979469 0.84573972 -0.530586 1.02603 0.15093900000000002
16080 -6.487657110000001 17.21689335 -5.77963017 -0.490962 1.3983290000000002 0.253288
16100 -3.48535566 15.8860197 -1.67217336 -0.367321 1.166496 0.047214
16120 -0.52510968 11.776905 2.9332979100000003 -0.316641 0.8476540000000001 0.08429600000000001
16140 0.7036909200000001 8.068675950000001 1.9815807600000002 0.01017 0.187317 0.300001
16160 1.4591688299999999 9.49385313 0.55968993 0.233806 0.249944 0.694589
16180 1.58401089 10.034080020000001 0.71072469 -0.024988 0.024307 0.602271
16200 1.75779504 9.513021870000001 1.2234051000000001 -0.775675 -0.4194100000000001 0.062416999999999986
16220 1.4456898900000001 9.314379180000001 1.37534238 -1.655303 -0.263402 -0.625452
16240 0.8496342900000001 8.83807425 1.6302552300000002 -2.6253450000000003 -0.31245500000000004 -1.103251
16260 0.30252078000000004 8.56863279 1.4395586400000002 -3.169392 -0.550293 -1.359915
16280 -0.42301701 8.80708446 1.5679911599999998 -3.021904 -0.31514200000000003 -1.419007
16300 -1.3379172300000002 8.87789304 2.16599895 -2.63797 -0.406682 -1.237815
16320 -1.73863611 8.49602898 2.0011909500000002 -2.126448 -1.123769 -1.109409
16340 -1.33537644 7.9179354900000005 2.3863413600000003 -1.514173 -0.413334 -1.081473
16360 -0.6412698900000001 7.9079096700000004 4.09967748 -1.36434 -0.844095 -1.380045
16380 -0.7481400300000001 8.09920467 3.6597382200000004 -1.236515 -1.221048 -0.997314
16400 -0.12857967 7.2073579500000005 2.17303272 -1.051574 -0.7269329999999999 -0.5821850000000001
16420 0.9078664500000001 5.6576330100000005 2.76489945 -0.655938 -0.187465 -0.236146
16440 1.7890791300000002 4.303254600000002 0.89708526 -0.180609 0.133933 -0.036685
16460 1.21606722 4.10625999 2.3773554000000003 0.243319 0.314225 0.06325399999999999
16480 0.52315749 7.49506563 1.6992685800000003 0.6117130000000001 0.207346 0.363998
16500 -1.4751787500000002 10.057290479999999 0.58138965 0.995299 0.039215 0.784568
16520 -3.04376832 9.07054182 0.7973960400000001 1.595171 0.362157 1.288272
16540 -2.5852783500000003 7.594607700000001 0.9936352800000001 2.193925 0.7242069999999999 1.603911
16560 -2.6589220200000003 6.596930700000001 1.12596237 2.670007 1.099324 1.689009
16580 -3.31949799 10.223442450000002 1.5471841500000003 2.927363 0.892915 1.668638
16600 -4.2270603300000005 13.209881130000001 1.5224825700000002 2.779363 0.233125 1.892776
16620 -2.99257974 12.9248712 2.8530717300000004 2.225417 -0.268073 1.437692
16640 -0.8155053 14.026877550000002 5.239256129999999 1.697366 -1.3058610000000002 0.617075
16660 1.05770439 17.90996004 7.215147090000001 1.299211 -0.673909 0.102874
16680 3.21636546 18.379231200000003 5.07535065 1.531439 1.999511 0.007067
16700 2.5950000600000007 13.011689700000002 1.43252487 1.7256349999999998 1.6944580000000002 -0.06489299999999999
16720 3.71856879 13.40312832 3.8395162800000002 1.103094 0.8912680000000001 0.200979
16740 3.0690683100000005 17.10642294 9.957444300000002 0.399637 1.863538 -0.172648
16760 -0.18831276000000002 14.08720905 6.4553233500000005 -0.13624 -0.26800100000000004 -1.058148
16780 -1.5521185800000001 9.28534158 3.39045372 0.564984 0.46253 -1.337265
16800 -0.8535288600000001 4.95290223 3.0789469800000004 -0.288402 0.995155 -0.5950850000000001
16820 2.21479389 2.59440165 3.2606674200000003 -1.414734 -0.053587 -0.290756
16840 3.56498343 3.77754651 3.0975075 -0.733355 -0.089385 -0.719648
16860 2.41447644 5.0407703999999995 2.6250873300000004 -0.382682 -0.445058 -0.5233949999999999
16880 1.66902435 4.252654620000001 2.28125664 0.478544 -0.002207 -0.129114
16900 1.8657246600000001 2.4430725900000003 1.7598943800000002 0.226616 -0.249516 0.130089
16920 2.43932517 0.9322639200000001 1.91901258 0.678431 -0.41932 -0.15495699999999998
16940 1.72246923 -0.10059174 2.04668973 0.4311970000000001 -0.352425 -0.152497
16960 0.024848730000000003 0.25042968 1.9679546700000001 0.123539 -0.652816 0.10959
16980 -1.38686913 2.46522357 1.44584685 0.017483000000000002 -0.609333 0.249799
17000 -2.8289685600000003 7.69010805 1.5425440200000002 0.125751 -0.143581 0.365326
17020 -1.5058644300000001 13.66178859 4.174223670000001 0.049009 -0.09232 0.399976
17040 1.4964370200000001 15.764620950000003 4.31163234 -0.146872 -0.058368 0.337675
17060 2.2020703200000002 11.710452060000001 5.18716503 -0.161719 0.12520699999999998 0.263629
17080 1.4223420900000001 7.66765296 5.4588529800000005 -0.040205 0.345266 0.271673
17100 1.97319321 6.55890714 3.16142946 -0.047102 0.002253 0.27633800000000003
17120 1.76841927 8.71068159 5.658084270000001 0.085589 -0.150529 0.273187
17140 0.94962762 15.13801701 3.6597382200000004 0.295207 -0.054253 0.257437
17160 2.1923388000000004 18.592088580000002 -1.37175192 0.318225 0.037461 0.212615
17180 -2.74064913 13.86895617 0.94408497 -0.294727 -0.396872 0.136251
17200 -4.731363 7.5658644 3.2398604100000004 -1.286362 -1.068559 -0.194555
17220 -0.46762308 16.990272540000003 8.25368274 -1.900849 -0.815258 -0.668121
17240 -2.89976733 23.59228482 5.4049568400000005 -2.544906 -0.702479 -0.87359
17260 -0.49487526 10.174490549999998 -0.25581537 -3.175558 -0.638968 -1.024423
17280 3.1524435000000004 4.80755727 -2.10147858 -3.062975 -0.123539 -1.3469
17300 0.35161983 6.712492500000001 -3.1275947700000004 -2.863474 -0.379831 -1.363338
17320 -3.3377544 12.031827660000001 6.26551947 -2.213971 -0.109834 -1.514039
17340 -0.8006823900000002 12.022096140000002 2.7680484599999997 -1.653777 -0.250483 -1.192684
17360 -0.69575463 10.294986780000002 -0.43589754000000003 -1.252676 -0.350267 -0.5637770000000001
17380 1.2880726200000001 7.7945943600000005 0.9249260400000001 -0.776079 0.171835 -0.207535
17400 -0.031588200000000004 5.835910139999999 3.9730401900000003 -0.333094 -0.036288 -0.226607
17420 -0.8608569300000001 6.64992432 4.0920453000000006 0.072429 -0.475578 -0.212529
17440 -1.46754657 7.65433098 2.87103384 0.467392 -0.493626 -0.037763
17460 -2.5662665700000002 7.835305860000001 3.09841002 0.8251430000000001 -0.366072 0.25406
17480 -2.01720087 6.77955366 2.23455123 1.104536 -0.104031 0.548369
17500 -1.1078433 6.4984383 0.23052519000000005 1.441267 0.050405 0.796214
17520 -1.15649109 6.456225870000001 0.84289482 1.91791 0.196001 1.002319
17540 -0.9159498899999999 7.7529803400000015 2.63900772 2.409961 0.748219 1.273172
17560 -1.88068491 8.91021699 4.0288689 2.795775 0.800742 1.656087
17580 -3.13134219 9.75685923 0.42377238 2.785735 0.024059 1.689059
17600 -3.74521275 9.94472073 -1.3154621400000002 1.774923 -0.759053 1.001476
17620 -2.40310665 12.595255200000002 3.6077942700000003 1.362812 -1.459205 0.360698
17640 -0.29010132000000005 15.04610712 5.122948770000001 1.327566 -0.690325 0.187483
17660 2.5062391800000006 16.53251832 4.44709863 1.377486 0.869166 -0.103655
17680 4.54694481 17.6072823 5.58743265 1.412697 1.160605 -0.288585
17700 5.88336111 17.729730720000003 5.8645062900000005 0.71617 0.67001 -0.34196
17720 5.04990351 17.78825718 6.048326070000001 -0.08128200000000001 2.660637 -0.622478
17740 0.78272028 14.294229480000002 5.62859541 -0.219234 1.071989 -0.954691
17760 -0.6860231099999999 6.915167100000001 2.3882837400000003 -1.12601 -0.356383 -0.742345
17780 -0.6316855199999999 3.36096486 4.89002994 -1.154732 0.727811 -0.387149
17800 -0.19010799 5.8368126600000005 5.71615947 -0.440395 0.41509 -0.59113
17820 0.15567489 8.32853304 3.58534899 0.285215 -0.349118 -1.384112
17840 0.78556518 5.8745321100000005 1.93621932 -1.094378 0.791478 -1.175157
17860 1.7865383400000001 3.6188697600000004 1.63429695 0.058054 -0.039174 -0.376627
17880 1.9417619700000002 2.30161239 1.3491398700000001 0.303682 -0.490299 0.071116
17900 1.6913322899999998 2.02169385 1.3159134000000001 -0.39366 -1.748179 0.622264
17920 1.17116685 1.79087436 1.17939744 -0.086439 -0.309314 0.170708
17940 0.6036975900000001 1.4069207700000002 2.03247504 0.164742 0.623474 0.051626
17960 0.31314501 1.2434665500000002 3.6504579600000002 -0.122661 0.642143 0.16069
17980 -0.41089185000000006 3.3319174499999997 3.7955086200000006 -0.039491000000000005 0.5220279999999999 0.289612
18000 -0.5041555199999999 8.95347909 1.10934423 -0.015011000000000004 0.551599 0.332474
18020 0.17139051000000002 12.228518160000002 -0.58887468 -0.134555 0.8192309999999999 0.374024
18040 0.5773479300000001 12.97621674 2.4200190900000003 -0.147877 0.952391 0.385511
18060 0.9196875 9.54894609 5.42651922 -0.169267 0.900429 0.34483600000000003
18080 1.6067602800000003 7.6074784200000005 5.454055889999999 -0.310023 0.608255 0.272656
18100 3.21172533 7.89353802 5.19000993 -0.260923 0.094798 0.228792
18120 2.77582779 11.596538340000002 9.0901422 -0.4219020000000001 -0.188774 0.154324
18140 -0.5918667300000001 15.976281510000002 2.83001823 -0.541076 -0.388498 0.120632
18160 0.18905832000000003 14.69808756 -3.59626752 -1.13733 -0.947467 -0.236398
18180 -1.20334365 11.182046220000002 5.256168570000001 -1.859234 -0.993536 -0.6099180000000001
18200 -3.03823548 10.35756477 3.21187248 -2.4450380000000003 -0.792325 -0.8695729999999999
18220 -2.65442904 13.728104190000002 1.9353266100000002 -2.495046 -0.465459 -1.048734
18240 -4.468209750000001 19.991524320000003 -2.8765666800000007 -2.095191 -0.310132 -1.078187
18260 -3.5046617400000004 13.3034391 3.7115350200000004 -1.465078 -0.264948 -0.936043
18280 1.37668635 6.918012000000001 1.3566249000000001 -1.083923 -0.25106300000000004 -0.743254
18300 3.00380238 5.7490916400000005 -2.23110792 -0.528421 -0.137543 -0.310094
18320 2.78360712 10.33705206 2.17168875 -0.087241 0.223222 -0.069262
18340 1.8390708900000001 15.892896509999998 6.34829625 0.151643 -0.060875 -0.092866
18360 -1.0699767 10.338700140000002 2.42959365 0.388726 -0.078465 -0.16169
18380 -0.5462109900000001 5.240148840000001 3.1807355400000006 0.753879 -0.152587 -0.057564
18400 -2.03546709 6.54469245 5.14016532 1.006625 -0.351749 0.244627
18420 -1.9959524100000001 7.60718412 3.4937334000000004 1.1571870000000002 -0.410292 0.634587
18440 -1.9862208900000002 7.395817860000001 3.00559761 1.382142 -0.239333 0.843174
18460 -1.07387127 7.57080864 3.441348 1.7743099999999998 0.350729 1.060938
18480 -0.5870794500000001 8.96620266 2.3596974 2.075273 1.023401 1.477717
18500 -1.68834024 9.17396865 2.55997836 2.248148 0.872391 1.795311
18520 -2.8018733399999998 7.27682256 2.3456200500000004 1.734009 -0.789794 1.531068
18540 -4.8671334 7.174435590000001 2.6643077100000006 1.522468 -1.6869330000000002 0.694322
18560 -6.11897769 9.76030254 2.4438181500000002 1.29486 -0.934866 0.097837
18580 -3.8158643700000003 13.62646278 3.55765536 0.720729 0.039502 0.152398
18600 -0.7369173900000001 14.124477240000001 4.159999170000001 0.8916440000000001 1.304331 0.184018
18620 0.75846996 13.97822976 5.939346780000001 1.044425 1.750457 0.107602
18640 2.5036983900000003 15.27333615 6.05640951 0.706461 0.918332 0.1704
18660 4.617743580000001 16.22506311 6.74736705 0.491629 0.371473 0.183488
18680 3.11637213 15.541580790000001 5.83501743 0.6802239999999999 0.219937 0.08672300000000001
18700 0.40775265 10.57415976 4.77506655 0.8046449999999999 -0.467108 -0.035442
18720 -0.3526695 6.605759700000001 3.962259 0.327364 -0.092536 -0.053142
18740 -0.40894947000000004 5.79983877 4.74229134 0.31255 1.3836700000000002 -0.505927
18760 0.7201521000000001 8.278982730000001 3.5013655800000003 0.561832 0.6696979999999999 -0.6624359999999999
18780 0.83660661 8.29230471 3.24241101 0.5836720000000001 1.330858 -0.587287
18800 1.23462774 6.8156250300000005 2.8189427400000002 0.273646 -0.179902 -0.5351739999999999
18820 1.96151931 4.78764297 2.03965596 -0.945325 0.034731 -0.67215
18840 1.6359450300000002 3.14166231 1.6570561500000003 -0.8398530000000001 0.849598 -1.012152
18860 0.8586104400000001 4.14233136 2.2709267100000003 -0.295031 -0.379214 -0.01653
18880 -0.18606627000000003 4.21583769 3.2141189700000004 0.356914 0.5126890000000001 0.150319
18900 0.19100070000000002 3.97034244 3.5847407700000002 -0.661024 -1.3482610000000002 0.211823
18920 0.56282913 4.19398101 2.7210389399999997 0.6811520000000001 0.098855 -0.003915
18940 0.21555513 8.0719623 -0.062116920000000006 0.643389 0.555685 0.072148
18960 -0.33679692000000006 12.32566659 0.62046288 0.218091 0.403882 0.307586
18980 0.08098155 11.896959780000001 3.73218507 -0.080264 0.320481 0.377179
19000 1.4060280600000001 7.4862366300000005 5.982157620000001 -0.200179 0.072245 0.221768
19020 1.3973462100000003 6.899451480000001 6.91188075 -0.209704 0.10523699999999997 0.237682
19040 0.09909081000000002 6.79572054 4.458478230000001 -0.233343 0.07015700000000001 0.239698
19060 0.26165232000000005 6.80155749 1.52652429 -0.372488 0.230342 0.262022
19080 0.5258552400000001 7.35540066 1.57682016 -0.380539 0.386769 0.310904
19100 0.5245112700000001 7.86269538 1.7115408900000002 -0.386514 0.457197 0.286202
19120 1.48027014 9.16618932 3.06532089 -0.416961 0.326287 0.282953
19140 1.27250415 13.092975359999999 6.72610878 -0.441561 0.037724 0.006481000000000001
19160 1.2777426900000002 16.41471984 3.05364699 -0.572013 -0.321654 -0.051653
19180 2.259252810000001 11.253600359999998 0.50385141 -1.285362 -0.611549 -0.19727
19200 -1.80555012 6.614892810000001 1.09003815 -2.226112 -0.897825 -0.783519
19220 -2.8897415100000003 8.69900769 -0.18396693 -3.0228740000000003 -1.0212450000000002 -1.195919
19240 -1.70944155 27.834020910000003 0.6647648400000001 -3.173731 -1.026514 -1.345448
19260 -6.85469826 22.65463521 8.689129020000001 -3.097702 -0.441072 -1.296529
19280 -0.08607293999999999 6.821167679999999 2.01975147 -2.737634 -0.392938 -1.125297
19300 5.00454207 4.20594921 -5.89608468 -1.874706 -0.30167 -0.987995
19320 1.0124901 8.55201465 -6.89555691 -0.817313 0.13602 -0.804913
19340 -0.30462012 11.7390384 7.97332275 -0.3558 -0.368572 -0.493395
19360 0.46493514 11.3863689 1.47937743 0.26192 0.020677 -0.335755
19380 1.6256151 8.42448465 -1.6548096600000002 0.962796 0.073353 -0.263629
