time Ax Ay Az Gx Gy Gz
20 3.25901934 10.797798329999999 -0.97612443 1.725393 1.282602 1.96205
40 3.5501703300000003 11.21647932 -0.5273561700000001 1.507964 1.374796 2.005278
60 3.53295378 11.76702633 -0.05134554 1.591321 0.971559 1.807688
80 2.6081748900000004 11.33308098 -0.0038945700000000004 1.4993379999999998 0.309716 1.431879
100 1.5819115499999998 10.75393782 0.85068396 1.1233229999999998 -0.226265 0.996242
120 0.6126737400000001 10.011781890000002 2.03367186 0.733823 -0.842275 0.8714649999999999
140 -0.20537235 8.81591346 2.56476564 0.393372 -1.211376 0.762738
160 -0.64515465 7.583679360000001 1.7064495 0.095593 -1.240154 0.758558
180 -0.18142614 7.402106070000001 -0.40969503 0.015593 -1.246228 0.748393
200 0.53288901 10.83282003 -0.54336609 -0.017741 -1.081998 0.732995
220 -0.36479466 13.655951640000001 -0.43274853 -0.100317 -0.707774 0.726597
240 0.01272357 13.74695901 -0.7165616400000001 -0.197047 -0.376305 0.502238
260 1.3482471600000001 13.15583784 -1.55361951 -0.334846 -0.230839 0.208397
280 1.15559838 11.98602477 -2.5246525500000003 -0.584461 -0.303257 -0.112653
300 2.2267719 11.305387350000002 -2.15431524 -0.8356020000000001 -0.471571 -0.42718
320 2.31942735 9.949812120000002 -1.84207275 -1.073395 -0.772912 -0.5203220000000001
340 3.72320892 9.16963263 -2.33110125 -1.319957 -0.951355 -0.437426
360 3.7489503600000003 8.28900855 -2.9788064999999997 -1.155576 -0.927343 -0.191686
380 3.9152592900000003 7.318426770000001 -2.97775683 -0.683474 -0.5559810000000001 0.302518
400 3.65390127 7.115605020000001 -2.60668377 -0.009848 -0.113386 0.657033
420 3.2322282300000005 6.515654850000001 -1.9148139000000002 0.29893800000000004 0.169127 0.602212
440 3.1103782200000003 5.79669957 -1.71828036 0.19578 0.282137 0.402657
460 3.2373196200000005 5.4660339 -2.11135725 -0.10988599999999997 -0.005764 0.470326
480 3.1575348900000004 5.1063306299999995 -1.70735202 -0.689868 -0.216541 0.40352
500 2.9244689100000003 4.2050564999999995 -0.85382316 -0.450182 -0.388628 0.074265
520 3.03283998 4.17855969 -0.55354887 0.047966 -0.157235 -0.147946
540 3.77575128 5.169350070000001 -1.06323723 -0.070255 0.124306 -0.388415
560 4.33468584 6.00356304 -2.55758472 -0.229868 -0.105002 -0.713975
580 5.03178444 8.88103224 -4.25954124 -0.32910700000000004 -0.6456770000000001 -1.0152139999999998
600 6.261781860000001 12.05114355 -4.8996143100000005 -0.738532 -1.1000370000000002 -1.054879
620 6.26611788 14.463373500000001 -5.4113922 -1.090856 -0.973838 -0.873768
640 4.1671800900000004 11.294459009999999 -5.86570311 -0.969157 -0.182905 -0.571625
660 1.9263406500000002 9.74593089 -5.84429769 -0.8481059999999999 0.427083 -0.306642
680 3.44463435 13.25957859 -2.48363694 -0.494169 0.667412 -0.241452
700 3.3712849800000004 15.238157490000003 -1.21816656 -0.295114 0.793528 -0.250906
720 1.13508567 13.832580690000002 -0.50579379 -0.378555 0.779825 -0.215151
740 1.30873248 9.29596581 -1.31665896 -0.502704 0.6472829999999999 -0.261782
760 2.0713913100000005 7.32127167 -1.0841913900000002 -0.444926 0.513544 -0.433191
780 3.3543725400000004 7.553140830000001 -0.55953297 -0.28882800000000003 0.530274 -0.489806
800 3.07909413 8.01149346 -0.22063671 -0.13796 0.731731 -0.384325
820 3.4500298500000004 7.44940989 0.7044364800000001 0.021422 0.7242310000000001 -0.245401
840 3.69027675 9.230699880000001 1.58011632 0.14035799999999998 0.573829 -0.03287
860 2.46462516 11.269011870000002 0.69096735 0.273172 0.448851 0.203227
880 1.24002324 10.416836790000001 0.68812245 0.347299 0.328313 0.445317
900 1.45273347 8.62565832 0.25252902000000005 0.398062 0.356385 0.573823
920 2.11345659 8.71847073 -0.44802270000000005 0.391695 0.34370500000000004 0.5534979999999999
940 2.5957554300000005 8.8701039 -1.10934423 0.449567 0.058436 0.447446
960 2.72538477 8.62820892 -0.37496763 0.45236 -0.154138 0.324892
980 1.96211772 8.77130739 0.06361785 0.4302 -0.349067 0.07395499999999999
1000 1.6962765300000002 9.24162822 0.09939492000000001 0.394039 -0.402 -0.243492
1020 1.7396857800000003 8.99688834 -0.062116920000000006 0.294756 -0.373173 -0.439707
1040 2.3683792500000003 8.23093335 -0.57435588 0.220908 -0.391161 -0.406016
1060 2.6102742300000004 7.520365620000001 -0.92956617 0.18941 -0.588787 -0.241477
1080 3.2334250500000006 6.202205730000001 -0.81400437 0.357376 -0.918601 0.039993
1100 3.90268287 5.132680290000001 -1.17745506 0.8024859999999999 -1.173206 0.453626
1120 4.36806927 5.70223908 -1.59777432 1.510008 -1.14452 0.924276
1140 4.68585441 7.2633436200000006 -1.5651462600000001 2.171446 -0.8592059999999999 1.460505
1160 4.063302 8.78433507 -1.68683931 2.591663 -0.594366 1.99828
1180 4.01989275 10.304571150000001 -0.9282222 2.625567 -0.06335 2.107863
1200 3.72395448 9.75072798 -0.09026181000000001 2.3287560000000003 0.417795 1.922507
1220 4.22196894 8.46744264 0.17662905 1.790829 0.883864 1.720531
1240 4.73390379 8.33406588 -0.02185668 0.419586 1.00475 1.184165
1260 4.9075407900000005 7.01815248 -0.17453952 -0.494706 1.335585 1.0278040000000002
1280 4.75217001 6.9231033900000005 -0.7502393700000001 -0.5510689999999999 0.34741500000000003 0.709278
1300 4.67627985 7.32351816 -0.9710330400000001 -0.6788810000000001 -0.076351 0.234638
1320 3.83293377 7.28864361 -0.58004568 -0.8373010000000001 0.287224 -0.239089
1340 2.61356058 7.61316822 -1.2397191300000001 -1.000517 0.359737 -0.648383
1360 1.7595902700000001 8.92953288 -1.94790303 -1.033191 0.041905 -1.057333
1380 2.02528431 9.846669780000001 -2.67030162 -1.068468 -0.079097 -1.40246
1400 2.14713432 10.56817566 -3.2055842700000006 -1.130425 -0.057841 -1.602677
1420 0.36763956000000003 10.78971489 -2.29218498 -1.297548 -0.355908 -1.510527
1440 -0.09759969 10.11266793 -2.8648927800000004 -1.487998 -0.515834 -1.311895
1460 2.21644197 8.33047542 -5.313949470000001 -1.445973 -0.310835 -1.198633
1480 7.70582367 13.186974779999998 -6.2565433200000005 -1.285306 -0.210875 -0.761804
1500 5.873335290000001 12.93954696 -5.337150120000001 -1.135377 -0.203356 -0.641126
1520 7.606732860000001 11.02861782 -4.82536242 -1.125023 0.023273 -0.5815229999999999
1540 7.9138937700000005 8.31356298 -3.6920719800000006 -1.201153 0.014709 -0.505132
1560 6.12196974 6.1574427 -3.67201053 -1.158318 -0.059458 -0.376551
1580 5.128481610000001 4.63555854 -3.68803026 -1.320261 0.003904 -0.363877
1600 6.389017560000001 3.9332214000000003 -3.36036645 -1.275922 -0.13566199999999998 -0.39864
1620 5.417533260000001 3.6220187700000004 -3.2427053100000007 -0.89212 -0.532779 -0.256581
1640 4.972355460000001 4.07467179 -2.86085106 -0.102684 -0.5449069999999999 0.226444
1660 5.27727969 5.137918830000001 -3.21366771 -0.5487390000000001 -1.446873 0.5321319999999999
1680 4.495746420000001 6.14277675 -3.83592582 -0.887841 -1.403214 0.29790300000000003
1700 3.77170956 7.236405360000001 -3.9535771500000005 -0.067079 -0.721645 0.437359
1720 3.65210604 11.47408992 -4.247720190000001 0.872143 0.009411 0.619239
1740 1.20634551 9.79413723 -3.1153224600000002 1.077636 0.349642 0.339296
1760 0.3505701600000001 6.790030740000001 -1.22474907 0.980391 0.238324 0.023634
1780 -0.34083863999999997 6.49992942 -0.31374342 0.407599 -0.118083 -0.127325
1800 -0.08217837 6.2965092600000006 0.16450389 -0.377248 0.088479 -0.486653
1820 0.7881157799999999 5.26260393 1.11817323 -0.7124060000000001 0.21979 -0.7989470000000001
1840 1.9327760100000002 5.2019781300000005 0.30761217 -0.6769189999999999 0.013129 -0.8304809999999999
1860 3.16801197 9.986030640000001 -1.3187583 -0.22667 0.184529 -0.660913
1880 5.7207996 19.5912567 -1.1461709699999998 0.204393 0.6508609999999999 -0.4373770000000001
1900 6.40697967 21.064797180000003 2.0115208800000004 0.434428 0.736696 -0.257487
1920 3.9808195200000003 17.7948495 -1.3910580000000001 0.734705 0.5506260000000001 -0.073554
1940 2.2360521600000003 13.51374588 1.4575207500000003 1.023663 0.292926 0.1841
1960 3.8495421 7.647150060000001 -0.14325543000000002 1.401489 -0.036839 0.537538
1980 4.32031419 8.3554713 -0.54292464 2.130993 -0.243088 0.866569
2000 4.76728722 6.7000632300000005 -0.9830012400000001 2.962443 -0.333514 1.180141
2020 4.96427202 7.174877040000001 -1.43281917 3.473351 -0.199598 1.346976
2040 5.107380300000001 10.205921790000001 -1.04617764 3.25005 0.263271 1.405712
2060 5.129236980000001 12.209506380000002 0.22931856000000003 2.988246 0.723006 1.482342
2080 4.21463106 9.75836016 0.7815234600000001 3.09943 0.826801 1.536397
2100 3.0419730900000004 7.61077458 0.12304683000000001 2.3530740000000003 0.971874 1.335513
2120 3.85253415 7.503296220000001 -1.13852898 -0.934728 2.166186 1.487274
2140 3.83233536 7.259606010000001 -2.3426280000000004 -1.229184 1.233857 1.263154
2160 3.8336793300000003 7.10347986 -1.9928034 -0.710288 0.309437 0.488161
2180 3.21441327 7.90894953 -1.02626334 -0.920111 0.762034 -0.091793
2200 2.6241946200000004 7.037468370000001 -0.29189655000000003 -1.150562 0.19329 -0.186677
2220 1.69522686 7.00812666 -0.9488722500000001 -1.358303 -0.5566909999999999 -0.532203
2240 1.5208344900000001 6.551422110000001 -0.67224987 -1.111913 -0.798558 -0.999122
2260 0.9096616800000001 5.9749767 -2.21689323 -0.938751 -0.725877 -1.4755
2280 -0.40744854 6.088135050000001 -3.3632015400000004 -1.390966 -0.815423 -1.600322
2300 -1.50093 6.605161290000001 -2.0710970100000003 -1.94299 -0.731142 -1.419483
2320 0.11616021000000001 6.97594005 -2.30101398 -2.361902 -0.356941 -1.129128
2340 3.59282421 11.11094334 -5.87034324 -2.192439 -0.6473369999999999 -1.381809
2360 7.29029169 20.39762889 -4.39695972 -1.571881 -1.052678 -0.987054
2380 13.957726860000001 14.54779836 -7.83695394 -1.267013 -0.669887 -0.542103
2400 11.927949570000001 13.80758481 -9.3212658 -1.261278 -0.22615900000000005 -0.424059
2420 10.07494848 9.649233720000002 -6.13065159 -1.015682 -0.406023 -0.412499
2440 6.473138310000001 4.744537830000001 -5.2617112200000005 -0.64549 -0.316079 -0.316025
2460 5.279820480000001 3.7050996600000006 -4.7894382 -0.710598 0.253663 -0.21466
2480 4.474645110000002 2.8862982 -2.98509471 -0.6672100000000001 1.065598 -0.034868
2500 3.3895512 1.81182852 -1.90613205 -0.425267 1.527983 0.007890000000000001
2520 4.9470652799999995 1.2320869500000002 -1.46589849 -0.136344 0.897841 -0.101448
2540 6.38617266 2.9413813500000003 -1.3108220099999999 -0.033813 -0.621121 -0.220562
2560 6.2945570700000015 4.0122605700000005 -1.52054019 -0.491636 -1.170087 -0.26899
2580 4.08889629 4.837938840000001 -3.46768785 -1.065856 -1.994388 -0.093552
2600 4.26912561 11.56645107 -4.308787440000001 -0.731518 -1.7478669999999998 0.304778
2620 4.55652918 12.03048369 -3.1623221700000004 -0.169201 0.154086 0.7730819999999999
2640 1.16143533 7.380406350000001 -2.2674834 0.363243 1.100398 0.757428
2660 -1.68834024 7.556888250000001 -2.39786811 0.589224 0.5329689999999999 0.471314
2680 -2.32780509 8.566984710000002 -1.58610042 0.6873520000000001 0.259927 0.203157
2700 -1.19197386 10.378371779999998 -0.0981981 0.521824 0.528357 -0.446754
2720 -0.12768696000000002 10.92383721 0.80996265 0.323936 0.823109 -0.99117
2740 0.81131643 9.34881228 0.0896634 0.125406 0.86605 -1.1678
2760 0.46538640000000003 8.9828208 -0.19324719 -0.017529 0.743713 -0.8204020000000001
2780 2.0929438800000004 9.146883240000001 -0.27288477000000005 0.168786 0.739643 -0.4975600000000001
2800 5.8784266800000005 10.73956617 0.17812998000000002 0.6453979999999999 0.573386 -0.359422
2820 8.78882805 13.52153502 2.25970407 1.172975 0.404609 -0.16858199999999998
2840 7.62993351 14.71709934 4.47314418 1.47607 0.39113 0.274728
2860 2.8930376700000004 10.31475393 1.84880241 1.956276 0.090682 0.6673
2880 0.8271792000000001 13.41166302 -1.0704279600000002 2.63542 -0.289481 1.108366
2900 0.37855809 12.06206208 -2.3460713100000006 3.071098 -0.246929 1.543984
2920 3.51319644 9.59549454 -2.2469805000000003 2.899134 0.099272 1.696164
2940 3.91675041 8.91351315 0.04041720000000001 2.364346 0.490161 1.909844
2960 4.40399349 8.04262059 -0.8069706000000001 1.929213 0.37415 1.994548
2980 5.591621520000001 9.94127742 -0.5953100400000001 1.84937 0.238775 1.818975
3000 7.546852620000001 10.201889880000001 0.97612443 0.210657 0.7025170000000001 1.554834
3020 6.45787395 8.187219990000001 0.17708031000000002 -0.613811 -0.047503 1.221024
3040 5.74370595 6.597234810000001 -0.4107447 -0.749977 -0.085091 0.616576
3060 5.0464602 5.6872690200000005 -1.11742767 -1.191057 0.384562 0.233674
3080 4.78764297 5.434749810000001 -1.68774183 -1.5583870000000002 0.625012 -0.170851
3100 4.0983237 7.256309850000001 -1.04572638 -1.616358 0.677725 -0.5152909999999999
3120 2.9743135200000004 6.36925041 -0.7117743599999999 -1.196508 0.448545 -1.108133
3140 1.79686827 5.301078750000001 -1.6845928200000002 -0.842744 0.034082 -1.6627419999999995
3160 0.28396026 5.614527870000001 -4.15655586 -0.983006 -0.325558 -1.913225
3180 -1.09707192 6.2206092900000005 -4.559668379999999 -1.53075 -0.505361 -1.761929
3200 -1.3109691599999997 8.24081202 -2.5857198000000006 -2.1775990000000003 -0.332574 -1.520977
3220 1.07910981 10.296036450000003 -4.271215140000001 -2.087784 -0.385652 -1.379277
3240 5.80088844 12.95660655 -3.6952111800000003 -1.535771 -0.261441 -0.154602
3260 5.738614560000001 13.43830698 -2.3126878800000004 -1.178784 -0.017965000000000002 0.186206
3280 9.26932185 8.74317231 -4.861443600000001 -1.15065 -0.530065 -0.178274
3300 8.50755573 10.841354729999999 -7.01590599 -1.025482 -1.072149 -0.321983
3320 7.743543120000001 10.75453623 -4.89826053 -0.975777 -1.545813 -0.460966
3340 6.00102225 6.7762575 -4.0995205200000004 -0.861041 -1.2466 -0.527846
3360 5.256914129999999 5.68412982 -4.77926523 -0.116022 0.258358 -0.039597
3380 3.78667962 5.8106199599999995 -5.576504310000001 -0.779766 0.6150220000000001 0.5855600000000001
3400 4.48766298 4.85904996 -4.687355340000001 0.617276 -0.418977 0.876518
3420 6.85065654 4.4062399800000005 -3.56693562 1.375262 -0.715909 0.948423
3440 8.255477970000001 4.432736790000001 -2.58437583 1.283203 0.429368 0.735872
3460 5.30885808 5.0091822 -3.6128856600000003 0.717444 0.7786310000000001 0.19843
3480 4.05147114 10.661733630000002 -4.16523771 0.030785000000000007 0.209616 -0.231858
3500 3.02011641 11.80265625 -2.4923187900000006 -0.831025 0.225334 -0.750644
3520 -1.9866721500000002 7.1696385000000005 -0.20582361000000002 -0.8193520000000001 0.110431 -1.329392
3540 -3.7250041500000006 3.80808504 1.00980216 -0.723042 0.148551 -1.355473
3560 -0.3634408800000001 3.0021543000000004 2.28305187 -0.261227 0.278489 -0.950763
3580 1.01922957 5.16246345 1.95687918 -0.023446 0.666931 -0.52872
3600 3.79969749 12.566963160000002 0.6027950700000001 0.378124 1.019333 -0.027507
3620 7.3748637 22.010981490000002 0.48289725 1.022471 0.904799 0.34995
3640 5.445079740000001 31.363982640000003 -1.95687918 1.3666459999999998 0.483281 0.5013770000000001
3660 -0.4784042700000001 13.25059263 0.26105391000000006 1.574718 0.090231 0.57811
3680 4.028270490000001 3.5218782900000005 1.1638289700000002 2.048535 -0.287747 0.651338
3700 4.0758784200000004 5.0708576700000005 -2.1838041 2.575385 -0.434997 0.787666
3720 6.364767240000001 4.46117598 -3.4763697000000002 2.865143 -0.092737 0.992214
3740 6.101466840000001 9.22322466 -0.7087725 2.807129 0.510599 1.211089
3760 4.83943977 9.47050533 1.5383551500000001 2.767667 0.983846 1.445216
3780 5.13656505 11.852648010000001 -0.37616445 2.829209 0.996064 1.533224
3800 5.6393766 14.27117598 1.76961609 2.404442 0.510518 1.314031
3820 4.052226510000001 7.79758641 -0.37377081000000006 0.91404 0.776519 1.087498
3840 5.27742684 7.88440491 -1.10994264 -0.252103 0.6107779999999999 0.922537
3860 5.09675607 6.50427525 -1.9573304400000002 -0.771181 0.345652 0.542168
3880 4.53661488 5.83172127 -3.1930078500000003 -1.105572 0.572074 0.15391400000000002
3900 3.59327547 7.25571144 -2.56192074 -1.615059 1.051292 -0.430303
3920 2.1574642500000003 7.90700715 -1.10904012 -1.628398 0.980615 -0.858663
3940 1.3304322000000002 6.320602620000001 -0.22872015 -1.284411 0.286035 -1.417255
3960 0.90022446 5.14614942 0.20761884 -1.014928 -0.421813 -1.7904790000000002
3980 0.5686660799999999 5.17473576 -1.0190824200000002 -1.576309 -0.551604 -1.879692
4000 0.7427543400000001 5.65000083 -2.18396106 -2.447786 -0.619513 -1.990378
4020 0.5405211900000001 6.7529097 -2.5478532 -2.664987 -0.921482 -1.678519
4040 2.1263273100000006 8.66038572 -3.73758057 -2.309122 -1.246421 -1.18103
4060 5.90028336 9.74488122 -3.5398404 -1.743322 -1.104513 -0.397458
4080 6.95409318 13.02456042 -3.3522830100000003 -1.32252 -0.886899 -0.038012
4100 7.35585192 10.01283156 -6.43886217 -1.001924 -1.032897 -0.301572
4120 8.737031250000001 11.518548840000001 -7.95281004 -0.904778 -1.073499 -0.355321
4140 8.772062759999999 14.37251328 -7.78336191 -0.825039 -0.854506 -0.311248
4160 7.5157254899999995 9.63337095 -7.09614198 -0.671303 -0.495376 -0.211289
4180 6.44814243 8.0141814 -7.0275897 -0.632668 1.409383 -0.256189
4200 5.80208526 7.178624460000001 -6.617590560000001 0.054745 0.742592 0.194915
4220 6.117928020000001 4.6131034500000005 -4.593650220000001 -0.435989 -0.260959 0.36903
4240 7.3327984200000005 2.1463887600000002 -1.01638467 -0.452503 0.634864 0.667937
4260 7.050790350000001 2.21240025 0.4221243 0.753683 -0.357098 0.735318
4280 5.7453540300000006 4.17901095 -1.3228000200000003 1.312052 -0.062782 0.7089310000000001
4300 4.38572727 6.65740935 -3.37113783 1.260281 0.255824 0.199687
4320 2.0568725100000003 8.07151104 -3.3424043400000003 0.821649 0.04279 -0.223983
4340 -0.94379067 7.881412860000001 -2.20461111 -0.03676 -0.5383439999999999 -0.671479
4360 -4.25954124 6.9903117 -1.30723155 -1.390158 -0.280911 -1.004933
4380 -3.5610986700000002 5.257218240000001 0.16420959 -1.5721969999999998 -0.051916 -1.103706
4400 -1.00980216 4.3565425200000005 0.95890788 -0.7868569999999999 0.178876 -0.89235
4420 1.0904796 5.222942100000001 0.7161103800000002 0.251352 0.169126 -0.686396
4440 2.62134972 12.19199553 1.3075356599999999 0.8566229999999999 0.16755 -0.284788
4460 5.2795163700000005 21.311783549999998 4.950351629999999 1.124399 0.258181 0.526679
4480 2.48797296 13.75115769 -2.0568725100000003 1.909347 0.216382 1.506434
4500 6.99210693 24.00213681 0.35970327 3.115645 -0.161268 1.927677
4520 4.20999093 16.77112695 -1.2087391500000002 3.649664 -0.434118 1.7661830000000005
4540 4.33588266 4.89691656 1.61618769 3.313477 -0.486323 1.260769
4560 6.22749591 4.4599791600000005 -1.5705319500000001 2.6436740000000003 -0.23788 0.984444
4580 7.209604440000001 5.13012969 -2.48004648 2.29002 0.05763 0.917501
4600 6.73823394 8.94914307 -1.8712575 2.24647 0.794071 1.137375
4620 4.69558593 9.60702129 1.41081534 1.893386 1.091368 1.42188
4640 5.00528763 11.709402390000001 0.8521750800000001 0.6724760000000001 0.717434 0.888266
4660 4.243374360000002 12.24334107 -0.74215593 -0.208371 0.213802 0.525972
4680 2.30940153 9.93498921 -1.99131228 -1.5179049999999998 -0.193732 0.212904
4700 3.1267020600000004 8.128850490000001 -0.9379537200000001 -1.520991 0.244139 -0.327131
4720 4.03111539 5.259160620000001 -0.33530580000000004 -1.396338 1.1023120000000002 -0.8571979999999999
4740 4.9713156000000005 5.62275846 -1.33911405 -1.750069 0.561901 -1.270242
4760 4.53976389 9.011564100000001 -2.16554769 -1.791769 -0.27081500000000003 -1.848442
4780 1.88802279 7.736509350000001 -2.12767128 -1.968587 -0.790572 -1.719756
4800 0.049246200000000004 4.84736625 -1.6208278200000001 -2.459195 -0.543633 -1.509855
4820 -1.6576545599999999 2.66820228 -1.6464221100000003 -2.062073 -0.365488 -1.382328
4840 -3.6229114800000004 1.90823139 -2.5135770600000003 -1.6986439999999998 -0.387983 -0.6020949999999999
4860 -1.72396035 2.9588922 -2.44740861 -1.599366 -0.384984 -0.372806
4880 1.8479097000000002 6.42853224 -2.5554853800000004 -1.386073 -0.369994 -0.576433
4900 10.621914839999999 12.339439830000002 -0.8707356 -1.151148 -0.350682 -1.080086
4920 6.055811100000001 16.418457450000002 -1.0666805400000001 -0.931944 -0.414556 -1.0143799999999998
4940 10.80004482 7.978561290000001 -11.071428660000002 -0.935322 -0.381812 -0.941806
4960 7.486678080000001 15.48739035 -9.91313253 -1.232744 -0.349686 -0.726008
4980 10.57970241 14.46980886 -5.713912980000001 -1.37473 0.007333 -0.108957
5000 7.21409742 7.632180000000001 -9.24162822 -0.162359 0.6860189999999999 1.209351
5020 5.98530663 6.0514652700000005 -9.41243013 -0.284213 -0.394598 0.889418
5040 6.7776014700000005 6.73165143 -4.33602981 -0.033717000000000004 0.244743 0.628634
5060 7.70537241 5.1452469 -0.05687838 0.516347 -0.25858000000000003 -0.251367
5080 4.75171875 5.019659280000001 -0.11047041 0.506471 0.496208 -0.385931
5100 5.46184503 8.55560511 -2.4611818500000004 0.797475 0.465261 -0.358221
5120 4.40818236 7.397465940000001 -2.8993160700000002 0.697295 0.462522 -0.385623
5140 -0.11690577 6.768772470000001 -2.4569929800000003 0.44029 0.1623 -0.475696
5160 -3.06337851 6.22570068 -0.4337982 -0.510366 -0.222777 -0.8546520000000001
5180 -3.47143527 4.84527672 1.83009474 -0.796894 -0.100522 -1.075796
5200 -0.27422874 2.94781671 2.59275357 -0.34633600000000003 0.144253 -1.14026
5220 0.59920461 0.97072893 1.33537644 0.06920499999999999 0.25255900000000003 -1.146042
5240 1.96137216 1.8778498200000002 -0.7520346000000001 0.345274 0.213175 -1.126972
5260 7.7547755700000005 11.260486980000001 -1.9366705800000001 0.388612 0.254044 -0.99533
5280 3.3778773000000006 24.898025250000003 0.8213422499999999 0.27785 0.480596 -0.811592
5300 0.1329255 22.180125510000003 0.17124336 0.452895 0.341172 -0.729006
5320 1.4263838100000001 17.90262216 3.21576705 0.8432379999999999 -0.118442 -0.680825
5340 4.58317314 15.028301970000001 1.54119024 1.158085 -0.5891310000000001 -0.462242
5360 5.09210613 6.5807638200000005 0.82418715 1.566438 -0.6721560000000001 0.231857
5380 6.298157340000001 6.03125667 -1.3129213499999999 2.064206 -0.8604950000000001 1.343321
5400 6.50621763 7.769745629999999 -2.09803527 2.326037 -0.915636 2.383532
5420 5.52725811 11.62782243 -1.7262068400000001 2.300766 -0.57562 2.889257
5440 4.5373604400000005 10.8335754 0.53783325 1.677431 0.012492 2.344698
5460 4.2110406 9.87256818 0.73332693 1.019779 -0.185311 1.765654
5480 3.66722325 7.87557591 -0.3379937400000001 -0.082521 -0.190371 1.323195
5500 3.8491006500000005 7.4266605000000006 -1.0090467900000002 -0.763521 -0.5446850000000001 1.275095
5520 3.59851401 7.566011550000001 -0.10867518 -0.670028 -0.6481680000000001 1.49807
5540 4.36671549 6.715190250000001 0.0015009300000000001 -0.543758 -0.923696 2.092169
5560 5.310359010000001 7.234757280000001 -1.1455725600000002 -0.7184560000000001 -1.754128 2.388978
5580 4.32555273 8.34110946 -2.28395439 -0.945528 -2.492593 1.844613
5600 3.30497919 7.42934844 -1.0747639800000002 -1.391742 -3.351636 1.274303
5620 3.5007671700000005 6.59962845 -0.27303192 -1.869068 -4.025048 0.928933
5640 4.77986364 7.325764650000001 -0.5285529900000001 -1.980705 -3.79854 0.592441
5660 3.23162982 8.99329788 -0.55968993 -1.7967240000000002 -3.2951040000000003 0.276888
5680 1.9717020900000002 10.722055319999999 -2.2817079000000002 -1.525308 -2.737905 0.027037
5700 1.07102637 16.14916314 -1.28388375 -1.205936 -2.2382150000000003 -0.268338
5720 -0.7171600499999999 19.451748690000002 1.4250398400000002 -1.072291 -1.891696 -0.460128
5740 1.6816007700000002 16.07192901 -1.94085945 -1.303994 -1.601515 -0.365979
5760 4.1713787700000005 16.517999519999996 -3.97199052 -1.3880370000000002 -1.066262 0.117721
5780 7.45718922 14.412479220000002 -4.306845060000001 -0.7892899999999999 -0.661669 0.716384
5800 8.254134 12.19154427 -2.44501497 0.166197 -0.489258 0.994166
5820 8.24889546 8.92654083 -3.23536743 0.77965 -0.287792 0.962942
5840 7.44297453 9.07218009 -3.2939037000000004 0.66733 -0.4522310000000001 0.6248100000000001
5860 5.3432911800000005 9.135797940000002 -2.7009873000000004 0.014354 -0.576367 0.266826
5880 3.2876154900000003 6.6545644500000005 -1.84356387 -1.155151 -0.765365 0.592184
5900 2.45070477 4.80306429 -0.005542650000000001 -1.997763 -1.35585 1.136122
5920 2.09399355 4.430784600000002 0.80187921 -0.710148 -2.1802580000000003 1.056441
5940 1.24855794 3.60974646 0.34997175 0.391256 -2.204125 0.476643
5960 1.83922785 3.23117856 -0.11032326000000002 0.167703 -1.757723 -0.140786
5980 1.18777518 4.195472130000001 0.38948643000000005 -0.201639 -1.654135 -0.948938
6000 0.9342063 5.525757179999999 0.09475478999999999 -0.676429 -1.831927 -1.363292
6020 2.5018933500000005 6.996148649999999 0.18486945000000002 -1.81024 -1.2507620000000002 -1.327091
6040 3.63084777 9.90236115 -1.25619012 -2.428326 -0.430166 -1.141248
6060 5.43893868 15.21780174 -3.0852351899999997 -2.048612 0.180518 -0.742
6080 5.41169631 15.2213922 -4.61654676 -1.604959 -0.002392 -0.407518
6100 6.193219770000001 10.33136226 -5.938895520000001 -0.935214 -0.542661 -0.411761
6120 6.68733966 5.94129897 -5.116954860000001 -0.667131 -0.920938 -0.617707
6140 6.440206139999999 3.6759051 -3.48999579 -0.6449600000000001 -1.142864 -0.54997
6160 7.668408330000001 9.70596495 -1.5798122100000003 -0.6506149999999999 -1.066738 -0.401624
6180 11.29700961 23.083498980000005 1.7069007600000001 -0.73075 -0.926513 -0.23465300000000006
6200 4.83643791 24.010367400000003 1.25169714 -0.742147 -1.055504 -0.201452
6220 -2.3028092100000004 10.408606200000001 1.61948385 -0.826434 -1.148582 -0.29485700000000004
6240 -2.4562376100000005 6.247263060000001 0.38948643000000005 -0.91788 -1.006987 -0.460184
6260 -2.9831425200000004 5.4664851599999995 -1.02716586 -0.916283 -0.851723 -0.661197
6280 -2.2688273700000003 5.399424000000001 -0.09684432000000001 -0.8502059999999999 -0.58592 -0.8554930000000001
6300 0.88600977 5.47605972 2.0155626 -0.669084 -0.310068 -0.998791
6320 4.58017128 9.801171 3.65809014 -0.373463 -0.401196 -1.109841
6340 7.213803120000001 13.78423701 2.17272861 -0.069347 -0.414828 -0.895123
6360 3.5390948399999997 11.96925948 0.73901673 0.048857 -0.4269979999999999 -0.61868
6380 0.7457463900000001 10.0007064 -0.78586929 0.344199 -0.44824 -0.35808
6400 0.13696722 9.90924777 -1.40213349 0.84515 -0.523405 0.155057
6420 1.1859799500000001 9.46975977 -1.69178355 1.234882 -0.720325 0.8427620000000001
6440 2.95665552 9.313633620000001 -1.33941816 1.5988870000000002 -1.228029 1.483684
6460 4.03381314 8.52747003 -0.34547877 1.7520240000000002 -1.5448540000000002 1.992565
6480 3.2530352400000004 7.4483602200000005 0.87253083 1.8002209999999998 -1.635884 2.336985
6500 2.25071811 7.638016950000001 1.34286147 1.7421970000000002 -1.1970120000000002 2.392633
6520 1.711845 8.11956042 1.00485792 1.493234 -0.5921489999999999 2.129473
6540 1.72560843 9.1476288 -0.7520346000000001 1.059071 -0.353031 2.115452
6560 1.8751520700000002 10.530750509999999 -1.7582463000000002 0.972792 -0.812974 1.860134
6580 3.4569066600000005 10.40726223 -1.88802279 0.7511869999999999 -1.458924 1.617995
6600 4.06464597 10.53793143 -1.67755905 0.29396100000000003 -1.8599900000000005 1.346124
6620 4.4557804800000005 9.772280550000001 -0.8000839800000001 -0.0262 -2.150629 1.312213
6640 3.00454794 9.62363943 -0.26075961000000003 -0.25121 -2.344871 1.331186
6660 2.5506981000000004 10.29005235 0.41208867000000005 -0.496702 -2.913656 1.259698
6680 4.5135613800000005 11.3396733 0.83930436 -0.790425 -3.497323 1.222075
6700 6.29710767 11.91626586 0.6939594 -1.03568 -3.597043 1.330516
6720 4.645290060000001 9.57588435 1.4841647100000002 -1.099913 -3.173894 1.327389
6740 3.04916382 6.2180685 1.65046383 -0.895666 -2.564432 1.119731
6760 1.96675785 6.230193659999999 0.30042144 -0.5783550000000001 -2.3371310000000003 1.011629
6780 2.78450964 10.86560505 -1.3804337700000002 -0.49901 -2.390103 0.8701780000000001
6800 1.20304935 16.254395010000003 -0.6354329400000001 -0.7477689999999999 -1.946222 0.638204
6820 2.08022031 15.827640390000003 -1.35303444 -1.331442 -1.420462 0.466811
6840 3.0051463500000004 15.211670490000001 -1.8682654500000002 -2.012734 -1.058123 0.488293
6860 2.78091918 12.9334059 -1.5932911500000002 -2.331829 -0.744213 0.585006
6880 4.08530583 10.54601487 -0.49681764000000006 -1.636477 -0.381983 0.772065
6900 5.007534120000001 9.628573860000001 -0.74844414 -0.600565 -0.313357 1.093271
6920 4.61670372 8.904684150000001 -1.66214754 0.019975 -0.723066 1.248749
6940 3.64416975 7.717654530000001 -2.2935289500000002 0.223749 -1.208545 1.000831
6960 2.8382488200000004 7.0768359 -1.79161992 -0.2225 -1.222216 0.810792
6980 2.5210620900000005 6.33243348 -0.5204695500000001 -1.07423 -0.934382 0.697652
7000 2.45459934 5.5787508 -0.56253483 -2.495053 -1.224897 1.053432
7020 1.79926191 5.63203872 -0.9157929300000001 -3.612853 -0.8652040000000001 1.58141
7040 1.63070649 5.727843180000001 -1.53790389 -1.666828 -1.752141 1.6495509999999998
7060 1.9875648600000002 6.15624588 -2.08441899 -0.376304 -2.54341 0.474921
7080 2.9636892900000005 6.64842339 -1.10635218 -0.039031 -2.302035 -0.504728
7100 3.33207441 6.80141034 0.6748004700000001 -0.17941400000000002 -2.217657 -1.236481
7120 3.2076836100000006 8.015976629999999 0.9382480200000001 -0.446626 -2.458123 -1.608712
7140 3.12684921 7.621850070000001 0.32782077000000004 -1.182152 -2.31814 -1.611893
7160 3.2534865 9.011564100000001 -2.4920146800000005 -1.9587900000000005 -1.127286 -0.908476
7180 4.53391713 13.13353971 -5.66975817 -1.762611 0.187236 -0.273198
7200 6.94824642 13.51718919 -5.611084560000001 -1.373788 0.514159 -0.048711
7220 7.17637797 10.55005659 -4.984784729999999 -0.780177 0.371361 -0.283663
7240 6.3379663200000005 5.49358038 -4.327504920000001 -0.39379 0.100678 -0.592538
7260 6.05161242 2.26314738 -1.12940568 -0.35291100000000003 -0.114438 -0.645388
7280 5.4866937600000005 3.61797705 -1.2509515800000002 -0.4291140000000001 -0.135798 -0.5657760000000001
7300 5.32188576 11.60790813 -0.45804852 -0.448428 0.086982 -0.317301
7320 13.43171466 27.259360920000002 2.5852783500000003 -0.223816 0.447447 -0.080117
7340 1.1569423499999998 24.496855110000002 0.8858626199999999 -0.149428 0.70475 0.244812
7360 -4.42808685 9.58951044 -0.56462436 -0.056525 0.505252 0.503158
7380 -3.6275516100000003 7.2185904 -1.2871701 0.045593 0.047552 0.5888479999999999
7400 -0.4568517 5.44732623 -0.6761444400000001 0.160356 -0.391343 0.489799
7420 1.4587175700000001 5.304217950000001 0.86235786 0.397507 -0.538316 0.275863
7440 1.80419634 7.555387320000001 2.35011303 0.587789 -0.512225 -0.019807
7460 3.8079280800000004 11.98033497 2.99466927 0.498386 -0.402549 -0.196829
7480 3.3653008800000004 12.308607 1.31187168 0.359806 -0.160164 -0.218403
7500 0.47106639 9.696233430000001 -0.44293130999999997 0.437929 -0.237565 -0.110936
7520 -0.42825555000000004 9.31198554 -1.6646883300000002 0.502111 -0.277847 0.049797
7540 0.30117681 8.742868200000002 -1.99729638 0.460689 -0.108728 0.416759
7560 1.9446068699999999 7.98304446 -1.6238198700000002 0.8954989999999999 -0.197451 0.914497
7580 3.1998944700000003 7.6987899 -1.06024518 1.912006 -0.545692 1.33865
7600 3.88322964 7.94562912 0.00538569 2.695695 -0.56029 1.911369
7620 4.0692861 7.399859580000001 0.40864536 2.817107 -0.573416 2.423912
7640 4.53122919 8.052803370000001 0.06122421 2.344228 -0.456345 2.594579
7660 4.38902343 7.743101670000001 0.4543011 2.002002 -0.12211 2.158062
7680 4.23918549 6.24786147 -0.65847663 2.126359 0.358299 1.791915
7700 4.17272274 6.20594334 -2.09578878 0.937049 0.946957 1.601255
7720 3.9023885700000003 7.20885888 -2.24966844 -0.24428 0.965661 1.677369
7740 2.36029581 7.731722070000001 -1.63729881 -0.740193 0.667289 1.332457
7760 2.13770691 7.63263126 -0.81595656 -1.031953 0.425621 0.483628
7780 1.92110211 6.159394890000001 0.44666892 -1.444019 0.40104 -0.203949
7800 2.37196971 4.94900766 1.00485792 -1.555614 0.307163 -0.8722469999999999
7820 3.5254687500000004 4.689601830000001 0.40744854 -1.427955 0.107766 -1.467167
7840 4.6011352500000005 5.403760020000001 -0.54785907 -1.127422 -0.064611 -2.042755
7860 4.994212139999999 8.22419388 -0.12633318000000002 -1.01226 -0.537104 -2.2646040000000003
7880 3.22354638 9.226216710000001 -1.1473677899999999 -1.703936 -0.810642 -1.991347
7900 2.5818350400000005 9.76913154 -2.58886881 -2.427484 -0.8621979999999999 -1.525249
7920 3.1382288100000006 10.977576390000001 -3.6277085700000002 -2.371703 -0.703923 -1.1949809999999998
7940 1.9148139000000002 12.45784653 -4.69543878 -1.831184 -0.370766 -0.530403
7960 0.8062250400000001 12.51876663 -1.75869756 -1.286871 0.01702 0.056151
7980 1.4299742700000002 11.56031001 -2.37750255 -1.074882 -0.004163 0.107865
8000 3.78996597 11.31152841 -4.09458609 -1.216246 -0.592897 -0.126308
8020 8.234229509999999 11.23638381 -5.069660850000001 -1.149849 -1.03099 -0.383793
8040 8.575519410000002 11.59878483 -6.5370602700000005 -0.917573 -1.052337 -0.5744229999999999
8060 8.68374333 12.687616349999999 -7.077434310000001 -0.892481 -1.244924 -0.653049
8080 7.099585290000001 9.31633137 -5.923484010000001 -0.575763 0.044649 -0.276476
8100 5.126990490000001 6.428385090000001 -4.67432766 -1.674575 0.326849 0.6993199999999999
8120 5.00259969 6.077814930000001 -4.49291133 0.493926 -0.556848 1.361874
8140 4.43453202 3.93082776 -4.20041637 2.000763 -1.737107 0.572745
8160 5.089114080000001 1.9567320300000002 -3.2084291700000005 1.697816 -0.497195 0.8521190000000001
8180 7.150185270000001 2.07094005 -1.2350790000000003 0.31817199999999995 0.240065 0.428135
8200 7.79563422 3.18477726 -1.75121253 0.039714 0.177263 0.125032
8220 5.50899189 5.0177169 -3.7850315400000003 -0.244177 -0.19319 -0.22685300000000005
8240 3.7961070300000004 9.389229480000001 -3.7922124600000005 -1.619044 1.4299 -1.067476
8260 2.48827707 10.050099750000001 -2.58437583 -1.268667 0.618685 -1.501961
8280 -1.3099292999999999 6.736742820000001 -1.5663430800000002 -0.313894 0.472379 -0.907582
8300 -3.93082776 5.67948969 -0.35326791 0.305298 0.817531 -0.646258
8320 -2.289192930000001 5.46588675 1.0795512600000001 0.570707 0.959625 -0.446965
8340 0.41164722000000004 4.410576 2.47136463 0.749524 0.8506239999999999 0.015896
8360 0.23830452000000002 5.10274017 1.42084116 1.181997 0.597381 0.632401
8380 3.7595844000000005 11.972849940000001 -1.0662292800000002 1.519309 -0.010092 0.93891
8400 11.90444481 22.86884637 -7.2012267 2.0080880000000003 -0.452711 1.180037
8420 5.34912813 45.5445927 5.42307591 2.564082 -0.655885 1.423463
8440 -0.0038945700000000004 10.724900220000002 0.28470582000000005 2.889662 -0.375691 1.666796
8460 2.38184838 0.44981793 4.0835106 2.825156 0.12573 1.803503
8480 3.67425702 0.6980011199999999 -0.47945394 2.731533 0.332016 1.712854
8500 4.58855883 -1.22565159 -0.84664224 2.643367 0.191553 1.484887
8520 4.4041406400000005 5.154380010000001 -2.5879662900000002 1.6510220000000002 0.188291 1.030375
8540 5.18955867 11.43173034 -1.83952215 -0.118369 0.98295 0.975337
8560 5.0960007 16.47413901 2.67298956 -1.0961040000000002 1.419662 1.036314
8580 5.61032919 13.32035154 -1.8799393500000001 -0.653543 0.882142 0.5423020000000001
8600 3.4007738400000003 9.09374247 -0.22213764000000003 -0.642763 0.7906310000000001 -0.290718
8620 3.7857771 8.203239720000001 -1.2175681500000002 -1.011224 0.5738439999999999 -0.901901
8640 4.4420170500000005 5.52890619 -1.6956781200000002 -1.404278 0.17471 -1.445723
8660 5.45660649 4.37390622 -2.3281092 -1.470562 -0.234729 -1.827017
8680 4.44905082 6.07272354 -1.80718839 -1.553157 -0.452344 -1.946956
8700 2.56387293 6.998993550000001 -1.02865698 -1.876734 -0.4365350000000001 -1.624497
8720 1.50961185 6.38811504 -0.48498678000000006 -2.3413060000000003 -0.145801 -1.466813
8740 1.52862363 5.726195100000001 -1.7065966500000003 -2.020032 -0.061911 -1.412333
8760 0.7620604200000001 7.37082198 -2.19922542 -1.315518 -0.011386 -0.008106
8780 0.46448388 8.565336630000001 -1.9440084600000003 -1.259363 0.019901 0.110819
8800 1.76228802 8.626109580000001 -2.34217674 -1.086323 -0.203437 -0.397228
8820 3.75478731 9.544904370000001 -3.0505077900000006 -1.11676 -0.451049 -0.519969
8840 7.14838023 12.45155832 -3.39868431 -1.174663 -1.028076 -0.55809
8860 5.878573830000001 13.82899023 -5.089114080000001 -1.31877 -1.882377 -0.445839
8880 6.63180525 9.72617355 -6.733152360000001 -1.090327 0.750436 0.025605000000000003
8900 7.80775938 13.823006130000001 -7.534129050000001 -0.014178 0.400099 1.187251
8920 7.80416892 9.72707607 -5.1651612 -0.622943 -0.049174 1.11414
8940 6.793768350000001 4.8798569700000005 -4.824616860000001 0.770768 -0.8545379999999999 0.7093689999999999
8960 5.670062280000001 4.39261389 -4.97684844 1.336262 -0.6402359999999999 0.4406479999999999
8980 7.069046760000001 3.96660483 -4.4599791600000005 1.011762 0.337273 0.026931
9000 7.601641470000001 3.8529854100000005 -3.02640462 0.740267 0.403221 -0.511297
9020 7.969124070000001 4.34755656 -2.0221451100000003 0.427324 0.198056 -0.8806879999999999
9040 5.201536679999999 3.16023264 -2.33260218 -0.47342 0.3832 -1.111544
9060 4.0228848 7.3607961600000005 -3.1897215 -0.901543 0.224207 -1.206198
9080 2.36178693 11.87061012 -3.13134219 -0.603699 0.353947 -0.87634
9100 -3.73787487 8.08528428 -1.28044044 0.258808 0.397095 -0.693045
9120 -5.40301446 5.49911322 0.8352626400000002 0.968139 0.496464 -0.317545
9140 -1.7823396599999999 1.67501826 1.6554080700000002 1.306511 0.397092 0.262854
9160 1.60735869 0.8827136099999999 1.64178198 1.806211 0.153177 0.8862260000000001
9180 3.6295037999999997 4.73345253 -2.9014154100000003 2.654067 -0.313385 1.20894
9200 11.176503570000001 21.994216200000004 6.29875575 3.298204 -0.7676270000000001 1.292001
9220 8.356825080000002 23.38003566 0.015264360000000001 3.3581199999999995 -0.683864 1.3382459999999998
9240 1.7914727700000002 22.921388730000004 -3.64746591 2.92961 -0.037165 1.4241549999999998
9260 1.7491131900000003 16.677264870000002 -0.39008484000000004 2.546522 0.813635 1.578485
9280 3.45945726 5.00843664 1.71063837 2.242317 1.355459 1.676079
9300 5.0205618 5.37831288 -0.87268779 1.255062 0.95112 1.350303
9320 5.28640299 6.563400120000002 -1.84356387 -0.152918 0.191524 0.986792
9340 6.02482131 9.65102895 -0.8749342800000001 -0.938195 -0.136825 0.663397
9360 4.963977720000001 9.97854561 0.53917722 -1.087675 0.41583 0.050622
9380 6.24172041 11.243564730000001 -0.27198225000000004 -1.040436 0.296036 -0.13583299999999998
9400 5.669905320000001 10.20548034 0.7189552800000001 -1.208008 0.26673800000000003 -0.389067
9420 4.7430369 8.81367678 -0.66057597 -1.548241 0.40042 -0.756947
9440 5.235214409999999 8.16970914 -0.9511187400000001 -1.47827 0.270121 -1.265833
9460 5.06337264 5.9023728900000005 -1.2807347400000002 -1.663641 -0.03987 -1.6384720000000002
9480 4.54215753 5.657937120000001 -2.08007316 -2.203272 -0.278652 -1.929287
9500 3.3840085500000003 7.66676025 -2.3164353 -2.325692 -0.509065 -1.7450439999999998
9520 1.0005219 5.08672044 -1.19676114 -2.238904 -0.337887 -0.939218
9540 -1.45976724 3.68773596 -2.2820022 -2.061938 -0.36047 0.024515
9560 -2.2935289500000002 3.74670387 -3.14885304 -1.421175 -0.586958 -0.10211
9580 -1.14945732 5.09016375 -1.84416228 -1.179492 -0.793235 -0.673793
9600 2.0648088000000007 7.22308338 -1.8482040000000002 -0.903783 -1.128958 -0.8722620000000001
9620 6.3719481600000005 9.01425204 -1.74940749 -0.802623 -1.206936 -0.906707
9640 8.876539260000001 18.78473736 -4.13290395 -1.891929 0.487421 -0.637681
9660 11.030864310000002 12.593764080000001 -8.19486198 0.011944 0.479609 0.19709
9680 8.486307270000001 9.840391380000002 -6.72775686 0.133302 -0.06564400000000001 1.38009
9700 7.37995509 10.991045520000002 -5.53099572 0.839075 -0.748869 0.33262800000000003
9720 6.38137557 8.75185416 -5.38355142 0.733356 0.038132 -0.048337
9740 6.086643929999999 5.74011549 -6.280940790000001 0.5224949999999999 1.412551 -0.185099
9760 6.53405841 4.257598860000002 -5.43025683 0.299599 1.755995 -0.098434
9780 6.278988600000001 2.93943897 -3.08987532 -0.024952 1.052641 -0.28139699999999995
9800 5.620364820000001 1.9711036800000001 -0.19908414 -0.058064 -0.129971 -0.745858
9820 4.77537066 6.00207192 -1.04422545 -0.246999 -0.830506 -0.952447
9840 4.73464935 8.345749589999999 -4.32540558 -0.517668 -0.507905 -0.939796
9860 2.06839926 10.179876240000002 -4.36118265 -0.238535 0.20037 -0.616151
9880 -2.9195246700000004 8.52656751 -2.66670135 0.377098 0.553702 -0.266199
9900 -4.68166554 5.46513138 -0.55085112 0.900542 0.509197 0.019525
9920 -1.9170603900000003 2.03696802 1.30618188 1.21991 0.31352 0.457841
9940 -0.20671632 1.0008162 2.67329367 1.72663 0.04679 0.919989
9960 3.31395534 3.74146533 -4.245768 2.615507 -0.265642 1.2908620000000002
9980 12.00338847 26.971810200000004 12.076590690000002 3.143782 -0.5419109999999999 1.456208
10000 4.50263304 28.715684850000002 -3.9800739600000004 2.944278 -0.310134 1.209894
10020 -4.04668386 12.88461096 -2.30804775 2.5616 0.229205 1.197984
10040 1.50766947 5.494620240000001 -1.5331166100000002 2.851573 0.235537 1.493763
10060 6.337073610000001 10.14500169 0.5718150900000001 2.656175 0.5289119999999999 1.823171
10080 7.878263850000001 11.810592540000002 -0.24743763 0.569082 0.69157 1.31807
10100 7.024587840000001 9.33698142 -0.12288987000000001 0.007684000000000002 0.700646 1.133608
10120 6.720870240000001 10.70753652 -0.48978387 -0.406328 0.704044 0.909589
10140 7.58023605 10.961252550000001 -0.57210939 -1.174407 0.717175 0.423508
10160 6.655310010000001 9.63291969 -0.029184750000000002 -1.384559 1.2351530000000002 -0.255877
10180 5.297929740000001 8.019419939999999 -1.1741589000000001 -1.460834 1.08619 -0.7657609999999999
10200 4.00776759 7.17667227 -1.7762084100000002 -1.326735 0.553868 -1.226682
10220 2.8178930699999998 6.90169797 -1.2322341 -0.982452 -0.337688 -1.810657
10240 2.7864520200000005 6.313117590000001 -0.9232779600000001 -1.340901 -0.6949310000000001 -1.938753
10260 2.64694401 6.746621490000001 -0.83960847 -2.173389 -0.8302510000000001 -2.0084880000000003
10280 2.24667639 7.24822641 -1.78039728 -2.32438 -0.982901 -1.798907
10300 2.2091040900000003 5.90971077 -1.36994688 -2.067342 -0.97304 -1.291855
10320 0.7878116700000001 4.78001079 -1.37025099 -1.897425 -0.437245 -0.099219
10340 -0.91803942 4.03201791 -2.06615277 -1.388424 -0.31361999999999995 0.244941
10360 -1.12176369 5.306611590000001 -2.2053664800000004 -0.8575870000000001 -0.4975350000000001 -0.308728
10380 1.6248695400000002 8.7425739 -3.8176596000000003 -0.769215 -0.687922 -0.459554
10400 3.1784890500000005 12.72354057 -1.99624671 -0.626124 -0.387089 -0.423689
10420 4.40578872 15.50895273 0.57390462 -0.574096 -0.830774 -0.336231
10440 9.18759474 11.81088684 -4.5235970100000005 -0.7359760000000001 1.20853 -0.021645
10460 7.602985439999999 8.231080500000001 -10.022406120000001 0.757047 -0.503165 1.029289
10480 10.20727557 13.25209356 -8.798108310000002 -0.107698 -1.10533 0.7847390000000001
10500 8.51534487 10.13901759 -5.19554277 0.031173000000000006 0.8826370000000001 0.358009
10520 7.116350580000001 7.30630161 -6.08125824 1.408399 0.650795 0.398905
10540 6.0444315 6.340968180000001 -6.627616379999999 1.212981 0.8813350000000001 0.192146
10560 7.46347743 5.72215338 -3.7154197800000004 1.063205 0.527004 -0.311579
10580 7.887544110000001 2.72208861 -0.17408826000000002 0.646353 -0.375989 -0.572911
10600 5.79235374 1.78353648 -0.20926692000000002 -0.17741300000000002 -0.668201 -0.8421420000000001
10620 3.60944235 5.41454121 -2.32631397 -0.689654 -0.320764 -0.704092
10640 2.6698503600000003 8.94105963 -4.410428850000001 -0.473409 0.235105 -0.308051
10660 1.52353224 9.22082121 -3.09391704 0.345089 1.027971 -0.027749
10680 -3.49103565 7.6907064599999995 -1.25693568 1.107001 1.307689 0.222906
10700 -5.117111820000001 5.2431507 0.71520786 1.6969150000000002 1.106322 0.517841
10720 -1.72366605 3.4337060100000003 2.35804932 2.127084 0.545354 1.101609
10740 -0.9981282600000001 2.68526187 2.71819404 2.604903 -0.180558 1.600463
10760 2.1571601400000002 4.802014620000001 -2.25820314 2.782343 -0.624155 1.5574059999999998
10780 8.739729 22.866001470000004 8.6443758 2.559571 -0.635929 1.498181
10800 5.95402254 21.042342089999998 -3.0825374400000003 2.09963 -0.29608 1.623788
10820 5.06576628 11.5164495 -4.33154664 1.526485 -0.028197000000000007 1.463481
10840 4.3989021 22.08013218 0.4363389900000001 1.3670790000000002 -0.434509 0.913822
10860 5.588923770000001 9.12831291 -1.68848739 0.630025 0.050737 0.883482
10880 5.36948388 6.18948216 -0.96159582 -0.717044 0.222142 0.47968
10900 7.06380822 5.60764125 -0.9382480200000001 -1.281647 0.502624 0.091885
10920 8.19680436 8.50082607 -0.93271518 -1.345219 1.087416 -0.373985
10940 6.448289580000001 9.10032498 0.59396607 -1.483758 1.222566 -0.7511399999999999
10960 6.50382399 8.71113285 0.49352148 -1.317285 0.693643 -1.2908879999999998
10980 4.26209184 8.57925702 -1.25274681 -1.17514 -0.041795 -1.846565
11000 3.13328457 8.462204100000001 -2.6714984399999997 -1.545454 -0.491419 -2.038719
11020 2.39247261 8.48569905 -1.5820587000000002 -2.194803 -0.817513 -1.978743
11040 2.62448892 6.1153872300000005 -1.2758003100000002 -2.222457 -0.577445 -1.517772
11060 3.3670961100000003 4.90050702 -1.47772935 -2.092401 -0.00717 -0.920459
11080 3.58834104 5.063519790000001 -2.37286242 -1.734319 0.278769 -0.543378
11100 1.06398279 5.58143874 -3.53505312 -1.149589 0.148532 -0.449396
11120 -0.5373819900000001 4.488114240000001 -3.86256978 -0.7436659999999999 -0.311732 -0.784597
11140 1.0326987 6.35159241 -2.6177592600000006 -0.565569 -0.718672 -0.937724
11160 2.8581533100000005 10.37897019 -1.39045959 -0.463786 -0.647555 -0.961673
11180 6.614892810000001 13.311963990000002 -1.70211348 -0.67384 -0.203326 -0.782112
11200 4.92715098 14.00158737 -2.69200134 -1.116578 -0.391471 -0.500816
11220 9.80565417 6.58765044 -8.130645720000002 -0.344592 1.332549 0.857941
11240 10.357711920000002 13.53051117 -9.03191985 -0.410745 -0.377753 1.048745
11260 7.2614012400000005 12.95316324 -6.93477729 -0.316834 -0.129156 0.338715
11280 6.09547293 7.53353064 -6.5735829 0.667597 -0.4609180000000001 -0.398534
11300 6.173158320000001 6.84092502 -6.506374590000001 0.550809 0.17415 -0.604194
11320 6.56265456 6.07541148 -4.64993019 0.5337810000000001 -0.098323 -0.648829
11340 7.139855340000001 5.34298707 -1.7776995300000002 0.5249060000000001 -0.592805 -0.5927100000000001
11360 6.6623437800000005 5.22772938 -0.22947552000000002 0.094285 -1.254812 -0.634394
11380 5.29988193 7.494467220000001 -0.8211951000000001 -0.46209 -1.431706 -0.936087
11400 3.1347855 7.6392137700000005 -3.6630343800000005 -0.8705360000000001 -1.084465 -1.10496
11420 -0.09669717 7.244037540000001 -5.01831531 -0.258301 -0.534168 -0.990293
11440 -1.63295298 7.203021929999999 -3.2268425400000003 0.290813 0.222979 -0.8677870000000001
11460 -3.8594207700000003 5.65359129 -0.64381068 0.636971 0.400458 -0.796162
11480 -3.5799534900000003 3.53324808 1.7063023499999999 0.853153 0.281692 -0.5872649999999999
11500 -0.18650772000000002 1.1737076400000002 2.8276245900000005 1.203018 0.136331 -0.237463
11520 0.40176855 0.26030835 2.01795624 1.6866139999999998 -0.286927 0.22793
11540 3.73712931 2.2811094900000004 -5.43714345 2.114714 -0.438393 0.970324
11560 14.72413311 23.374188900000004 6.90828048 2.504735 -1.158756 2.021897
11580 7.7863539600000005 26.94262545 -3.3383626200000003 2.471817 -1.815671 2.758513
11600 0.05239521 18.64058922 -3.37173624 2.061963 -1.949037 2.898963
11620 3.79969749 17.75936673 1.0927260900000004 0.675733 -1.533512 1.954054
11640 4.89317895 8.311012380000001 1.9374259500000002 -0.278012 -0.828313 1.45297
11660 6.98731965 5.33161728 -0.4837899600000001 -0.633153 -0.700701 1.54967
11680 7.13641203 4.83105222 -0.78122916 -0.853434 -0.592162 1.770182
11700 6.400544310000001 6.24172041 -1.38447549 -0.96084 -0.197954 1.849044
11720 4.830600960000001 9.333390960000001 -1.1782006200000001 -1.23309 -0.787724 2.252754
11740 3.98291886 9.15346575 0.41045040000000005 -1.689122 -1.824955 2.028707
11760 2.65473315 8.07001992 0.18815580000000004 -1.863046 -2.73142 1.359947
11780 1.9669050000000001 6.78868677 -1.38297456 -1.97481 -3.509467 0.757686
11800 2.6676038699999998 7.66241442 -1.93008807 -1.985162 -3.900659 0.293439
11820 3.5631882 8.176742910000002 -1.10679363 -1.872126 -4.01898 -0.051724
11840 4.422249900000001 7.31079459 -0.9174410100000001 -1.763788 -3.692266000000001 -0.330192
11860 4.812638850000002 6.251746230000001 0.22677777 -1.5983889999999998 -3.21781 -0.575335
11880 4.33573551 7.45764048 -3.49507737 -1.529358 -2.745451 -0.745306
11900 4.62014703 9.210196980000001 -1.5964303499999999 -1.451554 -2.225057 -0.6813359999999999
11920 2.06361198 10.66801203 -1.72501002 -1.072256 -0.8405370000000001 -0.127122
11940 2.46612609 14.52549042 -0.8169964200000002 0.280375 -0.29993400000000003 0.703096
11960 3.1741530300000003 19.645143030000003 -1.99430433 0.904895 0.18111 1.341366
11980 5.394332610000001 22.77648522 -1.12116528 0.957586 0.2387 1.545691
12000 5.260210290000001 14.356640700000002 -2.97865935 0.606804 -0.190649 1.062023
12020 7.313345190000001 10.13646699 -3.2099202900000003 -0.444159 -0.541553 0.4825640000000001
12040 5.595064830000001 11.148064380000001 -2.1754263600000003 -1.455148 -0.692246 0.94785
12060 4.98433347 11.60940906 -3.32727732 -2.485411 -0.535351 1.499132
12080 8.00310591 11.455529400000001 -3.9380086800000003 -1.576933 -0.4829479999999999 1.19349
12100 7.474258620000001 11.16303444 -2.8367478900000003 -0.387854 -1.081796 0.4708310000000001
12120 5.6357763300000006 8.36909739 -1.4394114900000001 -0.162349 -1.278733 -0.29112
12140 3.25961775 5.23970739 -0.8553240900000001 -0.15950799999999998 -1.705805 -1.117357
12160 1.7781507900000002 4.07751669 0.25641378000000004 -0.260719 -2.479749 -1.689639
12180 1.18044711 2.8331574300000004 0.9198346500000001 -1.407929 -2.383839 -1.769346
12200 0.63093996 2.41583022 1.08389709 -2.044549 -1.417115 -1.347743
12220 0.23905008000000003 3.4215808500000002 0.84753495 -1.707877 -0.472501 -0.769762
12240 0.06660990000000001 4.8819465 -0.39038895 -1.626939 -0.146123 -0.408556
12260 1.4750316 6.480927449999999 -0.74530494 -1.266325 -0.224824 -0.487121
12280 2.3516139600000003 11.47408992 -2.8303125300000005 -0.820738 -0.741182 -0.682036
12300 4.693937850000001 17.988390990000003 -5.105879370000001 -0.695071 -1.081232 -0.734133
12320 5.84474895 14.060859390000001 -3.04795719 -0.685337 -1.214725 -0.659119
12340 5.258267910000001 7.44821307 -4.50667476 -0.707533 -1.233451 -0.486198
12360 4.55787315 2.24562672 -4.31163234 -0.776668 -1.007027 -0.306441
12380 6.812328870000001 5.46828039 -1.79671131 -0.8159689999999999 -0.880476 -0.218216
12400 10.893445830000001 17.183814030000004 1.7774052300000003 -0.769528 -0.762362 -0.22552
12420 10.3366008 23.800060620000004 1.40378157 -0.7706890000000001 -0.682976 -0.363431
12440 -0.044007660000000004 17.9858502 0.05613282 -0.771826 -0.653435 -0.556825
12460 -2.6473952700000005 10.051149420000002 -2.19652767 -0.6885939999999999 -0.599709 -0.744319
12480 -3.2563314 7.0742853000000006 -2.338733430000001 -0.568875 -0.5903729999999999 -0.7851560000000001
12500 -2.02004577 6.732701100000001 -1.92066066 -0.463433 -0.565435 -0.7192890000000001
12520 0.8014377600000001 5.932617120000001 -1.26815832 -0.220265 -0.4698020000000001 -0.603414
12540 5.23057428 8.0634276 3.09226896 0.094032 -0.413987 -0.448534
12560 9.20720493 12.0689487 4.943916270000001 0.510622 -0.4699390000000001 -0.137905
12580 4.4779412700000005 10.654690050000001 2.7851080500000003 0.911883 -0.410539 0.3765
12600 1.4564710800000003 9.05646447 0.9078664500000001 1.33586 -0.6690229999999999 0.979066
12620 0.3182364 10.20802113 -1.83967911 1.577648 -0.78766 1.6656369999999998
12640 -0.28965006000000004 10.18826379 -2.49785163 1.843486 -0.99711 2.13137
12660 1.87829127 9.031468590000001 -1.9080842400000002 2.062961 -1.072306 2.363736
12680 3.61723149 8.58884139 -1.06069644 1.8384080000000005 -0.67655 2.15763
12700 4.488114240000001 7.647895620000001 -0.14998509000000002 1.515077 -0.411513 1.959547
12720 4.32406161 7.13161494 0.55115523 1.345717 -0.6418689999999999 1.90418
12740 2.62673541 6.951542580000001 1.125207 1.162128 -1.174882 1.624775
12760 2.04264801 7.589820420000001 0.8529304500000001 0.640828 -1.51318 1.429287
12780 1.6616962800000001 8.688981870000001 -0.49516956 0.168793 -1.489788 1.317001
12800 1.6408892700000002 10.11611124 -1.24975476 -0.101941 -1.410105 1.338509
12820 2.44456371 10.92398436 -0.97342668 -0.321683 -1.621401 1.355404
12840 3.1563380700000003 10.71157824 -0.25222491 -0.542525 -2.371494 1.315299
12860 2.91698388 9.57199959 0.0865242 -0.823975 -3.198538 1.390236
12880 2.4706092600000003 9.349852140000001 -0.10373094000000001 -1.233208 -3.514797 1.446535
12900 2.58557265 10.186615710000002 0.18097488 -1.359137 -3.218589 1.274361
12920 4.492312920000001 10.335256829999999 1.25798535 -1.090435 -2.727681 1.087601
12940 5.22129402 10.79719992 1.0961694000000002 -0.7550640000000001 -2.551439 0.945508
12960 4.378840650000001 9.77377167 1.7404313400000002 -0.721709 -2.171682 0.787158
12980 3.4308611100000004 8.0489088 1.57531923 -1.229965 -1.716507 0.619586
13000 2.21733468 7.34207868 0.28994436 -1.917135 -1.7534610000000002 0.599879
13020 2.88959436 10.754987490000001 -1.25664138 -2.3911860000000003 -1.7139330000000002 0.716158
13040 2.0228906700000007 15.717768390000002 0.11061756 -2.323243 -1.322117 0.708653
13060 1.77051861 14.423554710000001 -0.7661021400000001 -1.683698 -1.202957 0.7247180000000001
13080 3.0837342600000004 13.602359609999999 -1.79476893 -0.749292 -1.436499 0.775341
13100 3.48639552 12.78041895 -1.8971559000000002 -0.240938 -1.482367 0.616581
13120 4.17810843 11.48052528 -0.77688333 -0.427884 -1.225388 0.450439
13140 4.31822466 9.90190989 -1.06218756 -0.903782 -0.760353 0.452929
13160 4.31433009 9.42379992 -2.5596742500000005 -1.812468 -0.674059 0.7060489999999999
13180 3.80718252 8.434814580000001 -3.51484452 -1.587906 -0.884131 1.096719
13200 4.00746348 7.445966580000001 -3.056796 -1.195344 -1.130852 0.385137
13220 4.058661870000002 6.63315903 -1.85344254 -1.278484 -1.42567 -0.406618
13240 3.83592582 5.69400849 -1.08045378 -0.7959649999999999 -1.95441 -0.999706
13260 3.68324298 4.9394331000000005 -0.7324244100000001 -0.587595 -2.570006 -1.213243
13280 3.9285812700000005 5.24090421 -0.94004325 -1.011511 -2.820205 -1.147517
13300 3.79476306 5.779777320000001 -1.2000573 -1.605401 -2.151614 -0.798941
13320 4.34831193 6.0396442200000005 -0.23800041000000002 -1.559948 -1.194282 -0.218737
13340 4.46251995 5.94697896 1.10260476 -1.096681 -0.461682 -0.010273
13360 4.8178773900000005 7.803570510000001 1.7618367600000002 -0.68593 0.006697 -0.014413999999999996
13380 4.657111110000001 9.126517680000001 1.15005573 -0.418944 0.162925 -0.153754
13400 4.2330444300000005 10.55485368 -1.3145694300000001 -0.421231 -0.010148 -0.293486
13420 4.53527091 12.87442818 -4.18738869 -0.487415 -0.08528200000000001 -0.36115
13440 5.1506424 12.70527435 -4.54305024 -0.5583 0.078891 -0.329809
13460 4.52523528 8.89779753 -3.91675041 -0.438879 0.319261 -0.071841
13480 3.4738289100000004 5.48444727 -2.81265453 -0.185207 0.391477 0.296239
13500 3.4208352900000003 6.7460230800000005 -3.95297874 -0.085787 0.090203 0.426574
13520 7.522308000000001 14.66664651 1.48850073 0.0619 -0.456101 0.253117
13540 6.69766959 20.036130390000004 2.6662599000000005 0.350898 -0.944111 0.031435000000000005
13560 0.34114275 12.366230940000001 1.27279845 0.465426 -1.106511 -0.214317
13580 0.019306080000000003 8.04262059 0.94603716 0.381726 -0.85329 -0.329525
13600 1.58624757 7.509280320000001 0.41149026 0.33265300000000003 -0.6410239999999999 -0.35577800000000004
13620 2.1454862400000003 6.66009729 -0.14954364 0.394512 -0.5436449999999999 -0.252921
13640 2.06151264 7.575743070000001 -0.40131729000000005 0.477754 -0.536377 -0.011999
13660 3.15364032 11.119772339999999 0.5116405499999999 0.861683 -0.398744 0.400704
13680 3.80433762 12.6903141 2.32961013 1.63782 -0.251166 0.916546
13700 1.32968664 9.22397022 2.10671712 2.546084 -0.206051 1.367213
13720 0.21180771 8.136031410000001 0.67135716 3.178727 0.073006 1.894703
13740 0.4379870700000001 8.57312577 -0.46029501 3.0497810000000003 0.121549 2.387259
13760 -0.008230590000000001 7.60269114 -1.37294874 2.590069 0.29937600000000003 2.537644
13780 1.27564335 6.81697881 -1.3415076900000003 2.438461 0.819369 2.368207
13800 2.94273513 7.04419803 -1.16203374 1.76112 1.069789 1.870705
13820 4.9485564 8.537799960000001 -0.9291149100000001 0.900931 1.27178 1.653998
13840 6.270758010000001 9.49535406 -0.026496810000000003 -0.344462 0.932042 1.380815
13860 5.007534120000001 8.36715501 -0.13621185 -1.308391 0.8665780000000001 0.473655
13880 3.88577043 7.55359209 -1.08823311 -1.565985 0.8326610000000001 -0.410452
13900 3.95956125 8.766216 -1.82320812 -1.6534919999999995 0.759518 -0.956831
13920 3.05604063 8.076906540000001 -1.8173711700000001 -1.932073 0.8651969999999999 -1.301812
13940 2.82672207 7.75642365 -0.86235786 -1.850378 0.684028 -1.620407
13960 1.48236948 7.17742764 0.04190832 -1.540681 0.073361 -1.82256
13980 0.97357383 5.8912974 0.22812174000000002 -2.009143 -0.494641 -1.896675
14000 2.01540564 5.582645370000001 0.6409657799999999 -2.331416 -0.960211 -1.872693
14020 2.85771186 5.535792810000001 0.97208271 -1.846888 -0.945617 -1.414264
14040 3.1747514400000005 6.57208197 0.5855785200000001 -1.554058 -0.642303 -0.265337
14060 2.73705867 8.02630656 0.19714176 -1.347972 -0.291668 0.048642000000000005
14080 1.95388713 8.401284 -1.73010141 -1.113154 -0.315844 -0.23597
14100 1.5350589900000002 8.87818734 -2.68841088 -1.127235 -0.434815 -0.308555
14120 0.90022446 9.715696470000001 -3.82529178 -1.037368 -0.832565 -0.286053
14140 -1.14945732 9.35165718 -3.8137650300000003 -0.717125 -0.8697030000000001 -0.599963
14160 0.21630069000000005 10.06581537 -3.0000647700000003 -0.836191 -0.00027400000000000005 -0.5378149999999999
14180 5.07489939 12.666358080000002 -1.4569223400000002 -0.222671 1.245279 0.4657979999999999
14200 7.14165057 11.02262391 -3.6049493700000004 1.260273 -0.592114 1.258313
14220 8.9424036 8.22569481 -7.16050539 1.7957169999999998 -1.964365 1.104647
14240 10.11775932 12.50170704 -8.50336686 1.001018 -0.559712 0.573867
14260 9.888283800000002 11.53366605 -6.2863264800000005 -0.103236 0.215967 0.160304
14280 7.5061411200000006 6.96112695 -4.53391713 -0.06150700000000001 0.121392 -0.200343
14300 6.07377321 4.47838272 -5.660929169999999 -0.5162329999999999 0.34630900000000003 -0.64071
14320 4.8777576300000005 3.69102231 -5.692360409999999 -1.451467 0.556507 -1.245716
14340 4.683313620000002 2.55174777 -3.2162085 -0.698204 0.014093 -1.318808
14360 3.9541755600000013 1.2808818900000003 -1.5518242800000004 -0.19962 0.382962 -1.023105
14380 3.7721510100000004 4.09128993 -2.34712098 0.08240800000000001 1.012439 -0.710021
14400 5.12967843 8.123906250000001 -3.8330809200000004 0.423528 1.298642 -0.118347
14420 5.364098189999999 8.760231899999999 -1.31217579 1.168399 0.8988860000000001 0.636192
14440 0.09026181000000001 6.0574493700000005 -0.37691982000000007 2.104143 0.41339 1.088799
14460 -2.54470419 4.90110543 -0.11541465 3.041916 0.124921 1.285863
14480 -1.43626248 5.269941810000001 0.01092834 3.4519800000000003 -0.17515 1.378842
14500 0.16286562000000002 8.58120921 2.4231582900000004 3.491415 -0.325984 1.236169
14520 2.0697432300000003 12.729083220000001 3.04152183 2.96339 -0.036761 1.02808
14540 5.6914677 15.297586470000002 -0.7520346000000001 2.791224 0.589148 1.02928
14560 7.199725770000001 39.35106882 3.3290725500000002 3.022476 0.792775 1.055203
14580 3.7360796400000003 21.504579480000004 -1.1666738700000001 1.874806 0.5720970000000001 0.7601180000000001
14600 3.0600823500000005 0.04759812000000001 2.12333526 0.305002 0.8739370000000001 0.431504
14620 5.57500338 3.17519289 -0.81939987 -0.566136 -0.07588099999999999 0.551618
14640 7.481439540000001 -1.7446202100000001 -1.53460773 -0.8953760000000001 0.448284 0.026286
14660 4.34307339 6.3339246000000005 -1.7962600499999999 -0.858931 0.539339 -0.39766
14680 3.67260894 10.26385965 -0.36419625 -1.160554 1.005052 -0.715489
14700 2.52030672 12.259056690000001 0.6134291099999999 -1.685187 0.608183 -1.179049
14720 3.54687417 16.767379530000003 -0.8827136099999999 -1.813349 -0.332384 -1.6177780000000002
14740 1.9758909600000003 9.8822997 0.41957370000000005 -2.037087 -1.178638 -1.584073
14760 5.350619250000001 8.125250220000002 -0.68332536 -2.568381 -0.911419 -1.082858
14780 6.1430710500000005 6.26192901 -1.27879236 -2.6153 -0.41278 -1.064597
14800 5.279820480000001 4.95649269 -2.19788145 -1.997421 0.09566 -0.345223
14820 2.96414055 6.65126829 -2.4465159 -1.7626529999999998 0.072828 0.09869
14840 1.24855794 7.998318629999999 -2.4780942900000005 -1.349101 -0.349014 0.004911
14860 0.9247788900000001 6.5511278100000006 -1.69432434 -1.015202 -0.807499 -0.446164
14880 -0.24683922000000003 5.2398545400000005 -1.0075556700000001 -0.921912 -0.902785 -0.408002
14900 -0.62704539 4.62627828 -0.6093873900000002 -0.839441 -0.784061 -0.5987899999999999
14920 -2.5453026000000003 3.4100541 -2.2499725500000007 -0.980236 -0.5046069999999999 -0.56488
14940 0.92222829 5.4947772 -4.55682348 -0.861764 0.088016 -0.21764
14960 9.44790309 11.74652343 -3.98950137 -0.14316099999999998 0.788428 0.35904899999999995
14980 7.34821974 20.036581650000002 -2.54635227 -0.945886 -0.5220319999999999 0.564492
15000 9.877953869999999 8.52267294 -6.439460580000001 -0.561608 0.363483 0.696365
15020 7.21694232 7.588319490000001 -7.419175470000001 1.102791 0.232442 0.322531
15040 7.54491024 10.63987695 -6.973693560000001 1.649325 0.7144 0.268047
15060 6.867421830000001 6.86891295 -5.71631643 1.223625 1.069916 -0.090032
15080 6.16358376 4.06375326 -6.557710320000001 0.799429 0.62944 -0.391533
15100 7.15257891 4.33887471 -6.00521112 0.371807 -0.143102 -0.499284
15120 7.3250190900000005 5.01083028 -3.4657454700000003 -0.30309 -0.61123 -0.5952649999999999
15140 8.199502110000001 5.709724110000001 -1.14452289 -0.5874739999999999 -0.583184 -0.435986
15160 6.63016698 7.82243514 -1.2723570000000002 -0.15707100000000002 -0.398495 -0.109545
15180 6.0851429999999995 8.95766796 -3.03180012 0.867899 -0.07459099999999999 0.052091
15200 1.09975986 10.678793220000001 -4.1061128400000015 1.853567 0.400267 0.326492
15220 -2.59844337 9.59010885 -3.3702451200000003 2.739221 0.570475 0.948824
15240 -4.967421030000001 8.04936006 -1.5679911599999998 3.544655 0.192459 1.542456
15260 -3.3688913400000002 5.96254743 1.4718924000000002 3.714728 -0.152349 1.576133
15280 -0.96340086 3.74521275 2.7286711200000004 3.299134 -0.271312 1.5829959999999998
15300 0.34219242000000005 1.92559509 2.6676038699999998 2.823845 0.155225 1.887846
15320 2.6707430700000003 3.63608631 -0.18037647 2.0158270000000003 0.466223 1.804891
15340 6.68061 19.4318442 2.6473952700000005 1.110726 0.921532 1.149575
15360 5.867802449999999 20.887559910000004 -0.8789760000000001 0.08217200000000001 1.140313 1.14211
15380 4.70785824 22.4892288 -5.089114080000001 -0.342587 0.437158 0.4638600000000001
15400 2.22976395 19.91369178 1.83683421 -1.089484 1.044865 -0.344371
15420 3.7236601800000004 5.09554944 2.86639371 -1.571181 1.437139 -0.788345
15440 4.5137183400000005 3.70314747 -0.5204695500000001 -1.638509 1.0447 -1.157918
15460 7.444622610000001 4.25176191 -2.50324713 -1.577381 0.34578600000000004 -1.453561
15480 8.742122640000002 5.17518702 -2.2698770400000003 -1.601165 -0.304697 -1.7989970000000002
15500 6.9928623 7.52694813 -0.16121754000000002 -1.929793 -0.439387 -1.930375
15520 6.70575303 9.02952621 0.48110202 -2.713629 -0.591062 -1.6824869999999998
15540 4.78150191 9.27740529 0.7762849200000002 -2.486867 -0.636844 -1.618888
15560 2.08112283 7.247628000000001 -0.34069149000000004 -1.995123 -0.629492 -0.156271
15580 0.89244513 7.27127991 -1.47084273 -1.7785669999999998 -0.309732 0.409921
15600 1.76453451 6.58181349 -1.9728989100000003 -1.361582 -0.463054 0.295526
15620 2.9806017300000005 7.18146936 -1.19556432 -1.104427 -1.151337 -0.16433599999999998
15640 2.6467968600000003 6.36281505 -2.6626596300000003 -0.927114 -1.710806 -0.534122
15660 -0.22947552000000002 5.89729131 -3.2370155100000004 -1.121803 -1.844386 -0.792752
15680 -0.15701886 6.23753154 -3.4365509100000007 -1.904987 -0.382457 -0.739207
15700 0.83361456 8.84195901 -3.34868274 -0.718427 1.3447049999999998 0.008214
15720 5.6637740700000005 13.18862286 -3.57786396 0.238954 0.25400300000000003 0.740553
15740 5.795502750000001 18.99115938 -2.41432929 -0.07435900000000001 0.190684 0.596372
15760 7.283856330000001 8.49573468 -6.27675192 0.5460520000000001 -0.080367 0.442956
15780 10.571167710000001 8.258921280000001 -8.697065310000001 0.858093 -0.122374 0.288161
15800 9.2521053 11.5565724 -7.039263600000001 0.995502 0.14729 0.131747
15820 5.946380550000001 6.749162280000001 -6.19995924 0.5413680000000001 0.296451 -0.278609
15840 6.451880040000001 4.995261810000001 -6.5411019900000005 -0.069194 0.376598 -0.610921
15860 5.2197930900000005 4.466110410000001 -7.103332710000001 -0.311424 0.14716 -0.8323719999999999
15880 5.95926108 4.689150570000001 -4.354747290000001 -0.6396430000000001 -0.034695 -0.6250600000000001
15900 8.733293640000001 2.6463456 -0.83436012 -0.335777 -0.209821 -0.5169600000000001
15920 7.7983319700000004 2.83241187 -1.13464422 0.35642 -0.237879 -0.493929
15940 6.581666340000001 9.29581866 -3.76781499 0.777119 -0.082005 -0.412141
15960 6.06509136 10.36759059 -3.9215475 0.850773 0.197988 0.099693
15980 0.61102566 7.484735700000001 -3.6152793000000005 1.370681 0.39935 0.70768
16000 -4.0954788 6.890318370000001 -1.8925157700000002 2.2027240000000003 0.171629 0.989385
16020 -5.00484618 4.6547174700000005 2.35849077 2.792956 -0.357196 1.122372
16040 -1.69073388 3.33910818 3.4606540800000003 3.0126150000000003 -0.487509 1.019387
16060 1.17760221 3.13448139 1.1602385100000001 2.9201040000000003 -0.186648 1.252296
16080 6.43482045 8.405325720000002 2.44845828 2.880571 0.055455 1.747365
16100 4.88853882 23.881640580000003 3.9152592900000003 2.720376 0.461061 1.951893
16120 0.6354329400000001 18.30393945 -4.50279 1.809848 0.8760959999999999 1.515576
16140 3.1560339600000002 20.04346827 -1.57487778 0.31645 1.541011 1.166734
16160 6.18453792 18.19885473 3.56483628 -0.565555 1.050034 0.8375309999999999
16180 4.712802480000001 3.6994098600000003 4.25954124 -0.75812 0.839828 0.026743
16200 5.395833540000001 3.6209691 0.49935843 -1.014868 0.718928 -0.418207
16220 6.37060419 3.50016876 -2.1794680800000004 -1.23748 0.7337130000000001 -0.7252930000000001
16240 6.60486699 7.723040220000001 -2.2120961400000003 -1.388335 0.376301 -0.990808
16260 6.07272354 11.656860029999999 -1.6287641099999999 -1.301403 -0.103007 -1.348509
16280 5.893249590000001 11.63650428 -1.5555618900000003 -1.247132 -0.529844 -1.746029
16300 4.0689918 9.350156250000001 -0.9605559600000001 -1.6724310000000002 -0.923556 -1.753837
16320 2.86534404 6.079757310000001 -0.5204695500000001 -2.135734 -1.023939 -1.557187
16340 3.52860795 5.10962679 -0.17198892 -2.053178 -0.934739 -1.557793
16360 4.44231135 5.991594840000001 -0.11152008000000001 -1.497568 -0.8210139999999999 -0.90992
16380 4.4559374400000005 8.38301778 -0.5273561700000001 -1.397249 -0.598306 -0.21516
16400 3.61018791 8.48660157 -1.1826936000000001 -1.521717 -0.439465 -0.136116
16420 2.26898433 5.87258973 -1.67157495 -1.380397 -0.467104 -0.272894
16440 -0.37632141 5.11740612 -3.30617601 -0.987257 -0.565504 -0.248658
16460 -0.29369178 7.19463438 -3.1012549200000006 -0.710521 -0.322175 -0.333563
16480 0.15492933000000003 9.008415090000002 -3.0261103200000004 -0.597775 0.496846 -0.387236
16500 -0.61761798 9.69713595 -2.5906640400000005 -0.25305900000000003 1.037702 -0.34386
16520 2.94781671 10.36549125 -2.348769060000001 -0.012547 0.7330979999999999 -0.036278
16540 7.36393536 15.055387379999999 -3.5199261 -0.445639 -0.055352 0.109121
16560 9.855351630000001 12.600493740000001 -7.26080283 -0.672208 -1.309534 0.127306
16580 10.244995020000001 11.61075303 -8.21027349 -0.680291 -0.448955 0.175285
16600 9.990974880000001 10.224933570000001 -6.41026602 0.17393499999999998 0.032643 0.7425189999999999
16620 6.262674570000001 6.965462970000001 -4.27690494 0.842733 0.142442 0.41056
16640 6.719231970000001 6.734192220000001 -4.738691070000001 0.853425 0.353348 0.140104
16660 6.76907658 5.952217500000001 -4.712802480000001 0.531076 0.292688 -0.128057
16680 6.3797373 4.39126992 -3.70135224 -0.043087 -0.005741 -0.391263
16700 7.297325460000001 3.1611253500000003 -2.64230388 -0.661925 -0.222196 -0.602543
16720 6.69138138 2.9954246400000004 -1.95223905 -0.7396 -0.227046 -0.654354
16740 3.8495421 4.30579539 -2.72358954 -0.26219000000000003 -0.13806300000000002 -0.676771
16760 3.14870589 8.10654255 -3.29734701 0.157327 0.004982 -0.5821569999999999
16780 1.7907272100000002 9.321569910000001 -2.3890293000000002 0.470932 0.118427 -0.452993
16800 -0.7286868000000001 7.857309690000001 -1.2458601900000001 0.518015 0.201256 -0.162214
16820 -3.1762425600000004 7.808809050000001 -1.01982798 0.590296 0.284695 0.22060700000000005
16840 -2.90920455 8.02795464 -0.32198382000000003 0.947515 0.347055 0.565922
16860 -0.7611677099999999 7.66436661 0.11884815000000001 1.845792 0.304749 0.776281
16880 0.24683922000000003 6.2673147 1.1859799500000001 2.831991 0.038764 0.903151
16900 1.52607303 7.3305519299999995 1.6799526900000001 3.460716000000001 -0.092461 0.939758
16920 4.28843169 13.261520970000003 -2.7093650400000007 3.528561 0.126434 1.0190000000000001
16940 7.97811003 18.58699719 1.7747074800000002 3.238096 0.361682 1.314703
16960 4.92820065 16.38941985 0.17678601 2.8765400000000003 0.4184350000000001 1.820579
16980 6.69362787 13.906087020000001 -2.35549872 1.972186 0.385829 1.701072
17000 5.84743689 19.744989210000004 1.91751165 0.5444180000000001 1.3552959999999998 1.058538
17020 2.15835696 8.68987458 1.3233984300000001 0.31563 1.26336 1.070944
17040 5.56647849 5.16860451 1.02297699 0.443407 0.6633359999999999 0.762821
17060 5.75373177 5.06142045 -1.28642454 -0.237177 0.802323 0.16289
17080 4.97056023 7.5020994000000005 -0.7762849200000002 -1.153872 0.742478 -0.326273
17100 4.123770840000001 8.74076886 0.27857457 -1.566208 0.27979 -0.6778689999999999
17120 4.58691075 9.087454260000001 0.07095573000000001 -1.686408 0.126681 -0.912453
17140 4.3905243600000015 9.612711090000001 -0.32227812 -1.494791 0.071309 -1.350083
17160 3.2479438500000004 7.18401015 -0.5140341900000001 -1.348081 -0.334969 -1.64123
17180 3.0650265900000004 6.0731748 -0.36090009000000006 -1.802423 -0.557017 -1.662279
17200 3.2723413199999998 6.08724234 -0.06287229000000001 -2.372698 -0.779405 -1.764254
17220 3.2717429100000004 6.47598321 -0.26704782000000005 -2.309614 -1.079547 -1.619219
17240 3.0326928300000002 7.65478224 -1.01069487 -1.803558 -1.106129 -1.005695
17260 2.24263467 8.382713670000001 -1.45108539 -1.538466 -0.605697 -0.375302
17280 1.51035741 8.316103770000002 -1.10740185 -1.394447 -0.330455 -0.334056
17300 1.5452319600000002 5.87498337 -0.43738866000000004 -1.288604 -0.697624 -0.513376
17320 0.84708369 4.781207610000002 -2.33484867 -1.186811 -0.736843 -0.650415
17340 0.5956141500000001 6.955133040000001 -2.49217164 -1.132291 -0.693434 -0.630862
17360 1.89700875 8.405168759999999 -2.96892783 -0.94593 -0.7538060000000001 -0.61346
17380 0.8458868700000001 9.7866522 -3.9624061500000005 -0.480652 0.364774 -0.228151
17400 3.91061916 9.96328125 -3.8812774500000002 -0.329353 -0.6421680000000001 0.236736
17420 9.32396355 15.61806936 -2.13201711 -0.157743 -1.317377 0.310371
17440 8.46938502 13.355078940000002 -5.32322973 -0.763936 0.456505 -0.01233
17460 8.379123210000001 8.76113442 -7.74698643 0.07602 0.774292 0.240957
17480 9.18579951 9.905206050000002 -7.810761240000001 0.678431 0.209637 0.000197
17500 8.51549202 9.16948548 -5.32038483 0.865927 0.082372 -0.303841
17520 9.58262382 7.34343246 -5.07535065 0.326868 0.549338 -0.729085
17540 6.76563327 6.16717422 -5.434749810000001 -0.517768 0.602332 -0.99463
17560 5.40047367 4.69723401 -4.569998310000001 -0.904228 0.368021 -0.938277
17580 5.55091002 3.0511062000000004 -2.39696559 -0.715953 0.542882 -0.8741610000000001
17600 5.1918051599999995 1.20230379 -1.55122587 -0.098384 0.906423 -0.947225
17620 4.48198299 2.07213687 -2.5098296400000004 0.10286 1.122656 -1.117012
17640 5.151083850000001 6.0833477700000005 -3.4995703500000004 0.036007 1.065916 -1.255207
17660 4.79603052 10.426715460000002 -2.55264048 -0.003606 1.059565 -1.230906
17680 0.50055525 8.73193986 -0.8186445 0.156493 0.99976 -1.066274
17700 -2.96952624 7.68022938 -0.26704782000000005 0.497681 0.916794 -0.860822
17720 -2.7086194800000003 5.25467745 -0.62465175 0.799838 0.658342 -0.692806
17740 -1.47818061 3.81436344 0.0606258 0.923839 0.35277600000000003 -0.57618
17760 0.9202859100000002 4.323159090000002 -0.27587682 1.021471 0.120781 -0.453423
17780 4.39875495 15.928830540000002 -2.15671869 1.153134 -0.308666 -0.266083
17800 7.65074052 24.023542230000004 5.46228648 1.324296 -0.390221 0.266124
17820 4.1412915 15.319747260000002 -0.60908328 1.6867599999999998 -1.016957 1.370795
17840 1.14362037 9.16618932 0.83421297 2.217613 -1.695475 2.225677
17860 7.07458941 16.97604804 0.09385227000000002 2.32744 -1.434797 2.740994
17880 0.40521186000000003 18.159035940000003 0.60698394 2.058465 -0.58348 2.667521
17900 3.11802021 8.30637225 2.01466008 1.188377 0.109088 2.055943
17920 3.79775511 5.51632977 0.21555513 0.267714 0.5109520000000001 1.725325
17940 5.095107990000001 7.67977812 0.36434340000000004 -0.181173 -0.161717 1.701687
17960 4.47284988 8.82190737 0.6535422000000001 -0.23377 -0.793959 1.614536
17980 3.0454164 9.167690250000001 -0.08876088000000001 -0.340132 -0.767725 1.806039
18000 2.45055762 10.59975405 -0.52705206 -0.573774 -1.27151 2.25157
18020 1.7152785000000002 10.41908328 -0.55489284 -0.8361559999999999 -2.0023 2.215422
18040 2.3486121000000004 8.66637963 0.7143151499999999 -1.1562629999999998 -3.134157 1.561953
18060 3.3223428900000003 7.44790896 1.31830704 -1.429539 -4.307549 1.131054
18080 4.24681767 7.37022357 0.31838355 -1.649517 -4.413171 0.829483
18100 4.5773361900000005 7.347621330000001 -1.11218913 -1.748271 -3.710464 0.476448
18120 4.39950051 7.178320350000001 -2.14983207 -1.510846 -3.133915 0.212448
18140 4.14263547 6.77371671 -1.72411731 -1.1164120000000002 -2.704065 0.001008
18160 3.71168217 5.682785850000001 -1.07746173 -0.843658 -2.317341 -0.24220500000000006
18180 3.98545965 4.2858909 -1.3358178900000002 -0.8779610000000001 -2.01626 -0.380631
18200 4.61206359 4.37390622 -0.3555144 -1.5938 -1.582016 -0.196044
18220 6.087693600000001 6.659655840000001 -1.9910081700000002 -2.212715 -0.5828479999999999 0.354896
18240 4.43467917 8.955274320000001 0.28156662 -0.894914 -0.133143 0.770517
18260 1.4895504000000002 9.97315992 -0.5007122100000001 0.741102 0.166435 1.6895490000000002
18280 0.16165899 13.350134700000002 -1.57008069 0.955691 -0.97008 1.470314
18300 -1.39091085 18.50900769 -0.9592021800000001 0.5213369999999999 -1.698549 1.003537
18320 0.55144953 20.55929769 -2.1371085 -0.081618 -1.735857 0.999374
18340 2.55009969 19.893179070000002 -2.57330034 -0.894496 -0.792279 0.968986
18360 7.17697638 14.839096500000002 -3.12684921 -0.33923000000000003 -0.372993 0.330325
18380 9.417511710000001 13.166324730000001 -2.2242213 -0.176723 -0.1496 0.0021620000000000003
18400 7.90700715 12.4651746 -3.2591763000000005 -0.45048 -0.402903 -0.350871
18420 7.95281004 11.28053862 -5.80837347 -0.6128560000000001 -1.344588 -1.013096
18440 7.58906505 11.284737300000002 -5.38594506 -1.044524 -2.22408 -1.277767
18460 4.95290223 9.317969640000001 -3.70629648 -1.899721 -1.915141 -1.07156
18480 3.45795633 6.58181349 -1.00695726 -2.071913 -1.3782709999999998 -0.915354
18500 2.73586185 5.096599110000001 0.10537902 -1.63913 -0.500862 -0.6634909999999999
18520 1.7095985100000002 3.67889715 0.39068325000000004 -1.564438 0.065354 -0.334683
18540 1.66154913 2.9370453300000006 0.10104300000000001 -1.259013 -0.211086 -0.199735
18560 1.97379162 2.96009883 0.12768696000000002 -0.948802 -0.712014 -0.406298
18580 2.2537101600000002 3.98096667 1.7312982300000002 -0.764486 -1.091552 -0.49105
18600 2.11539897 4.866230879999999 1.7905800600000001 -0.710379 -1.162037 -0.493787
18620 2.36104137 5.764061700000001 1.38567231 -0.756153 -1.04826 -0.402385
18640 1.93113774 5.934853800000001 0.7126670700000001 -0.7101770000000001 -0.960267 -0.335947
18660 2.1902492700000002 9.7954812 -5.248389240000001 -0.699125 -0.814606 -0.275168
18680 9.982891440000001 21.73704705 -8.52132897 -0.601374 -0.718863 -0.32695100000000005
18700 4.820280840000001 13.165118099999999 -9.11993517 -0.550532 -0.736453 -0.500693
18720 3.2216040000000006 6.0655328100000006 -5.898036870000001 -0.620413 -0.762259 -0.6464260000000001
18740 4.84812162 16.173266310000002 -3.1118791500000005 -0.637015 -0.567729 -0.7942060000000001
18760 8.242008839999999 18.090326700000002 3.63967677 -0.626942 -0.318117 -0.887391
18780 3.21935751 16.246017269999996 2.8035214200000005 -0.609925 -0.362785 -0.92033
18800 -0.0038945700000000004 9.40823145 1.1455725600000002 -0.532194 -0.509501 -0.794617
18820 -0.72225144 6.947049600000001 -0.6216597000000001 -0.389477 -0.609841 -0.601212
18840 -1.2278980800000001 7.33220001 -1.1846359800000001 -0.201145 -0.6830970000000001 -0.5602779999999999
18860 0.9092104200000001 8.05655079 -1.0440783 0.237071 -0.670009 -0.483526
18880 4.8538016100000005 8.19141867 1.31142042 0.801128 -0.787801 -0.287156
18900 6.32420289 10.59272028 3.4645486500000002 1.113264 -0.8612280000000001 0.221456
18920 4.900811129999999 10.551557520000001 1.38132648 1.447231 -1.139907 0.890716
18940 2.77582779 9.897868170000002 1.09796463 1.766277 -1.370776 1.604677
18960 1.40542965 9.552232440000001 -0.28381311 1.794675 -1.39224 2.151832
18980 0.015568470000000001 9.38802285 -1.58700294 1.797238 -1.266559 2.420881
19000 0.77209605 8.805142080000001 -2.1318699600000004 1.880901 -0.8296459999999999 2.044891
19020 2.2785588900000002 8.67266784 -1.6947756 1.50593 -0.4354770000000001 1.833464
19040 3.4952343300000006 8.69900769 -0.52181352 1.193455 -0.5297729999999999 1.709625
19060 3.6715690800000003 8.25503652 0.09564750000000001 0.965784 -1.017313 1.5516299999999998
19080 3.04572051 7.99472817 0.6748004700000001 0.548325 -1.255923 1.378105
19100 2.1484782900000003 8.3062251 1.344951 0.164578 -1.498215 1.296686
19120 1.91361708 8.126604 0.65698551 -0.153025 -1.80323 1.392067
19140 2.02484286 8.93806758 -0.70159158 -0.314756 -2.008957 1.564253
19160 3.3516846000000005 9.75760479 -0.72598905 -0.472745 -2.592773 1.71238
19180 4.28798043 9.93393954 -0.42197715 -0.768799 -3.383396 1.749781
19200 4.946761169999999 10.15279083 0.01437165 -1.046646 -3.668139 1.802685
19220 4.56445566 9.97330707 -0.10044459 -1.143949 -3.442109 1.839103
19240 3.7791945900000004 10.29529089 -0.00209934 -1.0294020000000002 -3.020098 1.699425
19260 3.1199625900000005 10.51757568 0.25461855 -0.8521350000000001 -2.670655 1.5378459999999998
19280 3.18447315 11.176660530000001 0.0076321800000000006 -0.798112 -2.187698 1.394463
19300 4.09743099 11.370653279999999 -0.25416729000000005 -1.083519 -1.790707 1.198612
19320 4.81743594 11.49265044 0.1651023 -1.630366 -1.7365119999999998 0.907371
19340 3.91540644 10.1225466 0.8842145400000001 -2.1028740000000004 -1.645745 0.729835
19360 2.31313914 8.04322881 1.7784549 -2.309745 -1.347008 0.528249
19380 0.91490022 6.25504239 1.4395586400000002 -1.956089 -1.234358 0.289157
19400 1.6600482 8.07855462 -0.15822549 -0.893431 -1.6409790000000002 0.354785
19420 1.4492901599999999 13.76852139 0.11360961 -0.155028 -1.698393 0.752054
19440 1.0645910100000002 15.746207580000002 -0.13741848 0.134221 -1.568785 0.856457
19460 2.15521776 14.273863920000002 -0.8993317500000001 0.074563 -1.078534 0.852208
19480 3.4738289100000004 12.00188754 -2.30026842 -0.4236430000000001 -0.707765 0.738226
19500 3.6109432800000003 10.64975562 -2.45264715 -1.250821 -0.6319859999999999 0.886175
19520 3.2138148600000003 9.72258309 -1.92559509 -2.608568 -0.34999 1.072882
19540 3.8112242400000005 8.97608133 -2.43663723 -2.455858 -0.43421 0.956552
19560 4.01570388 8.9512326 -2.82073797 -0.455457 -1.298244 0.578527
19580 3.99848733 8.48854395 -3.05844408 0.25123 -1.331213 0.219242
19600 3.8965516200000003 7.253464950000001 -2.96982054 0.367682 -0.99334 -0.192712
19620 3.7308411 6.17540481 -2.37496176 0.115922 -1.025552 -0.7093119999999999
19640 4.20415398 6.18812838 -1.5079637700000004 -0.585182 -1.256788 -1.148679
19660 4.52494098 6.45548031 -0.84873177 -1.449058 -1.318238 -1.282821
19680 3.8872615500000003 6.321357990000001 -0.70652601 -1.977488 -1.062157 -1.194973
19700 3.49478307 6.61519692 -0.6328823400000001 -1.831957 -0.28170300000000004 -1.222731
19720 3.41994258 6.60816315 0.54666225 -1.521462 0.045096 -0.899446
19740 2.9514169800000003 5.90971077 1.30573062 -1.046276 0.070564 -0.488099
19760 2.6807787000000003 5.945183730000001 1.51125993 -0.539404 -0.046647 -0.3872
19780 2.89124244 6.161337270000001 1.05081777 -0.32571700000000003 -0.11278699999999997 -0.283073
19800 2.61551277 7.04719989 -1.32968664 -0.326297 -0.183329 -0.224234
19820 3.25827378 10.321787700000002 -5.146747830000001 -0.399606 -0.249535 -0.121044
19840 7.3787582700000005 16.009507980000002 -7.10362701 -0.451534 -0.322143 -0.03372
19860 7.7067261899999995 14.404248630000001 -5.82932763 -0.410878 -0.19274 0.07108400000000001
19880 5.8109142600000006 9.42874416 -4.5725391 -0.2693 0.08966299999999999 0.188148
19900 5.69640213 6.5089153799999995 -2.2837974300000004 -0.009626 0.334228 0.341335
19920 4.96113282 4.50892125 -1.6247223900000003 0.112107 0.376341 0.360292
19940 4.81937832 6.87744765 -0.91385055 0.179384 0.039935000000000005 0.246893
19960 6.060892679999999 14.323110119999999 0.7487384400000001 0.098852 -0.17138499999999998 0.149393
19980 8.89839594 26.232195060000002 1.00980216 0.088799 -0.259815 0.161186
20000 0.09310671 19.90261629 -2.83719915 0.038671 -0.297823 0.119224
20020 -1.93068648 9.4223088 -2.7226870200000004 -0.161885 -0.266341 0.145557
20040 -2.03127822 6.02003403 -2.7650466000000002 -0.27824 -0.32010500000000003 0.105289
20060 -1.96182342 4.74138882 -1.4063223599999999 -0.160115 -0.598766 -0.107173
20080 0.0981981 5.29703703 0.6487549200000001 -0.013821 -0.7498199999999999 -0.287556
20100 3.010689 6.696619920000001 2.19353562 0.063345 -0.572697 -0.426112
20120 5.775892560000001 9.20945142 3.0602393100000005 0.112251 -0.31 -0.362014
20140 4.23739026 11.5252785 2.7795654000000005 0.172009 -0.11921500000000003 -0.172766
20160 1.6328058300000001 10.878181470000003 0.6101329500000001 0.358056 -0.199916 0.13308
20180 1.18538154 10.43106129 -1.5633510300000002 0.841341 -0.426323 0.388847
20200 1.24555608 10.19065743 -2.5806382200000004 1.581667 -0.619741 0.6965720000000001
20220 2.3285604600000003 9.16723899 -2.5102809 2.3467990000000003 -0.624147 1.134552
20240 2.8803141 8.412359490000002 -2.26927863 2.834557 -0.512988 1.6836779999999998
20260 3.2401645200000004 7.71405426 -1.1473677899999999 2.7931470000000003 -0.472131 2.157627
20280 2.98509471 7.18879743 -0.48289725 2.4367240000000003 -0.242851 2.404808
20300 2.89857051 7.68262302 0.057633750000000004 1.898773 0.070412 2.054545
20320 2.67449049 8.680898430000001 0.53903007 1.559915 0.381443 1.557193
20340 2.83899438 8.73089019 0.50774598 0.337432 0.6732640000000001 1.567508
20360 2.7737284500000006 8.159977620000001 0.13995926999999997 -0.471597 0.444592 1.645471
20380 3.5396932500000005 6.57342594 -0.7863107400000001 -0.621028 0.566958 1.543857
20400 4.0977252900000005 5.2696377000000005 -1.4864112000000003 -0.563976 0.28286300000000003 1.1451049999999998
20420 4.194128160000001 5.3871516900000005 -2.04055848 -0.862267 0.262852 0.5480470000000001
20440 3.98157489 7.315885980000001 -2.64649275 -1.218479 -0.225979 0.025962
20460 4.50907821 10.37777337 -2.1468400200000004 -1.428646 -0.692082 -0.445995
20480 2.88824058 11.383082550000001 -0.9047174400000001 -1.39707 -0.683354 -1.056809
20500 1.06354134 9.77721498 -0.18561501000000002 -1.1638879999999998 -0.741031 -1.486668
20520 1.8309972600000002 8.42044293 0.74545209 -1.371231 -0.5476439999999999 -1.449908
20540 3.7592802900000004 7.9561062 1.09676781 -2.10989 -0.161438 -1.220553
20560 3.9050765100000002 7.103332710000001 0.6965001900000001 -2.46676 0.182877 -1.2352379999999998
20580 3.7142229600000003 7.43563665 -0.3671883 -2.292185 0.530879 -1.034707
20600 4.27181355 8.75020608 -0.9330094800000001 -1.831552 0.6936100000000001 -0.571294
20620 3.4937334000000004 8.57133054 -0.9256716 -1.579544 0.379203 -0.219822
20640 2.7390010500000006 7.547902290000001 -0.58932594 -1.425424 -0.165926 -0.160363
20660 2.25671202 7.08611616 -1.55691567 -1.227807 -0.62464 -0.436133
20680 2.2031199900000003 7.760014110000001 -2.7858536099999998 -0.935204 -0.682705 -0.554724
20700 2.05957026 9.139241250000001 -2.790945 -0.695194 -0.714342 -0.576508
20720 0.21720321 10.006994610000001 -3.38117346 -0.5736 -0.755111 -0.609789
20740 0.25880742 10.93955283 -1.4465924099999998 -0.424124 -0.39479 -0.271649
20760 1.93547376 11.254944329999999 -1.03165884 -0.393237 -0.704321 0.383784
20780 5.0701023 12.457395270000001 -1.95687918 -0.62941 -0.224602 0.236241
20800 8.97877908 12.200530230000002 -4.05371763 0.154174 0.636333 0.041922
20820 6.85933839 9.508528890000001 -5.28416631 0.7672770000000001 0.393145 0.119155
20840 8.24515785 9.25331193 -6.92594829 0.702954 0.300785 0.095324
20860 7.634279340000001 9.33248844 -6.00820317 0.4630510000000001 0.462913 -0.01445
20880 4.43587599 6.3601271100000005 -5.199888600000001 -0.253799 0.255412 -0.248859
20900 4.66490025 6.581666340000001 -4.79782575 -0.403447 0.070003 -0.372513
20920 3.90119175 6.468351030000001 -4.14218421 -0.34447 -0.052903 -0.323873
20940 3.72979143 4.9394331000000005 -3.68025093 -0.226559 0.05222 -0.341344
20960 6.13034748 4.63391046 -2.6726952600000002 0.246469 0.087005 -0.392564
20980 7.005585870000001 5.126686380000001 -2.19248595 0.597855 0.147662 -0.414756
21000 5.226532560000001 5.579349209999999 -2.7394523100000003 0.599156 0.391897 -0.221712
21020 4.2487600500000005 8.08498998 -3.67934841 0.764388 0.555767 0.21293
21040 3.0482613 10.245299130000001 -3.34583784 1.371261 0.55265 0.732056
21060 1.15829613 8.860823640000001 -3.6098936100000003 2.353432 0.439677 0.959115
21080 -0.44996508 8.14741101 -2.73555774 2.960884 0.214265 1.124949
21100 -1.1036544300000002 7.391030580000001 0.039367530000000005 3.046075 0.256266 1.20347
21120 0.15851979 4.8469248 1.97244765 3.074591 0.082012 1.332079
21140 1.95283746 2.85022683 1.81078866 3.268568 -0.132941 1.638153
21160 2.11180851 4.65427602 -0.33380487 2.843329 -0.01128 1.419246
21180 7.05228147 11.39325552 -1.0554579000000002 1.408547 0.160226 1.066105
21200 8.737776810000002 22.311255780000003 1.5935854500000002 -0.290551 1.044718 1.128947
21220 1.12027257 19.95186249 -0.8880993 -0.550515 1.228431 1.23265
21240 0.89678115 14.46531588 -1.0779129900000002 -0.409503 0.833412 0.7951020000000001
21260 2.40654996 20.96315577 3.1946559300000006 -0.5813010000000001 0.662942 0.152119
21280 3.3404521500000004 5.86675278 2.35490031 -0.844208 0.777713 -0.348724
21300 6.7618858500000005 4.33034982 0.8388531 -0.976247 0.269227 -0.679076
21320 6.4391564699999995 4.55787315 -1.99475559 -1.013 -0.099241 -0.942711
21340 6.80485365 7.09300278 -1.29630321 -1.158566 -0.324195 -1.30343
21360 5.870039129999999 10.574012610000002 -0.5185173599999999 -1.3791639999999998 -0.676413 -1.475435
21380 4.77941238 9.661810140000002 -0.77958108 -1.759163 -0.625393 -1.384152
21400 3.05364699 9.01230966 0.16390548000000002 -2.107642 -0.403252 -1.48942
21420 2.23814169 6.13484046 0.05643693 -2.026296 -0.26537 -1.4089120000000002
21440 2.3125407300000003 4.77132894 -0.053886329999999996 -1.686396 -0.188317 -0.993234
21460 3.19719672 5.12744175 -0.6026479200000002 -1.507384 0.130222 -0.6217189999999999
21480 3.18103965 7.428004469999999 -0.6360313500000001 -1.407686 0.356295 -0.500603
21500 2.5268990400000004 8.095162950000002 -0.93121425 -1.046267 0.193649 -0.366479
21520 2.07813078 8.04307185 -1.7030061900000002 -0.529289 0.099132 -0.355269
21540 1.75449888 7.466773590000001 -2.6601188400000004 -0.358795 0.351825 -0.29244499999999995
21560 0.47062494000000005 8.05655079 -2.04055848 -0.5208119999999999 0.74074 -0.17443399999999998
21580 1.16158248 8.305930799999999 -2.00283903 -0.496405 0.32495100000000005 0.153145
21600 0.93451041 9.61345665 -2.6008370100000002 -0.255444 -0.5890029999999999 0.463647
21620 3.12220908 8.63598825 -1.76228802 -0.778994 -1.170041 0.766246
21640 6.41326788 10.168653599999999 -5.24868354 -1.158941 -1.7627849999999998 0.675689
21660 7.278617790000001 14.71873761 -6.002366220000001 -0.347238 -0.175148 0.411201
21680 8.65964016 13.711633200000001 -7.08581205 0.616001 0.618911 0.534416
21700 8.18886807 12.30636051 -7.8920370900000005 0.776561 0.128748 0.163356
21720 8.784629370000001 9.3821859 -5.454360000000001 0.7751560000000001 0.071048 -0.057702
21740 7.315287570000001 6.587503290000001 -4.416717060000001 0.273999 -0.098844 -0.29385700000000003
21760 6.670574370000001 6.459669180000001 -4.70935917 -0.119273 -0.038866000000000005 -0.565873
21780 5.28087015 5.670356580000001 -4.23813582 -0.4691520000000001 -0.135209 -0.6782199999999999
21800 4.90949298 4.072876560000001 -3.7917612 -0.542415 -0.068858 -0.690567
21820 6.267461850000001 3.6786028500000003 -3.1009508100000005 -0.190324 0.234334 -0.62654
21840 5.97856716 3.3831158400000003 -2.14039485 0.13516199999999998 0.649084 -0.465632
21860 3.3916505400000005 3.4896916800000004 -2.1806649 0.452646 0.753681 -0.25845
21880 2.5930576800000003 6.937926300000001 -2.84618511 0.8824770000000001 0.5740460000000001 0.068454
21900 2.6292860100000004 8.705295900000001 -3.00335112 1.420011 0.228582 0.479644
21920 1.3159134000000001 7.544458980000001 -1.8944581500000002 2.011775 -0.008057 0.8024100000000001
21940 -0.70922376 7.717350420000001 -1.4275806300000002 2.787305 -0.205953 0.8679020000000001
21960 -1.3855153500000001 8.302781790000001 -1.0193767200000001 3.414735 -0.258972 0.7954399999999999
21980 -0.54142371 8.07795621 -0.07215255 3.536081 -0.12182 0.757656
22000 0.68272695 5.22698382 0.64156419 3.148582 0.231475 0.921139
22020 1.53715833 3.63339837 0.13097330999999998 3.0527040000000003 0.77835 1.438925
22040 2.1743766900000003 5.30871093 -1.19406339 2.563193 1.245893 1.62505
22060 6.87625083 19.09429191 -3.6537541200000003 1.3594959999999998 1.719332 0.956942
22080 9.76404996 18.412457670000002 1.0121958 0.407656 1.568745 1.078673
22100 5.72215338 17.216294940000004 -0.31134978 -0.135552 1.182269 0.962143
22120 2.75172462 15.247594710000001 0.17603064 -0.469284 1.795373 0.5766020000000001
22140 3.6702153 15.285167010000002 2.10327381 -0.86551 1.5734629999999998 0.204514
22160 2.76265296 8.252937180000002 -0.20223315000000003 -1.397009 1.009626 -0.322973
22180 7.31468916 7.409296800000001 -0.56792052 -1.6544869999999998 0.403307 -0.8538319999999999
22200 6.62237784 7.26544296 -0.5953100400000001 -1.418914 -0.132553 -1.583232
22220 4.940924219999999 8.66997009 -0.11720988 -0.954642 -0.761062 -2.252164
22240 3.9204978300000004 8.489897730000001 -0.07454619 -1.150124 -1.07773 -2.2787610000000003
22260 3.7380220200000003 7.7784274799999995 0.30357045 -1.90306 -1.118141 -1.910091
22280 3.5829455400000003 8.35996428 -0.30866184 -2.400316 -1.097284 -1.633716
22300 3.99160071 7.98005241 -0.46687752000000005 -2.040805 -1.093146 -1.382315
22320 3.1608310500000005 7.089255360000001 -0.8379603900000001 -1.307402 -0.702393 -0.370359
22340 2.85680934 6.458766659999999 -1.46709531 -1.1890120000000002 -0.33265300000000003 -0.229001
22360 2.6758344600000004 6.92025849 -1.4373121500000001 -1.339205 -0.342529 -0.293063
22380 2.5083385200000006 8.81007651 -0.85606965 -1.315141 -0.422612 -0.267154
22400 2.05328205 8.55291717 -0.46687752000000005 -1.122742 -0.268052 -0.191233
22420 1.73084697 5.73756489 0.45505647 -0.979197 -0.130102 -0.181861
22440 1.0704279600000002 4.35699378 -1.3940500500000002 -0.404485 0.307697 -0.139952
22460 -0.26344755000000003 5.401817639999999 -2.04235371 -0.029579 -0.334694 0.074998
22480 0.87103971 6.94286073 -2.23081362 -0.357989 -1.47543 0.31558400000000003
22500 1.66633641 10.15488036 -4.03096824 -0.393304 -1.427766 0.148633
22520 4.420905930000001 10.59795882 -2.36044296 -0.14866500000000002 0.23584 0.557339
22540 8.19964926 16.37774595 -2.48708025 0.8356790000000001 0.521506 0.460232
22560 9.67378815 11.42828703 -5.517075330000001 1.144033 0.533079 0.229498
22580 7.634279340000001 10.198289610000002 -7.565265989999999 0.8884340000000001 0.608533 -0.036235
22600 8.48001906 11.64787407 -8.55560511 0.167657 0.810679 -0.412201
22620 8.27658909 9.5959458 -5.552705250000001 -0.357894 0.6250859999999999 -0.696577
22640 8.00190909 7.24269357 -4.69812672 -0.630739 0.028203 -0.644307
22660 7.0997324399999995 5.9823145800000015 -5.02729146 -0.565418 -0.017322999999999998 -0.504923
22680 6.318356130000001 3.05005653 -3.97453131 -0.038137 0.4149 -0.359721
22700 7.57095579 1.7360855100000003 -2.14189578 0.492134 0.755678 -0.259245
22720 8.000261010000001 1.9743900300000001 -1.08284742 0.754872 0.676613 -0.162237
22740 5.1203981700000005 2.44037484 -1.9357778700000001 0.771279 0.371565 -0.081615
22760 3.1587317100000005 3.9071758500000002 -4.1589495 0.63164 0.083785 0.078012
22780 2.85621093 10.20292974 -4.37749668 0.705954 -0.029159 0.285911
22800 1.0472175000000001 10.448268030000001 -2.98973484 1.2091610000000002 -0.148894 0.488268
22820 -2.51941401 8.27584353 -1.3377700800000003 2.020269 -0.419683 0.636355
22840 -2.5237500300000004 6.79721166 -0.48139632000000004 2.8772 -0.692802 0.794378
22860 -0.6712002000000001 6.4216456200000005 -0.6768900000000001 3.342021 -0.7223069999999999 0.8435959999999999
22880 1.59927525 6.050866860000001 -0.59740938 3.110392 -0.577308 1.013776
22900 3.2081250600000004 12.14454456 2.10702123 2.626415 -0.169976 1.333545
22920 5.60269701 19.29727062 2.43603882 2.23386 0.366078 1.618536
22940 7.015307580000001 17.29997424 1.88727723 1.5880379999999998 1.1633209999999998 1.541432
22960 3.87603891 13.877638020000001 -0.3441348 0.690338 2.142679 1.428153
22980 4.509225360000001 16.31052783 0.36613863 0.432496 1.519279 1.438901
23000 1.2602318400000003 16.407676260000002 0.9021766500000001 0.13997 0.967334 0.926955
23020 1.18089837 6.886727909999999 0.25611948 -0.8802129999999999 0.910923 0.202056
23040 3.62725731 3.9624061500000005 0.25312743 -1.621815 0.982034 -0.420648
23060 4.0080618900000005 3.3126113700000004 -1.13823468 -2.006513 0.7863140000000001 -0.958263
23080 4.8036627 7.12593495 -1.22670126 -1.574062 0.134849 -1.453267
23100 6.159836340000001 10.991045520000002 -0.31494024000000004 -1.108121 -0.756991 -1.805656
23120 6.6951288 12.20981049 0.9285165000000001 -1.541739 -1.088943 -1.799714
23140 5.38834851 11.32110297 0.43110045 -2.327942 -1.243049 -1.7409150000000002
23160 4.38603138 8.53869267 -1.16158248 -2.655217 -1.167301 -1.4858559999999998
23180 4.06299789 6.70381065 -1.68953706 -2.295612 -1.318937 -1.173366
23200 3.5420868899999998 5.41573803 -1.6170902100000002 -1.712862 -1.127328 -0.312827
23220 3.5718700500000002 5.8086677700000005 -1.38895866 -1.342148 -0.764241 -0.058602
23240 3.75554268 7.05827538 -1.0398894300000001 -1.07276 -0.506987 -0.156395
23260 3.1481074800000006 7.29462771 -0.82777761 -0.946462 -0.504943 -0.244178
23280 1.99310751 7.20556272 -1.50093 -0.747664 -0.27836900000000003 -0.333878
23300 1.2686095800000001 6.830595090000001 -1.22474907 -0.682289 0.264683 -0.330913
23320 1.10245761 5.385650760000001 -1.16547705 -0.815839 0.727358 -0.30146
23340 0.76102056 5.7052311300000005 -2.5108793100000004 -0.009791 0.241665 0.046624
23360 1.0005219 7.699241160000001 -2.03232789 -0.249242 -1.0071290000000002 0.32642600000000005
23380 1.54223991 8.236024740000001 -2.0408527800000003 -0.316283 -1.77352 0.232936
23400 0.6917129100000001 8.53510221 -3.5043674400000002 -0.824017 -0.30378 0.491357
23420 3.51903339 9.947418480000001 -3.91495518 0.28644400000000003 1.00753 1.137298
23440 6.78568491 14.501838509999999 -2.9425781700000004 1.109581 0.254203 0.734884
23460 7.0540767 11.409422400000002 -5.78831202 1.086433 0.091069 0.259572
23480 8.21251998 8.65410732 -7.697593080000001 0.573996 -0.237527 -0.238173
23500 10.14500169 11.13818571 -8.7314886 -0.06079 -0.448682 -0.6952619999999999
23520 10.33675776 9.4453623 -6.22136466 -0.772651 -0.30235100000000004 -0.973887
23540 9.1738215 6.586149510000001 -6.32614527 -0.835925 -0.117918 -0.954269
23560 8.2367703 5.83815663 -5.88500919 -0.108409 0.220999 -0.825708
23580 7.48399014 4.006717920000001 -3.11113359 0.402644 0.647772 -0.635746
23600 7.3461204 1.0330028100000002 0.28231218 0.554355 0.8713059999999999 -0.457648
23620 5.373221490000001 0.92088432 0.04879494 0.687909 0.812878 -0.081694
23640 3.13598232 3.94324722 -2.25251334 0.908485 0.5087510000000001 0.390254
23660 1.5432895800000002 6.9786378000000004 -5.267842470000001 1.419122 0.13135 0.819457
23680 2.32092828 10.984757309999999 -5.16141378 2.149487 -0.285165 0.983189
23700 -0.23022108 10.13751666 -2.7644481900000004 2.797715 -0.625099 0.981743
23720 -3.0039495300000003 9.26363205 -1.23134139 3.072635 -0.755797 0.927215
23740 -2.6438048100000007 6.76547631 -0.33395202000000007 2.944832 -0.702104 0.930526
23760 -0.49516956 4.52987541 0.5822921700000002 2.68446 -0.38931 1.255183
23780 0.16794720000000002 3.67770033 0.43724151 2.352877 0.030072 1.626207
23800 2.736009 9.92855385 0.7084782000000001 1.428971 0.664269 1.538824
23820 3.70764045 22.27937328 2.01391452 0.49226 1.080892 0.994432
23840 6.55741602 16.89776424 2.21988528 0.630454 0.500875 1.0014809999999998
23860 2.95335936 11.944116450000001 0.16211025 0.268468 0.479465 0.808837
23880 7.55359209 14.215190310000002 -1.81691991 -0.807954 1.070625 0.4277510000000001
23900 5.21380899 19.45100313 0.26270199 -1.427547 1.3040969999999998 0.121885
23920 4.12347654 6.80485365 -1.09078371 -1.807153 0.98942 -0.24249
23940 5.90461938 5.9041681200000005 -0.74005659 -1.568361 0.498128 -0.931332
23960 6.1710687900000005 6.03215919 -0.9813629700000001 -1.194612 -0.420526 -1.6902549999999998
23980 4.97670129 8.502170040000001 0.18172044 -1.306414 -1.033092 -2.11754
24000 3.24420624 9.33608871 1.8212657400000003 -2.073289 -0.8658879999999999 -2.240615
24020 3.79775511 10.37208357 1.16997003 -2.505804 -0.749116 -2.030142
24040 3.0602393100000005 9.96971661 -0.52840584 -2.364127 -0.841893 -1.596403
24060 3.8032879500000005 8.11028016 -1.75121253 -2.011688 -0.3004 -0.6546
24080 4.644985950000001 7.0537824 -2.1016257300000003 -1.538679 -0.246316 -0.204848
24100 5.181328080000001 6.52837842 -1.68145362 -1.124317 -0.579374 -0.390603
24120 5.43190491 6.214772340000001 -1.76857623 -1.201351 -0.660999 -0.424151
24140 4.740643260000001 7.59341088 -1.47039147 -1.124789 -0.421814 -0.365171
24160 2.8984233600000002 8.00654922 -1.22460192 -0.917569 0.043247 -0.428412
24180 1.19257227 6.26192901 -1.27384812 -0.704966 0.148869 -0.38647
24200 0.32646699000000007 4.20939252 -0.62015877 -0.517613 -0.111992 -0.315393
24220 -0.07020036 4.95499176 -2.4493608000000004 -0.427207 -0.750844 0.059935
24240 -0.35042301000000003 6.738390900000001 -2.55997836 -0.915702 -1.25055 0.239829
24260 1.54089594 9.10017783 -2.39651433 -0.6617069999999999 -1.32033 0.154098
24280 3.58684011 10.19904498 -3.7703557800000005 0.277605 -0.561826 -0.134073
24300 6.737488379999999 14.037953040000001 -0.7625116799999999 -0.07595700000000001 0.688343 0.022088
24320 8.58030669 15.056142750000001 -1.87395525 0.239806 -0.062697 -0.246072
24340 7.42590513 7.71211188 -5.86959768 0.175874 -0.469719 -0.435072
24360 6.07870764 8.073011970000001 -9.158253030000001 -0.313145 -0.519401 -0.640318
24380 7.6231940400000004 10.0647657 -8.475221970000002 -0.7463390000000001 -0.186054 -0.776231
24400 7.578440820000001 8.952135120000001 -6.34365612 -0.7419979999999999 0.452394 -0.866749
24420 5.68742598 7.347621330000001 -6.05311335 -0.355452 0.745138 -0.883653
24440 5.303619540000001 6.12945477 -5.71661073 0.024459 0.993133 -0.893067
24460 6.557268870000001 4.91682105 -3.3781716000000004 0.409349 1.076338 -0.988762
24480 8.02346166 3.4097598000000002 -0.55324476 0.6199140000000001 1.033513 -1.117559
24500 6.86158488 3.93262299 -0.55070397 0.5023529999999999 0.95947 -1.147127
24520 5.44552119 6.57313164 -3.25318239 0.304102 0.8872270000000001 -1.024506
24540 4.96787229 8.631200970000002 -4.25669634 0.417498 0.887216 -0.853866
24560 0.9178922700000001 7.4522547900000005 -3.34764288 0.8129569999999999 0.678737 -0.742947
24580 -2.0209482900000006 8.076602430000001 -2.6467968600000003 1.222062 0.237762 -0.577154
24600 -3.46948308 6.772519890000001 -1.35977391 1.37374 -0.277817 -0.180192
24620 -1.91631483 6.575378130000001 -0.26405577 1.347394 -0.7286590000000001 0.964268
24640 -0.48947976000000004 5.04690165 0.35939916000000005 1.738057 -1.363571 1.958052
24660 1.00561329 3.86465931 0.34203546 1.927961 -1.402101 2.63668
24680 2.9440791 5.693714190000001 -1.61259723 1.917341 -1.3426049999999998 2.685668
24700 8.35891461 21.06164817 -2.16360531 1.470795 -1.207157 2.2347900000000003
24720 9.95325543 19.737504180000002 2.25655506 0.973094 -0.980344 1.624273
24740 4.59858465 16.70915718 1.5057172800000003 0.233928 -0.443191 1.402641
24760 1.79417052 11.455078140000001 1.33267869 -0.116797 -0.289998 1.491862
24780 4.85231049 12.29557932 -0.03202965 -0.109105 -0.749974 1.6954669999999998
24800 4.72717413 14.087356200000002 0.66956193 -0.063761 -1.086727 1.953657
24820 4.071081330000001 8.73463761 0.5793001200000001 -0.05665 -1.599207 2.234237
24840 2.43498915 6.7976629200000005 1.09811178 -0.140605 -2.024928 2.209627
24860 1.19735955 7.199127360000001 1.10904012 -0.381227 -2.2846580000000003 1.836538
24880 0.95950629 8.92953288 1.3572233100000002 -0.943881 -2.811443 1.394244
24900 0.9466355700000001 10.552901490000002 0.6147730800000001 -1.343333 -3.286836 1.011776
24920 1.70570394 10.305767970000002 0.18411408 -1.457402 -3.156075 0.64548
24940 2.44441656 9.53622252 -0.16106058000000004 -1.30312 -2.664052 0.279527
24960 2.62434177 8.14695975 0.6319896300000001 -1.169988 -2.147386 -0.103697
24980 3.05185176 7.039714860000001 0.8243343 -1.231625 -1.626329 -0.350486
25000 4.16614023 7.01097156 0.42646032 -1.627235 -1.147538 -0.394456
25020 5.56767531 8.281533330000002 -0.3617928 -2.0748330000000004 -0.723262 -0.080864
25040 5.47875747 8.63509554 -1.05216174 -1.795346 -0.454663 0.437763
25060 4.98957201 7.29462771 -1.6835529600000003 -1.031827 -0.483954 0.972972
25080 6.124363379999999 6.66054855 -0.80502822 0.019343 -1.144628 1.443701
25100 8.27314578 8.25338844 -2.2649426100000003 0.72153 -1.41004 1.141298
25120 5.3968734 10.08422874 -0.49876002 0.455713 -0.896172 0.7382
25140 3.1957056 9.49071393 -2.18126331 -0.420439 -0.574304 0.394109
25160 1.71288486 12.90317148 -2.17632888 -1.3479709999999998 -0.25855900000000004 0.55921
25180 -0.09310671 16.044686640000002 -1.22474907 -2.599256 -0.296279 0.953237
25200 -0.08352234000000001 16.26502905 0.53453709 -2.204464 -1.022902 1.169502
25220 1.3492968300000001 14.36068242 -1.3790799900000001 -0.664506 -2.042803 1.008514
25240 4.203859680000001 14.29916391 -2.86518708 0.055151 -2.525534 0.159582
25260 5.94683181 14.12537976 -3.0853823400000002 0.671608 -2.600333 -0.582703
25280 6.44455197 10.992840750000001 -1.71842751 0.480725 -2.789727 -1.271729
25300 5.27697558 8.406218430000001 -1.09872 -0.543291 -2.533694 -1.540924
25320 4.553978580000001 8.3958885 -2.07633555 -1.998919 -1.373991 -1.249203
25340 3.7737990900000002 8.645719770000001 -3.4576620300000003 -2.225739 -0.307793 -0.751157
25360 2.37061593 8.865169470000001 -3.3200964 -2.016261 0.376998 -0.621317
25380 1.81123011 8.0138871 -2.3246658900000003 -2.119473 0.518716 -0.541034
25400 1.9736444700000002 7.372764360000001 -1.4130618300000002 -1.714575 -0.301922 -0.531814
25420 1.88128332 5.957465850000001 -0.69096735 -1.140396 -1.243356 -0.563984
25440 2.47330701 4.70981043 -0.42092748 -0.798616 -1.6747580000000002 -0.602705
25460 2.9271666600000006 4.43437506 0.17154747 -0.51308 -1.718538 -0.557925
25480 2.63960613 4.88299617 0.8494871400000001 -0.437338 -1.533131 -0.369627
25500 2.0670552900000003 5.970483720000001 0.42930522000000004 -0.468368 -1.319842 -0.135108
25520 2.75172462 7.03821393 -0.30161826 -0.551348 -1.132606 -0.000263
25540 3.6534500100000002 9.05586606 -3.9772290600000004 -0.830883 -0.951383 -0.055859000000000006
25560 6.3518867100000005 13.667782500000001 -5.513033610000001 -1.22417 -0.844734 -0.277729
25580 10.30607208 18.35124327 -5.41903419 -1.440743 -1.1060450000000002 -0.5427569999999999
25600 7.71480963 11.44025523 -5.372475929999999 -1.373742 -1.256069 -0.6457149999999999
25620 6.85903428 5.78621268 -4.47898113 -0.880151 -1.159557 -0.700074
25640 6.40892205 3.68712774 -2.82926286 -0.416114 -0.935228 -0.458907
25660 8.80318989 6.082749360000001 0.29938158000000004 -0.08318099999999999 -0.8896430000000001 -0.425662
25680 8.724160529999999 13.758338610000001 1.09227483 0.104874 -0.8104680000000001 -0.408426
25700 8.908578720000001 20.02176855 -0.72389952 0.243403 -0.8461110000000001 -0.406345
25720 2.9761087500000003 20.304375030000003 -3.8037392100000003 0.6399050000000001 -0.930477 -0.165253
25740 -2.34008721 11.963873790000001 -0.88196805 0.972436 -0.869117 0.451218
25760 -2.63257236 7.67484369 -1.33148187 1.373126 -1.2333459999999998 1.144555
25780 -1.9446068699999999 5.06142045 -0.7807779 1.65091 -1.327954 1.917873
25800 0.31658832000000003 4.6689419700000006 2.306850930000001 1.5458690000000002 -1.362818 2.468387
25820 3.4902900900000002 5.807323800000001 6.999444810000001 1.519405 -1.289439 2.2566
25840 4.94900766 6.29171217 5.773489110000001 1.439999 -1.025708 1.907467
25860 3.1434673500000003 8.76981627 1.68190488 1.032059 -0.8147770000000001 1.727022
25880 3.5831025000000003 11.27395611 -0.28994436 0.971958 -1.329363 1.5275040000000002
25900 3.19181103 11.83588272 -1.9432629 0.723375 -1.884246 1.445294
25920 0.96144867 9.98738442 -2.03352471 0.297864 -1.868816 1.418801
25940 1.68114951 9.361977300000001 -1.19166975 0.060016 -1.812757 1.4587290000000002
25960 2.9776096800000005 9.59115852 -0.77209605 -0.018723 -1.934202 1.5277690000000002
25980 4.131854280000001 8.6358411 0.08951625 -0.14943299999999998 -2.351105 1.469706
26000 4.30594254 7.236846810000001 1.0008162 -0.387288 -3.166869 1.350517
26020 3.87393957 6.71907501 1.22759397 -0.76498 -3.609913 1.383698
26040 3.1343342400000003 7.25795793 1.2867286500000001 -1.154004 -3.4926730000000004 1.1735950000000002
26060 2.9662300800000003 8.598415950000001 0.9605559600000001 -1.402785 -2.792158 0.965861
26080 2.5216605000000003 9.41212602 -0.22842585 -1.327785 -1.939523 0.797582
26100 4.397999580000001 11.11588758 -1.07401842 -1.033519 -1.263174 0.5680350000000001
26120 5.572462590000001 11.41451379 -0.5394813299999999 -0.91646 -0.765502 0.419732
26140 5.52396195 11.02801941 -1.2451146300000002 -1.262219 -0.894883 0.307456
26160 3.8883112200000003 11.72272437 -0.9593591400000001 -1.716155 -1.32548 0.22472
26180 3.00559761 10.750043250000001 0.13307265000000001 -1.700546 -1.390606 0.247345
26200 2.65143699 9.7784118 1.0118916900000001 -1.526328 -1.017567 0.314314
26220 3.7613796300000004 9.12816576 1.6464221100000003 -1.084834 -0.998056 0.380398
26240 5.594162310000001 9.418110120000001 1.3202592299999998 -0.639243 -0.86105 0.364107
26260 4.38184251 8.976679740000002 2.12034321 -0.640423 -0.726508 0.285946
26280 2.70113445 7.124434020000001 1.4112666 -1.152856 -0.124819 0.245276
26300 2.77283574 8.44049457 -0.35715267000000006 -1.360698 -0.668729 0.84593
26320 2.26030248 13.526920710000002 -0.024848730000000003 -1.444625 -1.074265 0.835181
26340 1.10904012 15.73049196 0.12813822000000002 -1.3490879999999998 -1.442352 0.096042
26360 2.8092112200000003 15.100748820000002 0.14938668000000002 -1.003823 -1.814422 -0.6627109999999999
26380 3.68084934 13.29834771 -0.6590750400000001 -0.601498 -2.366275 -1.001025
26400 4.9017038400000015 11.65566321 -0.74904255 -0.564872 -2.513459 -0.98883
26420 4.52104641 10.38899601 -0.17139051000000002 -1.0785559999999998 -1.925614 -0.763504
26440 3.84565734 9.7724277 -0.5379804 -1.33794 -1.196029 -0.240685
26460 3.67081371 8.99824212 -1.66708197 -1.210245 -0.601654 0.193143
26480 2.9133934200000002 7.81884468 -2.2282630200000004 -0.886332 -0.164117 0.251461
26500 2.29847319 7.137756 -1.8366772500000002 -0.488783 -0.103365 0.165497
26520 2.72014623 6.26671629 -1.3995927 -0.268492 -0.193858 -0.039015
26540 2.4629770800000004 5.758077600000001 -1.00186587 -0.241245 -0.245429 -0.219288
26560 2.7892969200000004 6.0177875400000005 -1.2584366100000002 -0.267888 -0.355655 -0.336837
26580 3.60420381 7.22906748 -1.7444730600000002 -0.199024 -0.241846 -0.352525
26600 4.6825582500000005 8.675512740000002 -2.0998305 -0.133708 0.096488 -0.303364
26620 4.85544969 8.46954198 -1.16592831 -0.152476 0.294289 -0.202268
26640 4.4364744 7.61092173 0.61731387 -0.168181 0.116579 0.029654000000000007
26660 3.42353304 7.733066040000001 0.48933261000000006 0.013752 -0.273783 -0.010235
26680 3.0557463300000003 8.56968246 -0.63483453 0.310175 -0.628171 -0.087827
26700 4.0478806800000005 9.771976440000001 -2.37376494 0.522672 -0.591607 -0.091731
26720 4.2426288 9.43323714 -3.2368683600000003 0.708989 -0.405864 0.182797
26740 4.5870579000000005 8.96246505 -3.6615334500000003 1.002746 -0.440295 0.545952
26760 3.9670462800000004 6.8311935 -3.19151673 1.44327 -0.6220680000000001 0.865456
26780 3.22280082 5.82438339 -3.99549528 1.98813 -0.837289 1.200686
26800 7.02938493 12.97217502 -0.72239859 2.4998 -0.774626 1.602627
26820 8.27868843 18.963917010000003 2.4411204 2.668139 -0.43165 1.999674
26840 1.02446811 12.086616509999999 3.15199224 2.3934900000000003 -0.17222 2.361686
26860 -0.8707356 8.360268390000002 2.7222357600000002 1.929055 0.194918 2.326993
26880 0.42855966000000006 6.99181263 1.75704948 1.7589150000000002 0.370749 1.661146
26900 1.7780036399999999 7.183264590000001 0.43993926 1.313723 0.652868 1.293411
26920 2.24473401 7.591017240000001 -0.53393868 0.109544 1.114317 0.959669
26940 1.9567320300000002 10.66008555 -0.39667716000000003 -0.900041 0.944495 0.614208
26960 1.93083363 10.01941407 -0.36403929000000007 -1.382086 0.376579 -0.001591
26980 1.37953125 9.04149441 -0.75787155 -1.653216 0.542585 -0.520717
27000 2.07483462 10.365795360000002 -1.36022517 -1.597778 0.8602209999999999 -1.146715
27020 2.185452180000001 10.255324950000002 -1.3956981300000002 -1.45497 0.68123 -1.530048
27040 1.23583437 8.821004850000001 -0.87747507 -1.542656 0.187036 -1.743671
27060 2.02080114 7.995924990000001 -0.96264549 -1.8002919999999998 -0.395863 -1.738314
27080 3.1085829900000004 7.76989278 -0.13651596 -1.903094 -0.713929 -1.496139
27100 3.6645255000000003 7.051683060000001 0.71761131 -1.829092 -0.659512 -1.050243
27120 3.53534742 6.65485875 0.2894931 -1.516354 0.017616 -0.160165
27140 4.02183513 7.934700780000001 -0.7369173900000001 -1.201261 0.462466 0.207866
27160 4.1137450200000005 9.3152817 -0.87268779 -1.001883 0.606797 -0.094302
27180 3.0599352 8.19426357 -1.03719168 -0.862066 0.428111 -0.285376
27200 3.0340368 6.734496330000001 -1.12431429 -0.86436 0.08219800000000001 -0.358656
27220 3.6976146300000003 6.493945320000001 -1.58430519 -1.057501 -0.128301 -0.563766
27240 4.476293190000001 7.457346180000001 -1.1091970800000002 -1.094759 -0.53 -0.5090319999999999
27260 3.6956624400000004 6.77476638 -0.16301277 -0.861982 0.442088 -0.051453
27280 2.70233127 5.79146103 0.16420959 -0.67138 0.480679 0.787315
27300 2.28529836 4.82237037 0.50549949 -1.074483 -0.093776 0.406017
27320 1.5081109199999998 5.90566905 -1.10320317 0.208472 -0.009781 0.133928
27340 1.18044711 8.11028016 -2.47615191 1.112791 -0.214763 0.26121700000000003
27360 1.8938597400000001 9.41123331 -3.01683006 1.061746 0.326347 0.051863
27380 0.00030411 9.66315411 -2.8163921400000005 0.612707 0.531509 -0.248502
27400 1.1422764000000003 9.32949639 -2.09444481 0.444411 -0.16664600000000002 -0.5350659999999999
27420 4.66774515 10.45276101 -3.34015785 0.186602 -0.544083 -0.761778
27440 6.684494760000001 11.84621265 -5.24898765 -0.474857 -0.569361 -0.793072
27460 8.29889703 12.320133750000002 -7.97032089 -0.6047600000000001 -0.347992 -0.628688
27480 10.23631317 15.998883750000001 -8.56279584 -0.172278 0.022207 -0.341995
27500 9.092241540000002 11.29027014 -6.292761840000001 0.487608 0.237911 -0.24472600000000005
27520 7.198676100000001 7.10123337 -5.16006981 0.947956 0.304789 -0.052521000000000005
27540 6.18229143 5.288806439999999 -4.84707195 1.563915 0.44855 0.491049
27560 4.759056630000001 4.20460524 -3.7576322100000006 2.565061 0.363003 1.035467
27580 4.60352889 3.59267706 -2.9273138100000002 3.512364 0.060644 1.234752
27600 4.5812209500000005 4.94630991 -2.9244689100000003 3.730582 -0.204745 1.079587
27620 4.92161814 6.27615351 -3.8040433200000003 3.133987 -0.268746 0.819129
27640 4.4828757 9.16977978 -3.7685605500000006 2.765052 -0.086799 1.192333
27660 0.69814827 9.027730980000001 -2.4092379 2.662367 0.259318 1.837446
27680 -2.55414141 6.4674485100000005 -0.46658322 1.82259 0.727567 1.6184040000000002
27700 -2.68601724 3.83726979 1.05216174 0.709284 0.301135 1.066381
27720 -0.7607164500000001 1.89026928 2.00328048 0.075825 -0.047505 0.8904190000000001
27740 0.12498921000000002 1.03285566 2.2498254 -0.8725709999999999 0.370375 0.574543
27760 0.95695569 1.8505976400000002 1.2900150000000001 -1.200339 0.893726 -0.280858
27780 6.2670204 8.9742861 -4.02138387 -1.435917 0.902045 -0.5581149999999999
27800 9.40329702 27.78970914 4.47165306 -1.6710490000000002 1.174949 -0.6690659999999999
27820 2.74005072 23.75036316 -3.47876334 -1.615061 0.7063550000000001 -1.015247
27840 4.71849228 24.68606058 -0.52092081 -1.855949 0.140929 -1.39756
27860 3.4051196700000004 11.75206608 2.28814326 -2.517054 0.058672 -1.56551
27880 4.58870598 3.96899847 1.6244182800000002 -2.7801400000000003 0.15005 -1.81102
27900 8.012533320000001 5.636826 -1.29061341 -2.345986 -0.256497 -1.485932
27920 8.781941430000002 7.30002321 -1.00291554 -1.881108 -0.5909760000000001 -0.562517
27940 7.378905420000001 11.69024346 -0.8768766600000001 -1.411461 -0.367372 -0.145053
27960 6.01030251 8.40980889 -0.02604555 -0.913965 -0.325418 -0.411891
27980 5.25243096 8.70185259 -0.76775022 -0.6055149999999999 -0.519594 -0.8709600000000001
28000 2.98584027 7.81928613 -0.50999247 -0.340269 -0.4582810000000001 -0.71643
28020 0.29309337 7.4461137299999995 -0.10358379000000001 -0.704728 -0.682419 -0.559523
28040 1.26592164 6.94061424 -0.50235048 -1.607502 0.978245 -0.284879
28060 3.6004662000000005 6.88971996 -0.60923043 -0.220674 -0.06325599999999999 1.090262
28080 5.026094639999999 9.00078291 -0.3700332 -0.7264189999999999 -0.7764340000000001 0.856908
28100 3.68069238 7.4759067 -1.08030663 0.433962 -0.353667 0.421159
28120 1.30079619 4.48931106 -0.89333784 1.310913 -0.259346 0.050082
28140 -1.08150345 2.81070234 -2.7864520200000005 0.86341 0.481818 -0.293689
28160 -3.01114026 3.2828282100000004 -3.66528087 0.6066239999999999 0.569902 -0.519922
28180 -1.34136054 4.7165400900000005 -3.6063031500000005 0.409986 0.349601 -0.668428
28200 -0.00344331 10.752741000000002 -3.4543658700000006 -0.08261 0.044003 -0.8082090000000001
28220 5.2667928 12.44481885 -3.09841002 -0.475071 -0.234383 -0.6471560000000001
28240 5.9183926200000005 13.62032172 -2.6753832 -0.360111 0.10015 -0.489753
28260 10.79120601 8.05490271 -7.687116 0.081649 0.528274 -0.31095900000000004
28280 10.022111820000001 12.022253100000002 -8.89285329 0.637892 0.814225 -0.108751
28300 8.70978888 11.46106224 -7.019506260000001 1.073488 0.8471559999999999 0.335425
28320 7.62034914 8.93896029 -6.055811100000001 1.6268049999999998 0.748654 1.044443
28340 5.685925050000001 6.83030079 -6.625222740000001 2.53619 0.467241 1.632268
28360 4.88913723 5.356760310000001 -4.96696977 3.204835 0.190075 1.900076
28380 5.558395050000001 3.91151187 -1.7235189000000002 3.1406650000000003 0.136047 1.880469
28400 5.792206590000001 2.22077799 -0.86430024 2.55822 0.474257 1.723212
28420 5.24090421 6.35652684 -1.7112367800000001 2.24163 0.663401 1.850013
28440 4.184102340000002 9.935734770000002 -2.5963538400000004 2.022297 0.696391 1.782209
28460 1.34719749 8.355177000000001 -2.30445729 1.511632 0.573191 1.333351
28480 -1.39464846 5.79654261 -0.94408497 -0.163881 0.4309770000000001 1.054775
28500 -2.9518584300000006 5.117111820000001 -0.62390619 -1.054681 0.046742 0.413453
28520 -1.4567751899999999 3.2964444900000003 0.9773212500000001 -1.195294 0.733347 -0.138544
28540 0.8295728400000001 2.0622582 1.16232804 -1.020813 0.378991 -0.384698
28560 3.00290967 4.41282249 -3.37847571 -1.116299 0.35751900000000003 -0.526343
28580 12.36847743 22.032681210000003 5.610633300000001 -1.1793209999999998 0.340476 -1.004257
28600 7.93424952 30.15284985 0.16854561000000004 -1.002047 0.065104 -1.557073
28620 -0.53917722 19.671943950000003 -0.03023442 -1.223662 -0.121659 -1.812618
28640 1.5660389700000001 17.3758644 1.76528007 -1.983196 -0.21443 -1.929968
28660 2.4611818500000004 4.555626660000001 1.3677102000000003 -2.579895 -0.542497 -1.95508
28680 4.80500667 5.33296125 -1.0265674500000002 -2.62786 -0.651355 -1.597421
28700 6.340516920000001 6.867873090000001 -1.33672041 -1.976855 -0.5098729999999999 -0.781207
28720 5.3889469199999995 9.35300115 -1.4874608700000003 -1.202692 -0.5922729999999999 -0.293925
28740 4.249515420000001 9.45254322 -0.08308088999999999 -0.592374 -0.697259 -0.409169
28760 5.3729271899999995 8.34619104 -0.44008641 -0.562415 -1.08964 -0.345431
28780 3.7931149800000004 8.87144787 -0.33155838000000004 -0.642736 -1.342994 -0.055111
28800 3.1823836200000004 6.517450080000001 -0.16884972000000004 -0.6973159999999999 -1.953766 0.084159
28820 2.7665475300000004 6.393059280000001 -0.44816985000000004 -0.513756 0.603697 0.257352
28840 2.7572672700000003 5.65554348 -1.17296208 -0.874777 0.947286 0.693429
28860 2.7184981500000003 6.63285492 -1.74057849 0.245033 1.393837 1.004054
28880 2.9144430900000002 7.998014520000001 -1.59972651 1.501611 -0.336537 0.27370300000000003
28900 1.8625756500000001 6.25145193 -1.4642504099999998 1.343379 -0.420321 -0.214404
28920 0.01257642 5.74086105 -2.0550772800000003 0.610458 0.322396 -0.4330520000000001
28940 -2.16719577 4.510422180000001 -0.91490022 0.131549 0.4906390000000001 -0.5327529999999999
28960 0.35281665 5.14120518 -1.67786316 -0.084487 0.063446 -0.607422
28980 3.3902967600000005 5.5938680100000004 -2.77223733 -0.6650149999999999 -0.317577 -0.723152
29000 8.14890213 7.54670547 -3.50032572 -0.5414869999999999 -2e-05 -0.590236
29020 9.500739750000001 13.26466998 -3.7788904800000003 0.09302 0.412259 -0.345982
29040 13.843067580000001 13.04940915 -8.197108470000002 0.865426 0.769129 -0.217131
29060 12.597648840000002 16.21098576 -7.0344763200000004 1.301274 1.050449 0.181864
29080 9.353599560000001 10.179729090000002 -4.99631148 1.848638 0.871841 0.948626
29100 6.4674485100000005 6.6246243300000005 -4.959788850000001 2.840193 0.345177 1.524521
29120 4.14622593 6.558161580000001 -5.564830410000001 3.370939 0.134874 1.441972
29140 4.23469251 5.87603304 -4.490664840000002 3.0987400000000003 0.058239 1.395304
29160 4.88673378 5.01547041 -2.4569929800000003 2.68498 0.16276500000000002 1.4553049999999998
29180 6.277046220000001 3.76781499 -1.15978725 2.612335 0.473696 1.550539
29200 6.3162666000000005 4.67372925 -2.1794680800000004 2.90991 0.439803 1.7759189999999998
29220 5.992487550000001 7.673342760000001 -3.6312990300000005 2.2068790000000003 0.166318 1.24793
29240 4.01061249 9.1072116 -3.6554022 0.249835 0.631763 0.834149
29260 -0.039965940000000005 7.00902918 -1.97648937 -0.569937 0.12497 0.410329
29280 -2.94707115 4.53287727 -0.19010799 -1.34564 0.662858 -0.229234
29300 -1.64911986 2.39412069 0.04819653 -1.920669 1.959599 -0.604517
29320 -0.93315663 3.16157661 1.4105210400000001 -1.852172 1.992336 -0.858318
29340 4.15640871 8.39708532 -1.3657580100000002 -1.521411 1.031221 -1.351499
29360 6.6581549099999995 22.00918626 7.00363368 -1.321703 -0.033154 -1.749323
29380 5.9561120700000005 20.15364438 -2.37271527 -1.789048 -0.531198 -2.002982
29400 2.9238705 29.427753510000002 0.78975405 -2.413004 -1.134491 -2.174278
29420 2.15656173 14.443910460000001 -0.75473235 -2.58355 -1.467648 -1.828938
29440 2.24353719 3.99219912 1.8844323300000003 -2.372244 -1.389594 -1.285974
29460 6.91068393 2.7792711000000003 -0.59141547 -1.944203 -1.382914 -0.132517
29480 7.6700466 3.59911242 0.82253907 -1.235492 -1.260864 0.16603800000000002
29500 6.54618357 8.919654210000001 -0.39488193 -0.77268 -1.632956 -0.157129
29520 3.7821866400000004 8.73029178 1.0165318200000002 -1.115896 -1.553071 -0.389296
29540 5.07535065 9.53950887 -1.20469743 -1.223517 -1.722228 -0.351375
29560 3.92334273 10.8483885 -0.04235958 -1.158295 0.33928200000000003 -0.458247
