time Ax Ay Az Gx Gy Gz
20 -0.25147935000000005 7.658971110000001 -5.753133360000001 2.230478 0.86936 0.971593
40 -0.9225324 7.58143287 -5.093607060000001 1.657156 1.803395 1.520798
60 -1.6693284600000002 10.74735531 -4.42808685 1.475743 0.35531 1.505364
80 1.57397526 12.035270970000003 -5.666913270000001 1.117805 -2.256081 1.383364
100 2.5065334800000003 9.51346332 -6.2625274200000005 0.759286 -3.81591 1.493954
120 1.57682016 10.92248343 -6.00836013 1.51356 -3.897168 1.180996
140 -1.25693568 16.25005899 -3.0916705500000004 1.366671 -4.703449 1.00902
160 0.23650929 16.38746766 6.53929695 1.328202 -4.979231 0.745254
180 -0.15732297 19.99661571 11.733495750000001 1.287421 -4.836285 0.464911
200 -5.03717994 24.33085029 7.15347162 0.955986 -4.84966 0.367542
220 -5.174588610000001 23.89316733 2.07169542 0.421982 -4.797486 0.303924
240 -4.48122762 19.05941736 -2.498607 -0.009522 -4.764696 0.20366
260 -4.81354137 15.73587765 0.08667135 0.094147 -3.7299 0.010778
280 -2.24083944 15.24864438 3.79445895 1.228321 -3.0700220000000003 -0.29086100000000004
300 -2.12228559 14.213846340000002 5.84100153 3.636594 -3.659325 -0.462359
320 -2.1188422800000004 12.132272250000002 5.1341714099999995 2.94331 -1.588224 0.6186619999999999
340 -1.4383618200000001 9.66465504 4.025876850000001 2.186446 0.029593 1.623977
360 -2.5740459 7.09779006 4.48706457 1.404571 0.296854 2.331745
380 -2.0520852300000003 4.91802768 5.30586603 0.439385 0.845218 1.368242
400 -2.28140379 3.11023107 5.2147017 1.801453 -0.043966000000000005 -0.157208
420 -3.19121262 1.5928398900000003 4.7720745 1.049643 -2.939976 0.907337
440 -3.6277085700000002 0.41868099000000003 3.86242263 -0.235946 0.170542 0.445718
460 -3.6784458900000003 2.38154427 0.042065280000000004 -0.629428 2.4093880000000003 -0.452933
480 -4.6030776300000005 6.239621070000001 -2.92581288 -0.646356 1.101466 -1.561257
500 -9.6568659 10.914998400000002 -7.80956442 -0.375689 -3.491727 -1.332359
520 -9.06245838 20.398384260000004 -15.997529970000002 -0.73255 -4.891449 -0.238131
540 -2.12977062 11.68769286 -8.20638873 -1.147891 -1.618296 0.497188
560 0.28305774 7.8601545900000005 -1.3398596100000002 -1.28829 -1.139973 0.881223
580 8.46849231 6.321357990000001 -5.120702280000001 -1.454823 -1.983714 0.770046
600 10.77654006 1.7625823200000001 0.3409956 -1.472453 -2.681014 0.671471
620 -13.316604120000001 21.343518900000003 2.09489607 -1.4282709999999998 -2.579979 0.674855
640 -7.54985448 20.72126079 7.7625549 -1.457655 -2.066133 0.604557
660 -1.1135331000000002 0.14849397 3.4916438700000003 -1.363472 -1.491459 0.400448
680 -2.47315986 1.96510977 8.46909072 -1.1417620000000002 -1.2708780000000002 0.191274
700 -6.53211603 10.49332536 3.3271301700000007 -1.015779 -1.101583 0.103275
720 -9.12966669 18.14736204 0.76311009 -1.002797 -0.89256 0.034732
740 -0.23800041000000002 18.377887230000002 2.9111469300000006 -1.083193 -0.90546 -0.132456
760 0.76730877 13.532463360000001 1.02925539 -1.129214 -0.8259629999999999 -0.25893
780 -2.23215759 11.50867017 -1.14287481 -1.216899 -0.5024489999999999 -0.366779
800 -1.69118514 9.66630312 -0.06780672000000001 -1.257927 -0.539984 -0.534728
820 -0.43155171000000003 8.38631394 0.29847906 -1.167078 -0.818028 -0.611717
840 -0.6616256400000001 7.601945580000001 0.39158577000000006 -0.932344 -0.694689 -0.490595
860 -2.31029424 7.520512770000001 -0.36733545 -0.618873 -0.629108 -0.379531
880 -4.69812672 7.62289974 -1.54089594 -0.231919 -0.779284 -0.455684
900 -4.94840925 7.542967860000001 -1.32953949 0.400531 -0.738279 -0.601938
920 -3.37907412 7.3467188100000005 0.21166056000000003 1.233135 -1.050382 -0.530561
940 -2.2246725600000006 7.759709999999999 1.0743127199999998 1.876481 -2.033489 -0.32505
960 -2.1564145800000003 8.39199393 1.6992685800000003 2.565432 -2.272607 -0.265452
980 -1.9390642200000001 8.78972076 2.3703216300000003 3.402182 -1.74177 -0.274174
1000 -1.7812998 8.37268785 2.42406081 3.83371 -1.146643 -0.025163
1020 -2.21943402 8.63734203 1.8272498400000001 3.418463 -0.814262 0.59642
1040 -2.9696733900000005 9.97046217 0.86070978 2.956309 -0.912453 0.7770520000000001
1060 -2.06270946 10.90527669 0.18022932 3.072693 0.570807 0.577275
1080 -1.16053281 11.690989020000002 -0.70652601 2.409216 1.874531 0.662837
1100 -0.97641873 12.36338604 -2.0986336800000003 1.913433 1.196871 0.862136
1120 -0.2565707400000001 12.406196880000001 -2.04564987 1.801334 0.161138 1.030391
1140 1.27819395 14.040797940000001 -1.47009717 1.188116 -0.716495 1.522888
1160 2.54979558 16.120576800000002 -0.6629696099999999 1.8988 -1.357129 1.80641
1180 2.6095188600000006 16.12162647 -1.1214693900000001 2.510077 -1.881202 1.532546
1200 0.2573163 14.17687245 0.03517866 2.570619 -2.159636 1.313272
1220 -2.17572066 11.314520459999999 0.8972324100000001 2.401795 -2.973802 1.267202
1240 -2.62374336 10.35441576 1.2049917300000001 2.005291 -3.037869 1.116032
1260 -2.25640791 11.147622930000002 2.5924592700000004 1.416145 -2.587545 0.899832
1280 -3.44343753 13.801600709999999 5.21545707 0.820408 -1.840396 0.785754
1300 -5.216349780000001 14.46995601 6.361471080000001 0.109656 -1.027939 0.690018
1320 -4.47105465 13.945601700000001 3.9065774400000004 -0.673216 -0.265777 0.447496
1340 -1.9845728100000002 12.420274230000002 2.2242213 -1.268669 -0.11868499999999997 0.144046
1360 -0.9186378300000001 12.47475897 0.9804604500000001 -1.455077 -0.995004 -0.327219
1380 0.7668575100000001 11.79622089 2.1903964200000003 -1.223668 -2.032285 -0.8679979999999999
1400 1.0867419900000002 10.77953211 2.97237114 -1.150335 -2.15916 -1.170698
1420 -1.1076961500000004 9.250467030000001 2.8922823000000006 -1.163048 -0.8979379999999999 -0.877574
1440 -2.43154584 7.992334530000001 2.0131591500000003 -1.288461 0.22514 -0.572241
1460 -2.85367014 6.83598078 1.79536734 -1.6994209999999998 0.064157 -0.450992
1480 -2.5821293400000003 5.495375610000001 1.3690541699999998 -1.839678 -0.6897340000000001 -0.144426
1500 -3.6799468200000005 4.268968650000001 1.52922204 -0.9831 -0.76805 0.049665
1520 -3.54373497 2.48557932 1.4587175700000001 -0.369353 -1.449485 0.497069
1540 -3.3317703000000005 1.5064628400000002 1.10800026 -0.228361 -1.614177 0.5345840000000001
1560 -3.32279415 1.51006311 0.37272114 0.939575 0.032495 0.116548
1580 -1.7396857800000003 2.03172948 -0.9548661600000001 1.209539 0.480181 0.081541
1600 -1.3750382700000001 3.2070852 -2.4481541700000005 -0.039791 -1.266219 0.468158
1620 -1.15649109 3.60944235 -2.8946759400000004 -1.567656 -2.184684 0.509937
1640 -1.87664319 3.7112309100000003 -2.8319606100000003 0.050559 -1.092937 0.479249
1660 -2.00897028 5.360497919999999 -2.05013304 2.367455 6.074371 1.100476
1680 -1.6693284600000002 8.48719998 -3.6768076200000004 2.632102 0.8562799999999999 -0.100216
1700 -0.71805276 11.13459525 -4.9365882 -0.632844 -4.150999 -0.079218
1720 1.8450648 11.933031150000001 -1.96615944 -1.342798 -4.076699 0.336607
1740 3.4965783000000004 12.72952467 -0.9713273400000001 1.716119 2.410527 0.158449
1760 1.26906084 9.640404720000001 -2.4716589300000007 1.61047 0.810578 0.225991
1780 1.63489536 6.511309020000001 -2.5761452400000002 2.439811 -0.119072 -0.309681
1800 -1.5874443900000004 2.7443965500000003 6.8554438200000005 2.6026290000000003 -0.771465 -0.8717290000000001
1820 -5.783671890000001 8.991355500000001 5.20333191 2.011989 -2.310978 -0.84504
1840 -7.286995530000001 14.777116920000001 1.9314320400000002 1.154234 -1.554557 0.14465
1860 -7.90640874 21.65860629 -0.47945394 0.579666 0.068321 -0.005653
1880 -8.12285658 43.069490460000004 -33.6205377 0.15169100000000002 -0.02688 -0.069409
1900 -0.7445495700000001 5.29044471 15.717768390000002 0.017276 0.199592 0.154757
1920 1.4209981200000001 6.117928020000001 6.0833477700000005 -0.449271 -0.109835 0.150827
1940 0.42122178 12.316239180000002 3.72156084 -1.025772 -0.473049 0.106673
1960 -1.02836268 16.764387480000003 -9.79817895 -0.950626 -1.230235 -0.280665
1980 -4.50727317 15.21361287 -9.55043721 -0.756034 -2.387657 -0.582266
2000 -4.570292610000001 9.32621004 0.83511549 -0.447972 -3.952014 -0.183935
2020 -3.7818825300000003 4.84872003 -3.3196451400000004 -0.64718 -4.2666879999999985 0.624789
2040 -2.0330734500000003 0.7816706099999999 2.5981490700000003 -1.126093 -1.83503 1.131074
2060 1.5356574000000003 -1.2609774000000002 4.49485371 -0.91253 -0.535471 0.965326
2080 4.108202370000002 -5.0687583300000005 4.24786734 -0.659356 -0.013315 0.703643
2100 2.4760047600000004 -4.9154770800000005 1.5010771500000002 -0.346188 1.688145 0.37891
2120 0.57794634 0.75592917 1.02596904 -0.13742200000000002 2.845183 0.4269560000000001
2140 1.40722488 2.67044877 1.08045378 -0.631315 1.827996 0.816847
2160 0.8051753700000001 3.7254554100000004 0.70697727 -1.495015 -0.6224310000000001 1.105579
2180 -0.6861702600000001 5.41259883 -0.7105677300000001 -0.283596 1.019614 0.741263
2200 -1.4492901599999999 9.72542799 -1.6522688700000001 2.177818 4.95719 0.39342
2220 -3.40930854 15.00943734 -7.15182354 1.618034 1.245649 0.642093
2240 -6.6424392899999996 22.67634474 -11.6607546 -0.37365 0.932101 -0.20463
2260 -4.00896441 18.110241000000002 -8.376131160000002 -2.472818 -0.915967 -0.029986
2280 -6.5108577599999995 12.445721370000001 -3.3861078900000003 -3.27507 -4.8381680000000005 -0.169432
2300 -8.14591008 11.372595660000002 -2.53962261 -0.8557389999999999 -6.269163 -0.319479
2320 -7.47964431 8.255477970000001 -3.6407264400000003 -0.098336 -0.224863 -0.424483
2340 -9.12831291 9.9921717 -3.5278623900000006 -0.663999 2.558726 -0.206606
2360 -6.98073714 10.56218175 6.45443064 0.557066 2.789235 -0.5679770000000001
2380 -0.70128747 6.59843163 10.248585480000001 2.065269 2.623231 -1.120183
2400 1.03180599 9.77287896 5.506451100000001 2.607409 3.4254050000000005 -1.062944
2420 -6.189325200000001 52.51395024000001 -36.734957640000005 2.391487 4.705875 -0.878086
2440 -1.12176369 10.2378141 4.15909665 2.928558 3.951623 -0.53581
2460 -2.51970831 0.28365615 6.06029427 2.08697 1.596348 -0.085744
2480 0.14354973000000004 3.47727222 9.60986619 0.950152 -1.706906 0.059030999999999986
2500 -5.58982629 12.713966010000002 7.0663588200000005 0.937877 0.454109 0.442872
2520 -4.187839950000001 18.56843667 0.6197075100000001 -0.0207 1.264296 1.128414
2540 0.38200140000000005 13.56853473 -5.61287979 -1.028562 0.017837000000000002 1.224452
2560 -1.87709445 14.180462910000001 -6.2066889000000005 -2.020636 -0.351963 1.0566950000000002
2580 -7.843095 11.90624004 -6.60695652 -2.376892 -0.052945000000000006 0.381912
2600 -7.1263764 10.959614279999998 -6.314020110000001 -2.898977 -0.13868699999999998 -0.100188
2620 -4.15086606 8.81875836 -5.0942054699999995 -3.217245 -0.373751 -0.97912
2640 -1.5639494400000002 6.59558673 -5.144501340000001 -0.540786 -1.812297 0.533724
2660 -0.5701670100000001 2.84947146 1.3108220099999999 -0.653833 -1.845708 0.7284619999999999
2680 -1.64957112 0.20058507 7.35944238 0.206086 1.08463 0.574753
2700 -3.1469106600000005 -1.3275873 7.67992527 0.096675 1.7365669999999995 0.406511
2720 -1.93621932 -3.63443823 2.9386934100000004 -0.65923 -2.017846 0.091985
2740 5.7785805 -0.85576554 -2.3167296000000004 -0.426252 -3.35356 -0.145026
2760 10.85467671 5.429962530000001 0.11630736000000001 -0.274666 -0.635419 0.8983389999999999
2780 4.62553272 5.4113922 0.29952873 0.625835 3.076339 0.566587
2800 1.5703848 3.4886420100000004 0.7279314299999999 2.010261 2.817489 0.163187
2820 -0.39653001 2.8969224300000005 2.26224486 0.856196 -1.2623 0.043918
2840 -1.4718924000000002 4.719090690000001 -0.45924534000000006 -1.5363209999999998 -3.967441 -0.17763099999999998
2860 -2.33724231 10.02735036 -3.08134062 1.867076 -0.6706529999999999 -0.6697609999999999
2880 -9.54519867 31.27461354 -11.15076213 0.955583 3.327238 -0.390695
2900 -2.0446002 20.806578360000003 -17.3436876 2.299612 2.537532 -0.405932
2920 -2.1335180400000002 9.81119682 0.10597743000000001 3.453115 1.1071959999999998 -0.6887340000000001
2940 -4.95919044 5.13971406 10.64196648 3.166185 1.574655 -1.189129
2960 -10.37941164 9.44416548 2.67030162 1.854706 0.8313940000000001 -0.927077
2980 -3.6446210100000003 11.30373927 3.0469173300000003 0.308329 0.285616 0.7666350000000001
3000 1.13763627 17.598453300000003 -8.735088870000002 0.353397 1.595485 0.832569
3020 -5.038376760000001 40.561004790000005 -22.600297620000003 -0.231846 1.115189 0.239438
3040 -2.18680596 11.913430770000002 10.887010470000002 -1.014599 1.015405 0.297123
3060 1.8250033500000002 6.171363090000001 6.687045360000001 -2.144286 1.137231 0.380943
3080 -6.092029620000001 9.976456080000002 0.9904862700000001 -3.221748 0.7950619999999999 -0.228621
3100 -5.358261240000001 17.412543990000003 -8.41535154 -2.918613 -0.280554 -1.101068
3120 -1.13689071 17.378562150000004 -9.16678773 -1.962665 -3.973674 -1.710295
3140 -2.6321309100000003 11.76927282 -4.2688215 1.086512 -4.111765 0.07374700000000001
3160 -5.00095161 10.18123002 -3.3871575600000003 -0.5429510000000001 -0.246086 0.205894
3180 -6.60606381 5.3627444099999995 1.2644207100000002 -1.495739 0.8560450000000001 0.605888
3200 -3.1352269500000003 1.71244341 5.525011620000001 0.421789 2.201587 -0.01483
3220 1.08105219 -0.7328756700000001 6.478229700000001 0.572731 0.705097 -0.200933
3240 5.18761629 -8.08289064 5.41887723 0.398244 0.290547 -0.010409
3260 6.31117521 -4.7841996600000005 2.9485720800000004 -2.738619 -3.418568 1.065224
3280 4.34531007 -1.03929102 2.87312337 0.8252139999999999 6.067641 1.456112
3300 3.81107709 -0.02065986 2.47495509 2.374123 3.017863 0.354547
3320 2.09788812 1.9610680500000002 0.8108651700000001 1.937643 -2.671677 -0.089864
3340 0.14714019 3.3656049900000005 1.2627726300000002 -1.205846 -5.088805000000002 -0.290322
3360 -3.4922422800000006 9.93738285 -2.52449559 0.227883 0.430107 -0.663393
3380 -14.12253486 28.299103200000005 -7.77018708 -0.234935 1.765149 -0.325438
3400 -1.8230609700000002 21.927449340000003 -17.84274192 0.80448 0.611133 -0.346609
3420 -5.33475648 11.28458034 -12.56996502 1.980872 0.530201 -0.574365
3440 -7.4582388900000005 10.639121580000001 -6.66953451 2.306675 0.42428 -1.007788
3460 -8.124053400000001 13.586643990000002 12.0108735 2.382616 0.375272 -1.338344
3480 -1.48581279 10.18347651 9.856107 1.7061529999999998 -0.752695 -0.792557
3500 3.3353607600000004 8.04531834 5.561239949999999 0.703013 -0.477504 0.254418
3520 10.404113220000001 21.961284030000005 -25.92923283 0.422873 0.620514 0.301261
3540 -9.70147197 39.481296570000005 -1.5994224000000004 0.21732 1.178464 0.542665
3560 -3.04152183 5.264252010000001 7.82408322 -0.342291 1.232957 0.720284
3580 -4.32870174 5.41528677 2.6749417500000003 -1.632394 1.425977 0.721707
3600 -6.90514128 11.91702123 -4.2543027 -2.560723 1.26759 0.110812
3620 -1.4479363800000002 18.112781790000003 -7.16171202 -2.968 0.465226 -0.281974
3640 0.40565331 12.274026749999999 -4.16568897 -1.964655 -3.637718 -0.210956
3660 0.2806641000000001 9.78605379 -5.759872830000001 -1.024051 -4.136604 -0.14285799999999998
3680 -2.1395021400000003 8.01209187 -5.09959116 -0.384392 -1.796582 -0.06768099999999999
3700 -2.7514303200000003 3.9128656500000005 0.9436337100000001 -1.54145 -0.490687 0.169323
3720 -2.0121192900000002 0.91834353 4.79782575 -1.480853 0.388155 0.385469
3740 -0.43305264000000004 -1.23882642 4.497845760000001 0.444509 1.005522 -0.094324
3760 2.0697432300000003 -3.23417061 2.0330734500000003 0.233259 0.238411 -0.149295
3780 3.3386569200000005 -0.33934752000000007 0.55728648 0.370519 -1.371392 -0.49131
3800 4.0314195 1.4879023200000001 1.31636466 -0.8239700000000001 -3.897953 0.208611
3820 3.1147240500000004 2.8539644400000004 0.24729048000000003 -0.409305 -0.103904 0.763189
3840 -0.41553198 5.38070652 -0.18935262 -0.976408 0.8962459999999999 0.225972
3860 -1.10530251 9.82542132 1.8323412300000002 1.252592 1.782518 -0.364208
3880 -4.40055018 13.371540120000002 2.73675456 1.304928 -2.067202 -0.19013
3900 -7.973921160000001 21.449349180000002 -4.41506898 -0.583284 -3.400829 0.090014
3920 -4.869968490000001 19.494863640000002 -8.97593418 0.627316 0.74421 -0.438816
3940 -1.3298337900000001 16.91692317 -20.991594960000004 0.734877 1.4723540000000002 -0.139895
3960 -2.36089422 8.64841752 -11.344607730000002 1.6012110000000002 0.710012 -0.190551
3980 -2.8743201899999997 6.080355720000001 -5.10663474 2.29431 0.3869530000000001 -0.1885
4000 -2.6583236100000005 6.486607439999999 5.53503744 2.264711 0.365019 -0.272
4020 -4.08590424 11.267667900000001 10.22837688 2.000939 0.037971 -0.307607
4040 -2.80935837 14.029428150000001 3.63534075 1.017173 -1.29352 0.518304
4060 2.2094082 13.394740770000002 -5.55584445 0.817475 -1.262117 0.829858
4080 3.83382648 9.32889798 2.16060345 1.069662 -1.6499009999999998 0.35141700000000003
4100 -11.04418629 37.63923363 -25.798700970000002 0.851389 -1.588383 0.07528
4120 -2.70038889 12.2883984 6.241122 0.370404 -1.012875 -0.105073
4140 1.6428316500000002 6.55576794 2.1983327100000003 -0.16411199999999998 -0.388541 -0.195065
4160 -4.44950208 9.92436498 -2.03172948 -0.593197 0.084703 -0.154871
4180 -3.26111868 17.01856458 -8.66607552 -1.028683 -0.382704 -0.10604
4200 -0.6595263 13.39399521 -4.69169136 -1.257861 -1.533541 -0.355061
4220 0.13845833999999996 8.85723318 -3.907323 -1.487217 -3.300653 -0.467631
4240 2.06435754 6.79781007 -4.65457032 -1.255188 -5.06648 0.029771
4260 -0.08517042 3.6735114600000003 0.31344912 -0.234131 -0.123537 0.459995
4280 -1.7747074800000002 0.8878050000000001 3.37353147 0.312258 1.997731 0.176946
4300 0.12753 -0.48753738 3.24136134 0.442666 2.18625 0.07293
4320 2.38768533 -2.5246525500000003 3.8694564000000002 0.547122 2.350036 -0.217107
4340 0.13441662000000001 -0.24399432 1.28956374 0.197389 1.355588 -0.310143
4360 0.24548544000000003 1.1906200800000002 -0.15088761 0.788371 -1.113553 -0.863667
4380 0.88945308 2.77148196 0.16630893 -0.4447640000000001 -1.047782 -1.323155
4400 -0.39008484000000004 5.21246502 2.10432348 -0.293983 1.6199940000000002 0.327019
4420 -2.26074393 9.12667464 3.2939037000000004 -0.247349 0.184782 0.6240140000000001
4440 -4.49949384 14.826520080000002 1.9709467200000002 0.316766 -0.977829 0.234202
4460 -5.85492192 14.667097770000002 -1.1943675 0.946517 -2.189085 -0.567423
4480 -7.2513754200000005 13.52976561 -3.4908885 -0.549728 -2.87978 0.028692
4500 -11.15121339 14.821281540000001 -10.503360990000003 -1.048815 -1.706941 0.202096
4520 -7.202717820000001 19.4346891 -17.73032913 -1.13637 -1.10639 0.343857
4540 -5.92377831 19.08187245 -17.91280494 -1.60055 -1.273334 0.669841
4560 -9.24686676 9.75671208 -10.4291091 -1.820599 -1.394717 0.845784
4580 -3.98411568 3.8453532300000006 -8.431812720000002 -1.82508 -1.262376 0.787899
4600 -1.96017534 2.69230545 -6.581362230000001 -2.0213970000000003 -1.368864 0.681979
4620 -3.8318841000000003 5.40002241 17.246539170000002 -2.093078 -1.921357 0.648003
4640 -1.04452956 14.21069733 9.72677196 -1.947565 -1.73062 0.508838
4660 3.2515343100000003 15.43216005 4.988375189999999 -1.48999 -1.3230959999999998 0.231638
4680 3.7567395 16.14153096 -1.3927060800000002 -1.143675 -1.107498 -0.171076
4700 -3.70793475 30.863721690000006 -7.653281310000001 -1.052902 -1.011401 -0.571148
4720 -5.735926620000001 15.74021367 5.18042556 -1.049092 -1.66317 -0.8854120000000001
4740 -5.05708443 10.2551778 3.2548304700000004 -1.250248 -2.298204 -0.678768
4760 -5.223089250000001 13.433215590000001 1.5679911599999998 -1.673286 -2.244176 -0.5033989999999999
4780 -3.9598653600000002 14.894326800000002 0.0009025200000000001 -1.334943 -0.302448 -0.728919
4800 -0.8702941500000001 13.32768942 0.5683717800000001 -0.552358 3.42334 -0.205866
4820 -0.08562168 9.97330707 0.74200878 -0.268377 2.723865 0.243531
4840 -0.26165232000000005 7.359295230000001 1.50826788 0.162419 -2.440836 -0.600351
4860 -1.01922957 5.754634290000001 1.54223991 0.872331 -2.822647 -0.838458
4880 -1.46994021 4.913985960000001 -0.052993620000000005 2.371681 -1.072325 -0.824887
4900 -1.8764960400000001 4.72627161 -0.2718351 3.574809 -2.352415 -0.362985
4920 -2.53662075 5.02505478 -0.6125265900000001 3.65494 -3.730181 -0.341431
4940 -2.31808338 5.39014374 0.6192660600000001 3.869131 -2.715255 -0.456604
4960 -2.6120694600000003 6.0158353500000015 1.37563668 3.35764 -1.1621780000000002 0.009987
4980 -3.2701046400000005 8.01477981 0.7789826700000001 3.159392 0.25776 0.200131
5000 -4.2050564999999995 10.00114785 -1.43896023 2.626786 1.982883 0.550986
5020 -4.14653004 7.300317510000001 -2.6533793700000006 2.096324 1.468149 0.795768
5040 -1.91691324 8.51623758 -3.96809595 2.184312 -0.368494 0.746394
5060 1.81138707 13.946200110000001 -3.0755036700000007 1.895023 -1.400506 0.936907
5080 2.47120767 15.059733210000001 -1.2319398000000001 1.970528 -2.737198 1.080153
5100 -0.36883638 12.90795876 -0.25820901 2.367221 -3.097254 1.001132
5120 -1.00590759 16.3810323 -0.31778514 2.2233560000000003 -3.618294 1.155687
5140 3.04676037 18.269810460000002 -1.62831285 1.943637 -3.68434 1.131385
5160 5.90312826 17.43199722 1.5304188600000002 2.105441 -4.436198 0.934789
5180 2.23335441 15.75383976 2.11794957 2.072471 -4.620496 0.964705
5200 -4.92655257 11.77960275 1.56844242 1.809879 -4.100033 1.040184
5220 -3.79371339 10.9699344 1.8483609600000002 1.3285129999999998 -3.610696 1.097084
5240 -1.7765027100000002 11.53815903 3.25932345 0.779656 -3.0587720000000003 1.278413
5260 -2.4508519200000007 13.463606969999999 6.6366023400000005 0.306335 -2.655841 1.357912
5280 -2.34980892 13.899200400000002 5.97856716 -0.196064 -2.499204 1.250584
5300 0.8150540400000001 14.141546640000001 3.02011641 -0.614715 -2.351934 1.015667
5320 1.6429788 12.26728728 2.04849477 -1.082852 -2.055365 0.7834180000000001
5340 1.3831217100000002 11.285031600000002 3.20663394 -1.237598 -2.091053 0.518532
5360 1.39584528 10.77369516 3.9818691900000003 -0.7396229999999999 -1.870423 0.324106
5380 1.09407006 9.43802442 2.3493674700000002 0.844167 -2.239159 0.320687
5400 0.46508229 8.44453629 4.643494830000001 1.104508 -2.240997 0.554312
5420 0.42915807000000006 8.00714763 4.99017042 0.569515 -1.326263 1.101673
5440 0.37556604 8.46025191 5.221588320000001 0.729119 -1.425656 1.5761379999999998
5460 0.0606258 8.0545986 4.260738060000001 -0.068897 -1.533323 1.221393
5480 0.51073803 6.9829836300000006 2.61252072 0.16984200000000002 0.154501 0.109947
5500 -0.42182019000000004 6.62536989 1.35827298 2.333903 -0.978889 0.082718
5520 -1.21187835 6.7698221400000005 1.32504651 0.633283 -2.020382 0.936366
5540 -1.84296546 6.736742820000001 1.7064495 -0.483617 -1.288973 0.681936
5560 -1.83502917 6.1989095700000005 1.45033002 -1.04027 1.220725 -0.675401
5580 -2.19877416 6.689586149999999 0.58753071 -1.139795 1.952972 -2.01979
5600 -1.9955011500000002 7.96089348 -1.5220313100000002 -0.329361 -2.196029 -2.517286
5620 -2.18784582 9.998754210000001 -4.285135530000001 -0.201537 -6.940967999999999 -1.513661
5640 -3.92783571 13.016928240000002 -8.227342890000001 -1.425733 -6.641636 0.080805
5660 -1.74940749 15.11107875 -13.13174448 -0.548379 -1.004115 0.896899
5680 1.6973163900000001 10.75767543 -8.920851030000001 -0.916256 0.376209 1.2835299999999998
5700 4.0749759 9.30899349 -2.83660074 -1.1876209999999998 0.287584 1.038193
5720 8.63060256 8.701254180000001 -4.56700626 -1.208751 -0.419629 0.7580100000000001
5740 5.82918048 8.692719480000001 -1.57008069 -1.448491 -0.777029 0.56665
5760 -2.74619178 25.1990451 5.44852305 -1.32221 -1.32343 0.169785
5780 -5.29508484 17.35550865 1.38207204 -0.7901229999999999 -2.266429 -0.23335100000000006
5800 -10.40710527 0.67629159 2.88165807 -0.637039 -2.776622 -0.384383
5820 -5.639818050000001 -3.0698138700000004 3.69491688 -0.557714 -2.923934 -0.377231
5840 -4.92042132 4.46775849 6.15624588 0.096048 -1.546598 -0.12873900000000002
5860 -7.12548369 11.18998251 4.306845060000001 1.045488 0.818264 0.125895
5880 -5.77453878 13.672422630000002 1.5359517 1.891423 1.244719 0.10562
5900 -0.94214259 18.269957610000002 2.1342636 2.999914 -0.093225 0.199467
5920 7.259606010000001 17.23650354 -1.2998936700000001 3.739706 -0.487757 0.185912
5940 3.91391532 11.13953949 -0.94393782 3.215649 1.238191 0.057194000000000016
5960 -0.40849821 9.628730820000001 -0.02470158 2.7595110000000003 1.321911 0.029332
5980 -1.56005487 9.369462330000001 1.0972190700000002 2.706131 -0.437487 -0.299935
6000 -2.76684183 8.64482706 0.45565488000000004 2.310725 -0.163179 -0.35646
6020 -3.5136477 7.86374505 0.50564664 1.317681 -0.151772 0.31491
6040 -4.510422180000001 7.54521435 -0.36867942 1.486357 -0.902798 0.968666
6060 -4.34590848 7.2196400700000005 -1.58116599 1.705639 -2.118199 1.291153
6080 -2.05596999 8.16611868 -3.05754156 1.506325 -2.378231 1.223865
6100 0.09205704 8.93342745 -5.64969672 1.2087290000000002 -1.995504 0.87626
6120 1.17356049 9.67886973 -6.490354860000001 0.8524809999999999 -1.47462 0.661596
6140 0.5225590800000001 11.709098280000001 -5.31708867 0.479958 -1.095986 0.602961
6160 -1.15978725 13.592186640000001 -5.49971163 0.038344 -1.111359 0.56785
6180 -1.6302552300000002 17.81190909 -4.5466407 -0.382369 -1.237538 0.519139
6200 -1.8422199000000001 16.840581750000002 -1.97050527 -0.803988 -1.120711 0.440201
6220 -6.46670295 11.916569970000003 -0.17798283 -1.404354 -0.6888770000000001 0.328631
6240 -8.65140957 10.901529270000001 -0.6604288200000001 -2.181858 -0.39651 0.08354400000000001
6260 -3.8910089700000006 10.25113608 4.796471970000001 -2.470079 -0.43725 -0.400185
6280 3.18582693 10.6775964 8.478223830000001 -2.128832 -0.375133 -0.7781680000000001
6300 4.33019286 14.021197560000001 -1.55885805 -1.559659 -0.802841 -0.6059329999999999
6320 1.5203930399999999 14.753474820000001 -4.702923810000001 -1.180734 -1.505728 0.081276
6340 0.028144890000000002 12.51038889 -1.8532953900000002 -0.518307 -0.714823 0.188507
6360 0.2689902 9.345810420000001 0.92836935 -0.193088 0.222437 0.21842
6380 -0.08203122 6.42778668 1.8841282200000002 -0.261338 0.357449 0.347025
6400 -1.48191822 4.63077126 2.06689833 -0.591 -0.175819 0.523799
6420 -2.5942545000000004 3.77544717 2.2659922800000003 -0.150781 1.208368 0.576375
6440 -3.34583784 3.25827378 2.0281292100000003 0.26313400000000003 0.623562 0.4763979999999999
6460 -3.67875 3.0147307199999998 1.7962600499999999 0.048369 -0.665722 0.205221
6480 -3.1554355500000004 2.14983207 1.07686332 -1.773027 -3.535615 0.462164
6500 -3.01891959 1.4088729600000003 0.18636057 1.425225 5.080368 0.611263
6520 -2.14743843 0.7864677000000001 0.51223896 3.3321050000000003 5.778347 0.76683
6540 -0.22153923 2.5680618 -0.6397689599999999 2.121382 1.27341 0.722486
6560 -0.35042301000000003 5.5872855 -2.05447887 -1.912787 -3.169299 0.351759
6580 -4.102218270000001 9.3272499 -5.626201770000001 -2.710843 -3.50607 0.014399
6600 -4.569998310000001 13.13982792 -8.144114850000001 -1.637691 -4.382799 -0.114782
6620 -2.4677643600000003 13.89979881 -5.95581777 -0.30785 -1.147023 -0.069047
6640 -1.7724609900000001 10.34992278 -3.9434041800000004 -0.781537 -0.5524859999999999 0.046524
6660 -1.9553880600000002 6.872209110000001 -2.93465169 -0.561696 -1.123795 -0.063372
6680 -1.88173458 5.6655693000000005 -3.72186495 0.34483800000000003 0.090148 -0.198533
6700 -0.34488036 7.42860288 -2.0251371600000003 1.358004 1.129774 -0.256881
6720 -1.3835729700000001 10.261466010000001 7.66226727 2.191287 1.877783 -0.22638200000000006
6740 -3.1530419100000002 14.41652094 5.73083523 2.813143 2.268912 -0.27595
6760 -0.18965673000000005 9.05781825 2.16958941 3.574264 1.62061 -0.7814810000000001
6780 -6.57971415 54.09465516000001 -45.24895854 3.170065 -0.776751 -0.841053
6800 -3.4471849500000005 8.510704740000001 16.48985463 2.442972 -1.356764 -0.35187
6820 2.22242607 -0.19145196 10.038121740000001 1.521791 0.384468 0.30283000000000004
6840 2.3596974 0.35236539 4.9593375900000005 1.048045 2.168745 0.195753
6860 -3.33416394 14.50004328 5.50226223 0.396943 2.363841 0.455874
6880 -0.83511549 22.789660050000002 -0.05703534 -0.505533 1.436059 0.686836
6900 1.2150273600000001 14.38239195 -4.6505286 -1.7006259999999995 0.594757 0.590904
6920 -2.10851235 9.85011309 -0.6385721400000001 -2.656017 -0.234329 -0.368629
6940 -3.90088764 10.23152589 -3.2693492699999998 -2.507114 -1.1210870000000002 -0.917655
6960 -4.868173260000001 11.296862460000002 -5.42202624 -1.918384 -2.311925 -0.398202
6980 -2.76384978 11.60117847 -7.922722770000001 -1.215922 -0.752494 0.356735
7000 -1.04034069 10.76591583 -7.647601320000001 -1.263019 0.07468 0.267752
7020 -2.0131591500000003 7.2411926399999995 -3.6055477799999998 -1.967702 0.780827 0.378361
7040 -3.55390794 4.42240686 -0.61118262 -1.509328 0.680107 0.12745499999999998
7060 -3.77365194 2.8994730300000002 3.50780094 -0.08151699999999999 1.022159 -0.069177
7080 -3.70120509 2.28694644 6.00671205 -0.123319 1.971402 0.212393
7100 0.5655268800000002 -0.31868766000000004 3.8713987800000003 -0.399336 1.252541 0.135543
7120 2.53393281 -2.48632488 2.74947813 -2.91121 -1.302573 -0.204536
7140 1.720674 -1.5386494500000003 1.3953940200000001 2.430214 6.602882000000001 0.480668
7160 4.73525757 2.4876786600000003 0.7200049500000001 3.97506 2.170842 0.330496
7180 4.27630653 4.0866498 0.24339591000000002 0.8564200000000001 -1.6085040000000002 0.8391200000000001
7200 0.08756406 5.83052445 0.91010313 -2.867545 -2.90733 -0.12953599999999998
7220 -0.9370512 7.25690826 -0.26539974000000005 -2.528426 -2.344734 -0.721819
7240 -5.47426449 11.48815746 -4.80276018 -0.362435 -0.720793 -0.317802
7260 -6.567441840000001 18.938764170000002 -4.8238713 -0.485345 -0.685547 -0.234316
7280 -3.4371493200000005 20.75689071 -8.57985543 0.023159 -0.674096 -0.607861
7300 -2.70427365 11.84217093 -12.831911640000001 0.8790549999999999 0.841858 -0.5675060000000001
7320 -3.8411643600000005 7.43309586 -7.96104063 1.767257 0.735396 -0.554756
7340 -4.14218421 8.139327569999999 -5.906865870000001 2.758187 0.924762 -0.551281
7360 -3.9594141000000005 14.18255244 2.65442904 3.064882 1.139416 -0.68401
7380 -3.12415146 14.30186166 9.07757559 3.24764 0.21526 -0.967833
7400 -0.59845905 9.91283823 5.8207929300000005 2.820654 -0.4133729999999999 -0.8343450000000001
7420 -12.86454951 56.00632985999999 -36.90246339 1.952463 0.097031 -0.382797
7440 2.4671659500000005 8.98296795 10.20098736 1.384869 1.915729 -0.225654
7460 2.3695760700000004 -1.9699068600000003 12.30920541 0.926351 2.087409 0.128778
7480 2.70233127 -4.1532597 5.36364693 0.052817 1.847069 0.782077
7500 -0.06856209 8.06777343 3.7462624200000003 -1.25424 1.310718 0.978733
7520 -6.99734547 31.16189664 -1.6902826200000003 -2.534364 0.349995 0.451867
7540 1.6334042400000002 15.76671048 -4.9017038400000015 -3.167696 -0.204476 -0.198121
7560 -2.34891621 10.57775022 -3.0557463300000003 -3.416574 -0.999298 -0.21700100000000005
7580 -4.72208274 10.02420135 -6.633600480000001 -3.567858 -0.559545 -0.300874
7600 -4.410880110000002 10.72908909 -7.19883306 -2.26019 -0.626034 -0.5245270000000001
7620 -2.29427451 8.586290790000001 -5.690712330000001 -1.449346 -1.471359 0.775837
7640 0.6336279 6.946304040000001 -6.49798704 -1.49343 -0.35990700000000003 1.253736
7660 -0.6441147900000002 5.714521199999999 -0.57151098 -0.087982 1.172053 0.811869
7680 -2.3523595200000003 4.3123779 4.975651620000001 0.190158 0.8864540000000001 0.597328
7700 -0.9262700100000001 1.2680111699999999 5.682933 0.030276 -1.006202 -0.146982
7720 0.51118929 -1.72246923 3.9927975300000003 0.112177 -0.615526 -0.413966
7740 2.2936761 -1.8895237200000001 1.4585704199999998 -1.599684 -3.186287 -0.731345
7760 4.402649520000001 2.11510467 0.84573972 1.727882 2.390134 -0.345643
7780 3.7625764500000005 3.7570338 -1.45108539 3.132565 1.074035 -0.376874
7800 0.30821058 3.44238786 -1.9128715200000002 -0.060611 -2.377072 0.428843
7820 0.14550192 4.48706457 -1.42413732 -0.6867939999999999 -1.425881 -0.068132
7840 -1.74896604 7.150479570000001 -1.9553880600000002 0.393112 1.290727 -0.243531
7860 -4.27061673 11.583961920000002 -4.028270490000001 0.427231 0.63946 -0.177296
7880 -0.74514798 16.76573145 -6.96921039 1.587109 0.214474 -0.398318
7900 1.4257854 21.40817661 -11.746219320000002 2.392653 0.030283 -0.589008
7920 -0.18546786 14.989680000000002 -11.83963014 2.615202 0.326941 -0.909368
7940 -1.15215507 9.02936925 -6.57327879 2.3482990000000004 0.085799 -1.112818
7960 -5.78262222 9.486525060000002 -1.5672456000000001 1.458645 -0.118625 -0.635934
7980 -9.41227317 13.5146484 6.37374339 0.58201 0.494806 -0.101254
8000 -6.838384230000001 12.28495509 4.1532597 0.631406 1.676441 0.061014
8020 -0.66461769 7.694149770000001 2.07588429 0.039503 2.187975 0.523037
8040 0.19219751999999998 19.0008909 -1.49359212 -1.121801 2.074934 0.7607619999999999
8060 -2.3486121000000004 37.529361630000004 -14.48896779 -2.236641 1.934671 0.83968
8080 1.7711170200000002 5.6338339500000005 10.95077547 -3.018657 0.747279 0.355039
8100 2.1112101 3.98351727 2.8198354500000002 -2.901223 -0.343663 -0.519753
8120 -5.81435757 13.177096109999999 -3.6989586 -1.948898 -1.452462 -0.5843189999999999
8140 -0.72194733 18.494488890000003 -6.33258063 -1.004952 -0.908377 0.262268
8160 -0.265851 11.764632690000001 -2.7647523000000005 -0.670708 -0.8233219999999999 0.280517
8180 -1.2323910599999999 8.46954198 -4.67882064 -0.992908 -1.850941 0.200535
8200 -2.98150425 7.3012200300000005 -5.19524847 -0.801046 -1.307689 0.310138
8220 -3.85014051 4.9732579800000005 -2.07019449 -0.158698 1.535518 0.289617
8240 -2.84064246 2.22452541 3.4102110600000004 0.155552 1.4913379999999998 -0.122602
8260 -0.6140275199999999 0.36254817 5.55629571 0.5397529999999999 0.199525 -0.014644999999999997
8280 1.57547619 -3.0786526800000003 4.420160370000001 -2.840491 -8.206412 -0.053122
8300 1.3927060800000002 -2.96414055 2.6322780600000004 2.7798540000000003 5.537649 0.433201
8320 2.71355391 0.10987200000000001 1.21278087 3.2118 4.47227 0.351057
8340 4.67822223 0.9515699999999999 0.17468667000000002 1.171986 -0.543201 0.293029
8360 1.5033236400000003 1.85045049 0.03547296 -1.813927 -2.551944 -0.139723
8380 1.53190998 4.51506231 -1.5825099599999999 -2.710601 -4.085053 -0.383304
8400 0.9111528000000001 9.580828590000001 -3.79804941 -0.677049 -3.314671 -0.328426
8420 -2.39741685 17.52809598 -9.1131957 -0.111874 1.678157 -0.2561
8440 -3.1213065600000003 24.45764454 -9.6537267 0.8606729999999999 1.005099 -0.348858
8460 -3.3685970400000005 18.40482549 -8.04172788 2.664492 -0.116212 -0.6862659999999999
8480 -4.761303120000002 13.80818322 -7.91164728 3.626465 0.317884 -1.119142
8500 -3.17699793 9.85176117 -8.242008839999999 3.587383 0.465632 -1.536211
8520 -4.3957629 10.72504737 -0.36434340000000004 3.2317560000000003 -0.72218 -1.220979
8540 -4.474497960000001 11.483674290000002 6.4553233500000005 2.165018 0.570779 0.040029
8560 -0.52870014 7.8005784600000005 6.430327470000001 1.333268 0.7841239999999999 0.155723
8580 2.11075884 8.18408079 1.7398329300000002 0.955553 1.049484 0.190132
8600 -1.9573304400000002 56.935905840000004 -46.54974492 -0.115565 1.291012 0.6577
8620 -2.54321307 6.863831370000001 14.569350930000002 -1.462407 1.295415 0.990117
8640 0.98390376 0.44277435000000004 7.327108620000001 -2.847473 1.191785 0.933574
8660 -2.71430928 4.4637167700000004 4.12332939 -3.962035 0.799031 0.219129
8680 -3.9362134500000003 14.44660821 5.277878100000001 -4.234082 -0.145261 -0.495134
8700 -1.13314329 17.14953789 -3.9971335500000005 -3.394115 -3.1947330000000003 -0.5270199999999999
8720 0.91325214 16.42773771 -9.20436003 -2.258995 -2.667048 0.258967
8740 -2.6262841500000005 13.93302528 -7.259606010000001 -0.777633 -1.114719 0.517289
8760 -5.6576330100000005 11.354790509999999 -8.74076886 -1.220007 -0.476238 1.070993
8780 -5.04735291 8.91755487 -8.21716011 -0.675796 -0.935115 1.0679040000000002
8800 -3.1147240500000004 6.31806183 -2.0713913100000005 1.705876 3.208381 -0.089404
8820 -2.43259551 5.33894535 2.83929849 1.159294 1.776157 -0.025157
8840 -0.14669874000000002 2.59679529 6.72641289 -0.558629 -1.033741 0.057243
8860 3.2694964200000003 -2.13905088 1.6278615900000002 -1.111186 -4.932476 -0.305884
8880 3.3594639300000004 -3.6407264400000003 3.06727308 2.528398 3.031695 0.225284
8900 2.5337856600000004 -1.6217303400000003 3.12175782 1.976464 0.325644 -0.032545
8920 4.3385804100000005 1.44644526 0.37556604 -0.84096 -2.536148 0.127699
8940 1.77201954 4.947506730000001 0.37886220000000004 -2.644214 -7.2176399999999985 -0.006016
8960 -0.09640287000000002 7.69654341 0.0011968200000000001 1.995145 -0.311489 -0.556095
8980 -0.5174775 8.77969494 -0.21046374 0.532043 1.907741 -0.152552
9000 -3.5149916700000006 11.33817237 -3.7254554100000004 2.412988 -0.359009 -0.756078
9020 -4.73196141 17.17259139 -6.94345914 3.037285 -1.172477 -1.130962
9040 -2.02663809 23.37359049 -5.646263220000001 2.690693 -0.8053140000000001 -1.27379
9060 -0.23680359 16.03540638 -13.43455956 1.667684 -1.070699 -0.621503
9080 -2.10506904 8.923538970000001 -9.9864819 0.775051 0.196371 0.569183
9100 -3.7503041400000003 5.25602142 -10.0818351 0.958741 -0.233699 0.33494
9120 -8.07810336 8.518336920000001 8.45816238 1.103902 -0.85992 0.169046
9140 -4.151915730000001 12.033927 9.421553430000001 0.591599 -0.686543 0.146017
9160 3.3151521600000002 9.18010971 -0.8232846300000001 -0.193689 -0.06552000000000001 0.302106
9180 7.406893350000001 43.19402841 -40.96770777 -0.40717 -0.005563 0.145646
9200 -1.17669969 15.70878243 14.99477139 -0.32823 -0.709917 0.394927
9220 0.6303415499999999 3.3432970500000003 7.458543 -0.626125 -0.8098850000000001 0.344905
9240 -2.30490855 5.554500480000001 3.22908903 -1.117713 -1.020158 0.075753
9260 -6.83657919 19.650832830000002 -7.7427975600000005 -1.582989 -1.519219 0.074211
9280 -0.32213097 20.16546543 -10.199192129999998 -1.56339 -1.683281 0.059603
9300 -1.7169265800000002 11.87645688 -5.692213260000001 -1.335917 -0.799319 0.182905
9320 -2.31688656 6.675067350000001 -3.9341141100000003 -1.21536 0.5684100000000001 0.365728
9340 -1.7019565200000002 4.59573975 0.033530580000000004 -0.8473209999999999 0.113207 0.395588
9360 -1.1183203800000001 2.274968430000001 1.9758909600000003 -0.232887 -0.753401 0.264258
9380 0.5987533500000001 -0.22348161 2.6740392300000004 0.35672600000000004 -0.461153 -0.070625
9400 4.13605296 -3.6694697400000003 1.66109787 0.965943 -1.176024 -0.314349
9420 2.7039793500000004 -1.01743434 0.45445806 1.277364 -1.515555 -0.390787
9440 0.7744896900000001 1.04138055 -0.00494424 1.880505 -1.227902 -0.653998
9460 1.7914727700000002 2.36537739 -0.42676443000000003 0.698078 -2.667448 -0.604865
9480 -1.11891879 6.737488379999999 -0.09026181000000001 -1.300133 0.068645 0.210884
9500 -3.9585213900000005 15.34743108 1.3232512800000003 0.235864 5.472805 0.473198
9520 -4.9753573200000005 19.66415481 -1.15724646 1.017942 -1.686359 0.189801
9540 -5.10887142 14.156663850000001 -3.1388272200000005 1.589059 -2.8347740000000003 -0.5589029999999999
9560 -6.7731183 11.582019540000001 -5.057231580000001 -0.59446 -2.009751 0.40862
9580 -6.77101896 11.304043380000001 -7.5914586900000005 -2.44223 -1.100457 1.056846
9600 -6.36685677 11.593840590000001 -8.6156325 -2.535473 -1.941669 0.78274
9620 -4.2191240400000005 11.21617521 -7.71809598 -1.714114 -2.133509 0.6263529999999999
9640 -2.50040223 10.34708769 -8.2336311 -1.738995 -1.854793 0.744395
9660 -2.03696802 10.84764294 -10.80602892 -1.976157 -1.6877799999999998 0.742524
9680 -0.9473811300000001 11.26273347 -10.94044554 -2.022396 -2.291437 0.693836
9700 0.42002496 7.737411870000001 -7.15362858 -1.7019689999999998 -1.825604 0.605747
9720 1.0548594900000001 4.711007250000001 -5.00184432 -1.580334 -0.644713 0.359392
9740 1.40827455 3.1412208600000002 -7.5576338100000005 -1.321145 0.042484 0.111426
9760 -5.607042840000001 10.41070554 10.349324370000001 -1.0620459999999998 -0.174999 -0.071287
9780 -7.10647191 13.329033390000001 9.4368276 -0.991225 -0.668031 -0.180188
9800 -0.6736036500000001 11.360176200000002 1.26891369 -1.216167 -1.399923 -0.239573
9820 5.2497332100000005 21.122126820000002 7.626343050000001 -1.347537 -1.180076 -0.225818
9840 -6.542141850000001 38.544696630000004 -17.4251106 -0.898507 0.3761 -0.300519
9860 -1.08464265 10.798848000000001 9.33533334 -0.835443 0.888232 -0.288984
9880 -1.38806595 8.67431592 6.18843249 -0.959372 1.4166729999999998 -0.197592
9900 -3.4546699800000003 13.6450233 6.330039840000001 -0.838989 1.387451 -0.1871
9920 -3.2793849000000006 15.19624917 1.42518699 -0.540087 -0.035693 -0.461994
9940 -2.18006649 12.67668801 -0.64710684 -0.299364 -0.876977 -0.7412449999999999
9960 -1.9151180100000003 10.07165232 1.1843416800000002 0.039344 -0.8946790000000001 -0.8702479999999999
9980 -0.9157929300000001 8.30652921 1.85659155 0.651115 -1.0798530000000002 -0.913807
10000 -1.8606332700000001 6.63914313 -1.40572395 1.259123 -1.392834 -0.960434
10020 -3.0695195699999998 5.799387510000001 -2.6457471900000002 2.123391 -2.245076 -0.6392479999999999
10040 -2.45714013 5.598959399999999 -1.9513463400000002 2.6528970000000003 -3.761923 -0.325957
10060 -1.86736293 5.59970496 -1.00021779 3.064773 -3.894867 -0.470325
10080 -2.3297572800000004 5.83441902 -0.30297204000000005 2.898209 -2.126474 -0.334885
10100 -2.6113239 6.6740176799999995 0.9574069500000001 2.705343 -0.536752 0.015312
10120 -2.90785077 7.48503 0.4784042700000001 2.40618 -0.234775 0.414487
10140 -2.31239358 7.76480139 -0.66461769 2.294772 -0.476482 0.74944
10160 -2.13725565 8.88612363 0.8952900300000001 1.988419 -0.472374 0.7868189999999999
10180 -1.8845794800000002 10.463836500000001 -0.16270866 1.498602 -0.388126 0.656171
10200 -0.88376328 11.73140622 0.2555210700000001 1.652567 -0.906977 0.538271
10220 -0.14459940000000002 13.086235890000001 0.40176855 1.656319 -1.404952 0.39152
10240 -0.37467332999999997 13.41271269 -0.7232913 1.4765549999999998 -2.035877 0.351549
10260 0.73137474 13.326041340000002 -1.6691813100000001 1.199987 -3.138033 0.489898
10280 2.95515459 13.16228301 -2.0827709100000003 1.240585 -3.120086 0.4955
10300 3.77934174 13.75983954 -2.15416809 1.095572 -3.696367 0.61273
10320 4.14517626 14.3768493 -0.08098155 1.156772 -4.03872 0.6595300000000001
10340 4.49859132 13.36899933 2.00463426 1.383409 -4.215117 0.619678
10360 2.4051961800000003 15.01902171 3.7739560500000002 1.412181 -4.180234 0.662563
10380 -3.77634969 15.03398196 3.7830793500000004 1.208473 -4.085037000000002 0.742203
10400 -4.35130398 11.75250753 1.83114441 1.197499 -3.892277 0.7653810000000001
10420 -1.44015705 10.40396607 2.38079871 1.323715 -3.761924 0.8248469999999999
10440 -0.1240965 10.59182757 4.193824050000001 1.465162 -3.708705 0.979591
10460 -0.40400523 10.48150431 6.02841177 1.518289 -3.65285 1.084576
10480 0.06960195000000002 11.93079447 6.346501020000001 1.451897 -3.4121 1.142556
10500 0.09520605 12.51188001 3.9520860300000002 1.563064 -3.651975 1.093434
10520 0.27018702 11.630961630000002 2.8409465700000003 1.6334 -3.674571 1.0886129999999998
10540 0.29293641 9.939178080000001 2.31777927 1.497621 -3.210913 1.140481
10560 0.5004081 9.407790000000002 3.59492355 1.107973 -2.4864900000000003 1.2030610000000002
10580 0.7717919400000001 9.43668045 4.151915730000001 0.7402479999999999 -2.205965 1.16595
10600 1.6390940399999998 9.14852151 4.65636555 0.460032 -2.238608 1.047598
10620 2.09519037 9.19133235 4.06749087 0.274532 -2.4076 0.845693
10640 2.08905912 9.36647028 4.664301840000001 0.303381 -2.458591 0.785072
10660 2.0330734500000003 9.14777595 4.63825629 0.414232 -2.403789 1.103038
10680 2.2703283 9.68171463 3.2726454300000007 0.250412 -2.244592 1.393314
10700 2.66849658 10.421476920000002 1.6338555000000001 0.211075 -2.033302 1.336153
10720 1.1300040900000001 10.36938582 1.10934423 0.719333 -2.612722 1.13962
10740 0.6198644700000001 9.988581240000002 0.8286801300000001 0.755209 -3.244281 1.071245
10760 0.64201545 9.890834400000001 0.40057173 0.477544 -2.972053 1.166165
10780 0.7192495799999999 9.997263089999999 0.19609209 -0.242563 -1.573997 0.888015
10800 0.3379937400000001 10.297537380000001 0.39457782 -0.186917 -0.056833 -0.010847
10820 -0.51373008 10.074055770000001 0.5070004200000001 2.298547 -0.8774780000000001 -0.736985
10840 -1.06503246 9.45883143 0.23636214000000003 1.086782 -1.94202 -0.669309
10860 -1.01009646 8.5979745 -0.46448388 -0.520123 0.335533 0.457409
10880 -0.94453623 7.53532587 -0.08248248000000001 -1.547327 2.5228040000000003 0.217763
10900 -1.14316911 7.013963610000001 -0.09879651 -2.062425 3.093259 0.264709
10920 -1.5064628400000002 6.968013570000001 -0.9351088200000001 -1.793105 1.860288 -0.122799
10940 -1.01129328 6.98941899 -1.7768068200000002 -1.192896 0.30090300000000003 -0.155064
10960 -0.15462522000000004 7.58143287 -2.5801869600000003 -0.687994 -0.6329100000000001 -0.434488
10980 1.38462264 8.47058184 -4.39680276 -0.8643040000000001 -1.3103049999999998 -0.577993
11000 3.6019573200000004 9.736199370000001 -6.833734290000001 -1.127509 -1.597593 -0.7001729999999999
11020 4.1576055300000005 11.391313140000001 -8.622519120000002 -1.587306 -1.327642 -0.677025
11040 1.31531499 13.00989447 -8.29754325 -1.7822360000000002 -0.324475 -0.693559
11060 -0.18845991 11.187736020000001 -7.322174189999999 -1.644047 -0.245832 -0.500414
11080 0.34054434000000006 7.24088853 -5.33385396 -1.4118879999999998 -0.5449390000000001 -0.228149
11100 1.29226149 4.9930153200000005 -4.308944400000001 -1.150949 -1.183582 -0.052456
11120 0.15358536 5.236264080000001 1.64732463 -0.974984 -1.218209 -0.070411
11140 -9.91896948 22.70717757 -1.5679911599999998 -0.765203 -0.606359 -0.08148
11160 -6.92879319 36.530036550000005 -5.74116516 -0.459772 0.157506 -0.09528
11180 0.22572810000000001 -0.71641449 13.07710278 -0.30140300000000003 0.793759 -0.037306
11200 0.78915564 -9.178314480000001 3.69192483 0.244677 1.354889 0.08970399999999999
11220 1.4900016600000001 2.4927700500000003 5.13940995 0.972949 1.107008 0.175225
11240 -0.5477119200000001 16.50034152 3.68533251 1.877886 0.35956 0.095978
11260 -0.74844414 20.995489530000004 0.7921575000000001 3.2211220000000003 0.8085899999999999 -0.405825
11280 0.11166723 15.473469960000001 0.3873969 3.731144 0.913806 -0.7858890000000001
11300 -0.7806307500000002 10.38330621 0.55728648 3.3161089999999995 0.358534 -0.626775
11320 -3.1584276000000004 8.05534416 0.68961357 1.916366 -0.475083 0.195592
11340 -3.5735181300000005 8.23781997 0.32991030000000005 1.039421 -0.900214 0.710236
11360 -3.3184483200000003 9.735306660000001 -1.5066198 0.721881 -0.78322 0.499565
11380 -2.38393791 10.88296875 -2.47225734 0.198502 -0.327097 0.374615
11400 -0.15612615000000002 10.97861625 -2.3543019000000003 -0.099942 0.259649 0.4219850000000001
11420 1.4024376 10.14380487 -1.6178357700000001 -0.550963 -0.36845 0.44314
11440 0.28905165000000005 9.89248248 -2.11075884 -1.563364 -1.056314 0.445496
11460 -1.42368606 10.462796640000002 -2.2132929600000004 -2.328462 -0.029614 -0.165778
11480 -2.04100974 11.0826513 -3.11756895 -2.442982 -0.6368689999999999 -1.650628
11500 -1.29645036 10.84225725 -2.8388472300000003 -0.5880449999999999 -1.748754 0.667909
11520 -0.9767228400000001 10.81171872 -3.03343839 0.409879 0.873125 1.075307
11540 0.23696055000000005 11.02262391 -3.29914224 0.219912 0.152684 1.318458
11560 0.24084531 10.883115900000002 -4.61041551 -0.258834 1.538341 0.73543
11580 -1.43805771 9.75745764 -6.1309458900000005 -0.228943 1.696967 -0.06359400000000001
11600 -2.7876488400000006 7.50030417 -3.67934841 -0.08466599999999999 -0.217552 -0.13384
11620 -1.5153016500000003 4.62403179 -1.98247347 -0.746053 -2.470954 -0.273373
11640 -0.60219666 2.81908989 4.39964766 -1.259085 -1.835627 0.331116
11660 -0.01032993 0.12603888 7.25480892 0.4260100000000001 1.7117830000000005 0.457981
11680 1.48177107 -3.4126047 4.6473894 2.125572 3.419598 0.27218000000000003
11700 1.6488255600000001 -4.42135719 2.44336689 2.277458 0.905085 0.522154
11720 2.59874748 -0.88061427 1.6946284500000002 -0.480626 -1.221593 0.080461
11740 2.81265453 -0.38230551 0.88914897 -0.724143 -2.067448 -0.234213
11760 4.9280535 -0.44217594000000005 1.11472992 -0.1837 -1.702854 -0.237315
11780 2.22722316 1.3765392 2.7167029200000004 -0.146599 -0.0074150000000000015 -0.149497
11800 -1.61065485 5.672750219999999 1.2070910700000002 0.539892 -0.032712 -0.279266
11820 -6.677460990000001 21.18768705 -0.8749342800000001 1.937441 -0.113072 -0.574912
11840 -16.723675980000003 45.021876660000004 -16.1493201 2.631949 -0.216312 -0.667137
11860 -2.04355053 19.93838355 -12.530744640000002 3.025949 0.195007 -1.03879
11880 -5.44687497 10.642721850000001 -10.05294465 2.808881 0.44232 -1.159195
11900 -3.9004363800000004 5.98201047 -3.08927691 1.8008509999999998 -0.015119999999999996 -0.7095199999999999
11920 -1.4876080200000001 4.7518659 1.9173645000000001 0.515563 0.069525 0.015263
11940 -4.065989940000001 9.383088420000002 8.84195901 -0.00562 0.727286 0.07914500000000001
11960 -5.09554944 18.38566656 2.60248509 -0.303081 1.120961 0.189795
11980 3.49507737 12.06206208 3.25318239 -0.941343 1.237532 0.362512
12000 -0.1963962 30.486056310000002 -16.31097909 -2.029228 1.618379 0.902423
12020 -6.18199713 25.46759385 -12.43508733 -3.027139 1.077546 1.152519
12040 -1.0581458400000003 2.00298618 11.79143361 -3.588465 0.002341 -0.1383
12060 -2.13875658 3.53864358 5.38729884 -1.891406 -4.025565 -0.518663
12080 -3.2446575 11.68470081 4.6419939 -0.574907 -5.412524 0.728243
12100 -0.38335518 17.706530070000003 -5.053935419999999 -0.768806 -0.223246 1.348353
12120 2.16973656 13.424229630000001 -2.29727637 -1.1910040000000002 0.594906 0.910658
12140 -1.07491113 10.90392291 -3.4063164900000005 -0.7631859999999999 -0.620997 0.646012
12160 -4.16090169 9.66030921 -6.655761270000001 0.525076 1.983652 0.050264
12180 -4.23619344 8.68867776 -6.92999001 0.439413 1.7851549999999998 -0.318617
12200 -2.25640791 6.659204580000001 -3.3751795500000004 -0.08978799999999999 1.385068 -0.240616
12220 -1.7624351699999998 3.7643716800000004 0.043860510000000005 -3.929275 -3.189428 -0.8565719999999999
12240 -0.714168 2.01241359 4.30474572 2.826193 5.602106 1.58819
12260 1.15978725 -1.67726475 4.03336188 3.711908 4.620227 1.277305
12280 3.0377842200000003 -4.11090012 2.38409487 1.701484 1.6413209999999998 0.988273
12300 2.5512965100000002 -3.256929810000001 2.78945388 -2.050585 -3.375867 0.181214
12320 3.3307206300000005 -1.7919240300000001 1.2301445700000002 -3.166322 -3.521827 -0.976867
12340 3.36380976 -0.38904498 1.1332904400000001 -1.555408 -7.6146449999999986 -0.7680899999999999
12360 1.9516406400000001 2.6204472000000005 -0.41389371 0.8831559999999999 -1.305964 -0.780505
12380 2.4378340500000006 8.03393874 -0.08442486000000002 -0.315685 2.895151 -0.4577729999999999
12400 -0.0170694 17.73183006 0.58617693 1.541899 1.204488 -0.98422
12420 -6.49439658 30.283970310000004 -6.852598919999999 3.114309 -0.398463 -1.353606
12440 -2.43348822 17.704136430000002 -8.111182680000002 3.526135 1.32125 -1.533462
12460 -7.954762230000001 13.58095419 -9.05437494 3.294404 2.1055080000000004 -1.652522
12480 -9.9893268 9.74099646 -9.39416391 2.622202 2.8463540000000003 -0.658311
12500 -8.176144500000001 6.3165609 -5.776186860000001 2.387115 -0.19024 -0.049312
12520 -9.15226893 8.883877140000001 6.721468649999999 1.844869 0.189013 0.150445
12540 -2.6101270800000003 11.1202236 7.916434560000001 1.174952 1.300684 0.051405999999999986
12560 6.69362787 9.56391615 6.52597497 0.36016 1.613712 0.531354
12580 4.7223770400000005 64.12425201 -55.855295100000006 -0.911096 1.767419 1.289261
12600 -0.13232709 10.376419590000001 18.374286960000003 -2.248037 1.320176 1.339248
12620 -1.42712937 -4.4041406400000005 12.344384070000002 -3.342897 1.180318 0.7677579999999999
12640 -3.1765466700000005 -2.87791065 8.08408746 -3.649969 0.475037 0.252702
12660 -5.644909439999999 9.655973190000001 4.45878234 -3.753341 -2.5120400000000003 0.087029
12680 -5.87034324 23.327934750000004 3.2133636000000005 -3.493667 -2.188118 -0.157264
12700 2.02274352 15.901284060000002 -10.19604312 -0.930277 -0.5854729999999999 -0.365739
12720 -0.07229970000000002 15.46269858 -7.72873002 -1.348143 -1.001196 0.328356
12740 -4.986727110000001 10.99942326 -8.04262059 -1.16219 -0.8369969999999999 0.66273
12760 -5.298381000000001 8.976679740000002 -7.9752651299999995 -0.138383 3.0352 0.5944159999999999
12780 -3.1780377900000003 8.21851389 -8.627757660000002 0.454073 3.193542 0.44346
12800 -2.99272689 6.53436252 -3.20214096 -0.173127 0.275033 0.102056
12820 -0.7575772500000001 5.7002967 2.8999242900000004 -5.082746 -9.632683 -1.337073
12840 8.895855150000001 0.8502327000000002 9.47260467 2.708027 7.271678 0.8214459999999999
12860 -0.48828294 0.8529304500000001 2.0707929000000003 4.412721 4.328864 0.5401590000000001
12880 1.30917393 -1.90059921 3.33401679 0.552959 -2.284676 0.500309
12900 2.8891431 -0.67135716 2.86938576 -3.251783 -4.178905 -0.420079
12920 4.991671350000001 2.99272689 0.8157996000000001 -2.89947 -4.959207 -0.063036
12940 2.2947257700000003 5.77439163 -0.49681764000000006 0.023998 -3.80369 -0.123145
12960 1.3823761500000002 7.226075430000001 -1.1687732100000001 -0.043167 2.46842 -0.27265700000000004
12980 0.33036156 7.79084694 -0.97027767 0.738283 2.147949 -0.461204
13000 -4.577630490000001 7.9575973200000005 -1.27025766 2.712844 0.61346 -0.983829
13020 -6.86891295 10.50905079 -6.0134417099999995 3.3684800000000004 0.766486 -1.192022
13040 -4.2790042800000005 15.49203048 -4.91248503 3.326685 1.159879 -1.232342
13060 -1.2087391500000002 21.83958117 -13.254487200000002 2.932432 -0.1934 -0.796459
13080 -0.13067901 11.968965180000001 -13.565689830000002 2.075872 0.324514 0.163635
13100 -1.454823 7.531284149999999 -9.45194481 1.506709 0.576322 0.28966
13120 -2.5872207300000003 6.15535317 4.07063988 1.260383 0.6322439999999999 -0.16078499999999998
13140 -2.50219746 9.636961410000001 8.17106292 0.600197 1.031546 0.188741
13160 -0.48469248000000004 10.170301680000001 4.37195403 -0.280606 0.334226 0.576588
13180 -3.15229635 35.77485294 -13.149402480000001 -1.502901 0.100392 0.971069
13200 3.3286311 15.923435040000001 11.00945889 -2.934451 0.096958 0.673723
13220 2.00972565 -1.25483634 11.503725930000002 -3.861793 0.578797 -0.468892
13240 1.7655743700000002 -2.52809586 5.64131898 -3.838906 -1.138915 -0.633174
13260 -2.74528926 10.498416750000002 7.04719989 -3.110469 -0.425488 0.143325
13280 -7.16126076 24.9730227 3.33551772 -0.974757 0.046382 0.434308
13300 1.02925539 16.08749748 -10.76711265 -1.20804 0.023333 0.805517
13320 -2.4438181500000002 13.584250350000001 -5.70508398 -1.355595 0.286575 0.903494
13340 -6.1251089400000005 12.62294883 -8.19874674 0.588603 2.740118 -0.034651
13360 -4.8518592300000005 10.02704625 -7.089853770000001 0.229937 1.410069 -0.376215
13380 -1.7152785000000002 7.6254405300000005 -6.684651720000001 -0.213609 1.177596 -0.197417
13400 -0.74365686 5.86376073 1.7588447100000002 -2.42115 -2.9236720000000003 -0.957474
13420 -0.63677691 5.39268453 2.9582937900000004 2.782543 3.988772 0.422386
13440 1.52458191 2.8812068100000006 4.012702020000001 2.7219900000000004 1.78309 -0.183029
13460 4.51520946 -1.87470081 3.60914805 -0.576828 -1.764546 -0.18657
13480 3.09690909 -4.15086606 3.77350479 -3.612281 -4.319511 -0.110496
13500 2.8334615400000005 -2.2267719 2.7602593200000003 -0.400205 -2.337142 0.062156
13520 4.82327289 0.29847906 1.0490225400000002 0.244143 2.613171 0.042154
13540 2.86249914 1.11652515 -0.16106058000000004 0.81489 0.465508 -0.435012
13560 1.28388375 2.88240363 -1.03793724 2.50625 -0.045099 -1.016475
13580 -0.37182843 6.3457554599999995 -0.95247252 2.786895 -0.316472 -1.061168
13600 -7.363336950000001 14.311740330000001 -3.3175556100000003 2.270665 -1.557394 -0.911497
13620 -8.6904828 24.68995515 -4.83329871 1.398799 -1.410046 -0.241591
13640 -0.04086846000000001 24.258403440000002 -10.45335942 0.972248 -0.014551 0.397779
13660 2.52001242 11.797868970000003 -16.128807390000002 0.298661 0.5473319999999999 0.328261
13680 -3.10798458 6.0775108200000005 -12.34257903 0.0017739999999999995 0.376329 0.458866
13700 -10.495424700000001 8.302938750000001 -2.81055519 -0.467957 0.14321099999999998 0.289241
13720 -6.014942639999999 12.73836348 8.678357640000002 -1.3138299999999998 0.230119 0.334495
13740 2.6147672099999997 9.96118191 8.589891060000001 -2.20111 0.521907 0.06300499999999999
13760 2.30116113 19.995870150000005 4.858893 -2.391079 0.75253 -0.169354
13780 0.8026345800000001 34.78061925 -13.46959107 -2.19788 0.59649 -1.539401
13800 -0.039367530000000005 1.5825099599999999 11.392058700000002 -0.320807 -2.9258740000000003 -0.629811
13820 0.6524925300000001 2.9572539300000003 6.959174760000001 -0.08087000000000001 -2.704731 0.335118
13840 -5.68128492 15.90487452 3.5721741600000003 -0.142528 0.23770500000000006 0.618269
13860 -0.26644941 22.114114020000002 -5.77917891 0.217259 2.371494 0.5625
13880 -0.21659499000000002 17.37466758 -9.0841581 0.634707 3.298032 -0.001929
13900 -5.24868354 11.133545580000002 -3.8799334800000005 0.625394 1.691337 -0.727395
13920 -5.01666723 7.367084370000001 -4.37659416 0.8573930000000001 1.673144 -0.375374
13940 -1.2117312 5.26859784 -3.9179570400000006 -1.748509 -5.5911800000000005 0.07079500000000001
13960 -0.6738979500000001 3.89759148 2.35625409 2.716954 0.8830180000000001 -0.200071
13980 1.7402841900000001 1.6426844999999999 6.826102110000001 1.481726 1.570471 -0.282219
14000 2.7214902000000003 -3.4835604300000003 3.74341752 -0.364155 -0.314162 -0.240355
14020 4.76594325 -4.90530411 0.28665801 -1.5407 -1.903685 0.013041999999999998
14040 3.86556183 -0.16420959 1.43401599 -2.550216 -3.516599 0.110607
14060 2.4339394800000003 -0.29668383 0.52226478 -2.817787 -4.024539 0.027135000000000003
14080 2.7988812900000006 -1.7362424699999999 -0.26629245 -2.179839 -2.723481 -0.08223899999999999
14100 1.0041123600000001 -1.4533318800000001 0.027389520000000004 -1.985781 -0.22361 -0.167408
14120 -1.10320317 1.2100831200000002 -0.45594918 -1.893545 0.920778 -0.317781
14140 -3.0725116199999998 5.80538142 -1.85509062 -1.698496 0.7024239999999999 -0.493464
14160 -9.10571067 26.923309560000003 -4.5438056100000015 -1.619186 0.138125 -0.902384
14180 -2.01106962 26.115740549999998 -15.37213266 -1.059327 -1.284296 -1.31753
14200 1.07446968 15.469879500000001 -10.60200054 -0.820992 -1.9507330000000005 -1.36415
14220 -0.92971332 8.6765526 -11.48546952 -0.5131180000000001 -1.213017 -1.234758
14240 -7.141944870000001 9.023689260000001 -4.46101902 -0.230566 -0.056082000000000014 -1.224653
14260 -13.874645970000003 16.80300945 6.03156078 0.376357 1.039173 -1.521987
14280 -0.27243351000000005 10.873384380000001 8.1587808 1.212402 0.032752 -1.247802
14300 4.22331291 13.16931678 6.161337270000001 1.487893 -1.865151 -1.058644
14320 10.20876669 33.171465330000004 -22.67663904 2.890628 -2.503532 -1.404813
14340 -1.8979014600000002 18.7495587 7.675442100000001 3.106541 -1.549239 -1.011423
14360 -3.32877825 9.18415143 0.9587607300000001 3.336888 -1.65261 -0.136944
14380 -2.41956783 11.868971850000001 5.0467545 3.29551 -1.8968080000000005 0.759318
14400 -1.8013514400000001 14.793283800000001 2.81534247 3.730132 -1.936565 2.064568
14420 -2.44845828 13.14087759 1.1192229 3.243975 -1.204926 2.004687
14440 -1.9377202500000001 9.365724720000001 -0.8427476700000002 2.584174 -1.086337 2.224253
14460 -2.06435754 7.180713990000001 -1.1469165300000004 2.207934 -1.027515 1.959835
14480 -2.2945786200000002 6.96950469 -0.20597076000000003 1.759455 -0.024198 1.859277
14500 -2.35924614 6.642890550000001 -0.7756865100000001 0.855425 -0.78594 2.127403
14520 -1.68219918 5.278770810000001 -0.52719921 0.330627 -4.293245 2.153869
14540 -0.71042058 3.54328371 -0.42272271 1.188584 -5.823365 1.77299
14560 0.36135135 3.4416423000000003 -1.45048698 1.589626 -6.214352 1.167405
14580 1.98367029 5.946233400000001 -3.21561009 1.290125 -6.080641 0.757081
14600 -0.24444558 7.71510393 -5.02669305 0.8445739999999999 -5.796721 0.471595
14620 -3.1042469700000006 9.12502656 -5.87737701 0.066964 -4.396136 0.4098890000000001
14640 -0.15717582000000002 10.64212344 -2.37465765 -0.276324 -4.137006 0.374044
14660 4.22960112 10.838509830000001 -0.7234482600000001 -0.607057 -3.693634 0.340187
14680 5.8739337 8.554113990000001 -5.507647919999999 -0.797084 -2.776811 0.333412
14700 2.0657015100000002 6.2683643700000005 -5.8805260200000005 0.301079 -2.638261 0.164649
14720 -0.118701 11.362873950000001 -1.08524106 2.667792 -3.435332 -0.226927
14740 -1.8961062300000002 11.133996840000002 3.47277924 2.89118 -2.483289 -0.07596699999999999
14760 -0.7487384400000001 16.72636392 5.833673460000001 2.038339 -0.615031 0.455133
14780 5.15782332 29.661869160000002 5.64356547 1.591975 0.453419 1.378931
14800 -0.12034908 30.481416180000004 3.55885218 1.601511 0.381614 2.276396
14820 -5.82289227 18.96226893 2.03965596 0.51273 -1.414016 1.7829150000000002
14840 -4.89722067 15.87089268 -1.84775274 -0.247465 -2.093892 1.700496
14860 -1.15454871 16.95763467 1.21232961 -0.384174 1.557633 1.3466209999999998
14880 0.7363189800000001 19.88344755 3.26590596 1.966513 -1.069416 -0.402568
14900 0.9617527800000001 16.96886712 5.664225330000001 1.551701 -2.388602 0.848181
14920 0.42841251 11.841572520000001 7.54521435 -1.04643 -0.357456 0.786838
14940 -0.88615692 7.65119178 7.068154050000001 -1.292782 2.753341 -0.643878
14960 -2.6725383000000003 4.9223637 6.28362873 -1.405439 4.12692 -1.985975
14980 -2.55937995 2.5122232800000006 6.460120440000001 -1.244685 0.818934 -2.846941
15000 -4.358789010000001 1.87170876 5.41214757 0.103652 -6.444582 -1.5036200000000002
15020 -5.42771604 1.5013812600000003 4.20759729 -0.479191 -4.449438 0.094222
15040 -4.584517110000001 2.2902327900000006 3.7411710300000003 -0.904877 -0.50021 1.198207
15060 -4.64409324 4.68346077 1.84461354 -1.216269 -0.578471 1.325387
15080 -7.684565399999999 9.92001915 -4.55113368 -1.538828 -1.090026 1.1283040000000002
15100 -9.24088266 14.121181080000001 -11.8084932 -1.718429 -1.783406 0.98907
15120 -5.631891570000001 11.790835200000002 -9.69503661 -2.015602 -2.004639 0.894342
15140 -0.01018278 6.83193906 -2.72373669 -2.210666 -1.826834 0.555193
15160 4.9434748200000005 5.61931515 -1.15529427 -1.674875 -2.118159 0.21747800000000006
15180 8.84735451 7.337889810000001 -4.97999745 -1.598757 -1.921917 0.093845
15200 10.53404667 7.598198160000001 -7.959402360000001 -1.468011 -1.421273 -0.010569
15220 5.70613365 5.719602780000001 -6.44843673 -1.288085 -1.0256379999999998 -0.004478
15240 3.72574971 8.749303560000001 -6.91966008 -1.206031 -0.857418 -0.052191
15260 -9.4453623 39.41423541 -1.8236593800000003 -1.253754 -0.643844 -0.14039200000000002
15280 -8.388560430000002 22.1997357 -2.19922542 -1.140402 0.005004 -0.262209
15300 -7.389686610000001 -8.46340092 11.16692901 -0.783281 0.2261 -0.4512100000000001
15320 -4.35699378 -7.45809174 1.8772416 -0.550662 -0.364374 -0.574878
15340 -0.11360961 5.50016289 8.247698640000001 -0.607934 -0.970439 -0.5445909999999999
15360 -4.51311012 17.89408746 3.38969835 -0.699095 -1.972759 -0.491601
15380 -1.76722245 24.95865105 1.20110697 -0.579386 -1.836112 -0.402277
15400 8.522525790000001 18.617986980000005 -0.24743763 0.038632 -0.572876 -0.626042
15420 2.51671626 11.820471210000001 -0.3559558500000001 0.485099 -0.546388 -0.7105520000000001
15440 -0.50535234 9.0810189 -0.13426947 0.731811 -1.7029599999999998 -0.7372569999999999
15460 -0.9253773000000001 7.403754149999999 1.15364619 1.17584 -2.487015 -0.852791
15480 -1.2939095699999998 7.850423070000001 0.5364892800000001 2.022023 -2.80696 -0.962907
15500 -2.20776012 8.378828910000001 -0.00942741 3.152238 -3.044809 -0.804088
15520 -2.8515708 7.93484793 0.18351567000000002 3.607328 -2.962773 -0.13658
15540 -4.1615001 7.07353974 -1.5170968800000002 3.547327 -2.502425 0.144421
15560 -2.31703371 7.40884554 -0.79154928 3.20156 -1.720738 0.23394
15580 -0.6911145000000001 9.32306103 0.45804852 2.991535 0.439458 0.461509
15600 0.5438173500000001 10.029744 0.28485297000000004 2.372795 1.417452 0.713375
15620 0.13546629000000002 9.5987907 0.13682007 2.180291 0.526899 0.875541
15640 0.05074713 9.26513298 -0.18157329000000003 1.837324 -1.251953 0.8668790000000001
15660 -0.29533986 8.78867109 0.38634723000000004 1.651963 -2.842865 0.875101
15680 -0.98824959 9.226658160000001 1.5751720800000002 2.002518 -3.494553 1.038618
15700 -1.4449443300000002 10.38794634 2.28649518 2.285876 -3.407861 1.22422
15720 -0.6291447300000002 10.58643207 1.59538068 2.260043 -2.901142 1.068498
15740 -0.19504242000000002 11.54204379 -0.57794634 2.253733 -3.141886 0.80598
15760 -0.76296294 11.32679277 -2.5408194300000004 1.979358 -3.277968 0.709166
15780 -1.0870362900000001 11.255689890000001 -2.4827344200000003 1.6531900000000002 -2.883153 0.5600350000000001
15800 0.24638796000000002 11.94231141 -1.4286302999999998 1.25101 -2.120358 0.361832
15820 2.11615434 12.34752327 -0.18277011 0.716504 -1.492832 0.272905
15840 3.6122872500000005 13.44204459 -0.88361613 0.103281 -0.76297 0.234571
15860 4.563405990000001 13.23293463 -2.12228559 -0.523985 -0.131885 0.135378
15880 5.7179547 14.41262637 -0.8083145700000001 -1.242456 0.336718 -0.011247
15900 5.0126255099999995 14.787750960000002 0.47900268000000007 -1.886844 0.355835 -0.236894
15920 0.8238830400000001 12.3897357 2.09040309 -2.223605 -0.028757 -0.470558
15940 -1.12670793 10.93116528 3.0635256600000003 -2.095428 -0.264611 -0.740688
15960 -1.9327760100000002 12.645256770000001 4.3905243600000015 -1.718191 -0.002343 -0.853758
15980 -1.7362424699999999 13.842017910000001 5.45316318 -1.221671 0.331473 -0.847512
16000 -0.49696479000000005 13.86027432 4.973709240000001 -0.670412 0.331502 -0.533878
16020 0.48438837 13.23922284 3.93860709 -0.440403 -0.120288 -0.172769
16040 0.23411565 12.079435590000001 3.3573645900000004 -0.7768470000000001 -0.743949 0.236945
16060 -0.44217594000000005 11.681855910000001 1.34839431 -0.972879 0.008059 0.691811
16080 0.97027767 11.895164549999999 1.2263971500000002 -1.023805 2.013024 0.973033
16100 1.72905174 10.434200490000002 2.98793961 -0.8961370000000001 2.018627 1.059376
16120 0.17858124000000003 9.32351229 2.20865283 -0.539909 0.442353 0.933561
16140 -1.9254479400000002 7.8624010800000015 2.5390242 -0.29998600000000003 -0.540756 0.690805
16160 -2.5346783700000004 7.32531339 2.20072635 0.284796 1.067058 0.372363
16180 -2.97401922 6.77042055 1.9429587900000003 0.213437 1.836098 -0.075638
16200 -3.38745186 5.88995343 0.89079705 0.36276 0.7683909999999999 -0.661817
16220 -3.2744406600000002 5.26724406 0.39892365 0.122347 -1.47414 -0.688396
16240 -2.6559299700000003 4.08545298 0.3634408800000001 -3.730128 -8.666957 -0.792615
16260 -2.7840583800000003 3.2045346 -0.12498921000000002 3.163739 5.778785 0.00508
16280 -2.47914396 2.88151092 -0.48139632000000004 2.196198 4.337201 0.909226
16300 -1.08748755 3.3501836700000003 -1.12431429 0.020649 -0.902947 0.678554
16320 -0.40251411 4.5924534 -1.66842594 -1.074059 -2.767098 0.00993
16340 -1.80988614 6.1079022 -2.0686935600000007 -1.754486 -3.262968 -0.070031
16360 -2.5282430099999997 6.733446659999999 -1.69372593 -1.435309 -3.990379 -0.123485
16380 -1.6067602800000003 8.590038210000001 -1.82530746 0.600479 -3.229571 -0.339908
16400 -1.0033668 9.57214674 -2.5818350400000005 1.155627 2.915679 -0.207172
16420 0.08053029000000002 9.45089514 -3.7473120900000003 1.972129 2.258828 -0.221992
16440 1.15155666 9.43891713 -5.7113721900000005 3.201865 0.910248 -0.7692859999999999
16460 0.95965344 9.85176117 -5.2855102800000004 2.931149 -0.08982799999999999 -1.12134
16480 -0.04445892 9.90655002 -3.63639042 2.192312 -1.132188 -0.6177600000000001
16500 -1.04243022 8.94151089 -3.8697507 1.207551 -1.480387 0.464326
16520 -1.4480933400000002 7.186109490000001 -2.7036752400000004 0.852001 0.474098 0.580047
16540 -1.6066131300000002 6.362373600000001 -3.4608012300000004 -0.30357 1.509914 0.690289
16560 -2.17033497 4.460273460000001 6.4855675800000006 -1.067318 0.736477 0.8312229999999999
16580 -5.31110457 8.41729392 5.58099729 -2.066092 0.50235 1.105489
16600 -4.42958778 12.68342748 2.0184075 -2.362889 0.286647 0.693495
16620 -1.68489693 15.78617352 0.22438413000000001 -2.066909 0.262245 -0.385446
16640 -2.6041331700000003 43.697879820000004 -25.434063270000003 -1.693275 -1.18647 -0.457892
16660 2.72134305 10.599312600000001 5.0410647 -0.380286 -1.75547 -0.229006
16680 3.7381789800000003 4.31717499 4.380488730000001 0.461709 -2.228004 -0.271658
16700 3.5422340400000003 10.380314160000001 2.5825806 -0.168031 -0.739082 0.090572
16720 -1.46799783 16.311577500000002 5.3792154 -0.052388 1.699157 0.30083200000000004
16740 -0.91265373 13.94125587 0.8165549700000001 0.360237 2.884319 0.598093
16760 -2.18724741 12.648543120000001 -2.01960432 0.089598 1.841028 0.662701
16780 -3.90597903 14.57294139 -11.605661640000001 -1.1854 -0.434672 0.769943
16800 -5.59566324 12.18810096 -6.054908580000001 0.921324 -0.054327 0.5320699999999999
16820 -3.36979386 8.013435840000001 -6.534215370000001 2.342794 4.2413690000000015 0.239529
16840 -2.13022188 5.732326350000001 -0.3589577100000001 2.231712 0.708014 0.294555
16860 0.21151341 2.95769538 4.44321387 -0.8766379999999999 -1.437898 -0.09508
16880 -1.43327043 1.08255312 5.3931357900000005 -2.657178 -1.838836 -0.051455
16900 0.9068167800000001 -2.20821138 4.1257230300000005 -2.403812 -3.882939 -0.310917
16920 2.8449882900000003 -4.1793052500000005 3.0958594200000005 -0.459116 -2.074342 -0.338107
16940 4.87656081 -1.35752742 3.04916382 0.064304 1.994803 -0.207206
16960 5.21366184 -0.26734212 2.66146281 1.168226 1.958756 -0.407752
16980 3.49507737 1.23672708 2.32256655 2.596985 0.979124 -0.951992
17000 0.69905079 2.24143785 0.9279180900000001 3.161726 1.614817 -1.10589
17020 -3.16891449 6.796014840000001 -0.4397823 2.761328 2.104723 -1.261003
17040 -9.31198554 16.397199179999998 -8.346946410000001 2.3160380000000003 -0.340513 -0.768529
17060 -6.85095084 28.580512860000002 -10.99238949 2.198966 0.189807 0.17748599999999998
17080 -2.55563253 15.15313422 -9.873313740000002 1.513414 0.747283 0.154892
17100 -1.9053864900000002 10.37567403 -3.5423811900000004 1.053395 0.938412 -0.08998400000000001
17120 -1.5364029600000002 9.60687414 -2.7208917900000005 0.355538 0.8284879999999999 0.298387
17140 -2.42645445 12.097692000000002 4.23603648 -0.8061659999999999 0.42152 1.046027
17160 -1.86542055 13.813725869999999 4.38003747 -2.124956 -0.114897 1.00332
17180 -0.6273495000000001 10.95467004 -1.00530918 -3.376168 -0.216757 0.123042
17200 -2.5722506700000003 23.483766600000003 -23.75799534 -3.595618 -0.356924 -0.33123800000000003
17220 4.846169430000001 25.954523010000003 2.72283417 -3.691188 -2.182148 0.11908699999999997
17240 1.5182937 6.63944724 7.83620838 -1.9027 -0.00121 0.08712400000000001
17260 1.04034069 5.129236980000001 3.0030568200000003 -0.408418 1.557654 0.564513
17280 -4.58645949 12.82518198 4.94991018 -0.451065 1.084946 0.798762
17300 -1.6543584000000002 17.58812337 -1.24855794 0.5853729999999999 1.329731 0.224575
17320 0.63407916 15.65863371 -7.013963610000001 1.140141 1.89415 0.320662
17340 -1.33521948 16.423401690000002 -7.469314379999999 0.235115 0.340013 0.015093
17360 -6.29471403 13.970744730000002 -9.592796790000001 -2.259153 -0.996028 -0.17366900000000002
17380 -6.16418217 8.726102910000002 -5.963145840000001 0.626894 4.437268 1.220739
17400 -3.5748621000000003 6.53436252 -4.87656081 3.001719 3.267487 0.788036
17420 -3.1998944700000003 3.82409496 1.63729881 2.794737 -0.418321 0.423845
17440 -1.14092262 3.3474859200000004 4.79108628 -1.09438 -4.379144 -0.167607
17460 2.1263273100000006 0.5439645000000001 4.43288394 -2.942267 -4.517056 -0.307456
17480 4.6509798600000005 -1.7269622100000002 2.3596974 0.564172 -0.8115859999999999 -0.526994
17500 5.8805260200000005 -1.8905733900000001 3.65928696 -0.465815 2.605445 -0.339878
17520 4.47749001 -1.6055634600000002 2.8868966100000004 0.808036 0.472445 -0.565392
17540 3.4212865500000005 1.1762582400000001 0.6039918900000002 2.452605 -0.332712 -1.238671
17560 0.8795744100000001 4.52673621 -0.28485297000000004 2.913187 0.381149 -1.403011
17580 2.351457 6.4144647 0.39966921 2.695578 0.165602 -1.390368
17600 0.50085936 8.817267240000001 1.20634551 2.318809 -0.276294 -0.8465719999999999
17620 -8.61144363 13.42857546 -4.4518957200000004 1.566295 0.760369 0.033467000000000004
17640 -7.13146779 20.903432490000004 -7.071293250000001 1.074447 0.528646 -0.199339
17660 -0.320787 23.30039808 -14.37356295 0.845368 1.067422 -0.203766
17680 -0.75263301 11.284138890000001 -12.728926260000001 0.128581 1.618594 0.310745
17700 -2.95994187 5.65868268 -7.1696385000000005 -0.915948 1.1536540000000002 0.802904
17720 -4.56116931 5.36230296 2.8023246000000004 -2.466967 1.047955 0.874459
17740 -2.24937414 8.40112704 10.144403279999999 -3.942577 0.39941 0.237936
17760 3.50032572 13.461360480000002 7.3052617500000006 -4.605341 -0.321142 -0.678031
17780 6.929391600000001 19.38588435 -14.540911740000002 -3.664235 -2.262221 -1.45625
17800 0.71027343 50.97784158 -13.705197840000002 -1.6760580000000005 -3.168107 0.381185
17820 -3.78113697 1.04871843 13.327385310000002 -0.7824909999999999 -0.5350779999999999 0.754726
17840 -1.4287774500000001 -0.8494871400000001 4.55368428 -0.629714 0.336507 1.107189
17860 -5.132827440000001 6.92534988 3.01623165 -0.568734 -0.984069 0.696974
17880 -5.11950546 17.51357718 -5.261858370000001 0.680879 2.100806 -0.078053
17900 0.68332536 22.240300050000002 -7.52664402 0.85525 2.203645 0.160179
17920 -2.08666548 14.216838390000001 -5.14764054 1.094475 1.025643 -0.361138
17940 -5.28460776 7.84084851 -8.187219990000001 -0.178423 -1.958407 -0.004078
17960 -2.7542752200000002 5.770349909999999 -6.194867850000001 3.510745 4.153233 0.222163
17980 -0.29414304 5.294790540000001 -1.1249127 2.609204 0.791417 0.422067
18000 0.43619184 5.61826548 3.6465633900000003 -1.826747 -1.416968 0.28922600000000004
18020 1.49823225 3.4290658800000005 4.221370530000001 -3.316615 -3.187808 -0.195338
18040 1.9237998600000001 -0.13501503 3.42562257 -0.263623 -4.749339 -0.219014
18060 0.47287143000000004 -3.4477833600000003 3.08927691 0.54809 0.52355 -0.59932
18080 2.0158569 -0.72374256 2.96892783 0.816659 0.5816680000000001 -0.713954
18100 3.17968587 1.2982455900000003 0.9743193900000001 2.270476 -0.363525 -1.101035
18120 0.96594165 1.92320145 -0.5626819800000001 2.805952 0.15621 -1.268876
18140 -0.36015453000000003 3.0647224800000004 -0.77808015 2.713883 0.18903 -1.404157
18160 1.1693716200000002 6.55322715 -0.95261967 2.040392 -0.405794 -0.98722
18180 0.64620432 11.23129242 -3.2545361700000006 1.10788 -0.041533 0.101795
18200 -2.0688505200000002 23.81113611 -6.946451189999999 0.35881 0.855065 0.30905900000000003
18220 1.3570761599999999 20.230731360000004 -8.655147180000002 0.451064 1.0154040000000002 0.358636
18240 -1.84611447 14.623394220000002 -9.13175622 -0.186637 1.265098 0.539732
18260 -6.536010600000001 9.12083769 -8.59707198 -1.277557 1.397939 1.031869
18280 -6.6362982299999995 7.516471050000001 -11.579174640000002 -2.420751 0.8074680000000001 1.034255
18300 -4.4060830200000005 10.25666892 2.29143942 -3.531998 0.093322 -0.029064
18320 -0.15866694 12.823828200000001 12.025696410000002 -3.105706 -0.29170300000000005 -0.549021
18340 2.333799 13.61044305 7.11680184 -1.842183 -2.585199 -0.057625
18360 -1.21517451 59.44543137 -45.17096904 -0.653401 -1.643734 0.8350280000000001
18380 3.64911399 4.68391203 15.53184927 -1.014324 0.720283 1.371066
18400 2.2811094900000004 -0.30716091 8.04098232 -1.198906 1.478253 1.657226
18420 -3.6095895000000002 6.956928270000001 5.1102251999999995 0.349355 1.438672 0.624438
18440 -5.1203981700000005 22.777829190000002 1.2117312 0.8682479999999999 0.499286 -0.403704
18460 2.7800166600000003 17.294137290000002 -11.418555510000001 0.884392 -1.77032 -0.8076760000000001
18480 -2.4069914100000003 12.892694400000002 -5.37996096 -0.1308 -2.111593 0.16736700000000002
18500 -5.7273919200000005 9.90700128 -5.95940823 -3.53263 -2.520354 0.109945
18520 -4.92760224 7.86269538 -6.936425370000001 2.025498 6.145935 0.817053
18540 -1.8702078300000002 5.49342342 -2.7204405300000003 2.917584 1.718113 -0.087576
18560 -0.34188831000000003 2.59171371 3.57651018 -0.7144189999999999 -4.197839 -0.016703
18580 0.4918734 0.8497814400000001 5.779777320000001 -2.2562 -5.954597 -1.046441
18600 1.3208576400000003 -2.6529379200000003 2.65248666 0.6866800000000001 -3.1396610000000003 0.276943
18620 1.40572395 -1.91676609 1.2126239099999998 0.6213930000000001 2.233871 -0.002795
18640 1.5533154000000002 -1.37294874 2.1808120500000006 1.572208 0.9007 -0.432416
18660 4.20924537 -0.3912816600000001 1.1837432700000001 2.750268 -0.613524 -0.803602
18680 4.50128907 1.21816656 0.26719497000000003 2.727307 -0.310711 -0.8522209999999999
18700 2.27077956 6.512211540000001 -0.6912616500000001 1.908778 -0.639837 -0.420614
18720 2.27676366 10.52895528 -0.6888680100000001 1.849965 -1.441108 0.474104
18740 -3.0187724400000002 15.090418890000002 1.39075389 2.209608 -1.389216 0.505392
18760 -7.7706383400000005 24.04165149 -4.523744160000001 2.152192 -1.774938 0.312137
18780 -1.93681773 22.03222995 -11.22755481 1.471644 -1.429976 0.14991300000000002
18800 1.33911405 13.285025730000001 -18.19241937 0.6743899999999999 -0.347799 0.343783
18820 -3.1600756800000003 6.66369756 -9.230258430000001 -0.316623 0.160685 0.582968
18840 -4.35982887 2.75951376 -3.4765168500000003 -1.008549 0.361819 0.434735
18860 -4.42989189 5.766455340000001 10.22808258 -1.575267 0.554262 -0.045897
18880 -1.3527401400000003 11.078315279999998 7.385340780000001 -1.6478560000000002 -0.326998 -0.445858
18900 3.4236801900000002 9.3821859 6.532861590000001 -2.36757 -1.520486 -0.792255
18920 -5.327418600000001 51.49187577 -35.53580286 -2.907164 -2.537467 -0.680421
18940 -1.27594746 12.716202690000001 15.05000169 -2.111016 -2.278784 0.005266
18960 1.17356049 -0.52001829 8.89121502 -0.395739 -0.155586 -0.175617
18980 2.5036983900000003 -0.35820234 2.40669711 0.99212 1.378202 -0.260823
19000 1.57741857 16.774266150000003 2.39906493 0.4404770000000001 1.428244 0.7554109999999999
19020 -0.57315906 27.04441401 -9.6192936 0.523185 0.037181 0.90305
19040 -0.9291149100000001 15.87478725 -7.85581857 0.320612 -0.712968 0.5949479999999999
19060 -4.56220917 7.872731010000001 -4.39216263 0.086875 -0.907568 0.179095
19080 -3.2437549800000003 4.72222989 -3.6330942600000005 0.887086 -1.458955 -0.620049
19100 -0.71805276 3.0540982500000005 0.07589016 0.8902629999999999 -2.288473 -0.971477
19120 0.7909508700000001 1.32369273 3.0713148000000006 0.335372 -1.246969 -0.14133800000000002
19140 3.6110904300000004 0.5701670100000001 3.39957702 -0.599835 0.468707 0.522911
19160 4.441860090000001 -0.8880993 3.4865524800000003 -0.8345379999999999 0.6190260000000001 0.431348
19180 0.6749476200000001 1.33117776 1.0704279600000002 -0.7681939999999999 -1.762952 0.379317
19200 -1.20858219 1.5331166100000002 -0.39443067000000004 0.520062 -1.772593 -0.456636
19220 1.16636976 1.02087765 -0.02664396 -0.5715720000000001 -1.634022 0.201064
19240 1.73878326 3.4031772900000004 0.045802890000000006 -1.590539 -0.242036 0.899325
19260 -0.5929164 8.12929194 0.40012047 -1.883869 -0.229288 0.896192
19280 -2.12422797 13.32154836 -0.027095220000000003 -1.7558619999999998 -1.13552 0.705967
19300 -3.54881655 15.87897612 -0.9436337100000001 -1.819041 -1.266012 0.626645
19320 -5.43609378 14.76978885 -3.14586099 -2.213188 -1.317047 0.6773680000000001
19340 -6.111639810000001 12.3145911 -7.195684050000001 -2.58143 -1.56196 0.70502
19360 -9.123672780000001 13.76328285 -8.271203400000001 -2.588145 -2.0194 0.553872
19380 -5.248389240000001 16.01938665 -10.449170550000002 -2.417896 -1.610114 0.351574
19400 -3.9956424300000006 19.89153099 -16.511417010000002 -2.145435 -0.690184 0.232658
19420 -5.003796510000001 17.58468006 -14.702129280000001 -1.59388 -0.171497 0.04677
19440 0.7352693100000001 9.49385313 -7.730819550000001 -1.39308 -0.30143600000000004 -0.133258
19460 3.47951871 2.96907498 -5.74609959 -1.527617 -0.686102 -0.257619
19480 2.70951219 0.77239035 -3.6955152900000003 -1.73957 -0.8165020000000001 -0.231158
19500 1.5813131400000002 2.24308593 2.40265539 -1.345869 -0.788144 -0.204944
19520 -4.922510850000001 13.80489687 9.59474898 -0.408647 -0.342371 -0.339974
19540 -0.47151765 13.62945483 5.28132141 -0.313862 0.40483 -0.266562
19560 2.6586179100000003 10.290650759999998 3.60585189 -0.504317 -0.053242999999999985 -0.36665
19580 2.5608710699999997 12.23600319 6.50936664 -0.659175 -0.306427 -0.586393
19600 -4.23019953 30.27813336 -3.3335655300000004 -0.26978800000000003 0.186297 -0.799017
19620 -6.552324629999999 20.64417381 -0.9322639200000001 0.45212 -0.8442219999999999 -0.792654
19640 -3.1650199200000007 11.61299952 3.23297379 0.872194 -2.393171 -0.614683
19660 0.14864112000000002 13.46659902 3.67875 1.34477 -3.35877 -0.377272
19680 -0.6631167600000001 15.002697870000002 2.09324799 1.667013 -3.329191 -0.5940439999999999
19700 -1.30273857 12.763957770000001 -0.91325214 2.422664 -2.918088 -0.958898
19720 -1.1996060400000002 9.6076197 1.1308968 2.832854 -1.813824 -0.675437
19740 -0.49696479000000005 7.53922044 2.3685264 2.904707 -0.862239 -0.278776
19760 0.051041430000000006 6.58884726 1.99475559 2.72749 -0.462897 -0.09145
19780 -0.9184906800000001 5.68742598 0.060920100000000005 2.617356 -0.265495 -0.077517
19800 -2.3915799 4.82267448 -0.92896776 2.530305 -0.31997800000000004 -0.229743
19820 -2.9166895800000003 4.84303023 -1.23717834 2.389288 -1.036676 -0.431704
19840 -2.55309174 5.410195379999999 -1.0653365700000001 2.385908 -1.377297 -0.495384
19860 -2.4071483700000003 5.5679696100000005 1.1115907199999997 2.194861 -1.91324 -0.302684
19880 -1.68040395 7.079523840000001 1.8046476000000002 1.772013 -2.390279 0.012236
19900 -0.8306225100000001 9.37515213 1.11728052 1.628344 -2.35858 0.201335
19920 -0.9006757200000001 11.55985875 -0.00793629 1.333859 -2.42113 0.380956
19940 0.06122421 11.02322232 -1.02521367 1.138418 -2.896803 0.4239979999999999
19960 2.17602477 12.478947840000002 -0.64440909 1.124467 -3.009293 0.328973
19980 1.2807347400000002 13.74486948 -0.18157329000000003 1.2521520000000002 -2.865854 0.311521
20000 1.4198013 13.579315919999999 -1.2289477500000001 1.530976 -3.161128 0.6503369999999999
20020 3.26530755 12.11161239 -1.2546891900000001 1.671672 -2.674953 0.692357
20040 5.2319182500000005 11.987672850000001 0.29788065 1.7085279999999998 -2.690368 0.78557
20060 5.923631159999999 13.79381157 3.1335788700000005 1.723912 -2.70795 0.906409
20080 6.7779055800000005 13.36780251 5.230868580000001 1.57867 -2.499618 1.147614
20100 3.30916806 13.93572303 7.423217190000001 1.461625 -2.488214 1.327311
20120 -3.41066232 12.4011153 5.52022434 1.343445 -2.572356 1.425938
20140 -3.92573637 12.01835853 2.215392300000001 1.098225 -2.46844 1.492458
20160 -0.46178613 11.615844420000002 1.9850240700000001 0.7445350000000001 -2.31821 1.526115
20180 0.75712599 10.365795360000002 3.8666115000000003 0.389816 -2.234786 1.484006
20200 0.37391796 10.115365680000002 5.2087176 0.113916 -2.207985 1.4147459999999998
20220 1.3681516500000002 11.15390133 6.568187399999999 -0.070802 -2.11952 1.296906
20240 1.73325042 12.51637299 6.19816401 -0.205532 -2.1226130000000003 1.121849
20260 2.0895005700000002 12.641058090000001 4.0635963 -0.263826 -2.30456 0.852483
20280 2.2709267100000003 11.25673956 3.44943144 -0.206498 -2.532068 0.687601
20300 2.7634083300000003 9.842932170000001 2.6786793600000003 -0.040184 -2.769248 0.7157720000000001
20320 3.03553773 9.278160660000001 2.38738122 0.221214 -3.262125 0.935078
20340 3.3563247300000003 9.130412250000001 2.1288681 0.237556 -3.129146 1.231988
20360 3.28955787 9.11349981 2.69290386 0.17769 -2.3719240000000004 1.065025
20380 3.38371425 9.09044631 2.9867427900000005 0.5265810000000001 -2.983087 0.68689
20400 2.81908989 9.34910658 2.5945586100000004 0.376727 -3.677743 0.57457
20420 2.01106962 10.49078457 1.31651181 0.05511 -3.758645 0.8384149999999999
20440 0.10313253 11.30569146 0.99707859 -0.351759 -2.152931 1.104843
20460 0.023347800000000002 11.088488250000001 -0.94618431 -0.5545439999999999 -0.182993 0.953488
20480 0.7996327200000001 10.543621230000001 -0.7894597500000001 1.442089 -1.11692 -0.322849
20500 2.11630149 9.91792962 0.15342840000000002 0.934054 -0.7039890000000001 -0.582232
20520 2.7946924200000005 9.10226736 0.28665801 -0.214549 0.674906 -0.492677
20540 2.87522271 8.648564669999999 -0.11406087000000001 -0.839095 1.497483 -0.530141
20560 3.0449651400000004 8.25398685 -0.45370269 -1.347256 2.241118 -0.906384
20580 2.8205810100000006 7.656430320000001 -0.7204562099999999 -1.928256 1.135338 -0.929322
20600 1.90389537 6.97339926 -0.81730053 -1.895838 -1.094499 -0.637818
20620 1.0057604400000002 6.47987778 -0.31734369000000007 -0.5683819999999999 -1.123075 -0.23754
20640 0.74095911 6.7620428100000005 -0.91894194 -0.606785 -0.435624 -0.025045
20660 0.46658322 7.71825294 -1.2892694400000002 -1.340767 -1.0216809999999998 -0.149061
20680 -0.09909081000000002 9.203016060000001 -2.38409487 -1.351315 -1.7141540000000002 -0.395007
20700 -1.4169564000000001 10.14485454 -3.4705327500000003 -0.979313 -2.463431 -0.354061
20720 -1.65750741 9.935734770000002 -3.94833861 -0.722712 -2.305635 -0.077937
20740 -0.06496182 9.39117186 -4.43153016 -0.699562 -1.639911 0.18629
20760 2.30460444 9.700579260000001 -6.03215919 -0.499379 -0.924044 0.278638
20780 4.81638627 11.176503570000001 -7.79548707 -0.239952 -0.252442 0.200541
20800 5.822293860000001 12.115958220000001 -5.63053779 1.125671 0.884977 0.15628
20820 3.91375836 10.1714985 -3.8637666 1.917991 0.405715 0.240409
20840 2.3611885200000002 7.319025180000001 -3.9101679000000003 3.5473790000000003 0.95804 0.032097
20860 0.5522049 5.2795163700000005 -2.5509924 3.490357 1.973709 -0.033696
20880 0.7608636000000001 5.10543792 -3.4536203100000002 2.836337 1.434228 0.379033
20900 -0.98524773 8.964554580000001 2.57494842 1.540011 -0.53688 0.790179
20920 -15.74650188 27.534786480000005 -5.80971744 0.395828 -1.005045 1.37565
20940 -7.47141372 26.485322490000005 -3.5941779900000004 0.148615 -0.7504430000000001 1.32339
20960 0.19054944000000001 0.20776599 11.8315467 -0.800393 -0.062878 0.699516
20980 3.59447229 -4.645741320000001 4.53646773 -1.039863 0.569333 0.249448
21000 1.5732297000000002 5.43804597 5.32667304 -0.975038 -0.332755 -0.12282
21020 -2.5334815500000003 14.186751120000002 5.18312331 -0.908606 -1.594781 -0.261745
21040 -1.57487778 17.13023181 0.71641449 -1.259293 -2.304885 -0.332719
21060 2.6945421300000003 16.27191567 -3.3154562700000003 -1.453486 -2.23306 -2.405449
21080 0.34982460000000004 12.33630063 0.68961357 0.281357 -3.893277 0.212053
21100 -2.8509723900000004 8.8350822 0.38080458 -0.079412 -2.245925 0.9477
21120 -2.43767709 8.26147188 -0.04371336 -0.640984 -0.068124 1.073446
21140 -0.50026095 9.10226736 -0.45999090000000004 -0.50266 1.1865290000000002 0.748065
21160 0.8071177500000001 11.158698420000002 -2.51506818 -0.637185 2.861472 0.782367
21180 0.37048446 11.13833286 -3.0413746800000006 -0.972821 3.178986 0.525379
21200 -0.9217868400000001 11.630961630000002 -3.31275852 -0.659099 0.752304 -0.01625
21220 -2.10642282 12.09020697 -5.09106627 0.99478 0.095175 -0.952437
21240 -1.10095668 13.269006000000001 -6.000875100000001 1.017402 0.110254 -0.747199
21260 -2.27871585 12.900169620000002 -6.710550120000001 -0.010537 0.369493 0.580566
21280 -3.2660629200000004 11.24656659 -8.11866771 -0.925135 1.324987 1.120951
21300 -4.06404756 8.89121502 -6.20085195 2.357972 6.677785000000001 0.725759
21320 -1.4841647100000002 4.82715765 3.4220321100000004 2.4216990000000003 2.264325 0.410324
21340 1.10336013 1.2407688000000001 5.366491830000001 0.25040100000000004 -2.1752290000000003 0.033378
21360 2.0793276 -3.74356467 6.35713506 -2.44821 -3.505871 -0.262572
21380 2.40968916 -7.574850360000001 5.48729217 -3.320257 -5.200993 0.02727
21400 3.09361293 -6.589749780000001 3.3441995700000002 -0.715929 -2.258525 0.122875
21420 5.829474780000001 -2.40938505 2.18156742 -1.263521 1.6479990000000002 0.291369
21440 2.97146862 -1.10934423 2.368673550000001 -1.191844 1.088994 0.163331
21460 -0.1938456 -2.0044773 2.12498334 -0.39629 -0.821106 -0.244202
21480 -2.8837574100000003 0.8253839700000001 -0.5252568299999999 0.054508 -0.191193 -0.4523
21500 -1.67441985 3.0719132100000004 -3.7035987300000004 0.55352 0.5925819999999999 -0.5513
21520 -3.44149515 36.11824218 -0.8780734800000001 1.531656 -0.12801400000000002 -0.7486430000000001
21540 -5.6946069 31.93504236 -10.88102637 2.374126 -0.490844 -0.787159
21560 -6.4289835 20.230280099999998 -5.197642110000001 3.158804 -0.069878 -0.713851
21580 -6.8752011600000005 12.88744605 -7.520807070000001 3.18664 0.05414 -0.8494799999999999
21600 -3.9978889200000003 8.30802033 -6.554119860000001 2.822101 0.561697 -0.655055
21620 -4.48497504 6.605759700000001 -3.1292428500000002 2.406496 0.412282 0.039782
21640 -6.15863952 9.04433931 -4.77432099 1.998221 0.186218 0.449554
21660 -6.493945320000001 14.825617560000001 -1.6271160300000003 1.757093 0.365185 0.392092
21680 0.89828208 11.20285323 8.811724589999999 1.273474 0.517242 0.6139140000000001
21700 3.73218507 7.166195190000001 6.67865781 0.364314 0.33468000000000003 0.702869
21720 2.74050198 12.21579459 0.9692378100000001 -0.950042 1.079652 0.956585
21740 -2.6399102400000003 44.962447680000004 -29.567114370000002 -2.238371 1.047195 0.334468
21760 -1.0841913900000002 4.37989032 10.384355880000001 -3.202673 -0.175501 -0.220835
21780 -0.37826379000000004 -0.25492266 4.3385804100000005 -3.621525 -0.850251 -0.282717
21800 -1.4425506900000002 8.41339935 5.738614560000001 -3.723216 -1.37496 0.21931
21820 -5.901176070000001 20.28282246 6.00640794 -2.740834 -1.489867 0.397234
21840 -0.98569899 18.28746846 -4.8788073 -1.685515 -1.766904 0.564126
21860 0.62629983 13.14072063 -3.80344491 -0.977355 -0.081126 0.8873790000000001
21880 -1.10245761 9.98348985 -0.19594493999999998 -1.168152 0.612093 0.58926
21900 -2.4598378800000003 10.515182040000001 -2.41268121 -0.8261649999999999 1.7875330000000005 0.449138
21920 -3.64027518 11.60910495 -5.444481330000001 0.729171 3.243047 -0.186001
21940 -1.06698465 10.4547132 -5.68817154 0.619158 0.6481319999999999 -0.381066
21960 -0.35341506000000006 9.66674457 -5.7312864900000005 -0.824692 -0.8500620000000001 -0.6231720000000001
21980 -0.32646699000000007 9.30420621 -6.83239032 2.1926240000000004 3.284583 0.41169
22000 -0.20881566000000004 8.46923787 -8.615181240000002 3.62208 3.874467 0.573674
22020 -0.14280417 5.488783290000001 -3.5235263700000004 2.005546 0.5277069999999999 0.8251809999999999
22040 -1.01549196 3.2400075600000005 1.83009474 -1.403331 -2.123913 0.089059
22060 -2.0966913000000007 2.1368043900000004 4.31223075 -2.836369 -2.457471 0.031407
22080 0.39323385000000005 -0.22333446 2.53243188 -2.424153 -5.210653 -0.198263
22100 1.0517104800000001 -1.40976567 1.5500290500000002 0.227452 -1.562921 -0.422629
22120 1.5079637700000004 -1.9398195900000001 2.5810796700000003 0.200157 2.091093 -0.42857
22140 4.448148300000001 1.21127994 1.58624757 1.477201 1.839425 -0.6703600000000001
22160 3.91989942 2.9005227000000002 0.82179351 2.435892 0.8397459999999999 -0.8557299999999999
22180 -0.33560010000000007 4.63675536 0.041309910000000005 2.892313 0.17188399999999998 -1.001238
22200 -1.8238065300000001 9.50747922 -0.35760393 2.675275 -0.157745 -1.230931
22220 -0.9824028300000001 11.558367630000001 -2.10611871 1.913916 0.473261 -0.928341
22240 -3.48460029 13.568985990000002 -1.05770439 0.982629 1.239561 0.052277
22260 -5.0823844199999995 16.62248583 -3.0400307100000004 0.690592 1.008693 0.231063
22280 -1.92289734 20.176540919999997 -6.806050470000001 0.75154 1.340586 0.296224
22300 0.9066598200000001 15.036679710000001 -11.104507980000001 0.422685 1.680914 0.454793
22320 -4.04519274 12.16580283 -10.073898810000001 -0.021883 1.385776 0.321743
22340 -8.13722823 9.6448977 -8.5518675 -0.76953 1.24334 0.35943200000000003
22360 -8.93791062 11.364522030000002 -9.848170710000002 -1.686241 1.407461 0.337863
22380 -0.43753581 10.5882273 10.61457696 -2.746678 0.912517 -0.176315
22400 2.19503655 7.41752739 7.72229466 -3.172715 -0.120575 -0.661872
22420 1.04213592 14.448256290000002 5.22338355 -1.875061 -3.0527040000000003 -0.332857
22440 5.27338512 41.46722316 -41.16439827 -0.84872 -1.02924 0.5145460000000001
22460 2.14399512 5.25647268 12.994326000000001 -1.471609 1.355111 0.721853
22480 2.5524933300000003 0.46822149 8.03962854 -1.3041969999999998 0.8634229999999999 0.725789
22500 -4.13469918 10.55335275 4.028721750000001 0.064606 0.202956 0.071762
22520 -5.91061329 21.002229 6.4694007000000004 1.074205 1.070494 0.161024
22540 -0.34488036 16.41995838 -3.3835671 0.545184 1.236709 -0.186852
22560 -0.8746301700000001 16.0425873 -10.31131062 -1.695151 -3.909365 0.088241
22580 -4.8720678300000015 12.968584560000002 -6.438116610000001 2.848075 3.691976 0.261922
22600 -5.02384815 10.86395697 -6.60651507 2.605017 1.940977 0.127872
22620 -2.6487392400000003 9.11335266 -5.11187328 0.245272 -1.40942 -0.197306
22640 -0.91070154 7.98304446 -4.27855302 -2.643856 -3.123701 -0.027283
22660 -0.02095416 5.39014374 1.5027252300000002 -2.174209 -5.632261 -0.208795
22680 -1.40258475 1.9546326900000002 4.37031576 0.768063 1.056535 -0.344229
22700 0.16211025 -2.25116937 4.97684844 0.323065 1.773946 -0.079065
22720 2.1023811 -4.6827152100000005 3.7208152800000005 1.988441 -0.027605 -0.68042
22740 2.05163397 -1.22430762 2.1296234700000003 2.4829790000000003 -0.130672 -0.908637
22760 2.7840583800000003 1.19362194 1.05021936 2.4542040000000003 0.31475 -1.183942
22780 3.6217146600000003 1.52726985 0.96758973 1.4477799999999998 -0.6448020000000001 -0.643881
22800 2.8648927800000004 3.1267020600000004 0.43245423 0.420969 0.566615 0.195563
22820 0.29503575000000004 6.0616480500000005 -0.06122421 0.185083 1.634166 0.097475
22840 -0.10687995 9.63082035 -1.49134563 0.084641 1.4828709999999998 0.456958
22860 0.19654335 11.496692160000002 -2.28544551 -0.582105 1.754734 0.713667
22880 -4.47958935 18.752707710000003 -6.33572964 -1.550998 1.287091 0.751296
22900 -4.0878466200000005 26.54564418 -13.145959170000001 -2.438269 0.50039 0.5869409999999999
22920 -0.55400013 16.27909659 -14.97695643 -2.512865 0.209576 -0.6801189999999999
22940 -1.61948385 8.11492029 -8.68299777 -1.614319 -1.187174 -1.414467
22960 -1.45092843 4.15670301 -8.16506901 0.02822 -1.974386 -0.183143
22980 1.42084116 4.78479807 7.085066490000001 -0.494707 0.180478 0.582767
23000 0.19235448000000002 10.539883620000001 8.97443325 -0.437652 -0.267742 0.734359
23020 1.0523088900000002 18.885927510000002 -3.4886420100000004 -0.6954060000000001 -0.552714 0.8269270000000001
23040 0.6427610100000001 42.13138959 -30.931224300000004 0.296333 3.3479690000000004 0.323587
23060 -2.36314071 12.115202850000001 13.774505490000003 0.613742 1.390781 0.38386
23080 -0.621954 3.76332201 5.81450472 0.64037 -1.3563690000000002 -0.220252
23100 -1.72785492 7.54177104 6.604719840000001 -2.433994 -4.9275449999999985 0.139932
23120 -3.28626171 17.53423704 1.3608235800000001 2.533265 6.568617 1.499447
23140 2.5551910799999997 19.77208443 -13.35821814 3.582904 3.633179 0.741421
23160 -1.57487778 13.696967250000002 -4.4914104 1.525203 -1.87113 0.135897
23180 -6.20534493 10.36309761 -4.81743594 -2.218923 -4.383874 -0.40726
23200 -4.046389560000001 7.75042974 -4.8674277 -3.253263 -5.367047 -0.328836
23220 -2.10896361 5.123095919999999 -0.42915807000000006 -0.30090500000000003 -2.488078 -0.106804
23240 -0.49471830000000006 1.86991353 4.9861287 -0.6255890000000001 2.099507 0.047419
23260 0.29099403 -2.0736378 4.26956706 0.5000680000000001 0.343553 -0.300322
23280 1.3192095600000002 -6.389910270000001 1.6085555100000002 1.951846 0.359284 -0.697194
23300 1.46216088 -2.7158004000000004 1.16263215 2.72978 0.98017 -1.062161
23320 2.22512382 0.50654916 0.43813422 3.116362 0.800908 -1.323082
23340 4.709055060000001 -0.18172044 1.1199684600000002 2.805969 0.025831 -1.165091
23360 5.02415226 1.7422265700000001 0.48693897 2.055059 0.125477 -0.392799
23380 4.537664550000001 4.8990159 1.1770038 1.436236 0.565796 0.053104
23400 0.17977806 11.19297456 -0.07110288000000001 1.033133 1.235354 -0.271036
23420 -4.460871870000001 18.106346430000002 -7.31514042 0.317353 1.181806 -0.112529
23440 -4.10341509 25.6701213 -11.327548140000001 -0.5556220000000001 0.456132 0.16645
23460 -2.13441075 17.38499751 -9.75700638 -1.7664240000000002 0.422463 0.577847
23480 -3.3209891100000006 12.11984298 -9.68606046 -2.971384 0.438876 0.4487
23500 -2.05223238 7.22412324 -7.56092997 -4.024025 0.140374 -0.179975
23520 -2.03965596 7.271427060000001 4.33214505 -3.484884 -1.757596 -0.734594
23540 -6.172716870000001 12.401713710000001 8.523428310000002 -2.066898 -3.961325 0.616617
23560 0.36494181 9.627828300000001 5.77453878 -0.431496 -1.978618 0.739799
23580 7.20885888 16.41740778 -22.93710435 -1.059558 -0.224014 0.99381
23600 0.9349518600000001 36.379001790000004 4.50487953 -1.392162 1.199529 0.931979
23620 -1.70944155 1.01833686 11.696973120000001 -0.76925 -0.574099 0.378854
23640 -0.12678444 0.64246671 3.6588455100000004 0.7584960000000001 1.756535 -0.364421
23660 -3.5503174800000004 13.989756510000001 6.687045360000001 0.4211220000000001 2.27589 -0.745594
23680 -1.8684126 18.921400470000002 -2.41432929 0.303546 1.311134 -0.47385
23700 1.27415223 18.27550026 -8.96411313 -0.199088 -2.914543 -0.6385890000000001
23720 -1.76782086 13.234425750000002 -3.6967121100000004 0.039197 -4.661859 -1.044883
23740 -5.101543350000001 11.47229469 -8.99195391 1.05353 -0.802138 -0.915625
23760 -3.60824553 9.5552343 -7.8185405700000015 0.148204 0.515784 -0.17588199999999998
23780 -1.9431059400000001 6.702309720000001 -4.41581454 -1.670523 1.266147 0.498387
23800 -2.1576114 5.060979000000001 1.27879236 -1.505086 0.234775 0.40152
23820 -2.15521776 4.804408260000001 3.68833437 -1.274848 -1.4992379999999998 0.138294
23840 0.25836597 1.8043434900000002 5.135368230000001 -1.604015 -1.507196 0.016365
23860 1.7064495 -1.9423603800000002 3.95836443 -1.903881 -1.170097 -0.107939
23880 1.5405918300000003 -3.49103565 2.70622584 -1.946911 -0.432242 -0.241645
23900 3.84341085 -1.19481876 1.9023944400000001 -1.687758 0.6792159999999999 -0.293602
23920 4.738691070000001 1.5033236400000003 0.48034665000000004 -1.276204 1.00306 -0.384077
23940 1.6769606400000001 3.9555293400000004 -0.05643693 -1.000547 0.180509 -0.582992
23960 1.22041305 6.43331952 -1.12850316 -1.0878450000000002 -0.61763 -0.711834
23980 1.3096251900000002 8.9509383 -2.35176111 -1.147898 -0.999548 -0.788676
24000 -1.9267919100000002 14.06624508 -4.4996409900000005 -1.21698 -1.030901 -0.8799170000000001
24020 -6.807992850000001 31.74149106 -9.079517970000001 -1.05499 -0.739003 -1.023369
24040 0.33231375 20.031794370000004 -14.55378246 -0.717224 -0.725821 -1.149214
24060 -3.38041809 10.78357383 -14.45229801 -0.534087 -1.576213 -0.966315
24080 -7.325470350000001 6.81906834 -7.53922044 -0.496263 -3.256623 -0.615657
24100 -9.75671208 9.111106170000001 -11.454626880000001 -0.253202 -2.196007 -0.460426
24120 -4.81892706 12.397073579999999 9.441016470000001 0.219879 -0.394525 -0.895265
24140 0.21780162 12.761260020000002 9.36842247 1.752868 -0.808668 -1.752491
24160 1.2849236099999999 9.98139051 3.2229479700000003 2.629011 -0.405144 -1.393306
24180 3.3581199600000002 16.26457779 -1.9272431700000001 2.986964 -1.388579 -0.5926520000000001
24200 -1.12056687 31.45169385 -4.20804855 2.971375 -2.482239 0.124349
24220 -2.5970994000000003 11.06633727 4.00970997 3.359805 -2.750451 0.792908
24240 0.56687085 8.24679612 2.232756 3.5631800000000005 -2.131155 0.79033
24260 1.23717834 12.132870660000002 0.8899043400000001 3.3893690000000003 -1.864266 0.798388
24280 -0.12439080000000001 15.869852820000002 0.10478061 2.682017 -1.044107 0.90456
24300 -1.0584499500000002 14.28254577 -1.6524160200000002 1.3537549999999998 1.170886 1.451123
24320 -1.01563911 10.938356009999998 0.2803698 0.378093 0.5896279999999999 1.934299
24340 -0.9313614 7.9297565400000005 0.42332112000000005 -0.082375 -3.986781 1.531023
24360 -1.15260633 6.893761680000001 -0.99648018 0.680511 -6.5177190000000005 1.363338
24380 -0.8818209 6.11343504 -1.5060213900000003 1.673332 -6.396807 0.636249
24400 0.12469491 5.225482889999999 -1.3304322000000002 1.683862 -5.389777 0.009054
24420 0.75832281 4.56430851 -0.50579379 1.303572 -4.45044 -0.134743
24440 0.16031502 4.703070960000001 -0.01975734 0.974688 -4.3159730000000005 -0.17673599999999998
24460 0.48858705 4.62867192 -0.12469491 0.782507 -5.121467 -0.240072
24480 0.58932594 5.33669886 -1.6310106 0.670134 -5.089667 -0.369084
24500 0.01377324 6.65411319 -2.0895005700000002 0.609823 -3.967856 -0.069704
24520 0.39233133000000003 8.33047542 -0.92088432 0.23226 -2.741528 -0.05789
24540 1.4688905399999999 8.65155672 1.01968083 0.781293 -2.459782 -0.395178
24560 1.75779504 8.82040644 -1.8353332800000002 1.555372 -2.029278 -0.56658
24580 -1.2190690800000001 10.525060710000002 -5.46947721 1.173459 -0.8090470000000001 0.17374
24600 -3.9932487900000004 9.03536316 -3.3751795500000004 0.34794899999999995 0.612506 1.301672
24620 -7.1995786200000005 5.83531173 -4.00896441 0.075671 2.321142 2.351915
24640 -2.21658912 14.774723280000002 -1.0777560300000004 0.114178 0.30171 1.970212
24660 4.06913895 15.6173238 1.88772849 0.158111 1.216611 1.176726
24680 4.77731304 14.351853420000001 9.15944985 2.347331 -0.149624 1.015375
24700 5.12773605 20.71736622 9.803711790000001 1.775883 -1.385659 1.588739
24720 2.8791172800000004 25.652159190000003 6.295459590000001 -0.368416 -1.273994 1.896221
24740 -1.87575048 22.785765480000002 2.07708111 -0.8889670000000001 2.454815 0.132718
24760 -2.9794049100000004 18.660797820000003 1.37563668 -0.962096 3.505214 -2.739451
24780 -1.1407754700000001 17.19878409 3.4775665200000003 0.323049 -2.480664 -1.966502
24800 1.7751587400000002 16.94296872 4.42734129 0.002136 -6.682555000000002 -0.513782
24820 3.7263481200000004 15.858021960000002 6.92639955 -0.858375 -4.976783 -0.101099
24840 2.92296798 12.3692328 10.451868300000001 -1.402933 -2.011935 0.589915
24860 4.269419910000001 9.53067987 7.37950383 -1.6536830000000002 -0.270749 0.675663
24880 3.29374674 7.991883270000001 6.503529690000001 -1.613819 0.257731 0.881431
24900 -2.3571468 5.223981960000001 6.124216230000001 -1.406795 -0.22760500000000006 0.861066
24920 -5.05259145 3.5672299200000004 5.53294791 -1.7654880000000002 -0.774985 0.596479
24940 -7.3489653000000015 3.2226438600000002 4.24756323 -2.025694 -1.676565 0.378968
24960 -7.039714860000001 2.4996566700000002 2.49186753 -1.6893049999999998 -2.326566 0.13325499999999998
24980 -3.78742518 4.00147938 2.0558228400000003 -1.411829 -1.7834849999999998 -0.054578
25000 -3.77006148 6.755303340000001 0.10059174 -1.252321 -0.847125 -0.188191
25020 -6.0953257800000005 8.01149346 -3.7407197700000006 -1.079178 -0.353243 -0.236753
25040 -6.2087882400000005 8.58300444 -9.10226736 -1.072564 -0.172815 -0.341624
25060 -1.9486485900000001 8.3005353 -6.699621780000001 -1.212567 -0.3783780000000001 -0.495094
25080 2.1468400200000004 5.60060748 -2.5390242 -1.228802 -0.862237 -0.69114
25100 6.10999173 7.67154753 -3.66916563 -1.155733 -1.268172 -0.7381800000000001
25120 11.0880468 11.01154842 -3.9770819100000003 -1.156809 -1.262872 -0.7307170000000001
25140 8.410858560000001 11.50971984 -13.48425702 -0.935108 -1.126961 -0.545608
25160 3.72754494 34.53348573 -3.4657454700000003 -0.541867 -1.198747 -0.5171319999999999
25180 4.76758152 18.03090753 12.504100680000002 -0.04505 -1.230495 -0.467687
25200 -9.12083769 -1.87395525 1.7625823200000001 0.028411 -1.332745 -0.535409
25220 -6.94211517 -6.22165896 6.30039402 0.442574 -1.935366 -0.709069
25240 -3.7829322000000003 3.80508318 10.1920014 0.785981 -1.832806 -0.813624
25260 -4.00327461 17.620457130000002 4.01509566 1.544624 -2.048518 -0.80698
25280 -8.12106135 25.41983877 -0.13995926999999997 2.033325 -2.701177 -0.52072
25300 3.83262966 14.60887542 1.1731092300000001 2.287411 -3.109118 -0.48958
25320 3.58174872 10.03244175 3.33970659 2.9268810000000003 -3.031512 -0.737313
25340 1.8230609700000002 9.71659899 0.26150517 3.0481540000000003 -1.618474 -0.430629
25360 1.33162902 9.6594165 -0.7036909200000001 2.619157 -0.092964 -0.068112
25380 1.21322232 9.07906671 -0.5972622300000001 2.79957 1.098639 0.151675
25400 0.81400437 9.13325715 -0.09100737 2.603579 1.295888 0.27824
25420 -0.52226478 9.16394283 0.025594290000000002 2.219296 0.591801 0.329869
25440 -1.9059849 8.62476561 -0.33679692000000006 2.041348 -0.726618 0.385863
25460 -2.3724209700000003 8.647367850000002 -0.84095244 1.434638 -2.5566310000000003 0.61257
25480 -1.18403757 8.052803370000001 0.28769787 1.597637 -3.215964 0.7192390000000001
25500 -0.01152675 8.62641369 0.56402595 1.998292 -2.753295 0.8197209999999999
25520 0.34847082000000007 8.75933919 1.00471077 2.106332 -2.243292 0.792048
25540 0.3793134600000001 8.87459688 1.4895504000000002 1.81265 -2.141843 0.718296
25560 0.46658322 8.19455787 1.51963767 1.567709 -2.534011 0.701064
25580 0.26973576 9.09448803 1.5040692000000002 1.358031 -2.490398 0.632246
25600 0.12708855 9.70162893 0.49667049 1.04975 -2.114966 0.5195850000000001
25620 0.48918546 10.404260370000001 -0.09999333 0.623143 -1.666887 0.457278
25640 0.20073222000000002 11.10914811 -0.67898934 0.11927 -1.09067 0.385722
25660 -0.29278926000000005 11.554473060000001 -0.7117743599999999 -0.42545 -0.413896 0.244318
25680 -1.20304935 11.89022031 0.28021284 -0.817365 0.028188 0.053007000000000006
25700 -1.50961185 11.92225977 0.5626819800000001 -1.177457 0.377691 -0.190306
25720 0.92956617 13.33187829 -0.3558087 -1.545288 0.3960550000000001 -0.467432
25740 4.02183513 13.82630229 -0.20238030000000004 -1.706093 0.007595999999999999 -0.685975
25760 5.90940666 14.86514205 0.91774512 -1.633391 -0.372249 -0.863373
25780 3.4130559600000003 14.53612446 2.20326714 -1.363325 -0.6349090000000001 -0.680621
25800 -2.7892969200000004 12.860056530000001 1.6717220999999998 -1.006816 -0.735513 -0.340444
25820 -3.6122872500000005 10.21311252 -0.24818319 -0.387217 -1.258635 -0.3269
25840 -1.22115861 9.46616931 0.21120930000000002 -0.133138 -1.120275 0.016529
25860 -0.22094082 9.45194481 2.5578790200000006 -0.422454 0.5351819999999999 0.528338
25880 0.5803399800000001 12.562774290000002 4.0639004100000005 -0.40577 0.8911680000000001 0.734165
25900 0.66671703 12.79359378 4.8418334100000004 -0.273552 0.173729 0.74669
25920 0.6782437800000001 12.44317077 4.505929200000001 0.07256699999999999 -0.32977199999999995 0.61943
25940 -0.15253569 11.51016129 2.3881365900000002 0.249117 -0.968432 0.340539
25960 -0.2371077 11.5192944 0.87417891 0.597282 0.112249 -0.083566
25980 -0.18815580000000004 11.43381987 0.87627825 0.432282 0.615847 -0.137707
26000 0.39892365 10.62175788 1.4531749200000001 0.166853 -0.375583 0.006987999999999999
26020 0.44621766 9.283242240000002 1.2451146300000002 -1.034453 -2.022404 0.491021
26040 -0.53259471 8.57671623 1.13029839 -0.277048 -4.627614 0.519946
26060 -0.59695812 8.37014706 1.7556957000000002 2.758505 4.6860550000000005 0.295274
26080 -0.6474011400000002 7.885150470000001 2.14189578 2.4759450000000003 3.607845 0.8437479999999999
26100 -1.3012474500000002 6.95828205 1.49449464 -0.017102000000000003 -0.393166 0.566542
26120 -1.84611447 5.83905915 0.94004325 -2.018811 -1.34948 0.361505
26140 -2.11809672 5.090909310000001 0.70338681 -2.61864 -3.143234 0.040216
26160 -2.35085859 4.29816321 0.31734369000000007 -2.026375 -6.186814 -0.184619
26180 -2.16868689 4.323011940000001 0.02679111 0.337044 -3.967772 -0.386735
26200 -2.17602477 4.24038231 -0.12214431 -0.008796 3.707213 -0.271867
26220 -1.8279954 4.32810333 -0.45924534000000006 1.426049 2.511052 -0.485707
26240 -1.16592831 4.90095828 -1.17161811 2.515943 0.434304 -1.031977
26260 -1.37833443 5.5875798 -1.8670686300000001 3.082891 1.456152 -1.052827
26280 -1.68190488 6.46820388 -2.71610451 2.99502 1.888784 -1.00913
26300 -0.7964935200000001 7.3944738899999995 -3.1930078500000003 2.593346 0.718909 -0.876908
26320 0.63213678 9.66958947 -4.583614590000001 1.435087 0.400211 -0.095174
26340 0.42705873000000005 12.281207670000002 -6.565195350000001 0.719635 1.516914 0.450668
26360 0.00434583 12.338095860000001 -4.916526750000001 0.8935870000000001 1.986052 0.195977
26380 -1.1544015600000002 9.84353058 -4.9633793100000005 0.555845 1.849816 0.192724
26400 -1.5106615200000002 8.04457278 -4.50338841 0.303324 0.750211 0.205188
26420 -1.6566048900000003 6.50068479 -2.13290982 -0.324728 -0.105106 0.45827
26440 -2.33619264 6.3105768 -0.98839674 -1.450978 0.13246 0.366777
26460 -1.9848769200000003 6.61340169 2.9722239900000003 -2.611292 0.697627 -0.367374
26480 -3.35362698 9.32037309 7.316190090000001 -3.112525 0.23717 -0.401264
26500 -3.48251076 12.310255080000001 4.74184008 -3.333534 -2.178709 0.546733
26520 -0.71820972 11.40238863 1.6994157300000001 -1.271035 -0.102642 0.928084
26540 -1.6703781300000002 28.763587080000004 -13.48186338 -1.66765 1.369932 0.914881
26560 0.21824307 22.36304277 -9.19777752 -1.662094 2.722345 1.031759
26580 0.5267577600000001 3.90179016 8.713085040000001 -0.425297 0.109097 0.258604
26600 3.21471738 5.049746550000001 1.8000074700000002 0.909872 0.79825 -0.345044
26620 -5.050197810000001 14.332547340000001 6.991057260000001 0.552515 1.800687 -0.305028
26640 -2.5216605000000003 15.425724690000001 5.47636383 -0.461845 -0.621943 -0.176549
26660 -1.07446968 12.74973327 -1.7751587400000002 0.369874 -0.874245 0.391468
26680 -1.49449464 12.926970540000001 -8.18527761 1.978703 2.9027700000000003 -0.090311
26700 -5.39478387 14.556931470000002 -9.60941493 1.759146 1.167522 -0.453885
26720 -4.01899023 12.01805442 -6.067936260000001 -0.63885 -1.416666 -0.282521
26740 -2.39232546 8.58525093 -5.136722010000001 -1.945473 -1.489083 0.044935
26760 -0.27482715 5.821548300000001 -3.94654338 -1.555452 -1.629839 0.008315000000000001
26780 -2.0710970100000003 4.4680626 -0.04730382 -1.02851 -0.684718 0.028945
26800 -2.92551858 3.56154012 2.13486201 -0.651908 -0.375379 -0.133327
26820 -1.94999256 2.18994516 5.5443177 0.29088400000000003 -0.567922 -0.485418
26840 0.90875916 -2.4496551 3.85463349 1.793377 0.45683 -0.711245
26860 2.57958855 -2.790945 1.9260463500000002 2.5520810000000003 1.24869 -0.659958
26880 2.61401184 -0.46807434000000003 1.7901288000000002 2.996957 1.366806 -1.01272
26900 4.66819641 1.7208211500000001 1.4479363800000002 2.758126 -0.077723 -1.068085
26920 4.83569235 3.7456640100000005 1.2891222900000001 2.514329 -1.242644 -0.447658
26940 1.5648421500000003 6.18184017 0.7893126 1.747166 0.023286 0.121133
26960 0.12544047 8.041276620000001 -0.89454447 1.1560629999999998 0.462104 -0.146341
26980 -0.00359046 9.29596581 -0.0432621 0.991445 0.905673 -0.107467
27000 -7.293578040000001 15.978675149999999 -4.968166590000001 0.223709 1.204847 0.333304
27020 -6.37598988 24.966283230000002 -10.47267531 -0.954576 1.243777 0.942456
27040 0.7011403200000002 21.9799917 -17.07858216 -2.015722 0.731445 1.046795
27060 -1.16636976 10.308760020000001 -11.65476069 -2.670051 -0.4579720000000001 0.159261
27080 -3.23253234 6.7127868 -3.72979143 -2.545973 -1.018111 0.002749
27100 -5.33685582 9.954452250000001 -4.925659860000001 -2.307912 -0.363217 0.391337
27120 -2.45130318 14.27536485 8.80095321 -1.68642 0.993619 0.200591
27140 -0.02664396 15.275435490000001 6.39679689 -1.215829 0.189433 0.567036
27160 5.317539930000001 11.899657529999999 -7.206465240000001 -1.410493 0.987329 1.000489
27180 -1.49674113 35.46769203 -19.51926111 -1.267423 1.000502 0.5132939999999999
27200 -3.8202102 9.32605308 8.5575573 0.437921 0.829252 -0.229808
27220 0.94917636 2.86219503 3.8883112200000003 0.510796 0.227811 -0.668636
27240 1.4316223499999998 7.974068310000001 2.40564744 -0.054022 -2.399753 -0.8294469999999999
27260 0.7116174 16.81019037 2.15612028 -0.154612 -3.135138 0.407794
27280 1.63804437 16.301845980000003 -4.07063988 -0.465525 2.24265 1.140077
27300 -0.12933504 13.56509142 -2.57165226 1.890801 4.740769 0.418398
27320 -3.2636594700000003 10.890748080000002 -3.79326213 3.171751 1.258256 -0.126872
27340 -5.48145522 10.864104120000002 -7.72169625 0.754478 -2.06088 0.037821
27360 -4.2966622800000005 9.667941390000001 -7.46318313 -2.128471 -2.736251 -0.129934
27380 -1.48431186 6.44814243 -6.20025354 -2.613651 -3.360004 -0.100477
27400 -0.5828905799999998 4.686001560000001 1.1105410500000001 -1.221748 -0.995991 -0.016872
27420 -0.7059276 3.53025603 4.14488196 -0.8377879999999999 1.070545 -0.058498
27440 1.3578217199999998 1.29735288 3.1057380900000005 0.016386 0.149668 -0.412411
27460 1.9031399999999998 -0.45849978 1.07641206 1.378733 -0.47252 -0.777044
27480 0.5599842300000001 -1.8058444200000001 2.36912481 2.274715 0.38104 -0.823154
27500 1.78458615 -1.34959113 2.5367777100000004 3.130209 0.176344 -0.991036
27520 5.2374609 2.0619639 0.88630407 3.040585 0.158505 -1.246944
27540 3.3175556100000003 4.050578430000001 -0.21390705000000002 2.744015 -0.247541 -0.946188
27560 1.34869842 6.412669470000001 -1.32908823 2.151785 -0.791452 -0.278785
27580 0.5655268800000002 8.675512740000002 -1.8886212 1.291642 0.364313 0.214722
27600 -4.13949627 12.62220327 -2.96383644 1.08777 0.639517 0.034552
27620 -4.02647526 19.364930190000003 -3.7990990800000004 0.5487380000000001 1.034687 0.24713
27640 -1.4768268300000003 22.721254920000003 -10.32732054 -0.425868 0.898819 0.703036
27660 -0.45834282000000004 15.700551840000001 -15.79679775 -1.495004 0.410451 0.948295
27680 -1.8688638600000003 8.33152509 -7.532186670000001 -2.650648 -0.321945 0.490371
27700 -3.21816069 6.239621070000001 -4.72417227 -3.163784 -0.14136400000000002 -0.532528
27720 -5.19345324 8.558606970000001 3.34300275 -2.323783 -1.523454 -0.089055
27740 -4.47868683 13.256135279999999 7.635623310000001 -1.632502 -2.4462080000000004 0.432907
27760 0.64455624 12.033927 0.52615935 -0.929559 -0.889641 0.838542
27780 6.859936800000001 11.87181675 -1.9580760000000001 -1.390955 0.649425 1.302297
27800 5.29344657 33.86901519 -23.65006572 -1.5680120000000002 1.060472 1.226826
27820 -6.03574965 15.43739859 4.7837484 0.13883 0.909543 -0.06963
27840 -0.30581694000000004 2.4989013000000004 5.4688788 0.785742 0.5691729999999999 -0.493032
27860 -0.45939249000000004 4.03381314 3.57411654 0.933719 0.134423 -0.857842
27880 -3.2853689999999998 14.554537830000001 5.4169348500000005 -0.998812 -1.958916 -0.496917
27900 -0.78601644 18.105895170000004 -0.45400680000000004 -0.252511 -0.610255 0.979646
27920 1.52697555 14.928161490000003 -5.266645649999999 2.145989 5.508963 0.430946
27940 -0.02679111 12.858114150000002 -3.8743908300000003 1.932868 1.088461 -0.014599
27960 -3.07520937 11.93812254 -6.0757155900000015 -0.6589659999999999 -2.216019 -0.166269
27980 -3.89370672 10.48868523 -8.10190242 -2.456958 -3.792174 0.213092
28000 -2.08486044 9.05122593 -7.40809017 -1.552431 -6.4807510000000015 0.183331
28020 -1.3409092800000002 6.52283577 -3.9863621700000005 0.954903 0.972186 -0.458184
28040 -1.4492901599999999 4.49949384 0.17198892 1.128256 1.32196 -0.69884
28060 -1.94805018 3.0362832900000005 3.66782166 2.30801 -0.026193 -1.043521
28080 1.06548372 1.22998761 4.3981565400000004 2.8567970000000003 0.080376 -1.263083
28100 3.3980859000000003 -1.48282074 2.7662434200000003 2.88449 -0.496838 -1.594367
28120 2.17048212 -1.44898605 1.3455494099999998 1.945117 -0.927655 -1.201929
28140 1.92693906 -0.44532495 0.93855213 1.223103 0.846641 -0.19764
28160 4.12287813 1.5399934199999998 -0.02410317 0.480269 0.980536 -0.004311
28180 2.16404676 3.7721510100000004 -1.3069274400000002 0.454912 0.345632 0.01769
28200 1.6069074300000001 6.44769117 -2.23590501 0.108148 0.325594 0.001406
28220 1.6103507400000001 10.99523439 -1.14032421 -0.713518 0.6137130000000001 0.32324200000000003
28240 -4.7264187600000005 16.935777990000002 -1.73698803 -1.486614 0.779086 0.396678
28260 -7.683819840000001 21.747524130000002 -4.923864630000001 -2.430289 0.902722 0.399542
28280 -2.83660074 16.600482 -9.799071660000001 -2.778829 0.508584 0.16580899999999998
28300 -0.38051028000000003 11.793827250000001 -13.8590775 -2.132686 -4.095415 0.63983
28320 -2.245028310000001 6.9091830000000005 -8.55650763 -0.8291229999999999 -4.720349 1.011864
28340 -4.080812850000001 5.632784280000001 -6.02242767 -0.604791 0.498989 0.945854
28360 -7.53428601 11.987820000000001 5.039573580000001 -1.09824 2.377101 0.567191
28380 -3.91540644 14.09484123 7.200324180000001 -0.626258 0.487901 0.008887
28400 1.9483444800000003 10.44034155 2.50728885 -0.32792 -0.375861 -0.293433
28420 7.68756726 18.065929230000002 -12.80227563 0.13459000000000002 -0.5373 -0.814493
28440 -1.75300776 33.28523190000001 -7.096593240000001 0.119859 0.136455 -0.660567
28460 -1.4003382600000003 4.50143622 7.602838290000001 -0.743394 -0.356787 -0.174583
28480 1.7378905500000001 5.09210613 4.4777843100000005 1.00627 -2.339404 0.473635
28500 -1.4826637800000002 14.409938430000002 6.96261807 1.4433120000000002 -0.341301 0.183571
28520 -0.71835687 19.06735365 -0.86056263 0.211533 0.401535 0.101376
28540 -3.50406333 17.2486287 -13.546982160000002 -0.396935 0.098944 0.109264
28560 -5.75298621 11.54294631 -5.42501829 -1.046561 -2.124659 0.232558
28580 -5.720201189999999 10.340799480000001 -6.34829625 -1.56312 -2.756122 0.352604
28600 -2.24218341 7.29283248 -4.85949141 -2.100584 -2.658544 0.392522
28620 -0.29309337 4.9337433 0.97522191 -2.1977450000000003 -2.235151 0.357118
28640 0.7234482600000001 2.75831694 4.788692640000001 -2.031963 -1.478127 0.310304
28660 1.8947622600000003 -1.40378157 5.45360463 -2.095444 -0.515537 0.203941
28680 2.30999994 -4.5414021600000005 1.5087093300000003 -2.037057 -0.101475 -0.030122000000000006
28700 0.28410741 -1.12700223 0.8234415900000001 -1.7696490000000002 -0.022326 -0.341345
28720 1.59238863 0.8370578700000001 0.5697157500000001 -1.485315 -0.399377 -0.601658
28740 3.3471916200000003 0.62494605 0.79050942 -1.496002 -1.0283129999999998 -0.752614
28760 2.15088174 1.4822223300000001 0.6228565199999999 -1.392145 -1.283937 -0.853042
28780 2.02243941 5.39852148 -0.36778670999999996 -1.030038 -0.743916 -0.882184
28800 1.16801784 10.36759059 -1.51155423 -0.670451 0.116084 -0.741905
28820 -3.8306872800000002 21.432583890000004 -3.4629005700000004 -0.525877 -0.458561 -0.485922
28840 -9.56196396 33.26262966 -11.52572976 0.097907 -0.922354 -0.394445
28860 -3.0482613 17.70502914 -16.26771699 0.477434 -1.251885 -0.898777
28880 -5.37337845 9.80985285 -10.27118772 1.040608 -1.4579 -1.548331
28900 -9.02443482 5.64416388 -7.4702169000000005 2.440882 0.221591 -2.116474
28920 -7.27082865 4.840332480000001 -7.64624754 3.176206 0.205892 -1.2268290000000002
28940 -2.24638209 7.172336250000001 3.3759251100000003 2.939169 -2.111498 -0.65188
28960 3.72754494 11.975694840000001 9.02982051 2.704931 -2.984715 0.271614
28980 3.57561747 15.87837771 4.12751826 3.50616 -5.017906 1.33522
29000 5.44252914 17.59905171 -6.5044224 2.734012 -2.594012 0.8417469999999999
29020 3.39718338 19.004481360000003 -8.20728144 1.816611 -0.145023 1.123826
29040 -4.29321897 18.86033322 4.84557102 1.874831 -0.364092 1.2452219999999998
29060 -4.77506655 12.540917610000001 2.82717333 2.123228 -0.492662 0.682033
29080 -1.04438241 11.2790475 2.86130232 2.385559 -0.8819020000000001 0.5583140000000001
29100 0.03831786 13.72495518 0.7132654800000001 2.83531 -4.028564 0.12858499999999998
29120 -0.29818476 14.089004280000001 2.6150615100000003 1.858856 -6.639681 -0.058624
29140 -0.39278259 10.949127390000001 0.79020531 1.288489 -6.270329 -0.022489
29160 -0.64725399 8.53899678 1.05335856 1.132737 -5.915401 0.330618
29180 -1.21921623 7.22158245 0.88391043 1.310391 -4.595013 0.581199
29200 -1.9597240800000002 7.041058830000001 0.32602554 0.679672 -3.3745510000000003 0.414996
29220 -1.8785953800000001 5.99578371 -0.41119596 0.360349 -3.034427 0.350373
29240 -0.8207438400000001 4.66026012 -0.10747836000000001 0.080277 -2.887633 0.380275
29260 -0.11601306 4.13335521 -0.008829 -0.075727 -2.721897 0.360813
29280 -0.2721294 4.323011940000001 -0.37212273 -0.069367 -2.626574 0.227208
29300 -0.38620008 4.10252238 -1.0464719400000002 0.832619 -3.215918 -0.22614
29320 0.43529913000000003 4.7741738400000004 -0.87373746 1.797424 -3.610368 -0.454973
29340 1.1943675 8.46894357 -0.14564907000000002 1.291136 -1.866555 -0.005681
29360 0.34069149000000004 13.75100073 -3.5196318000000004 1.213891 0.30762399999999995 0.605221
29380 -0.6748004700000001 11.377991160000002 -4.9234133700000005 1.510068 1.093379 1.251489
29400 -3.90567492 9.47904003 -3.89295135 1.126619 -0.998058 1.392496
29420 -4.51895688 8.643630240000002 -7.12682766 0.607823 -2.129229 1.271749
29440 -0.5439645000000001 8.79720579 -5.32502496 0.178291 -1.4072639999999998 1.184502
29460 6.746621490000001 12.80302119 0.3617928 -0.238701 0.502201 1.15671
29480 8.86860297 11.999493900000001 6.00326874 -0.00339 2.779643 0.450409
