time Ax Ay Az Gx Gy Gz
20 -0.9624983400000001 26.14986954 5.5932696 -0.460208 -0.11194 0.685932
40 -6.824454030000001 23.43961179 5.170546890000001 0.138072 -0.524845 0.328513
60 -5.2413456599999995 14.008473990000002 1.4911984800000002 0.7604770000000001 -0.7538050000000001 -0.228731
80 -3.1570836300000003 8.963514720000001 -1.5646950000000002 1.118254 -0.662629 -0.695298
100 -2.4587882100000003 6.88852314 -0.7896069 1.1825139999999998 -0.481417 -1.045458
120 -1.29450798 6.564449790000001 1.7142386400000003 1.017381 -0.300264 -0.916521
140 -0.48993102000000005 6.974448929999999 3.57710859 0.705471 -0.041586 -0.334714
160 0.047902230000000004 8.05504986 4.04923446 0.414846 0.15225 0.193914
180 1.03869261 7.460485380000001 3.5582537700000003 0.204818 0.303775 0.311894
200 0.8975365200000001 6.48316413 2.5746443100000005 -0.131682 0.408429 0.27309
220 -0.42032907 6.08843916 1.7425306800000002 -0.502811 0.330275 0.159503
240 -1.98891864 6.0905385 1.00157157 -0.595719 0.183039 0.030856
260 -2.69903511 6.60127653 0.16720164 -0.380132 0.145223 -0.023138
280 -2.9987109899999997 6.821010720000001 -0.15328125 0.1164 0.356082 0.095429
300 -2.5590758399999998 6.29216343 -0.20297871000000003 0.534098 0.178256 0.513044
320 -1.16997003 6.2107306200000005 -0.05149269000000001 0.153426 -0.30043600000000004 0.938287
340 -0.10747836000000001 7.37187165 0.45520362000000003 -0.6043270000000001 -0.262916 1.269436
360 0.13247424000000002 9.43951554 1.02836268 -1.424092 0.15113900000000002 1.531303
380 0.27168795 10.55933685 1.6691813100000001 -1.199606 0.506813 0.837003
400 0.047902230000000004 10.117906470000001 1.82110878 0.06947 0.8535389999999999 -0.123454
420 -0.19250163000000003 8.64827037 1.4272863300000003 0.479223 1.013123 -0.692295
440 -0.08188407 7.219041659999999 0.210915 0.11724 0.651242 -0.989189
460 -0.01241946 6.449937660000001 -1.6181398800000002 -0.315198 -0.075197 -1.166467
480 -0.41688576 8.02690497 -2.9963173500000004 -0.294893 -0.36043 -0.983294
500 -2.35909899 12.11550696 -2.39562162 0.044395 -0.16095299999999998 -0.546413
520 -4.25654919 15.601009770000001 -1.1651729400000002 0.405388 0.237074 -0.230345
540 -3.73114521 20.204087400000002 -3.00918807 0.653219 0.646991 -0.125521
560 -5.47141959 22.886210070000004 0.25312743 0.643897 0.664359 0.06774
580 -0.75697884 17.65893195 1.92994092 0.29249 0.5846939999999999 0.314283
600 0.95142285 11.967464249999999 3.0276014399999998 -0.13928 0.560063 0.45444
620 2.82222909 9.215288370000001 3.08179188 -0.322231 0.412761 0.420236
640 2.2722706800000005 7.74384723 3.32114607 -0.294722 0.182222 0.240194
660 0.11570895 7.0343193600000005 3.2876154900000003 -0.19197 -0.082981 0.138702
680 -2.55623094 6.3298828799999995 2.06091423 -0.093123 -0.30636 0.236887
700 -4.49291133 5.483250450000001 0.7816706099999999 -0.013607 -0.360133 0.295196
720 -5.30617014 6.479720820000001 -0.78226902 -0.01185 -0.26615500000000003 0.235267
740 -5.464984230000001 8.50666302 -1.43132805 -0.116683 -0.244928 0.07961499999999999
760 -4.71085029 9.768238830000001 -0.70458363 -0.08514 -0.25617 -0.066496
780 -3.0135339000000005 10.29259314 0.23321313 0.139706 -0.136344 -0.123831
800 -1.1018592 9.62887797 0.98464932 0.43632 0.139456 -0.08793
820 -0.07693983000000001 7.973764200000001 1.11293469 0.60323 0.251767 -0.080499
840 -0.32003163 6.587503290000001 0.80861868 0.346912 -0.20264 -0.240872
860 -1.2657646800000002 5.56901928 1.02461526 0.04279 -0.413838 -0.441415
880 -1.93487535 5.698354320000001 1.1011136400000001 -0.748237 -0.29278000000000004 -0.458846
900 -2.26659069 6.4435023000000005 0.7788257100000001 -1.388436 -0.638625 -0.795091
920 -2.45474649 7.554190500000001 0.45759726 -1.02023 -0.436293 -1.096154
940 -2.4656748299999998 8.618183100000001 0.23022108 -0.291504 0.108582 -0.79266
960 -2.09250243 8.86307013 -0.55204794 0.585757 0.235335 -0.484387
980 -0.71356959 8.83447398 -2.45264715 1.006933 -0.049416 -0.236458
1000 0.5198711400000001 8.688834720000001 -2.9743135200000004 0.66273 -0.126158 0.072089
1020 1.76468166 9.250162920000001 -1.13928435 -0.048639 0.072926 0.452493
1040 1.2954105 10.33496253 1.75764789 -0.596601 0.198388 0.720901
1060 1.7774052300000003 13.52287899 1.7518109400000001 -0.642253 0.078962 0.7891020000000001
1080 0.08756406 21.950649990000002 3.4877493000000004 -0.281526 -0.198998 0.723611
1100 -5.28715836 27.64766034 4.80710601 0.239218 -0.487186 0.413561
1120 -6.1284051 19.45968498 2.26808181 0.7067359999999999 -0.683946 -0.070031
1140 -3.7103382000000003 11.272612140000001 -0.37347651000000004 0.91263 -0.689137 -0.548218
1160 -2.7065201400000003 7.58846664 -1.11008979 0.963858 -0.475194 -0.814121
1180 -2.96682849 7.133115870000001 0.6475581 0.740769 -0.288842 -0.603342
1200 -1.91556927 7.7984791200000005 3.2368683600000003 0.276437 -0.07619 -0.100521
1220 -1.3409092800000002 8.09127819 3.6576486900000003 -0.061291 0.128168 0.235485
1240 -0.3715243200000001 7.090903440000001 2.61820071 -0.281661 0.309728 0.310625
1260 0.44412813 5.641171830000001 1.79221833 -0.512015 0.53013 0.271345
1280 0.04730382 4.7502178200000005 1.6164918 -0.497652 0.522033 0.152884
1300 -1.11787893 4.4439594300000005 1.6658851500000003 -0.267085 0.41736 0.022169
1320 -1.6205335200000002 5.04316404 1.445994 -0.148764 0.284231 -0.087929
1340 -1.34645193 6.35458446 0.9578582100000002 -0.057287 0.199848 -0.110683
1360 -1.16203374 7.090305030000001 0.37691982000000007 0.052053 0.264761 0.07800499999999999
1380 -0.54950715 8.24724738 -0.02604555 0.149622 0.306449 0.489898
1400 -0.25716915 9.605373210000002 0.11750418000000001 0.015354 0.096246 0.958179
1420 -0.73931103 11.10720573 0.64515465 -0.381787 -0.261007 1.132119
1440 -1.47937743 11.3892138 1.3401637199999998 -0.583539 -0.114204 0.8260790000000001
1460 -1.4714411400000003 10.041722009999999 2.04474735 -1.055467 -0.013373 0.528892
1480 -0.9328623300000001 8.437051259999999 1.9965508200000002 -0.8726149999999999 0.156856 -0.107777
1500 -1.60915392 8.07779925 1.82411064 0.065046 0.43421 -0.748926
1520 -2.1442894200000007 7.493417550000001 2.01720087 0.183374 0.5142399999999999 -0.884934
1540 -1.38522105 7.169785650000001 1.5058644300000001 0.028624 0.325983 -0.8248850000000001
1560 -0.56821482 7.869140550000001 0.09595161 -0.07821499999999999 -0.070378 -0.71296
1580 -0.78690915 9.865985669999999 -2.0158569 -0.029975 -0.149698 -0.366418
1600 -1.9309807800000003 11.894262029999998 -2.57883318 0.21247600000000005 -0.145839 0.05615
1620 -3.2576753700000003 12.902720220000003 -0.8867553300000001 0.395317 0.200834 0.315493
1640 -2.29637385 14.213395080000002 -1.5488322300000001 0.343489 0.5238510000000001 0.30083000000000004
1660 -2.8918408500000004 18.431920710000004 -1.9751454 0.09513 0.5737220000000001 0.299031
1680 -2.77283574 20.67230889 0.62374923 -0.370873 0.686948 0.359725
1700 0.4784042700000001 13.5029745 1.5539138099999998 -0.770726 0.742653 0.362201
1720 1.0897340400000002 8.60185926 3.0228141600000002 -0.7685390000000001 0.618555 0.225643
1740 1.6058577600000001 6.53017365 3.9657023100000006 -0.428366 0.188691 0.07047300000000001
1760 0.21001248 5.6396709000000005 3.7419165899999998 -0.077682 -0.155409 0.037044
1780 -2.68286823 6.11044299 2.3918742 0.194457 -0.285614 0.127774
1800 -4.728066840000001 6.268815630000001 0.9231308100000001 0.319877 -0.276923 0.242939
1820 -4.81877991 7.14494673 -0.31749084 0.285313 -0.193471 0.18277
1840 -4.43587599 9.75027672 -1.28252997 0.25607800000000003 -0.197044 0.036224
1860 -3.7697573699999998 11.790835200000002 -1.03210029 0.396686 -0.109776 -0.064386
1880 -2.81235042 12.463830629999999 0.04041720000000001 0.692964 -0.018889 -0.139345
1900 -1.37324304 11.08564335 1.06653339 0.6302449999999999 -0.17868 -0.351087
1920 -0.33231375 8.52147612 1.9604696400000001 0.055635 -0.707743 -0.74646
1940 -0.76865274 6.0649344 2.306850930000001 -0.215763 -0.800642 -0.988586
1960 -1.91631483 4.82177196 2.2688273700000003 -0.499244 -0.581983 -1.078441
1980 -2.74469085 4.63211523 1.90897695 -1.044885 -0.561401 -0.957297
2000 -3.23746677 5.164562790000001 1.3708494 -1.385126 -0.656575 -0.837774
2020 -3.1202568900000003 6.376588290000001 0.82029258 -0.8413950000000001 -0.590901 -0.683441
2040 -2.81474406 7.31468916 -0.16675038 0.183951 -0.490424 -0.592018
2060 -1.93113774 8.7690609 -1.83922785 0.706241 -0.167052 -0.394368
2080 -0.90082287 10.069857090000001 -2.89093833 0.5283869999999999 0.270981 -0.025498
2100 0.48124917000000006 11.4817221 -2.31703371 -0.04178 0.459406 0.500116
2120 0.07424208000000002 13.308520680000003 0.35281665 -0.529504 0.305212 0.8547610000000001
2140 0.48498678000000006 15.056142750000001 1.5763689 -0.416974 0.010532 0.923222
2160 0.7455992400000001 19.1659932 2.7493309800000003 0.112384 -0.443023 0.6679229999999999
2180 -1.85778837 22.561685460000003 4.263435810000001 0.7747350000000001 -0.619604 0.296762
2200 -5.34673449 17.76206448 3.3581199600000002 1.183944 -0.639704 -0.092391
2220 -4.90290066 10.29828294 1.66528674 1.233039 -0.604003 -0.537543
2240 -3.8898121500000005 7.317386910000001 0.72598905 1.104435 -0.4652979999999999 -0.746922
2260 -3.37608207 7.10138052 1.34270451 0.790283 -0.350052 -0.5238689999999999
2280 -3.15738774 7.662120120000001 3.1410639000000002 0.401488 -0.199391 -0.035396
2300 -2.4059515500000006 8.3207439 3.7676678400000005 0.327959 0.035531 0.41992
2320 -1.23148854 8.29440405 3.4726320900000003 0.466284 0.323204 0.554045
2340 -0.10867518 7.222033710000001 2.6839179 0.386281 0.527098 0.5169060000000001
2360 -0.14729715000000002 6.73958772 2.48857137 0.136927 0.4773020000000001 0.398792
2380 -1.3078299600000003 5.9384540700000015 1.90164888 0.034609 0.356795 0.254021
2400 -2.10042891 5.259759030000001 1.3257920699999999 -0.006634 0.203419 0.017853
2420 -2.2037184 5.86180854 1.03719168 0.031885000000000004 0.253143 -0.195586
2440 -2.2129986600000002 6.55247178 0.84604383 0.17063 0.354562 -0.103948
2460 -1.87365114 7.0338681 0.49277592000000003 0.239991 0.345001 0.361225
2480 -1.24975476 7.447614659999999 0.41449212 0.171423 0.143719 0.938912
2500 -1.1364394500000001 8.227794150000001 0.85741362 -0.183518 -0.21622600000000006 1.216768
2520 -1.28941659 9.3995496 1.3042395000000002 -0.7164699999999999 -0.251071 1.0688799999999998
2540 -1.1512525500000002 9.644299290000001 1.57547619 -1.32851 -0.7440100000000001 0.729815
2560 -0.75233871 9.306599850000001 1.44284499 -0.554523 -0.585421 -0.171902
2580 -0.72479223 8.79136884 1.3009433400000001 0.349455 0.046725 -0.797717
2600 -0.80966835 8.38960029 1.05216174 0.380387 0.219444 -0.860748
2620 -1.05306426 8.06358456 1.02162321 0.055078 -0.309518 -0.698904
2640 -0.7500922200000001 7.95460527 0.19279593 -0.10075 -0.537992 -0.437985
2660 -0.40206285 9.111400470000001 -1.4193500399999999 -0.114089 -0.35487 -0.13387000000000002
2680 -1.1118850200000001 11.8893276 -1.9559864700000003 0.047045 -0.169724 0.045411
2700 -2.6533793700000006 14.27955372 -1.9687100400000002 0.364877 0.041174 0.043088
2720 -3.7068948900000005 15.36120432 -2.05013304 0.498155 0.260156 0.043739
2740 -4.86413154 18.46574559 -3.09870432 0.227623 0.33365100000000003 0.013981
2760 -7.095994830000001 21.54409416 -1.02836268 -0.266574 0.389276 0.118348
2780 -1.81168137 17.00388882 1.7606399400000001 -0.433259 0.5116470000000001 0.29648800000000003
2800 1.2995993700000001 11.3863689 2.6690949900000005 -0.182012 0.458305 0.364541
2820 2.22931269 8.55366273 3.6934159500000003 0.016909 0.046591 0.321593
2840 0.99213435 6.9928623 4.43946645 0.044147000000000006 -0.295485 0.328631
2860 -0.48034665000000004 6.030511110000001 3.02431509 0.095987 -0.393668 0.32805100000000004
2880 -2.34083277 5.52785652 0.7460505000000001 0.148259 -0.426746 0.296412
2900 -3.2955517800000003 5.9080626899999995 -0.61761798 0.077249 -0.45897 0.158156
2920 -3.43161648 7.5485007 -1.0060547400000002 0.016730000000000002 -0.570964 -0.020516
2940 -3.0523030200000005 8.89839594 -0.31314501 0.010386 -0.674868 -0.137932
2960 -2.42570889 9.385030800000001 0.54471987 0.145242 -0.62721 -0.185121
2980 -1.6224759000000002 8.9626122 1.2073853700000001 0.417084 -0.420498 -0.16639500000000002
3000 -0.54591669 7.41468249 1.3768335 0.593362 -0.146203 -0.182607
3020 -0.6619199400000001 6.024075750000001 1.07102637 0.459388 -0.108198 -0.246616
3040 -1.88653167 5.34657753 1.0795512600000001 0.08136900000000001 -0.431856 -0.497738
3060 -2.98629153 5.2575125400000005 1.0150407000000001 -0.243446 -0.684737 -0.646029
3080 -3.4896916800000004 5.53503744 0.56507562 -0.700696 -0.716595 -0.541292
3100 -3.55899933 6.531213510000001 0.41583609000000005 -1.03939 -1.104183 -0.8230350000000001
3120 -3.2201030700000004 8.386755390000001 1.0891356300000001 -0.959437 -1.110884 -0.81499
3140 -3.08717757 9.65731716 1.88128332 -0.526879 -0.664225 -0.468574
3160 -2.8229844600000003 10.6921152 2.05433172 0.203752 -0.592551 -0.112117
3180 -2.1833626500000003 10.722506580000001 0.5956141500000001 0.63202 -0.659205 0.200744
3200 -1.1006623800000002 9.69938244 -2.04400179 0.538851 -0.7185010000000001 0.457611
3220 0.39263544 9.095832000000001 -2.9041131600000005 0.170958 -0.7127060000000001 0.659064
3240 1.2581325 10.02704625 -0.9909375300000001 -0.130621 -0.733518 0.796921
3260 0.79499259 12.220287569999998 1.6835529600000003 -0.133349 -0.919714 0.742661
3280 0.76535658 14.97501405 2.57943159 0.219797 -1.145868 0.51575
3300 0.78616359 19.66281084 2.82447558 0.6903859999999999 -1.35867 0.045019
3320 -3.03823548 22.332357090000002 2.99198133 0.8991309999999999 -1.387525 -0.378638
3340 -5.81930181 16.138843020000003 1.47952458 0.752894 -1.197381 -0.649095
3360 -5.4148355100000005 10.324779750000001 0.69410655 0.4517100000000001 -0.930418 -0.548991
3380 -4.721180220000001 6.748563870000001 0.28874754 0.1602 -0.867981 -0.193253
3400 -3.73218507 6.05505573 0.93195981 -0.084176 -0.872381 0.052873
3420 -2.4081882300000004 6.4830169799999995 2.15297127 -0.414037 -0.753636 0.213854
3440 -1.21218246 7.184608560000001 3.1054437900000007 -0.622495 -0.616522 0.204745
3460 0.20178189000000002 7.459288560000001 3.4664910300000007 -0.482933 -0.887741 -0.022532
3480 1.16473149 6.720870240000001 3.21740532 -0.030991 -1.207985 -0.248632
3500 1.0942270200000002 6.595282620000001 2.2781174400000004 0.433044 -0.852202 -0.11338800000000003
3520 0.40385808000000006 7.12593495 1.51394787 0.872602 -1.338172 0.354982
3540 -0.31045707000000006 7.3946210400000005 1.00380825 0.5858300000000001 -1.903009 0.929474
3560 -0.27408159 6.7210272 0.21061089 -0.4519 -2.185126 1.516519
3580 0.50714757 6.161337270000001 0.2314179 -0.098439 -0.395966 1.336165
3600 0.64710684 6.936425370000001 1.09227483 0.125753 0.183101 0.454638
3620 -0.39158577000000006 8.76338091 2.46252582 -0.565416 -0.001297 -0.250707
3640 -1.7384889600000002 9.53187669 3.41753913 -0.811262 -0.141017 -0.5278470000000001
3660 -2.50669044 8.594079930000001 3.31605468 -0.094301 -0.917811 -0.830559
3680 -2.7593666100000003 6.6111552 2.7824103 0.027408 -1.336194 -1.26928
3700 -3.07220751 4.74887385 1.78534152 0.544474 -1.200503 -1.285071
3720 -2.56746339 4.24067661 -2.8602526500000005 1.480613 -0.440575 -0.8618309999999999
3740 -0.83870595 9.011112840000001 -4.12123005 1.825058 0.387682 -0.230235
3760 -4.50398682 21.24127908 -2.86474563 1.334786 0.7465430000000001 0.494408
3780 -9.32590593 29.68896438 -2.33993025 0.6041920000000001 0.7176680000000001 0.888857
3800 -4.68360792 29.35665063 -3.16246932 0.20659 0.64732 0.976968
3820 1.36366848 22.40960103 -4.896014040000001 0.06903 0.350887 0.901612
3840 2.58437583 13.005558450000002 -1.4379105600000002 -0.151345 -0.117734 0.8013279999999999
3860 4.008817260000001 8.95857048 2.9924227800000005 -0.495745 -0.327495 0.542818
3880 2.8340599500000003 5.698354320000001 5.07609621 -0.559865 -0.396441 0.258312
3900 1.88921961 4.71849228 4.277954610000001 -0.289594 -0.573196 0.004053
3920 -0.82912158 4.7304604800000005 2.8428889500000003 0.059505 -0.71532 -0.187743
3940 -2.46013218 3.5609417100000003 1.7774052300000003 0.326412 -0.7733760000000001 -0.286217
3960 -3.4649901000000005 3.62441241 0.22393287 0.569475 -0.649189 -0.118036
3980 -4.36297788 5.49342342 -1.05799869 0.328889 -0.648832 0.000992
4000 -3.9814179300000005 6.633453330000001 -1.14467004 0.08831 -0.579612 -0.050983
4020 -2.80007811 7.97316579 -0.74081196 -0.000381 -0.368398 -0.046532
4040 -1.9077801300000001 10.217752650000001 -0.5095412100000001 0.290285 -0.375352 -0.157725
4060 -1.53535329 10.6195212 0.3589577100000001 0.707852 -0.379725 -0.491292
4080 -1.50841503 10.60335432 1.18748088 0.899955 -0.658319 -0.784423
4100 -1.7554014000000002 10.563084270000001 1.66753323 0.409741 -1.482207 -0.784655
4120 -2.04594417 10.92592674 2.35954044 -0.253048 -2.179956 -0.478606
4140 -2.59440165 10.63822887 2.9410870500000006 -0.5237189999999999 -2.408751 -0.303947
4160 -3.2886651600000003 9.65162736 3.5518184100000005 -0.845892 -2.180554 -0.082163
4180 -3.73189077 9.179658450000002 2.38393791 -0.970046 -2.275965 -0.090385
4200 -4.51326708 11.487716010000002 1.6829545500000003 -0.6441359999999999 -2.323326 -0.250418
4220 -4.52883555 12.922928820000001 1.09138212 -0.094315 -2.399064 -0.1685
4240 -4.82371434 13.36780251 -1.63729881 0.577909 -2.609062 0.08215599999999999
4260 -3.43131237 14.160254310000001 -4.412675340000002 0.90997 -2.724464 0.148716
4280 -2.24069229 12.358902870000001 -5.41379565 0.785651 -2.884635 0.351015
4300 -0.32677110000000004 9.45029673 -5.72663655 0.16613499999999998 -3.20344 0.427213
4320 0.82493271 8.04307185 -3.4447913100000007 -0.412759 -3.59128 0.416189
4340 -0.43050204000000003 8.7343335 -1.7747074800000002 -0.304754 -3.758962 0.431045
4360 0.31734369000000007 10.99762803 -1.64911986 0.205638 -3.626675 0.472897
4380 0.31299785999999996 12.817549800000002 -1.6566048900000003 0.615078 -3.264609 0.41654
4400 -1.98337599 13.386667140000002 -1.54388799 0.6563899999999999 -2.734843 0.299714
4420 -4.6300257 11.49504408 -1.16337771 0.329673 -2.211183 0.164301
4440 -4.848563070000001 9.069345 -1.75449888 -0.026528 -2.000912 0.10386
4460 -4.6645961400000004 8.03843172 -1.99609956 -0.142998 -2.13011 0.013481
4480 -4.820280840000001 8.550670680000001 -3.65719743 -0.115245 -2.27449 -0.134623
4500 -3.7473120900000003 8.68867776 -4.58496837 -0.162223 -2.1938310000000003 -0.284605
4520 -1.54209276 9.49445154 -3.8785797000000004 -0.262904 -2.013571 -0.25456100000000004
4540 -0.7481400300000001 9.824822910000002 -2.17377828 -0.403687 -1.911184 -0.16274
4560 -0.13472073 9.23968584 -0.80367444 -0.539828 -1.844554 -0.190482
4580 1.00141461 7.517667870000001 -0.18650772000000002 -0.614008 -1.592499 -0.288532
4600 1.5314685300000002 6.56026092 0.37946061000000003 -0.561214 -1.113927 -0.399871
4620 1.16143533 6.96711105 0.94468338 -0.519774 -1.171516 -0.419804
4640 0.51972399 7.632180000000001 1.07057511 -0.469042 -1.178594 -0.5583100000000001
4660 0.28396026 8.129743200000002 0.87417891 -0.885342 -0.927051 -0.498515
4680 0.44577621000000006 8.500070700000002 0.7714976400000001 -0.459774 -0.6124569999999999 -0.15304600000000002
4700 0.25193061 8.58793887 0.7394581800000001 0.8281120000000001 -0.571797 0.8151609999999999
4720 -0.82897443 8.6822424 0.22438413000000001 0.8656659999999999 -0.888868 0.687643
4740 -1.83518613 8.92908162 -0.39756987000000005 -0.126969 -1.265752 0.160968
4760 -2.31344325 9.50733207 0.32318064 -1.065231 -1.7564939999999998 -0.710216
4780 -3.12594669 10.49886801 2.05522443 -0.8665450000000001 -2.291712 -1.302074
4800 -4.242923100000001 11.267069489999999 3.31575057 0.326083 -2.840067 -1.33577
4820 -4.3562384100000004 10.961703810000001 2.26164645 1.180348 -2.976782 -0.921567
4840 -3.3325158600000004 10.957367790000001 0.98704296 1.486117 -2.472235 -0.555814
4860 -3.82529178 11.0766672 1.07910981 1.334678 -1.662221 0.006111999999999999
4880 -1.7330934600000003 13.261226670000001 0.31210515000000005 0.795769 -1.250918 0.446201
4900 -1.9251438300000001 15.58364607 0.9122024700000001 0.205736 -1.262701 0.441026
4920 -0.37991187 15.49367856 -1.9053864900000002 -0.035706 -1.183856 0.114499
4940 4.57389288 12.34842579 -4.24411992 -0.081596 -1.281539 -0.458263
4960 4.574785590000001 11.02606722 -3.32997507 -0.102056 -1.48652 -0.8608629999999999
4980 3.2159142000000003 10.020915 -1.33806438 0.098262 -1.414344 -0.968515
5000 0.5462109900000001 8.841811860000002 -0.28051695 0.346819 -1.108711 -0.892395
5020 -2.59559847 7.95969666 -1.2301445700000002 0.360024 -0.792219 -0.6641090000000001
5040 -5.0960007 8.647220700000002 -1.8851778900000002 0.089142 -0.4824310000000001 -0.377978
5060 -3.9441497400000003 10.17344088 -1.53910071 -0.234434 -0.32031 -0.147573
5080 -2.47240449 9.869272020000002 -1.78458615 -0.409735 -0.32105700000000004 -0.07509
5100 0.01751085 10.1225466 -1.8492536700000002 -0.371678 -0.388346 -0.064055
5120 2.35879488 10.75169133 -0.82507986 -0.32334 -0.5196770000000001 -0.030435000000000007
5140 3.33401679 10.527611310000001 0.87298209 -0.346545 -0.668851 -0.001564
5160 3.07684764 9.59159997 1.8056972700000002 -0.452744 -0.7517560000000001 0.043734
5180 1.29151593 8.36699805 1.5602020200000002 -0.537084 -0.6698149999999999 0.13811199999999998
5200 -0.9636951600000001 7.73262459 0.86879322 -0.50778 -0.454089 0.243794
5220 -2.19743019 7.59011472 -0.15373251000000002 -0.396208 -0.332972 0.228395
5240 -2.5563879 7.22921463 -0.37976472000000006 -0.303787 -0.295561 0.116829
5260 -2.70802107 7.2531706499999995 0.16870257000000002 -0.189158 -0.314637 -0.0073269999999999984
5280 -2.51506818 7.361688870000001 0.8782206300000001 0.041936 -0.27560500000000004 -0.111517
5300 -1.7024077800000001 7.268582159999999 1.3542312600000002 0.425081 -0.160217 -0.261745
5320 -0.8870594400000001 7.06949802 1.3736943 0.8407899999999999 -0.047518 -0.300646
5340 -0.96878655 6.76937088 0.9392976900000001 0.762857 0.222202 -0.018457
5360 -1.51514469 6.705154620000001 0.7394581800000001 0.664641 -0.028861 -0.018821
5380 -1.8526969800000002 6.892712010000001 0.9891423 0.6433300000000001 0.095266 -0.13877
5400 -2.0704986 7.32755988 1.46261214 -0.440188 -0.242112 -0.343527
5420 -2.44231722 7.84668546 1.71063837 -1.444825 -0.539725 -0.969732
5440 -2.8475290800000006 8.49363534 1.9513463400000002 -1.65978 -0.5493100000000001 -1.582244
5460 -2.9385364500000004 9.06095745 2.32497 -1.029121 -0.254305 -1.3111620000000002
5480 -2.97117432 9.430088130000001 2.21285151 0.4702 -0.5231779999999999 -1.173226
5500 -2.7354105900000003 9.26767377 1.08883152 1.418457 -0.228405 -0.586935
5520 -2.0142088200000003 8.36101395 -0.76984956 1.329018 0.101195 0.181137
5540 -1.17595413 6.4674485100000005 -2.8584574200000006 0.409067 0.07888200000000001 0.697101
5560 0.31225230000000004 4.20475239 -4.81368852 -0.355712 -0.210812 1.077758
5580 2.28574962 4.49874828 -3.18088269 -0.452825 -0.6134609999999999 1.155576
5600 2.3447273400000004 7.5579379200000005 -0.46538640000000003 0.007403 -0.982762 0.936005
5620 4.7264187600000005 12.064014270000001 3.2630610600000005 0.761293 -1.302025 0.469526
5640 3.30766713 20.51543718 5.01157584 1.108435 -1.480277 -0.27557600000000004
5660 1.57531923 34.99647849 3.60749997 1.083134 -1.25425 -0.832586
5680 -7.7968408500000015 27.49257405 -1.54613448 1.031281 -0.793543 -1.180711
5700 -9.269773110000001 12.58627905 -1.78697979 0.921871 -0.476665 -1.2085860000000002
5720 -7.98693903 5.585637419999999 -2.41478055 0.550666 -0.428409 -0.700631
5740 -7.28654427 3.31007058 -0.38979054 0.100201 -0.26875 -0.011774
5760 -4.309091550000001 3.86001918 1.9725948000000002 -0.035223000000000004 0.143453 0.386266
5780 -2.96473896 6.75695142 3.8441564100000005 -0.022006 0.588228 0.502225
5800 -1.6896842100000002 8.82190737 4.47838272 -0.128364 0.760666 0.362392
5820 0.51867432 8.94135393 3.80763378 -0.098941 0.761115 0.224797
5840 1.66109787 7.6055360400000005 2.31942735 0.208464 0.837626 0.27171100000000004
5860 0.5926221000000002 6.47029341 0.65039319 0.183419 0.383369 0.405646
5880 -1.3132156500000003 5.930517780000001 0.26105391000000006 -0.194808 -0.178872 0.677189
5900 -2.44995921 5.911358850000001 0.6483036600000001 -0.67492 0.398909 1.258481
5920 -2.14234704 5.557796639999999 0.70668297 -2.538805 -1.065277 1.932068
5940 -0.67464351 4.4971002 0.76535658 -0.5219020000000001 0.295538 0.337807
5960 0.92403333 4.399804620000001 0.8491830300000001 0.464379 0.498045 -0.2762
5980 1.1322407700000001 6.6547116000000015 1.30109049 0.220527 0.720839 -0.634975
6000 -0.68317821 9.93005478 1.87424955 -0.277517 0.25813 -0.907053
6020 -1.14961428 11.403585450000003 1.59568479 -0.268798 -0.266823 -1.237468
6040 -0.06811083000000001 10.07195643 0.2168991 -3.9e-05 -0.820408 -1.293634
6060 1.52353224 8.49887388 -1.2593293200000002 0.473154 -0.623034 -0.979729
6080 2.09714256 7.7278275 -2.92970745 0.774414 0.144332 -0.5342279999999999
6100 0.2803698 8.11028016 -2.68841088 0.690542 0.811192 -0.194905
6120 -2.27661651 8.87878575 -0.22588506000000003 0.27187100000000003 1.041421 0.13516
6140 -2.9900291400000003 12.25606464 -3.1069349100000005 -0.145533 1.147795 0.534828
6160 -9.07727148 21.747376980000002 -2.87342748 -0.458557 1.087073 0.806184
6180 -13.9658103 29.74075137 -1.2364327800000001 -0.703805 0.679778 0.8423809999999999
6200 -1.5832555200000002 19.96607718 0.51628068 -0.678601 0.102256 0.590129
6220 0.7261362 12.931757820000001 3.4784690400000002 -0.433891 -0.08816399999999999 0.312208
6240 3.68862867 10.342594710000002 4.866083730000001 0.059548 0.192719 0.238382
6260 3.9639070800000002 7.81509726 5.029694909999999 0.6087199999999999 0.434488 0.30706999999999995
6280 2.41567326 5.18731218 3.5091547199999997 0.659443 0.554722 0.298725
6300 -0.31299785999999996 3.7697573699999998 1.8959590800000001 0.107559 0.397218 0.205341
6320 -2.19623337 2.7485854200000004 1.0645910100000002 -0.433777 0.040101 -0.061834
6340 -3.1959999000000003 3.0135339000000005 -0.09968922 -0.6800930000000001 -0.385446 -0.5212760000000001
6360 -4.133806470000001 5.51333772 -1.125207 -1.299542 -0.33646 -1.044821
6380 -3.7562882400000004 7.663611240000001 -1.32639048 -0.581609 -0.436748 -1.362281
6400 -2.76864687 8.40188241 -1.4468867100000002 -0.338479 -0.079082 -0.974345
6420 -1.25154999 7.94667879 -1.0343467800000004 0.061104999999999986 -0.142452 -0.924471
6440 -0.40625172 7.24088853 0.72733302 0.553118 0.131967 -0.447095
6460 -1.1752085700000001 6.455774610000001 1.9562807700000002 0.769658 0.571497 0.004644
6480 -2.73136887 6.46520202 1.00815408 0.562596 0.539466 0.467915
6500 -3.34733877 6.56235045 -1.46709531 -0.128202 -0.037581 0.7169979999999999
6520 -1.5826571100000002 5.88605886 -3.77455446 -0.698534 -0.639641 0.7234
6540 1.0942270200000002 5.230123020000001 -2.43334107 -0.5243869999999999 -0.777957 0.5303770000000001
6560 2.20581774 6.48975645 1.29510639 0.267532 -0.954456 0.29258
6580 2.33425026 10.22748417 3.9707937 1.069556 -1.205871 -0.13305699999999998
6600 4.906942379999999 21.044735730000003 3.3892569000000003 1.297768 -1.274877 -0.655872
6620 -1.9758909600000003 34.94258235 5.94802863 1.056817 -0.844513 -0.977505
6640 -7.44986115 25.898988600000003 4.135896 0.600458 -0.081105 -0.7498670000000001
6660 -6.52477815 13.826743740000001 -0.17468667000000002 0.183576 0.31751 -0.173245
6680 -6.3797373 6.4692437400000005 -1.9736444700000002 0.001573 0.243525 0.370372
6700 -4.68630567 3.4587117000000003 -0.83780343 -0.202356 0.005589 0.641649
6720 -2.60862615 2.58557265 1.99504989 -0.393494 -0.103069 0.807096
6740 -2.1644980200000004 4.50982377 4.48796709 -0.333222 -0.373147 0.895457
6760 -1.9850240700000001 6.37644114 5.288051070000001 -0.604367 -1.353336 0.8980239999999999
6780 -0.00523854 5.6715534000000005 4.31313327 -0.8053140000000001 -0.90365 0.239087
6800 0.7927559100000001 4.132011240000001 2.2432330800000004 0.098172 0.626183 -0.567343
6820 0.6836294700000001 4.45458366 0.6209043299999999 0.606645 1.271977 -0.534708
6840 -0.7493368500000002 6.1543035 -0.36508896 0.252444 1.088708 -0.483536
6860 -2.3751089100000002 8.93342745 -1.01968083 -0.37586 0.440795 -0.681511
6880 -2.3682222900000003 11.255994000000001 -0.604296 -0.576497 -0.107945 -0.7430979999999999
6900 -0.48543804 10.98356049 0.13217994000000002 -0.306178 -0.186826 -0.432393
6920 1.8076396500000003 9.071140230000001 0.03951468 0.207093 0.12978 -0.13331600000000002
6940 2.95156413 7.715702340000001 -0.4801995 0.565029 0.457919 0.080272
6960 1.3127742 6.763681080000001 -0.8313680700000001 0.576052 0.7574 0.302155
6980 -1.2379239 7.741453590000001 -2.1315658500000003 0.206372 1.019211 0.6837979999999999
7000 -4.7196891 11.51211348 -3.85613442 -0.478317 1.1068049999999998 0.950231
7020 -8.91276759 18.78249087 -2.83569822 -0.742579 0.908654 0.915524
7040 -7.75791477 25.7193675 1.14676938 -0.398954 0.495869 0.482619
7060 -1.00920375 20.809423260000003 2.26164645 0.036815 0.214677 0.095054
7080 0.4366431 13.209282720000003 2.56746339 0.487369 -0.083567 -0.037081
7100 3.3024285900000003 7.900571790000001 3.0671259300000004 0.707534 -0.27273800000000004 -0.073757
7120 3.3178499100000005 5.06172456 3.6848910600000004 0.434098 -0.186234 -0.156962
7140 0.6427610100000001 4.75171875 3.76826625 0.043461 -0.194675 -0.371188
7160 -2.82777174 5.13237618 2.60099397 -0.558149 -0.326169 -0.532251
7180 -4.9255029 5.15153511 0.6768900000000001 -1.109233 -0.260151 -0.579982
7200 -5.11546374 6.15879648 -0.62809506 -1.108533 -0.005949 -0.480958
7220 -4.69992195 7.608979350000001 -1.06608213 -0.325094 -0.3308 -0.641712
7240 -4.14907083 9.258099210000001 -0.25147935000000005 0.101483 -0.126606 -0.394371
7260 -3.16322469 10.286756190000002 1.1618865900000004 0.511679 -0.113673 -0.25479
7280 -1.26547038 9.954903510000001 2.28125664 0.7972 -0.101233 -0.15026199999999998
7300 -0.09056592000000001 9.16918137 1.6060147200000001 0.715431 0.110531 -0.022918
7320 -1.2524427 7.78875741 -0.53064252 0.361546 0.239477 0.27141
7340 -3.04945812 6.355182870000001 -2.43903087 0.103855 0.098858 0.495186
7360 -1.8449176500000002 6.192327060000001 -4.0540217400000005 -0.017858000000000002 -0.348323 0.54191
7380 -0.29818476 6.584952690000001 -1.8588380400000002 0.006872 -0.5275479999999999 0.319054
7400 0.21570228000000002 8.205790319999998 0.95396364 0.189097 -0.615482 0.040566000000000005
7420 0.8282288700000001 10.96664805 3.44912733 0.59565 -0.661504 -0.257774
7440 1.5877485 15.877033740000002 3.2346218700000002 1.081259 -0.439381 -0.548428
7460 1.33447392 23.142771000000003 1.8432695700000001 1.233158 -0.161676 -0.596861
7480 -4.52224323 21.418359390000003 2.7930443400000002 0.746645 0.076606 -0.35701
7500 -5.056181909999999 13.628709270000002 2.52210195 0.103979 0.325805 0.21822600000000006
7520 -5.137761870000001 8.37732798 1.33103061 -0.170681 0.4749890000000001 0.710703
7540 -5.126843340000001 5.166210870000001 0.54142371 -0.323596 -0.143982 1.120625
7560 -3.29165721 3.7312923600000003 1.04034069 -0.818893 -0.376758 1.419771
7580 -1.6697797200000002 4.30445142 2.19862701 -1.422665 -0.480685 1.292841
7600 -1.39719906 7.112612970000001 2.8101039300000004 -1.33268 -0.239198 0.499471
7620 -1.00949805 8.50561335 3.36425121 -0.285925 0.6594409999999999 -0.293399
7640 -0.5417278200000001 7.48339173 2.7780742800000002 0.14209000000000002 0.730166 -0.502007
7660 -0.40670298000000005 6.07451877 1.34360703 0.071658 0.644454 -0.584643
7680 -0.47151765 6.15729555 -0.14205861 0.092276 0.212973 -0.857411
7700 -0.6634208699999999 7.2691805700000005 -1.1060480700000002 0.394163 -0.14874600000000002 -0.971275
7720 -0.3305087100000001 8.7716115 -0.7511418900000002 0.570001 -0.200353 -0.739244
7740 0.43439661 9.89143281 -0.39412656000000007 0.469167 -0.186588 -0.36502
7760 0.9033734700000001 9.05766129 -0.60833772 0.107146 0.006402 -0.0954
7780 1.03195314 7.52785065 -3.2594706 -0.407836 0.338452 0.16335999999999998
7800 -0.47691315 7.253916210000001 -3.69461277 -0.951634 0.763962 0.517939
7820 -2.38888215 9.90759969 -3.11981544 -1.272402 0.832354 0.742074
7840 -3.9796226999999997 16.140785400000002 -2.86175358 -0.963329 0.5763510000000001 0.5586899999999999
7860 -4.94362197 23.994798929999998 1.6850440800000002 -0.344957 0.609682 0.21259
7880 -3.3066272700000003 23.45831946 3.71003409 0.162083 0.6961149999999999 0.003445
7900 -2.05567569 14.213090970000001 2.01436578 0.575695 0.58403 -0.030910000000000007
7920 -0.06765957 9.13715172 2.22497667 0.434889 0.075476 -0.070766
7940 0.5300441100000001 6.7065084 2.40445062 -0.108228 -0.412776 -0.31001100000000004
7960 -1.23059583 5.33849409 2.07827793 -0.754283 -0.8407629999999999 -0.61201
7980 -2.6200057500000002 4.71983625 0.73137474 -1.238397 -0.672387 -0.740589
8000 -3.03254568 4.85994267 0.18695898 -0.951508 -0.486957 -1.006946
8020 -3.12235623 6.153557940000001 0.33574725 0.072687 -0.202046 -0.949951
8040 -2.86429437 8.06193648 0.06675705 0.536003 0.373786 -0.43257
8060 -2.6786793600000003 9.13325715 -0.18486945000000002 0.8225549999999999 0.369323 -0.098345
8080 -2.2356009 9.708662700000001 -0.05972328000000001 0.626171 0.021085 0.044939
8100 -1.3407621299999999 9.67317993 0.7982887500000001 0.181875 -0.213225 0.151095
8120 -0.47450970000000003 8.116421220000001 0.36135135 -0.352742 -0.497717 0.363506
8140 -0.48483963 6.12466749 -1.4260797 -0.651461 -0.613272 0.482276
8160 -0.6041390400000001 4.10341509 -2.7511262100000002 -0.219403 -0.359208 0.50847
8180 0.56402595 3.17489859 -1.7994090600000001 0.770846 0.022437 0.380302
8200 0.85322475 4.69558593 0.36913068000000004 1.379751 -0.20699 0.217138
8220 -0.34743096000000007 7.96373838 2.75487363 1.231179 -0.480458 0.002806
8240 -0.98959356 13.485012390000001 2.95994187 0.717025 -0.490375 -0.267828
8260 -1.8489593700000002 22.816598310000003 4.25849157 0.286168 -0.295737 -0.350135
8280 -6.202352879999999 28.433823930000003 5.10228891 0.147821 -0.09972 -0.231712
8300 -4.6622025 20.147356170000002 2.4881299200000004 0.229438 0.131879 0.121074
8320 -3.90268287 10.778188140000001 0.40041477000000003 0.24457 0.572318 0.520131
8340 -2.9692221300000003 5.763463290000001 -0.83540979 -0.041178 0.430561 1.052427
8360 -2.35295793 4.25819727 0.9648919800000001 -0.736917 0.038496 1.399515
8380 -2.31942735 4.55292891 3.66408405 -1.442761 -0.304441 1.1920620000000002
8400 -3.3465932100000004 6.6961784699999995 5.07878415 -1.526415 -0.296379 0.5815130000000001
8420 -3.2474925900000002 7.374716550000001 4.712802480000001 -0.504962 0.15721400000000002 -0.24942
8440 -1.1148770700000001 6.25578795 2.9045644200000003 0.227964 0.801531 -0.308151
8460 0.13187583 5.85013464 0.7406550000000001 0.096577 0.827309 -0.247145
8480 -0.24249339000000003 7.162457580000001 -0.16256151000000002 -0.241778 0.398751 -0.407056
8500 -1.3013946 8.96111127 -0.31449879 -0.302704 0.166501 -0.615487
8520 -1.6681316400000001 10.236764430000001 0.34772526 -0.05062 0.146903 -0.462014
8540 -0.77104638 9.73051938 1.0343467800000004 0.294775 0.296119 -0.248284
8560 1.16921466 7.52979303 -0.028439190000000003 0.714488 0.593183 -0.042771
8580 2.11300533 6.29471403 -1.6118516699999998 0.637916 0.49192 0.039077
8600 1.65256317 7.685320770000001 -2.67598161 0.197894 0.603379 0.252709
8620 -0.5291514 10.49003901 -2.14339671 -0.220896 0.780451 0.556137
8640 -3.52637127 14.180158800000001 -1.96182342 -0.377501 0.7102189999999999 0.672638
8660 -5.159618550000001 18.67995675 -2.75277429 -0.3881 0.358174 0.541623
8680 -7.11350568 22.40196885 -0.56492847 -0.231602 0.042214 0.299567
8700 -2.5533860400000004 19.089053370000002 2.22871428 0.028722 -0.081763 0.175494
8720 -0.03262806 11.8893276 3.3859607400000002 0.293155 -0.13587 0.157114
8740 1.5486752700000002 8.20099323 4.22361702 0.463426 -0.228092 0.161626
8760 1.6703781300000002 6.360568560000001 4.66954038 0.473795 -0.128771 0.09
8780 0.12558762 5.433552990000001 3.70000827 0.541136 0.305902 0.021548
8800 -2.24518527 6.137391060000001 2.1999709800000002 0.5843109999999999 0.4981310000000001 -0.135426
8820 -3.0344880600000006 5.21560422 0.7764320700000001 0.455303 0.304491 -0.349723
8840 -3.86436501 5.88366522 -0.33081282000000006 -0.029182 -0.387609 -0.5445
8860 -4.21972245 8.655147180000002 0.07484049000000001 -0.561311 -0.7980520000000001 -0.538077
8880 -3.6106391700000002 10.409351759999998 0.47346984000000003 -1.186945 -0.711499 -0.594901
8900 -2.4189694200000003 10.225983240000001 0.42736284 -0.8961290000000001 -0.580497 -0.8397969999999999
8920 -1.1762582400000001 9.071738640000001 1.3308834600000001 -0.509249 -0.221566 -0.626047
8940 -0.40521186000000003 8.11013301 2.1775257 0.082445 0.271376 -0.270032
8960 -0.93764961 7.216039800000001 2.01466008 0.7264729999999999 0.232841 0.016527
8980 -1.99071387 6.396345629999999 1.40782329 1.162381 0.085678 0.209903
9000 -3.17040561 6.1022124 0.68272695 1.054343 0.010579 0.435708
9020 -3.59462925 6.84810594 -0.18112203000000002 0.298375 -0.180335 0.615475
9040 -3.0130826400000004 8.2222515 -1.4331232800000002 -0.483596 -0.625093 0.628742
9060 -0.25117524 9.188046 -2.3999576400000002 -0.629627 -0.7051029999999999 0.517798
9080 1.3500423900000003 10.10742939 -1.96211772 -0.14668399999999998 -0.538618 0.290222
9100 1.79282655 11.14717167 -0.43080615000000005 0.606065 -0.560971 -0.099734
9120 0.8184973500000001 12.64660074 0.9952833600000001 1.014675 -0.620862 -0.394837
9140 1.36097073 15.27139377 0.8840575800000001 1.038215 -0.5881 -0.6158359999999999
9160 0.43470072 19.762657020000002 3.1355310600000004 0.809046 -0.492686 -0.568421
9180 -6.13933344 21.700220310000002 4.48766298 0.293677 -0.418694 -0.244171
9200 -6.69183264 15.443382690000002 3.16292058 -0.380783 -0.25832 0.194224
9220 -4.917723570000001 9.13265874 0.74215593 -0.7853760000000001 0.158674 0.426941
9240 -2.8258195500000003 5.2721883 -1.5971759099999998 -1.001944 0.41832 0.684673
9260 -1.7600415300000003 4.00387302 -1.03210029 -0.919491 0.591356 1.030063
9280 -0.9650391300000001 4.3499502 1.45362618 -0.325771 0.184791 1.22167
9300 -0.81610371 5.49941733 3.67260894 0.016704 -0.4401560000000001 0.8328260000000001
9320 -0.8746301700000001 7.447016250000001 4.72088592 -0.390509 -0.29977600000000004 0.180322
9340 -0.50459697 7.922271510000001 4.33558836 -1.561704 -0.5427 -0.125581
9360 -0.09145863 7.44551532 2.05433172 -1.155911 -0.089992 -0.468362
9380 -0.38051028000000003 6.4991838600000005 0.2137599 -0.395819 0.262052 -0.45389
9400 -1.0398894300000001 6.67941318 -0.6664129200000001 -0.354154 0.439145 -0.288252
9420 -1.5452319600000002 7.73591094 -1.03030506 -0.032225 0.362454 -0.302996
9440 -1.2832853400000002 8.92668798 -0.28425456 0.443785 -0.004978 -0.471184
9460 -0.56582118 9.66106458 1.13673375 0.712805 -0.049158 -0.31222
9480 -0.00958437 9.80057259 2.20821138 0.7142390000000001 0.06373999999999999 -0.042094
9500 0.23276187000000004 10.13423031 2.09728971 0.475135 0.015765 0.174214
9520 0.37422207 9.61704711 0.47077209 0.093563 -0.104374 0.445168
9540 0.03922038 8.95467591 -1.9811295 -0.206568 -0.16505999999999998 0.696318
9560 -1.59807843 9.99336852 -2.6571267900000004 -0.384911 -0.071226 0.8284790000000001
9580 -3.3539212800000002 12.33630063 -1.82351223 -0.240515 0.036821 0.8560549999999999
9600 -3.2657588100000003 15.29249508 -0.78556518 0.209729 -0.109023 0.707699
9620 -3.88202301 20.23686261 -0.04984461 0.24958200000000005 -0.748391 0.457765
9640 -4.88284902 23.449637610000003 1.86647022 0.027239 -1.470329 0.304381
9660 -1.65016953 14.32595502 2.5815309300000004 0.252911 -1.745305 0.142872
9680 -0.75398679 8.693622 4.33707948 0.664497 -1.799041 -0.095602
9700 -0.11675862 5.789214540000001 4.79153754 0.913797 -1.607336 -0.300274
9720 -0.32377905 3.58729137 4.1891839200000005 0.8716659999999999 -1.186655 -0.238082
9740 -1.55780838 3.65899266 2.84243769 0.401566 -1.030713 0.066083
9760 -2.95276095 4.6994805 1.162485 0.026642 -1.218668 -0.024958
9780 -4.11479469 5.39777592 0.18441819 -0.15499300000000002 -1.703151 -0.453963
9800 -4.978496520000001 6.89436009 0.25925868 -0.7683479999999999 -2.30782 -1.088791
9820 -5.355563490000001 8.24455944 1.1518509600000002 -1.537016 -3.143797 -1.81948
9840 -4.881799350000001 9.02563164 2.4665675400000002 -1.495085 -3.002432 -1.510652
9860 -3.5860945500000003 9.08850393 2.97161577 -0.723969 -2.830263 -1.279024
9880 -1.8809890200000001 8.17420212 1.53071316 -0.048529 -3.048747 -1.040085
9900 -2.07153846 7.38818568 1.1903257800000004 0.55065 -2.710395 -0.127276
9920 -4.39395786 7.60822398 1.4792204699999998 0.965729 -2.151465 0.6621859999999999
9940 -6.074371620000001 7.71421122 1.33222743 0.971138 -2.087648 0.948426
9960 -6.72895368 8.27194896 0.45654759 0.6310640000000001 -2.622882 0.827095
9980 -5.24164977 8.47597734 -0.9113097600000001 0.240523 -3.123325 0.573976
10000 -3.05036064 8.24904261 -2.8303125300000005 0.240022 -3.441119 0.127863
10020 0.7279314299999999 11.01259809 -5.18207364 0.432126 -3.630697 -0.314932
10040 3.98591091 13.517493300000002 -5.23102554 0.495524 -3.476778 -0.499489
10060 5.692664520000001 15.049854540000002 -2.4004089 0.571879 -2.739322 -0.370646
10080 5.928575400000001 17.40221406 -1.2006557100000002 0.481037 -1.948917 -0.018712
10100 2.5824334500000004 21.053123280000005 1.36022517 -0.133157 -1.7959330000000002 -0.181295
10120 -3.70704204 21.950208540000002 5.56647849 -1.109358 -1.60273 -0.23109
10140 -9.425300850000001 17.81176194 2.38139712 -1.27511 -1.084946 -0.102588
10160 -9.86433759 12.31234461 -1.77126417 -0.5002810000000001 -0.792656 -0.342173
10180 -9.34341678 8.14531167 -2.059119 -0.111318 -0.810543 -0.734676
10200 -7.15706208 6.9900174 -2.04819066 -0.620051 -0.8946719999999999 -1.0991799999999998
10220 -2.60892045 7.65971667 -1.82530746 -1.081659 -1.131369 -1.180082
10240 0.60159825 8.30981556 -1.22684841 -1.204501 -1.460831 -1.001056
10260 1.9842785100000002 8.38151685 -0.21211182 0.301228 -1.28505 -0.17891500000000002
10280 2.6541347400000004 8.406218430000001 0.18561501000000002 1.687531 -0.485145 0.778324
10300 2.16734292 7.79548707 -0.22603221 1.117517 -0.687033 0.877151
10320 1.51425198 6.173609580000001 -1.3995927 -0.120755 -1.617975 0.325969
10340 1.4949459 4.27585527 -1.34315577 -0.214897 -2.230076 -0.232584
10360 2.28619107 4.239479790000001 -0.27033417000000004 0.7056359999999999 -2.394934 -0.82842
10380 2.4768974700000004 7.27292799 1.7431290900000003 1.482612 -2.538605 -1.270394
10400 1.10336013 10.95137388 4.08769947 1.557397 -2.5387720000000003 -1.293372
10420 -0.43245423 12.860654940000002 5.23940328 1.356811 -2.353362 -0.866654
10440 -0.8610138900000001 12.646002330000002 3.6576486900000003 1.054361 -1.947472 -0.343721
10460 -1.3078299600000003 10.889551260000001 1.8068940900000001 0.7693989999999999 -1.601749 0.025587
10480 -2.35879488 8.27464671 -0.23725485000000002 0.603654 -1.396845 0.07650900000000001
10500 -4.02932016 6.822217350000001 -0.26225073 0.536405 -1.345823 -0.103487
10520 -3.74281911 10.49931927 1.58684598 0.567083 -1.261392 -0.198453
10540 -6.35173956 15.244445700000002 2.5285373100000004 0.749212 -1.0555139999999998 -0.160057
10560 -5.85821808 15.430963230000001 -0.93451041 0.743321 -1.0910030000000002 -0.07139
10580 -1.69283322 13.349840400000001 -5.466181050000001 0.415358 -1.102978 0.010724
10600 0.11016630000000001 13.624520400000002 -6.659204580000001 0.037469 -1.062597 0.096695
10620 -0.23411565 12.92053518 -4.14802116 -0.079819 -1.005894 0.137464
10640 -1.7431290900000003 10.835066520000002 -0.6932040300000001 0.096719 -0.887337 -0.093259
10660 -3.0707163900000003 9.833053500000002 1.3910580000000001 0.263887 -0.822541 -0.191519
10680 -2.47330701 9.36033903 1.09377576 0.344192 -0.890358 -0.085117
10700 -0.44786574 8.88372999 0.025751250000000003 0.348275 -1.140824 -0.056994
10720 0.78601644 8.406522540000001 0.36479466 0.261002 -1.332266 -0.058427
10740 0.91624419 8.333624430000002 0.61446897 0.326902 -1.277542 0.05199
10760 0.66970908 8.248444200000002 0.57825045 0.557265 -1.087546 0.024514
10780 -0.15657741000000003 8.03993265 0.48005235 0.755249 -1.130131 -0.15350999999999998
10800 -1.4130618300000002 7.693100100000001 0.22842585 0.662455 -1.29424 -0.324863
10820 -2.17078623 7.81360614 -0.00628821 0.538587 -1.33964 -0.585248
10840 -2.60623251 8.040531060000001 -0.3526695 0.493116 -1.298911 -0.8740379999999999
10860 -2.7250806600000006 8.234229509999999 -0.47002653 0.539272 -1.479083 -0.878826
10880 -2.2617936 8.11028016 -0.20522520000000002 0.441737 -1.860888 -0.685669
10900 -1.5971759099999998 8.05295052 0.95142285 0.104744 -2.056718 -0.438877
10920 -1.2175681500000002 8.89375581 2.08126998 -0.371039 -2.028496 -0.424076
10940 -1.30873248 10.11565998 2.2382986500000004 -1.056427 -1.608588 -0.14418699999999998
10960 -1.9044937800000001 9.22067406 1.2693649500000002 -1.50432 -1.083888 0.097703
10980 -2.85561252 8.32808178 0.06271533 -1.175959 -0.932568 0.066688
11000 -4.63271364 8.53570062 -0.14550192 -0.399926 -1.1576030000000002 -0.007719
11020 -6.47882811 8.840320740000001 0.42406668000000003 0.413774 -1.273195 -0.044616
11040 -7.0165044000000005 10.381216680000001 0.29264211 0.8626590000000001 -1.304707 -0.012599
11060 -6.0177875400000005 13.19251743 -0.2775249 0.442641 -1.187299 0.028114
11080 -5.09450958 13.863570480000002 -2.7879529499999998 -0.3397 -1.17425 0.107022
11100 -3.7453599000000004 14.32640628 -4.597839090000001 -0.846806 -1.302121 0.289515
11120 -2.44695735 13.573027710000002 -4.59469989 -0.7722140000000001 -1.439221 0.41092
11140 -0.87193242 11.802803400000002 -5.013822330000001 -0.396909 -1.459836 0.445615
11160 1.08853722 9.540558540000001 -5.351973030000001 -0.05974500000000001 -1.341198 0.321768
11180 2.15806266 7.96194315 -4.719090690000001 0.082596 -1.274562 0.051348000000000005
11200 2.4089436 8.39244519 -3.1840317000000002 0.022022 -1.285919 -0.252435
11220 1.96751322 10.51338681 -1.1277576 -0.130581 -1.308873 -0.50664
11240 0.9949792500000001 12.17403342 0.37871505 -0.18712 -1.399917 -0.599854
11260 -0.4249692 13.51928853 0.37855809 -0.031722 -1.457019 -0.574126
11280 -1.8738081000000002 12.43134972 -0.8617594500000001 0.341124 -1.4365370000000002 -0.425202
11300 -3.64507227 10.02465261 -1.35812583 0.630797 -1.30432 -0.174452
11320 -5.08417965 9.29447469 -1.43805771 0.700872 -0.925137 0.044537
11340 -5.238510570000001 9.18819315 -1.87230717 0.580626 -0.510759 0.152125
11360 -3.5566056900000005 9.536968080000001 -1.57337685 0.245489 -0.383563 0.069504
11380 -1.66992687 9.64938087 -0.33844500000000005 -0.112689 -0.4552640000000001 -0.07070599999999999
11400 -0.47960109000000006 9.274560390000001 1.39120515 -0.303979 -0.705279 -0.252252
11420 -0.3094074 8.204142240000001 2.5307838000000005 -0.32666100000000003 -0.9081 -0.394224
11440 -0.36075294 7.03312254 2.49351561 -0.216963 -0.732635 -0.4129100000000001
11460 -0.5768966700000001 6.16447647 1.4864112000000003 -0.018983 -0.06551900000000001 -0.115417
11480 -0.9171467100000001 5.614076610000001 0.79110783 0.071988 0.090606 0.455449
11500 -1.2000573 5.49387468 0.73003077 -0.06454 -0.30845300000000003 1.000868
11520 -1.44764208 5.358261240000001 0.99004482 -0.217471 -0.261564 1.128995
11540 -1.5338621700000001 5.20333191 0.96459768 -0.210877 0.5719890000000001 0.730594
11560 -1.3293825300000004 4.907844900000001 0.8285231700000001 -0.445545 0.149614 0.532944
11580 -1.11144357 5.01052617 0.8358610499999999 -0.159392 0.431893 0.289958
11600 -1.4373121500000001 6.050415600000001 1.18987452 0.445938 0.771468 -0.171994
11620 -1.8800865 7.38100476 1.6205335200000002 0.34392399999999995 0.361687 -0.4371
11640 -1.64957112 8.70904332 1.4498885700000002 0.279105 -0.098113 -0.480761
11660 -1.0958751 9.74264454 0.9128008800000001 0.450683 -0.095696 -0.4347
11680 -0.35341506000000006 10.084827149999999 0.3817071 0.5532600000000001 0.10885999999999997 -0.26333
11700 0.33395202000000007 10.19979054 0.88331202 0.483763 0.02738 -0.073568
11720 -0.019011780000000002 9.91612458 1.8194705100000002 0.29682 -0.213982 -0.025426
11740 -0.51313167 9.08221572 2.21553945 0.139704 -0.273106 -0.022175
11760 -0.5632803900000002 8.457259859999999 0.50669631 0.130064 -0.102285 0.158068
11780 -1.05366267 8.95766796 -2.6794249200000007 0.132718 0.144432 0.5284439999999999
11800 -2.76116184 11.68080624 -2.8009708200000003 -0.094089 0.178612 0.702004
11820 -4.85350731 14.2581483 -1.3082812199999998 -0.451519 -0.145786 0.6176699999999999
11840 -4.15266129 15.185772089999999 -0.90636552 -0.4680760000000001 -0.321397 0.32615500000000003
11860 -3.0708635400000004 16.363070190000002 -0.61118262 -0.025859 0.02745 0.084174
11880 -3.4720336800000005 18.52278093 4.00193064 0.617799 0.382844 -0.105134
11900 -1.5302717100000003 15.56418303 2.8309109400000003 0.97643 0.5121319999999999 -0.247004
11920 -0.09131148000000001 9.990376470000003 2.0378607300000002 0.570325 -0.002609 -0.374163
11940 0.04864779000000001 7.69010805 2.75292144 -0.251612 -0.550693 -0.593915
11960 -0.54112941 5.926476060000001 2.77777017 -0.985189 -0.838356 -0.747153
11980 -1.71572976 4.53841011 1.8196176600000002 -1.517076 -0.390559 -0.647825
12000 -2.8915367400000003 4.521948930000001 0.8521750800000001 -1.038077 -0.150453 -0.635173
12020 -3.7892204100000004 5.82963174 0.5565409200000001 -0.233066 0.143177 -0.703633
12040 -4.14248832 7.537425209999999 0.7879588200000001 0.153594 0.5326810000000001 -0.409807
12060 -4.30849314 8.842115970000002 0.92882061 0.7265159999999999 0.387568 -0.31482
12080 -3.77754651 9.62932923 0.76535658 1.006005 -0.132047 -0.350658
12100 -2.8533660300000006 9.33698142 -0.29398608000000004 0.811283 -0.355623 -0.214999
12120 -1.6808552100000003 8.65635381 -0.182466 0.367131 -0.203601 0.247448
12140 -1.06398279 8.71861788 0.47077209 -0.113631 -0.404003 0.430217
12160 -1.1060480700000002 8.417598029999999 0.29338767 -0.320834 -0.673933 0.447276
12180 -0.8032329899999999 7.02414639 -1.8934084800000002 -0.221031 -0.750152 0.240836
12200 0.5643300600000001 5.7270878100000004 -3.28776264 0.263125 -0.866719 -0.06541799999999999
12220 2.6753832 5.21890038 -1.7088431400000001 0.8040649999999999 -0.953563 -0.394813
12240 2.5247997 6.42284244 1.8851778900000002 1.163357 -0.801405 -0.66169
12260 1.2936054600000002 9.39446802 2.89976733 1.133906 -0.260033 -0.689295
12280 1.10155509 15.22693485 1.56649023 0.619859 0.266169 0.032831
12300 -0.22677777 23.309079930000003 0.7505434800000002 -0.126243 -0.199968 0.831519
12320 -6.656958090000001 24.11635464 4.16045043 -0.898084 -1.017328 1.306807
12340 -6.055212689999999 16.6525731 4.02348321 -1.473893 -0.748738 1.504335
12360 -5.30856378 9.937981259999999 1.7052526800000003 -1.344691 -0.31971 1.195971
12380 -4.67747667 4.991818500000001 -0.49172625000000003 -0.155712 0.526738 0.278112
12400 -3.6064503 2.1634483500000004 -0.5396284800000001 0.780424 0.589475 -0.23779
12420 -1.34270451 2.11854798 1.68279759 0.849066 0.18012 -0.4910229999999999
12440 -0.49411989 4.438269630000001 3.09841002 0.496338 -0.29446 -0.584746
12460 -0.9756731700000001 7.5935580300000005 3.3564718800000004 0.087739 -0.7617689999999999 -0.583797
12480 -0.0076321800000000006 7.45809174 2.83390299 -0.05922300000000001 -0.904037 -0.310108
12500 -0.01317483 5.55375492 1.88308836 -0.051717 -0.678035 -0.091359
12520 -0.4326013800000001 6.05311335 0.44128323 0.049484 -0.313648 0.07125
12540 -1.0129413600000001 8.42836941 -0.64515465 0.131208 -0.097977 0.145252
12560 -0.9699833700000001 9.73215765 -1.1563439400000002 0.032833 0.217177 0.272348
12580 0.8858626199999999 10.615322520000001 -1.7917768800000002 -0.345213 0.471633 0.369794
12600 1.58939658 9.620048970000001 -2.8369048500000003 -0.798291 0.327209 0.382837
12620 0.34024023 10.61053524 -3.43625661 -0.7401770000000001 0.278649 0.222004
12640 -2.39741685 11.793670290000001 -1.5645478499999999 -0.109293 0.639418 0.031532
12660 -5.010683129999999 14.578788150000001 -1.51514469 0.450143 0.8690100000000001 -0.059926
12680 -7.334299350000001 19.874471400000004 0.9457330500000001 0.447475 0.471836 -0.101097
12700 -5.02998921 20.724399990000002 2.4120828 0.005526 -0.301173 -0.345679
12720 -2.0161610100000003 12.26159748 0.6267510900000001 -0.638372 -0.8819309999999999 -0.806632
12740 -0.08772102000000001 8.285123790000002 1.50482457 -1.388199 -0.663987 -1.112319
12760 0.6563871 6.97833369 2.37301938 -1.42192 -0.078149 -1.333359
12780 -0.27513126000000004 6.81892119 3.18253077 -0.646518 -0.283694 -1.485776
12800 -1.7136402300000002 7.37591337 3.1311852300000003 -0.154701 -0.100696 -1.056355
12820 -2.97446067 7.67798289 1.71828036 0.484179 0.506887 -0.639269
12840 -3.5574984000000005 7.379356680000001 0.03458025 0.8066979999999999 0.456402 -0.282302
12860 -3.82784238 7.9695753300000005 -0.83122092 0.440019 0.238561 -0.099781
12880 -3.4869939300000006 8.871899130000001 -0.72913806 -0.16502999999999998 -0.011749 0.15055
12900 -2.062111050000001 9.30285243 0.32332778999999995 -0.736477 -0.28918 0.494086
12920 -0.62689824 9.73440414 2.10327381 -0.5666899999999999 -0.385016 0.6032850000000001
12940 0.40581027000000003 9.72976401 2.07064575 0.224963 -0.184143 0.565829
12960 0.89962605 8.06402601 -0.9367569000000001 1.10789 -0.300191 0.316839
12980 1.2795379199999999 5.467083570000001 -4.0540217400000005 1.6486619999999998 -0.4688810000000001 -0.057318
13000 1.87185591 4.17586194 -3.5717229000000006 1.435206 -0.513942 -0.324738
13020 1.1638289700000002 4.960083149999999 -0.16525926000000002 0.857525 -0.452118 -0.632228
13040 -0.22139208000000002 7.891438679999999 2.7824103 0.305527 -0.14299 -0.469837
13060 -0.38484630000000003 12.77443485 3.09406419 0.03746 0.197323 0.171993
13080 -1.9434100500000002 23.16223404 4.2947199000000005 -0.032226 0.583468 0.635687
13100 -8.73029178 28.315122930000005 6.03484713 -0.071259 0.986118 0.941479
13120 -5.95402254 19.85471406 2.21958117 -0.306714 0.809197 1.166524
13140 -4.80635064 9.61076871 -0.46867275 -0.7178220000000001 0.056261 1.203073
13160 -3.09841002 5.378469840000001 -1.49793795 -0.731533 -0.562958 1.022173
13180 -2.40774678 4.17796128 1.4888048400000002 -0.65265 -0.723612 0.637302
13200 -2.3763057300000003 3.58669296 5.04990351 -0.451519 -0.765412 -0.005378
13220 -2.72672874 4.934636010000001 6.050121300000001 0.13932 0.236459 -0.378549
13240 -1.7648288100000002 5.397923070000001 5.144952600000001 0.436048 0.977923 -0.377426
13260 -0.05837931 4.708907910000001 2.56491279 0.287843 0.7749159999999999 -0.364314
13280 0.18486945000000002 4.01599818 0.53663643 0.1454 0.099282 -0.44456
13300 -1.04752161 5.07535065 -0.42960933 0.177988 0.030831 -0.404721
13320 -2.1908476800000005 8.22763719 -1.02970665 0.27118600000000004 0.097798 -0.183033
13340 -2.4520487400000004 11.295655830000001 -0.5396284800000001 0.441065 0.108144 0.012556
13360 -1.3012474500000002 12.129280200000002 0.84798621 0.454891 0.091081 0.005197
13380 0.51972399 10.63672794 2.3297572800000004 0.22411 0.13603900000000002 -0.115045
13400 1.93412979 8.885672370000002 1.2608302500000002 -0.038417 0.465688 -0.007273999999999998
13420 2.16659736 8.868308670000001 -0.59381892 -0.390376 0.820326 0.32203000000000004
13440 1.18793214 9.79488279 -2.4480070200000004 -0.61541 0.805373 0.526644
13460 -2.3483178000000002 10.931322240000002 -2.6262841500000005 -0.531273 0.445377 0.436894
13480 -5.4717237 11.762690310000002 -3.2319339300000003 -0.34053 0.178198 0.220651
13500 -6.621033870000001 15.07125996 -3.962259 -0.023704 0.239553 0.054007000000000006
13520 -8.94584691 18.952086150000003 -1.16413308 0.403321 0.436609 -0.044744
13540 -5.3411918400000005 17.63572149 3.4645486500000002 0.596989 0.490548 -0.115031
13560 -0.18636057 12.68641953 4.15206288 0.391787 0.182188 -0.345737
13580 2.57674365 9.52813908 3.9463962300000004 -0.204859 -0.435485 -0.6738529999999999
13600 2.23814169 7.375609260000001 4.6011352500000005 -1.039407 -0.930303 -0.883078
13620 1.35438822 5.6953524600000005 4.23933264 -1.294363 -0.92939 -0.890202
13640 -0.42377238 4.3981565400000004 2.4695694 -0.261115 -0.75015 -1.055198
13660 -2.4255519300000006 4.114343430000001 1.04602068 0.117376 0.008831 -0.710627
13680 -3.7014993900000004 5.23311507 0.12185001000000001 0.431407 0.48764 -0.30953200000000003
13700 -4.63032 8.18422794 -0.33095997000000005 0.7408140000000001 0.5938439999999999 0.035392
13720 -5.32607463 10.99807929 0.052993620000000005 0.820983 0.364743 0.248822
13740 -4.42929348 11.97000504 0.31120263000000004 0.472263 0.05119 0.374974
13760 -2.76549786 11.31392205 0.6303415499999999 -0.317181 -0.368082 0.414863
13780 -1.46605545 9.67438656 1.04617764 -0.709563 -0.599823 0.366485
13800 -1.40931441 7.882462530000001 1.1814967800000005 -0.354984 -0.341947 0.305607
13820 -1.7098928100000002 6.11762391 0.6664129200000001 0.4593600000000001 -0.199251 0.145537
13840 -1.62307431 4.99002327 -0.85801203 1.090087 -0.431505 -0.128565
13860 -0.03098979 4.40683839 -3.06397692 1.108569 -0.532057 -0.3067
13880 1.60361127 4.6217853 -1.55780838 0.731477 -0.32874200000000003 -0.474101
13900 1.76587848 6.8918193 0.95816232 0.304854 -0.081099 -0.495558
13920 -0.30506157000000006 11.516155200000002 2.80457109 0.030104 0.108215 -0.181526
13940 -1.18807929 19.177971210000003 1.57756572 -0.007106 0.229634 0.388489
13960 -5.34912813 26.003023650000003 2.7942411600000003 0.065285 0.409721 0.8438260000000001
13980 -6.086045520000001 22.881412980000004 2.61221661 -0.19335 0.067733 1.076399
14000 -4.080214440000001 14.63282163 1.1903257800000004 -0.656181 -0.265541 1.171869
14020 -2.7390010500000006 7.60538889 1.0627859700000002 -0.996416 -0.468933 1.181504
14040 -1.01040057 3.9896583300000006 0.92073717 -1.443815 -0.8220870000000001 0.907503
14060 -0.6939594 2.8116048600000005 2.34921051 -0.950488 -0.31044 0.13583199999999998
14080 -1.20214683 3.38445981 4.0995205200000004 0.093883 0.664484 -0.285411
14100 -2.04324642 5.02384815 4.82566653 0.497777 0.979697 -0.341746
14120 -1.9760381100000002 6.07182102 4.16643453 0.4605260000000001 0.6107859999999999 -0.494289
14140 -1.33148187 6.746474340000001 2.50294302 0.362718 0.22746 -0.718808
14160 -1.18389042 7.5041987400000005 1.09198053 0.114139 -0.102486 -0.575911
14180 -1.92693906 9.379341 0.50669631 -0.143835 -0.349457 -0.395799
14200 -2.75277429 11.84876325 -0.11286405000000001 -0.223669 -0.405142 -0.254212
14220 -2.25146367 13.219906950000002 -0.18381978000000002 -0.231415 -0.24515100000000006 -0.031213
14240 -0.97941078 12.02269455 0.37212273 -0.277041 0.286793 0.447419
14260 0.7039852200000001 8.60051529 -0.21854718 -0.378588 0.8629899999999999 0.8305309999999999
14280 2.05163397 5.72499828 -1.44479718 -0.584593 0.7819229999999999 0.7693760000000001
14300 1.3919507100000001 5.5103456699999995 -2.4441222600000003 -0.433973 0.451596 0.395905
14320 -1.58355963 6.98058018 -1.60286571 0.038587 0.285326 0.00845
14340 -3.2391148500000004 9.47454705 -1.9369746900000002 0.5041220000000001 0.24902800000000005 -0.108961
14360 -3.87738288 14.237046990000001 -3.14495847 0.886474 0.180267 -0.028222000000000007
14380 -7.081476030000001 21.265823700000002 0.3376994400000001 0.947494 0.007406 -0.009415
14400 -4.18110048 22.122344610000003 4.67372925 0.486628 -0.054627 -0.08092
14420 -0.7434999 14.162049540000002 3.8227509900000003 -0.210968 -0.058546 -0.360321
14440 1.4542245900000002 9.1738215 2.7737284500000006 -0.6931609999999999 -0.256304 -0.570671
14460 1.63519947 6.283030320000001 2.8538172900000003 -1.080099 -0.36489 -0.5198229999999999
14480 -0.17244018 4.99241691 2.9038090500000004 -0.92583 -0.391274 -0.449278
14500 -2.2897913400000003 5.2608087 2.18650185 -0.349794 -0.16003699999999998 -0.4338
14520 -3.7570338 5.288198220000001 1.2621742200000001 -0.103136 0.274193 -0.28094600000000003
14540 -4.46940657 6.4030851 0.69590178 0.316922 0.51427 -0.20995300000000006
14560 -5.033285370000001 8.41729392 0.72658746 0.6637890000000001 0.302149 -0.211531
14580 -4.7880942300000005 10.30038228 1.0449808200000001 0.6508149999999999 -0.08182400000000001 -0.081875
14600 -2.8548669600000003 11.037593970000001 1.34360703 0.25053600000000004 -0.319116 0.198712
14620 -0.83032821 10.38151098 2.1157030800000003 0.014374 -0.44903 0.390577
14640 0.058232160000000005 8.87908986 2.66251248 0.204395 -0.384866 0.430278
14660 -0.40700709 7.116497730000001 1.21996179 0.5388689999999999 -0.4534510000000001 0.242559
14680 -1.6712708400000003 6.15684429 -1.27040481 0.7768079999999999 -0.686617 0.004169
14700 -1.8964103400000003 5.79983877 -3.5745678 0.973821 -0.707892 -0.173888
14720 -0.23022108 5.192550720000001 -3.3555693600000005 1.182398 -0.542733 -0.364923
14740 0.7849667699999999 6.055958250000001 -0.9050215500000001 1.171846 -0.346414 -0.432546
14760 1.0529073 9.13235463 1.9254479400000002 0.720722 -0.099605 -0.224506
14780 0.42122178 13.783187340000001 3.29584608 0.052583000000000005 0.223962 0.157109
14800 0.69350814 20.588639400000005 2.5017462000000004 -0.413125 0.329071 0.382321
14820 -2.7047249100000004 24.298222230000004 2.63062998 -0.720173 0.449272 0.691943
14840 -6.07287069 18.69567237 2.51970831 -0.7198260000000001 -0.071998 1.045126
14860 -5.19958449 12.39107967 1.3883602500000003 -0.499578 -0.55276 0.935118
14880 -3.9053806200000003 7.90865523 0.10762551000000001 -0.308212 -0.586184 0.337225
14900 -2.7810663300000003 4.83300441 0.50310585 -0.388574 -0.775181 -0.01454
14920 -2.30535981 3.2682996 2.4843824999999997 -0.136129 -0.359773 -0.220544
14940 -1.98576963 3.72650508 4.10716251 0.265046 0.326059 -0.25066700000000003
14960 -1.57172877 5.475912570000001 4.24996668 0.11893900000000003 0.342532 -0.247436
14980 -0.74545209 6.858435870000001 3.0060488700000003 0.08227999999999999 -0.061817 -0.329427
15000 -0.37601730000000005 6.684651720000001 1.41380739 0.254651 -0.28033600000000003 -0.444379
15020 -0.6905160899999999 5.8941423 0.43050204000000003 0.278945 -0.189393 -0.297979
15040 -1.23672708 6.65112114 -0.35147268 0.238407 -0.202933 -0.073918
15060 -1.37534238 8.697065310000001 -0.53244756 0.193205 -0.317714 -0.101861
15080 -1.10590092 10.65813336 0.36284247000000003 0.017957 -0.423454 -0.14674700000000002
15100 -0.32736951 11.156451930000001 1.38462264 -0.231278 -0.395583 0.025597
15120 0.9798620400000001 10.67520276 1.27295541 -0.377124 -0.283279 0.305377
15140 1.0835929800000001 10.73208114 0.13831119 -0.388488 -0.252029 0.492196
15160 0.65519028 11.252844990000002 -2.58497424 -0.323697 -0.348003 0.460725
15180 -2.03232789 11.3949036 -2.86848324 -0.21015 -0.42332 0.283222
15200 -5.06591343 11.177111790000001 -1.63445391 -0.11138499999999997 -0.500571 0.069298
15220 -5.559591870000001 12.055185269999999 -2.06181675 -0.008779 -0.637632 -0.109271
15240 -5.29972497 15.284264490000002 -1.83069315 0.164398 -0.669759 -0.216979
15260 -5.488341840000001 19.932997860000004 2.11450626 0.467581 -0.4214189999999999 -0.246158
15280 -1.79161992 16.94101653 2.81235042 0.665478 -0.265673 -0.205451
15300 0.62001162 10.91635218 2.24847162 0.4397680000000001 -0.299482 -0.345853
15320 1.7142386400000003 7.582031280000001 2.8969224300000005 0.032389 -0.603482 -0.692276
15340 0.98390376 5.172047820000001 3.00335112 -0.346855 -0.527497 -0.983443
15360 -0.94498749 4.11104727 1.9387699200000001 -0.682771 -0.392615 -1.122694
15380 -3.09286737 4.91323059 0.40715424 -1.040391 -0.419149 -1.103794
15400 -4.1932256400000005 6.138136620000001 -0.5194198800000001 -1.520341 -0.749116 -0.755279
15420 -4.68181269 7.82377911 -0.40430934 -1.032432 -0.798142 -0.639644
15440 -4.55787315 9.29956608 0.00718092 -0.019006 -0.834549 -0.406056
15460 -3.8446076700000003 9.55687257 0.23052519000000005 0.812132 -0.549875 -0.122877
15480 -2.8487259 9.198071820000001 1.13254488 0.94199 -0.462424 0.272091
15500 -2.09234547 8.74511469 2.30804775 0.478943 -0.5826279999999999 0.63007
15520 -1.75240935 8.163273779999999 2.54336022 0.18035 -0.997057 0.8977069999999999
15540 -1.9423603800000002 7.08432093 2.00897028 0.263544 -1.371792 0.765241
15560 -2.54290896 5.89339674 1.26157581 0.693096 -1.516037 0.235383
15580 -3.01009059 5.61766707 0.5706182700000001 1.134023 -1.377573 -0.40692
15600 -2.35221237 6.583010310000001 -1.87575048 1.144463 -0.927214 -0.6189319999999999
15620 -0.8884034100000001 7.222180860000001 -3.68862867 0.876966 -0.5961609999999999 -0.5913149999999999
15640 0.31060422000000004 8.57267451 -2.62134972 0.385809 -0.585144 -0.257201
15660 0.7544282400000001 11.36571885 1.0033668 -0.30178 -0.626606 0.051038
15680 1.1946618 14.89463091 3.57591177 -0.76341 -0.5949979999999999 0.006111999999999999
15700 2.00403585 19.97326791 3.16786482 -0.711172 -0.587787 0.022491
15720 -0.72943236 25.98491439 2.93779089 -0.156219 -0.180124 0.158305
15740 -5.61601899 18.40303026 1.7595902700000001 0.38795 -0.16381700000000002 0.403503
15760 -6.42913065 10.53808839 1.42308765 0.772359 -0.6377390000000001 0.5713020000000001
15780 -6.31177362 5.64385977 0.7226928900000001 0.635842 -1.275622 0.635259
15800 -5.945183730000001 2.7264344400000002 1.07296875 -0.243165 -1.776232 0.580622
15820 -4.8386844 2.51851149 1.6949227500000001 0.08934299999999999 -1.40244 0.322888
15840 -2.93015871 4.607266500000001 2.77881984 0.385187 -1.014967 0.404574
15860 -1.9676603700000002 6.603071760000001 3.82768542 0.4378510000000001 -0.820641 0.513652
15880 -1.4642504099999998 7.38639045 3.8517885900000004 0.419918 -0.618915 0.432083
15900 -1.06952544 7.6055360400000005 3.2121667800000004 0.407178 -0.8522360000000001 0.183398
15920 -1.1518509600000002 8.36445726 2.03981292 0.482892 -1.194174 -0.152125
15940 -1.55107872 8.689727430000001 0.30880899 0.737337 -0.988972 -0.5394439999999999
15960 -0.75248586 8.77146435 -0.45549792000000006 1.11181 -0.6159600000000001 -0.638787
15980 -0.08756406 9.24807339 0.5951628900000002 1.4662620000000002 -0.440846 -0.515827
16000 0.20192904000000003 10.33136226 2.33035569 1.436479 -0.418272 -0.274645
16020 -0.91639134 10.315352339999999 3.5630410500000003 0.972583 -0.272077 0.06375800000000001
16040 -1.9916065800000002 8.271046440000001 4.07631987 0.463196 0.003002 0.445475
16060 -2.2617936 6.366415320000001 3.8363770800000006 0.201503 0.298597 0.809669
16080 -2.66296374 4.2887358 0.22153923 0.097054 0.320384 1.046057
16100 -1.5343134299999999 6.11463186 -2.96443485 -0.136212 0.175225 1.052091
16120 -2.9014154100000003 14.10606387 -2.96233551 -0.400065 0.129053 0.839867
16140 -7.78381317 22.09390542 -2.00403585 -0.466616 -0.070654 0.49035
16160 -12.079131480000001 25.17240114 -2.8062191700000003 -0.298157 -0.494677 0.08935
16180 -9.49789485 21.98867355 -5.873786550000001 0.089277 -0.692172 -0.141631
16200 -5.90028336 14.610072240000003 -5.11171632 0.342461 -0.814661 -0.099113
16220 -0.91803942 9.10885968 -1.2758003100000002 0.223493 -0.881576 -0.045379
16240 3.17968587 8.036783640000001 1.4774252399999999 -0.021761000000000003 -0.92517 -0.119676
16260 3.9143567700000004 7.88290398 3.7669124700000003 0.098097 -1.02075 -0.297109
16280 2.6212025700000003 7.3979172 4.69020024 0.40818 -1.014958 -0.681647
16300 0.85637376 7.39432674 3.2965916400000004 0.5915239999999999 -1.247146 -1.116971
16320 -0.74949381 7.00363368 0.81416133 0.445626 -1.844481 -1.061677
16340 -1.82291382 6.5966363999999995 -1.1379305700000002 0.030723 -2.471676 -0.765738
16360 -2.80681758 6.7220670600000005 -1.6711236900000002 -0.37647 -2.810197 -0.472251
16380 -3.74940162 7.09001073 -1.1903257800000004 -0.737058 -2.819427 -0.249363
16400 -3.9628574100000002 7.268435010000001 0.22094082 -1.214726 -2.557448 0.183868
16420 -3.32877825 7.4483602200000005 1.07940411 -1.39126 -2.388688 0.225147
16440 -1.83803103 7.6609233 1.0517104800000001 -0.957315 -2.511398 0.166379
16460 -0.64515465 7.94891547 0.9994722300000001 -0.12554400000000002 -2.852996 0.15553499999999998
16480 -0.36090009000000006 9.27591417 1.10904012 0.698149 -3.1559630000000003 0.08156000000000001
16500 -1.52622999 10.420731360000001 1.30064904 0.919582 -3.20915 0.136586
16520 -4.14143865 11.073076740000001 1.89221166 0.457489 -3.293493 0.3172
16540 -6.0242229 10.76231556 1.57008069 -0.099952 -3.5603510000000003 0.402311
16560 -6.70455621 12.58717176 -0.13816404 -0.28888 -3.735791 0.483469
16580 -6.392608020000001 14.49046872 0.36479466 -0.080341 -3.832515 0.5149600000000001
16600 -6.7731183 14.39152506 -2.63302362 0.30442 -3.735632 0.461976
16620 -5.7651113700000005 14.694192990000003 -4.458183930000001 0.524517 -3.5579730000000005 0.331894
16640 -3.4328133000000003 12.8525715 -4.49350974 0.406253 -3.314667 0.06263300000000001
16660 -1.75585266 10.137222359999999 -5.573512260000001 0.060605999999999986 -2.909529 -0.25329
16680 -0.22603221 8.05115529 -5.761668060000001 -0.217103 -2.432784 -0.420347
16700 0.7846724700000001 7.92811827 -5.354366669999999 -0.300259 -2.172604 -0.411647
16720 1.38806595 10.13602554 -3.79536147 -0.177563 -1.889847 -0.366287
16740 1.40512554 12.32806023 -1.69747335 -0.057283000000000014 -1.648714 -0.299526
16760 -0.7625116799999999 14.0327145 0.6918600600000001 -0.031702 -1.526809 -0.171317
16780 -3.09272022 14.55004485 0.8285231700000001 -0.114076 -1.509747 -0.104616
16800 -3.7356283800000005 11.59862787 -1.1241671400000002 -0.255374 -1.420659 -0.149514
16820 -4.83629076 9.01500741 -2.45654172 -0.378862 -1.078563 -0.344164
16840 -6.5208933899999995 7.9153947 -3.6470146500000005 -0.485019 -0.856079 -0.478718
16860 -6.808140000000001 8.05130244 -4.581819360000001 -0.485156 -0.692915 -0.522725
16880 -4.29651513 8.2339254 -4.47270273 -0.570565 -0.6514 -0.707109
16900 -1.54747845 8.40038148 -3.1762425600000004 -0.8330059999999999 -0.927289 -0.7502489999999999
16920 0.34847082000000007 8.116872480000001 -1.64418543 0.532085 -0.8951469999999999 -0.115845
16940 1.73758644 7.481439540000001 -0.37108287 1.487771 -0.937615 0.617275
16960 2.34277515 6.70859793 0.41987781 0.951097 -1.444842 0.588539
16980 2.3227235100000003 6.831791910000001 0.53453709 -0.550882 -1.888252 0.090439
17000 1.9272431700000001 7.3926786600000005 0.21735036 -1.039585 -1.778719 -0.5027739999999999
17020 1.38207204 7.79668389 0.29742939 0.02825 -1.930123 -0.8615209999999999
17040 0.9786652200000001 8.02780749 0.6460571700000001 0.849413 -2.014977 -0.866359
17060 0.8081674200000002 8.41908915 1.34525511 1.175933 -1.7869970000000002 -0.885734
17080 0.21630069000000005 9.131314770000001 1.6127443799999999 1.37592 -1.404242 -0.60709
17100 -0.45759726 10.15143705 1.0524658500000001 1.062618 -1.289084 -0.09668
17120 -1.3329828000000001 10.8364203 1.0517104800000001 0.526041 -1.276441 0.136701
17140 -2.15102889 10.560984930000002 1.7875782 0.167455 -0.964639 -0.004004
17160 -3.07624923 9.46796454 2.82073797 0.099607 -0.66291 -0.275124
17180 -3.8345720400000003 8.47717416 3.53235537 0.246129 -0.566657 -0.496414
17200 -3.69910575 8.762478390000002 2.95979472 0.360417 -0.658183 -0.617276
17220 -3.8242519200000005 9.73815156 2.6951405400000006 0.31306300000000004 -0.6965819999999999 -0.564146
17240 -3.1118791500000005 12.48313671 0.76461102 0.187701 -0.4919600000000001 -0.47769
17260 -2.86953291 15.32618262 0.07334936999999998 0.073237 -0.238366 -0.393357
17280 -3.13762059 16.44031413 -2.0311310700000003 -0.15946400000000002 -0.19098 -0.320267
17300 0.68452218 14.3648811 -5.05423953 -0.362656 -0.200255 -0.22233000000000006
17320 2.33484867 12.71456442 -5.200781310000001 -0.31890300000000005 -0.259704 -0.045692
17340 1.7371351800000001 10.74570723 -1.3488455700000002 -0.289752 -0.533018 0.07984400000000001
17360 0.0928026 9.43817157 0.7429014899999999 -0.32773 -0.547248 0.207784
17380 -1.85479632 8.05130244 0.9834525000000001 -0.434627 -0.53433 0.266841
17400 -2.8449882900000003 7.851924 0.97522191 -0.558913 -0.438987 0.241281
17420 -1.53355806 8.98446888 0.25237206 -0.429207 -0.2268 0.079546
17440 -0.28111536000000004 9.05781825 -0.9503731800000002 0.186775 0.13193 -0.120642
17460 1.05665472 8.95048704 -0.90127413 0.83721 0.237348 -0.40679
17480 1.20978882 9.441467730000001 -0.02110131 1.271243 0.204793 -0.6333840000000001
17500 1.0264203 9.688002840000001 0.7354164599999999 1.145776 -0.207965 -0.666846
17520 0.7927559100000001 9.01904913 0.90322632 0.362385 -0.571445 -0.7316729999999999
17540 0.15462522000000004 7.810162830000001 0.29608542000000004 -0.573912 -0.513698 -0.7746069999999999
17560 -0.91624419 6.77895525 -0.36838512000000007 -1.570041 -0.005953 -0.346381
17580 -2.41163154 6.35293638 -0.029184750000000002 -1.102882 -0.190301 -0.737055
17600 -2.8472249700000005 6.790030740000001 0.97043463 -0.448184 0.050907 -0.885547
17620 -2.28724074 7.38789138 1.05635061 0.410594 0.555976 -0.597117
17640 -1.7218708200000001 7.44551532 0.87627825 1.147449 0.370708 -0.4592729999999999
17660 -1.4280318900000002 7.05138876 0.8930435400000001 0.968181 -0.117493 -0.228095
17680 -0.89993016 6.396345629999999 0.75652758 0.353235 -0.45068 0.243395
17700 -0.5676164100000001 5.990093910000001 0.66851226 -0.14140999999999998 -0.533276 0.547693
17720 -1.09676781 6.2068458600000005 0.90142128 -0.186858 -0.412843 0.572859
17740 -2.07213687 6.95438748 0.70892946 0.06324 -0.227746 0.421613
17760 -3.0276014399999998 8.22270276 0.49427685 0.455006 -0.178093 0.186072
17780 -3.6170745300000005 9.57199959 0.1963962 0.7301340000000001 -0.27158000000000004 -0.116329
17800 -3.6597382200000004 10.04755896 -0.95575887 0.781507 -0.540048 -0.422206
17820 -2.1514801500000003 8.70859206 -2.9518584300000006 0.6666310000000001 -0.662415 -0.623677
17840 -0.55728648 6.585551100000001 -3.8154131100000006 0.521998 -0.480067 -0.544805
17860 1.65046383 4.70202129 -2.2119489900000002 0.202299 0.203596 0.058836
17880 3.2717429100000004 4.466561670000001 1.60541631 -0.153779 0.489634 0.763145
17900 2.00164221 8.692121069999999 3.7778408100000003 -0.580228 0.365456 1.283754
17920 2.8331574300000004 16.434771480000002 0.9026181 -1.272808 0.210899 1.6401740000000002
17940 0.23995260000000002 27.70738362 4.37599575 -2.089833 -0.011007 1.365559
17960 -6.94405755 26.115887700000002 4.60472571 -1.335211 0.639484 0.278274
17980 -5.80014288 16.289426520000003 1.3040923500000001 -0.243052 0.969173 -0.264654
18000 -5.429658419999999 9.528884640000001 -0.74739447 0.06590700000000001 0.8828280000000001 -0.251703
18020 -5.15812743 5.4765109800000005 -1.06158915 0.249515 0.528016 -0.392039
18040 -4.65816078 3.77455446 0.9632439 0.582221 0.031335 -0.614474
18060 -3.7688646600000006 4.440368970000001 2.9987109899999997 0.641517 -0.201522 -0.509075
18080 -3.3736884300000005 6.51056346 3.0460148100000004 0.321842 -0.240163 -0.159814
18100 -1.6810023600000001 7.008872220000001 2.5101337500000005 0.092609 -0.29217600000000005 -0.007523999999999999
18120 0.41897529 6.850205280000001 2.0534292 0.00458 -0.31569899999999995 0.090167
18140 1.22819238 7.045993260000001 1.5387966000000002 -0.059094000000000015 -0.24397800000000006 0.324639
18160 1.03449393 8.490496140000001 0.49906413000000005 -0.409279 -0.154918 0.467357
18180 0.81535815 9.35689572 -0.8027817300000001 -0.782465 -0.23724 0.332397
18200 0.72524349 8.95722651 -1.16232804 -0.728571 -0.386538 0.0595
18220 1.04034069 7.984692540000001 -1.6007663699999999 -0.502374 -0.319514 -0.114195
18240 1.3941972 6.00341589 -3.2042403000000004 -0.322199 -0.213094 0.022592
18260 0.0013439700000000003 6.09038154 -3.37053942 -0.015161 -0.224862 0.301421
18280 -1.70271189 9.17292879 -3.2440492800000005 0.453324 -0.28675 0.453255
18300 -3.20632983 14.31382986 -3.7191672000000002 0.634911 -0.32962800000000003 0.362712
18320 -6.344411490000001 22.196145240000003 -1.0300107600000001 0.301297 -0.379219 0.000454
18340 -4.36073139 25.395137190000003 4.39366356 0.01092 -0.237588 -0.53373
18360 -2.85680934 15.6927627 2.87507556 -0.044071 -0.185081 -0.829011
18380 -1.95883137 8.73538317 3.0205676700000006 -0.772282 0.099036 -0.652864
18400 -0.7770304800000001 6.08784075 3.10499253 -0.95238 -0.169431 -0.492476
18420 -2.0977409700000003 4.69738116 2.8584574200000006 -0.664975 0.059006 -0.5922430000000001
18440 -3.2391148500000004 4.609817100000002 2.21149773 -0.730888 0.661985 -0.27728200000000003
18460 -3.9125615400000004 5.886657270000001 1.1719124099999998 -0.193319 0.718346 -0.186005
18480 -4.57568811 7.997867370000001 0.027095220000000003 0.350033 0.487664 -0.244939
18500 -4.722828300000001 10.237509990000001 -0.46642626 0.513019 -0.063566 -0.265527
18520 -4.11240105 11.58606126 0.19010799 0.300108 -0.5595859999999999 0.085066
18540 -2.16420372 11.65671288 1.18494009 0.184144 -0.895963 0.389131
18560 -0.6300374400000001 11.09522772 2.5414178400000003 0.406636 -0.6818960000000001 0.475868
18580 0.22199049 10.014028380000001 3.58834104 0.8908739999999999 -0.1758 0.300209
18600 0.19968255000000001 8.37044136 2.68571313 1.257716 -0.13075699999999998 -0.092528
18620 -0.95845662 6.63944724 0.59276925 1.237078 -0.313614 -0.433201
18640 -2.12243274 5.73067827 -2.68631154 1.013838 -0.30151 -0.602487
18660 -1.64253735 4.68840501 -4.5713422800000005 0.88107 -0.200785 -0.634522
18680 0.18306441 4.100727150000001 -3.99249342 0.631834 -0.152755 -0.441908
18700 0.95216841 4.9021551 -0.94633146 0.21412 0.106019 -0.058461
18720 1.5832555200000002 7.01965341 1.46979306 -0.150881 0.460489 0.324164
18740 1.84236705 10.27837845 3.2699476800000005 -0.467849 0.8583139999999999 0.745524
18760 4.719090690000001 18.08613783 2.59275357 -0.551215 0.69116 1.326269
18780 -0.06960195000000002 27.99074547 4.50143622 -0.450828 0.335681 1.424634
18800 -6.37180101 22.00484043 4.24891701 -0.161477 0.605105 0.930654
18820 -5.208423300000001 13.010492880000001 2.01795624 0.12997 0.527759 0.573867
18840 -4.26118932 6.8331358799999995 -0.35506314 0.15527 0.484631 -0.117041
18860 -4.26807594 3.77903763 -0.93465756 0.337307 0.771907 -0.453696
18880 -3.4154496000000005 3.1702584600000003 1.01444229 -0.116378 0.778558 -0.391712
18900 -2.52389718 3.63608631 3.20947884 -0.607292 0.411122 -0.253664
18920 -3.0588855300000004 5.76900594 4.78510218 -0.616328 0.09782 -0.218075
18940 -2.58227649 7.547303879999999 5.53728393 -0.095155 0.07749500000000001 -0.116132
18960 -1.1903257800000004 7.793838990000001 4.0878466200000005 0.525371 0.069675 -0.030603
18980 0.35281665 7.343128350000001 1.53266535 0.875647 0.129236 -0.044256
19000 0.52286319 7.838445060000001 -0.10882233000000001 0.818792 -0.001347 -0.106442
19020 -0.20223315000000003 8.67356055 -0.69905079 0.383744 -0.180942 -0.104978
19040 -0.67464351 9.31588011 -0.4801995 -0.175871 -0.1551 0.044904
19060 -0.49277592000000003 9.22112532 0.18891117000000002 -0.660567 -0.007292 0.264587
19080 0.7235954100000002 8.68389048 1.11293469 -0.780339 0.001362 0.33531
19100 1.74476736 8.59123503 0.70608456 -0.641356 -0.241725 0.26609
19120 1.62756729 8.868759930000001 -1.51050456 -0.404513 -0.322128 0.187731
19140 0.5634275400000002 10.739870280000002 -3.14600814 -0.068708 -0.150696 0.182379
19160 -2.2837974300000004 12.643010279999999 -2.5933617900000003 0.536061 0.035814 0.169273
19180 -4.4683569 14.46995601 -1.43506566 1.058392 0.310307 0.07002
19200 -4.6738764 16.52937912 -4.09817655 0.935609 0.3498 -0.109281
19220 -5.727843180000001 19.16359956 -1.0177384500000002 0.285912 -0.16557 -0.40051
19240 -3.43520694 17.859664170000002 0.20702043 -0.535045 -0.797553 -0.6853090000000001
19260 -0.5029587000000001 11.14791723 1.4852143800000002 -1.429746 -1.013592 -0.761784
19280 0.44233290000000003 8.55665478 2.62434177 -1.531484 -0.718731 -0.618663
19300 -0.15971661 7.1576703 3.4217378100000007 -0.6573100000000001 -0.484922 -0.705792
19320 -1.17041148 5.80957029 2.81833452 0.013463 0.270881 -0.352766
19340 -2.4388739100000008 5.404515389999999 1.5064628400000002 0.720875 0.483865 -0.149409
19360 -3.4742703600000002 5.1319249199999994 0.19459116000000004 0.928508 0.215514 -0.08779400000000001
19380 -4.476440340000002 6.49514214 -1.03210029 0.792779 -0.079073 -0.093706
19400 -5.138811540000001 9.249711660000001 -0.8704413 0.24325 -0.449432 0.026844
19420 -4.648733370000001 10.68388461 -0.40730139000000004 -0.492163 -0.8915120000000001 0.12909600000000002
19440 -3.35078208 10.44213678 -0.06735546 -0.690357 -0.985984 0.216495
19460 -1.9170603900000003 10.033481609999999 0.6453116099999999 -0.126864 -0.768266 0.160332
19480 -0.66760974 9.031321440000001 1.08045378 0.694837 -0.672379 -0.022059
19500 -0.48094506000000004 7.7845587300000005 1.3304322000000002 1.2076 -0.51135 -0.24301
19520 -1.11308184 6.571630710000001 1.18853055 1.443059 -0.294107 -0.428583
19540 -1.46500578 5.58248841 0.47660904000000004 1.3499709999999998 -0.193337 -0.506274
19560 -0.9755260200000001 5.531751090000001 -2.0977409700000003 0.839397 -0.194222 -0.375243
19580 0.86819481 5.64177024 -3.53264967 0.201067 -0.149752 -0.020836
19600 1.5644007 7.09674039 -2.28515121 -0.321367 0.145313 0.43554
19620 1.116378 9.78589683 0.26030835 -0.60859 0.14090899999999998 0.719823
19640 0.22063671 13.608500670000002 1.0782072900000002 -0.72237 0.025148 0.995846
19660 0.71520786 19.14085017 0.44262720000000005 -0.908359 -0.051972 0.995714
19680 -3.7990990800000004 23.33751912 2.36807514 -1.169808 0.131156 0.714847
19700 -5.9478814799999995 18.766775250000002 3.87274275 -1.018093 0.025565 0.083655
19720 -4.293375930000001 10.9579662 2.08351647 -0.469138 0.680497 -0.338502
19740 -2.68092585 5.99308596 0.21330864 -0.179925 0.870441 -0.404024
19760 -2.01795624 4.2284043 -0.1966905 -0.235375 0.7105560000000001 -0.332635
19780 -2.1188422800000004 4.7225340000000005 1.03689738 -0.294352 0.345619 -0.394536
19800 -2.06495595 6.21612612 2.47435668 -0.017962 0.01072 -0.267195
19820 -2.46223152 8.08408746 3.4652942100000006 0.231619 -0.035724 -0.058157000000000014
19840 -2.22572223 8.577461790000001 3.17998998 0.295991 0.178694 0.077682
19860 -1.84745844 7.469167230000001 1.89400689 0.238644 0.207777 0.047334
19880 -1.7384889600000002 6.417751050000001 0.5092371000000001 0.058076 0.213474 0.111227
19900 -1.8738081000000002 7.3259118 -0.40371093 -0.254726 0.397932 0.34061
19920 -1.92994092 8.852288940000001 -0.41897529 -0.513806 0.54965 0.452906
19940 -1.5224825700000002 10.104741450000002 -0.13876245 -0.5254449999999999 0.391687 0.272497
19960 -0.06271533 10.453516380000002 -0.22572810000000001 -0.24732 0.06681799999999999 0.021688
19980 2.05642125 9.71509806 -0.8361651600000001 0.143592 0.05735700000000001 -0.08239199999999999
20000 2.8128016800000006 8.4533751 -2.7006831900000003 0.554531 0.258748 0.080454
20020 1.49823225 8.5865949 -2.7872073900000003 0.938942 0.409432 0.159858
20040 -0.42421383 10.10024847 -2.37211686 0.841622 0.38622 0.18805
20060 -2.2815509400000002 12.98174958 -2.6568226800000003 0.185272 0.179291 0.024565
20080 -4.235290920000001 17.53423704 -3.1025988900000003 -0.385749 -0.21469 -0.321818
20100 -5.725292580000001 20.151692190000002 1.28477646 -0.70392 -0.8524129999999999 -0.672532
20120 -2.6812201500000006 16.513810650000003 2.7333112500000003 -0.989262 -1.003576 -0.718128
20140 -1.34270451 10.36489284 2.2734675 -0.6567 -0.8215610000000001 -0.70322
20160 0.04745097 7.57784241 2.04759225 -0.315593 -0.321374 -0.609611
20180 -0.48469248000000004 5.93081208 2.20341429 0.12575 0.114867 -0.329349
20200 -2.35625409 5.80029003 2.60099397 0.604167 0.112657 -0.191409
20220 -3.55271112 6.23737458 2.3110398 0.62169 0.021862 -0.14523699999999998
20240 -4.20460524 6.48077049 1.21801941 0.327138 -0.152152 -0.062681
20260 -4.6969299 8.68733379 0.2874035700000001 -0.153863 -0.432343 0.093483
20280 -4.59050121 10.79764137 0.10717425000000001 -0.346459 -0.469305 0.179779
20300 -3.59058753 11.28622842 0.53543961 -0.039555 -0.261784 0.231863
20320 -2.06345502 10.56607632 1.27160163 0.427095 -0.278945 0.122982
20340 -0.73796706 9.36407664 2.09833938 0.801823 -0.394612 -0.047305
20360 -0.4251163500000001 7.54012296 2.44920384 1.026389 -0.242253 -0.247825
20380 -0.89648685 6.03574965 1.1244614400000001 1.078118 -0.12006300000000003 -0.479425
20400 -1.4868624600000002 5.14600227 -1.02132891 0.941293 -0.015953 -0.555289
20420 -1.00141461 4.84093089 -2.61520866 0.558887 0.151541 -0.28577800000000003
20440 0.6372281700000001 4.42105308 -2.7113074200000002 0.035067 0.26076 0.293672
20460 1.46769372 5.235214409999999 -1.21218246 -0.488301 0.376746 0.779113
20480 1.2012541200000002 7.678130040000001 0.7954438500000001 -0.817045 0.097982 1.245055
20500 0.48110202 12.81050622 1.27250415 -1.103115 -0.137647 1.277542
20520 -0.37587015 20.7881748 0.75846996 -1.053455 0.12349 0.932519
20540 -5.7827791799999995 24.090907500000004 2.9129421600000005 -0.710731 -0.08448 0.42991
20560 -5.876778600000001 19.809509580000004 3.4551114300000005 -0.104328 0.26347600000000004 -0.263849
20580 -4.0995205200000004 13.11287985 1.90688742 0.158446 0.689154 -0.383268
20600 -2.9226736800000004 7.92197721 0.63243108 -0.089615 0.493354 -0.221312
20620 -2.36343501 5.53010301 0.97072893 -0.285533 0.095662 -0.231785
20640 -1.20364776 4.93029999 2.08186839 -0.040611 -0.122045 -0.346231
20660 -1.1103939 5.69311578 3.8269398600000004 0.38923 -0.035578 -0.231176
20680 -1.72201797 7.20556272 4.33977723 0.659958 0.023727 -0.111857
20700 -1.35109206 7.544458980000001 3.3386569200000005 0.662063 0.015206 -0.113968
20720 -1.1681748 6.3655128 1.7875782 0.453949 -0.010661 -0.125002
20740 -1.64942397 5.53983453 0.85202793 0.127726 0.045973 0.114065
20760 -2.16420372 6.138136620000001 -0.09939492000000001 -0.278549 0.242904 0.501944
20780 -1.91811006 7.69609215 -0.8749342800000001 -0.6384270000000001 0.29266 0.625416
20800 -1.3248993599999999 9.071140230000001 -0.65832948 -0.64461 -0.041231 0.479455
20820 0.03712104000000001 9.53996013 -0.10612458 -0.326622 -0.324514 0.184005
20840 1.6837001100000002 9.393271200000001 -0.7689470400000001 0.016492 -0.32407 0.042191
20860 2.16480213 9.59159997 -2.5333344 0.29225100000000004 -0.160125 0.09625
20880 1.21068153 10.89538821 -3.0735612900000002 0.616699 0.126273 0.12165
20900 -2.2429387800000002 11.88378495 -1.73325042 0.796579 0.259909 0.113121
20920 -4.8011121 13.561049700000002 -1.7875782 0.513961 0.11669000000000003 -0.056379999999999986
20940 -6.02632224 17.803374390000002 -2.24757891 0.067905 -0.459985 -0.378155
20960 -6.8804397 21.001032180000003 2.2320104400000003 -0.198319 -0.898824 -0.6935100000000001
20980 -3.10798458 16.489413180000003 2.11510467 -0.54835 -0.889202 -0.664988
21000 -1.00485792 10.3479804 2.04893622 -0.951727 -0.471019 -0.464311
21020 0.9273196800000001 7.69684752 2.7286711200000004 -0.58728 -0.303016 -0.436344
21040 0.48603645 6.062246460000001 3.15782919 -0.029561 -0.040998 -0.111249
21060 -1.02312414 5.37756732 2.9819457000000003 0.6001569999999999 0.180913 0.05844
21080 -2.47151178 5.22503163 1.8366772500000002 0.80497 0.168505 0.053477
21100 -3.3979387500000002 5.35885965 0.70668297 0.5724229999999999 0.14918399999999998 0.025172
21120 -4.16209851 7.18401015 0.29668383 -0.039608 0.05413 0.08404400000000001
21140 -4.3246600200000005 9.34013043 -0.00344331 -0.623913 -0.242513 0.181823
21160 -4.0086603 10.53748998 -0.12439080000000001 -0.814521 -0.5585479999999999 0.258877
21180 -2.9713214700000004 10.707830820000002 0.00987867 -0.536935 -0.631487 0.143405
21200 -1.5236793900000003 9.71674614 0.6942537000000001 0.095153 -0.536802 -0.106538
21220 -0.6993450900000001 8.82265293 1.1772981 0.746598 -0.346558 -0.294511
21240 -0.93315663 7.53757236 1.30005063 1.149195 -0.13128099999999998 -0.399865
21260 -1.8244049400000002 6.15040893 0.80847153 1.228287 -0.07944 -0.379083
21280 -1.9760381100000002 5.723497350000001 -0.86909733 0.959584 -0.114335 -0.211068
21300 -0.04027005 6.0620895 -3.2310314100000004 0.402411 -0.19634 -0.00014199999999999998
21320 1.05141618 6.7041049500000005 -3.67905411 -0.243314 -0.137033 0.113844
21340 1.6522688700000001 8.3927493 -1.2780468 -0.629259 0.066137 0.256166
21360 0.6765957 11.256886710000002 1.86647022 -0.704496 0.207018 0.521447
21380 -0.40117014 14.81004909 1.9124202600000002 -0.586749 -0.08343300000000001 0.859132
21400 -1.29151593 19.410733080000004 0.88795215 -0.30702 -0.46066 0.912844
21420 -5.28431346 21.89811744 0.38784816000000005 -0.023614 -0.644699 0.338219
21440 -5.988445830000001 16.13075958 0.8180460900000001 -0.4452100000000001 -0.568387 -0.264096
21460 -4.35175524 11.036701260000001 0.85697217 -0.909429 -0.765292 -0.436933
21480 -2.51970831 7.73935425 0.26180928000000003 -0.54019 -0.08766399999999999 -0.25255700000000003
21500 -1.03614201 6.180044939999999 0.7804737900000001 -0.373241 0.23157600000000006 -0.045633
21520 -0.24773193000000002 6.50112624 2.1457903500000004 -0.498434 0.091632 -0.10508
21540 0.23022108 7.52065992 3.24330372 -0.356565 -0.145489 -0.336658
21560 -0.15612615000000002 8.52297705 3.349134 0.127174 -0.238024 -0.52544
21580 -0.80921709 8.64138375 2.88419886 0.5963350000000001 -0.244138 -0.468744
21600 -1.98906579 7.28310096 1.9550839500000001 0.7452770000000001 -0.321316 -0.2123
21620 -2.85142365 5.9662948500000015 0.8572664700000001 0.5342779999999999 -0.469748 0.059881
21640 -2.83255902 5.52276513 -0.13247424000000002 0.13602899999999998 -0.519451 0.313537
21660 -2.351457 6.1749633600000005 -0.17603064 -0.091936 -0.429115 0.563929
21680 -1.9157164200000003 7.51915899 0.47450970000000003 -0.050587 -0.367952 0.68378
21700 -1.43132805 9.620490420000001 1.0897340400000002 0.164511 -0.430606 0.714205
21720 -0.95651424 10.839108240000002 1.61604054 0.31100500000000003 -0.698084 0.610885
21740 -0.22139208000000002 10.503959400000001 1.1966139900000001 0.271539 -1.053267 0.490356
21760 0.63438327 9.313633620000001 -0.39084021 0.133777 -1.406112 0.40332
21780 0.29697813 8.88253317 -2.4373827900000005 0.104857 -1.575874 0.25805700000000004
21800 -1.5172440300000003 9.971060580000001 -2.6165624400000005 0.243637 -1.47135 0.106137
21820 -4.3843833000000005 11.377539900000002 -2.27077956 0.417013 -1.30288 -0.083012
21840 -4.94840925 13.47183756 -1.0084483800000001 0.5559270000000001 -1.167468 -0.23390300000000006
21860 -4.65187257 16.95014964 -0.11915226000000001 0.866216 -0.901547 -0.402991
21880 -4.816680570000001 20.44808172 2.375256060000001 1.005876 -0.662445 -0.377753
21900 -2.84348736 18.18239355 3.22100559 0.7559859999999999 -0.663912 -0.327154
21920 -0.83540979 11.99425536 3.1945087800000005 0.260844 -0.921281 -0.803505
21940 0.2863539 9.126821790000001 3.5322082200000002 -0.428644 -0.941743 -1.481275
21960 -0.09550035000000001 6.712943760000001 3.4922422800000006 -1.151063 -1.063492 -1.576964
21980 -1.26621594 4.53811581 2.65473315 -1.405714 -1.320867 -1.195989
22000 -2.70142875 3.9315733200000005 1.26681435 -1.124386 -1.73348 -0.8196180000000001
22020 -3.98351727 4.90485285 0.08726976 -0.945409 -2.207433 -0.99829
22040 -4.83075792 6.57208197 -0.35521029 -0.52063 -2.152535 -0.976165
22060 -5.31889371 7.958352690000001 0.18980388 0.202907 -1.7484080000000002 -0.369152
22080 -5.08133475 8.47373085 1.17970155 0.617648 -1.475079 0.44738
22100 -4.01779341 8.44094583 1.85209857 0.942256 -1.705873 0.871891
22120 -2.68226982 7.76046537 1.87589763 1.152093 -2.158675 0.971145
22140 -1.8959590800000001 6.884334270000001 1.34719749 1.186916 -2.472135 0.7421220000000001
22160 -2.0330734500000003 6.41146284 0.95261967 1.050134 -2.691592 0.331251
22180 -3.1572307800000003 6.99854229 1.32070068 0.948338 -2.854075 0.027373
22200 -4.06913895 7.803717659999999 1.96675785 0.920664 -2.7150380000000003 -0.08623
22220 -3.9401080200000003 8.27464671 2.32092828 0.673754 -2.321177 -0.066027
22240 -3.2310314100000004 8.86666059 2.2107521700000006 0.397002 -1.630211 0.006998999999999999
22260 -2.02948299 9.15421131 2.01690657 0.28646900000000003 -1.007919 0.059908
22280 -1.29630321 8.67101976 -0.00344331 -0.031639999999999995 -0.8680889999999999 -0.000177
22300 0.14115609 9.67797702 -4.030369830000001 -0.506744 -1.031197 -0.090881
22320 0.52196067 13.38786396 -5.822293860000001 -0.491808 -1.086421 -0.146253
22340 0.59935176 14.041553310000001 -5.28640299 0.109017 -0.679029 -0.248332
22360 1.4413538700000001 16.08195483 -2.0764827 -0.051199 -0.778371 -0.308076
22380 0.46493514 18.38432259 0.12049623000000001 -0.16882 -1.0444 -0.278647
22400 -0.8556183900000001 22.7374218 2.37001752 -0.495198 -0.8437180000000001 -0.098518
22420 -5.62859541 22.60703709 1.32684174 -0.735667 -0.451855 0.149264
22440 -9.040896 15.52017537 -1.0490225400000002 0.412122 -0.409212 0.477694
22460 -9.47065248 9.942621390000001 -1.42593255 1.441124 -0.5201060000000001 1.209278
22480 -9.2375865 5.92782003 -0.72703872 0.8481559999999999 -1.138318 1.01258
22500 -5.792206590000001 3.99519117 -0.25641378000000004 -0.197776 -2.071674 0.631524
22520 -1.8901221300000002 3.336410430000001 -0.6159699000000001 -0.769131 -2.283786 -0.173361
22540 0.19623924 3.48639552 -0.42136893000000003 0.19938 -2.18582 -0.736084
22560 0.56627244 5.1594714 0.75727314 1.301888 -2.552035 -0.95224
22580 0.8677435499999999 6.849901170000001 1.47009717 1.593964 -2.686961 -1.030144
22600 1.27998918 7.3717245 0.9981282600000001 1.202564 -2.3799 -0.756602
22620 1.50466761 7.542967860000001 1.0743127199999998 0.61556 -1.844369 -0.172798
22640 1.1397258000000001 7.7863539600000005 1.81378071 0.199318 -1.6604599999999998 0.283394
22660 0.09640287000000002 8.139925980000001 2.4688140300000003 0.097882 -1.405649 0.318679
22680 -0.16390548000000002 9.12562497 1.39285323 0.053448 -1.10087 0.06374099999999999
22700 -0.0028449 10.16566155 1.1485646100000002 0.075659 -1.070568 -0.339931
22720 -0.6135762600000001 11.558966040000001 2.68242678 0.22888000000000006 -1.031368 -0.6850149999999999
22740 -2.7047249100000004 12.63597651 3.8363770800000006 0.356313 -0.858553 -0.855261
22760 -4.25864853 11.18594079 2.6707430700000003 0.4524220000000001 -0.711328 -0.726592
22780 -3.8094290100000006 9.52723656 -0.6141746700000001 0.321735 -0.694259 -0.353649
22800 -5.066217540000001 9.5148171 1.8080909100000002 0.118967 -0.575727 0.016524
22820 -4.73749425 12.38015133 3.9944456100000005 0.035789999999999995 -0.347287 0.236772
22840 -5.542522470000001 14.047086150000002 3.9206449800000005 0.141028 -0.192136 0.240513
22860 -6.545889270000001 15.95083437 1.2985497000000001 0.299101 -0.238154 0.156218
22880 -1.95852726 12.947777550000001 -4.2966622800000005 0.323054 -0.40852 0.116012
22900 1.3686029100000001 13.78543383 -6.842573100000001 0.180447 -0.5985779999999999 0.083212
22920 0.6704546400000001 12.35725479 -4.30744347 0.071483 -0.659864 0.052620000000000014
22940 -0.6963530400000001 10.08468 -1.07117352 0.212611 -0.628258 0.018313
22960 -2.12378652 7.87153419 -1.2126239099999998 0.379434 -0.562708 -0.00197
22980 -3.6794955600000003 7.28489619 -2.4255519300000006 0.345506 -0.543303 -0.030005
23000 -3.4738289100000004 7.53637554 -2.6955918000000003 0.247863 -0.573277 -0.174859
23020 -1.4906000700000002 7.94307852 -2.5258493700000004 0.285749 -0.564434 -0.287837
23040 0.37991187 9.649086570000001 -1.2693649500000002 0.295914 -0.60842 -0.219344
23060 1.6293625200000001 11.04971913 0.5830377300000001 0.253178 -0.535117 -0.132142
23080 1.7823396599999999 11.098965330000002 1.49389623 0.318565 -0.313429 -0.216359
23100 2.35789236 10.209365100000001 1.5018227100000001 0.408037 -0.041411 -0.386998
23120 2.1136037400000003 8.6503599 0.77987538 0.481883 -0.069156 -0.7047770000000001
23140 0.8327218500000001 7.47081531 -0.25267617 0.401247 -0.358131 -1.095939
23160 -1.1241671400000002 7.15347162 -0.94513464 0.293126 -0.911708 -1.093848
23180 -3.14271198 7.48129239 -1.32773445 0.141002 -1.6191 -0.949794
23200 -4.4718002100000005 7.62020199 -0.8198413200000001 -0.178426 -2.116826 -0.878749
23220 -4.4400648600000014 8.004753990000001 0.3153915 -0.6205430000000001 -2.172965 -0.842241
23240 -3.4937334000000004 8.103697649999999 1.408716 -1.416509 -1.876362 -0.5330550000000001
23260 -2.31089265 8.228392560000001 2.04534576 -1.795554 -1.318396 -0.145449
23280 -1.5813131400000002 8.65410732 1.894311 -1.112542 -1.098836 0.033161
23300 -1.46261214 8.95512717 1.22699556 -0.112935 -1.48305 0.144253
23320 -2.02034988 9.22935591 0.79919127 0.807976 -1.6875639999999998 0.140266
23340 -2.4667245 9.458233020000002 0.67344669 1.039768 -1.669023 0.098064
23360 -2.32092828 9.36078048 0.6873670799999999 0.454859 -1.722391 0.09832
23380 -2.25506394 9.06904089 0.8810655300000001 -0.169878 -1.799278 0.153875
23400 -2.412534060000001 8.91157077 1.28567898 -0.39309 -1.887725 0.354323
23420 -2.7214902000000003 9.12323133 1.82051037 -0.197985 -2.0433220000000003 0.468048
23440 -3.1033444500000003 9.350156250000001 2.09654415 0.194802 -2.080606 0.393928
23460 -3.8802277800000002 9.564808860000001 1.17939744 0.52148 -1.991477 0.199543
23480 -4.35938742 11.025027360000001 1.0235754000000001 0.6443840000000001 -1.815806 -0.148064
23500 -4.60037988 13.198648680000002 0.5161237200000001 0.583601 -1.606768 -0.422222
23520 -4.58496837 13.23487701 -1.85015619 0.441586 -1.503573 -0.5312359999999999
23540 -3.56273694 13.79471409 -4.738691070000001 0.32627399999999995 -1.517044 -0.5256149999999999
23560 -2.16135882 13.15300275 -5.206922370000001 0.33057 -1.401384 -0.415706
23580 -1.0062117 10.67999004 -4.4506989 0.391564 -1.210454 -0.263838
23600 -0.3501189 7.53173541 -4.39904925 0.403673 -0.848361 0.016725
23620 -0.22768029 6.659655840000001 -4.18095333 0.325487 -0.45908 0.236802
23640 -0.07753824000000002 9.66899106 -2.87806761 0.189864 -0.25087600000000004 0.235588
23660 -0.47646189000000005 12.77054028 -1.27160163 0.065597 -0.287081 0.073465
23680 -2.83839597 14.91348573 1.2457130400000003 -0.021459 -0.402045 -0.138504
23700 -4.99825386 15.91071147 1.8272498400000001 0.019863 -0.459847 -0.371013
23720 -4.69020024 12.581481960000001 -0.39667716000000003 0.088626 -0.520133 -0.539235
23740 -4.2749625600000005 8.272400220000002 -1.67846157 0.129133 -0.521365 -0.5325409999999999
23760 -4.9192244999999994 6.72012468 -2.375256060000001 0.155805 -0.430212 -0.440604
23780 -4.7900366100000005 7.02623592 -2.30490855 0.353563 -0.17591600000000002 -0.269702
23800 -3.4214337000000006 8.28242604 -0.9259757100000001 0.671751 0.315513 0.168794
23820 -1.9097323200000003 8.75214846 0.72913806 0.635393 0.042261 0.8675069999999999
23840 -0.6257014200000001 7.992030420000001 1.5087093300000003 0.025185 -0.723195 1.27656
23860 0.31210515000000005 6.975047340000001 1.82590587 -0.8594709999999999 -0.971655 1.307018
23880 0.58394025 6.06104964 2.03336775 -1.473723 -1.143389 0.830794
23900 0.04116276 5.90985792 2.0395088100000005 -0.5418390000000001 -0.116935 -0.390331
23920 -0.88450884 5.8562757 1.4129146799999999 0.561623 0.8826649999999999 -0.640278
23940 -1.7191730700000003 5.86630152 0.7816706099999999 0.6134729999999999 0.8237479999999999 -0.603521
23960 -1.84715433 6.0375448800000004 0.46538640000000003 0.273807 0.012173 -0.616604
23980 -1.67382144 6.16148442 0.44547210000000004 0.014821 -0.831981 -0.810679
24000 -1.8184208400000001 6.51190743 0.69410655 -0.013782 -1.037318 -0.585221
24020 -2.43004491 7.743700080000001 1.19391624 0.290283 -0.702034 -0.247037
24040 -3.1350798000000006 8.971745310000001 1.92229893 0.636286 0.143523 0.053399
24060 -2.47929111 9.317969640000001 1.9205037 0.8642110000000001 0.6928270000000001 0.216657
24080 -1.42308765 9.08999505 1.24002324 0.6062960000000001 0.6983189999999999 0.398582
24100 -0.87448302 8.81157744 0.82612953 0.025959 0.645316 0.569785
24120 -0.8704413 8.47926369 1.11787893 -0.571936 0.34048 0.596978
24140 -1.14452289 8.308775700000002 1.84581036 -0.650107 -0.112445 0.444256
24160 -1.58610042 8.16626583 2.3346917100000004 -0.24852800000000005 -0.396635 0.303216
24180 -2.1661461 7.73710776 2.5062391800000006 0.118008 -0.524591 0.282439
24200 -2.41882227 7.27621434 2.23574805 0.247369 -0.572437 0.4137270000000001
24220 -2.18590344 7.0723429200000005 1.40751918 0.145205 -0.423313 0.505757
24240 -1.1883834 7.57903923 -1.99714923 0.026919 -0.247821 0.411771
24260 -1.1451213 9.905206050000002 -4.92056847 0.026804 -0.363573 0.32112
24280 -3.2953948200000003 14.607374490000002 -3.12310179 -0.048638 -0.6769850000000001 0.175716
24300 -4.89407166 18.72501408 -3.85717428 0.006176 -0.5453600000000001 -0.020622
24320 -8.39199393 22.46573385 -2.7005360400000002 0.376746 -0.157156 -0.186242
24340 -7.458837300000001 25.7916672 1.7354870999999998 0.5231600000000001 0.129873 -0.43021
24360 -1.2723570000000002 16.11683919 2.38574295 0.495215 -0.064377 -0.579708
24380 0.42317397000000007 9.22172373 2.45414808 0.458163 -0.601701 -0.707464
24400 3.0612791700000006 6.38377902 2.13770691 0.158113 -0.399404 -0.687387
24420 2.70951219 4.5214976700000005 2.33903754 -0.6704319999999999 0.007879 -0.8549979999999999
24440 -0.5900715000000001 3.7089844199999997 2.34532575 -0.924736 -0.005483 -1.022331
24460 -3.7732006800000004 3.26006901 1.8646749900000001 -0.71183 -0.058525 -0.73022
24480 -4.36551867 3.3169572 1.17925029 -0.251173 0.092556 -0.283884
24500 -4.5668493 5.0725057499999995 -0.6053456700000002 0.646766 -0.15683699999999998 0.032492
24520 -4.50293715 7.48653093 -1.7552542500000001 1.240992 -0.22990700000000006 0.207652
24540 -4.25011383 9.82062423 -1.53745263 0.943824 -0.26758200000000004 0.296424
24560 -3.2527311300000004 10.69735374 -0.49143195 0.052768 -0.259364 0.345737
24580 -1.2868758 9.50044545 0.8565209100000001 -0.468913 -0.268138 0.328217
24600 -0.8306225100000001 7.7607596700000006 1.6470205200000003 -0.351112 -0.705067 0.267643
24620 -1.9892129400000003 6.69946482 1.8329396400000002 0.191957 -1.033613 0.173581
24640 -3.17279925 6.372252270000001 1.77291225 0.789077 -0.913021 0.13486800000000002
24660 -3.59492355 6.43511475 2.0131591500000003 1.2238719999999998 -0.821823 -0.13781300000000002
24680 -3.5434308600000004 7.5139204500000005 1.13823468 1.290855 -0.365295 -0.343028
24700 -2.7470844899999998 8.968302000000001 0.18636057 1.006247 0.13861500000000002 -0.3713
24720 -2.36792799 10.08377748 0.23186916000000002 0.5200170000000001 0.406857 -0.1646
24740 -2.38184838 10.976369759999999 0.45415395000000003 -0.107665 0.457639 0.200555
24760 -0.48364281 11.0880468 -2.4459174900000002 -0.5877979999999999 0.32463800000000004 0.310604
24780 1.25693568 10.373731650000002 -3.3289254000000006 -0.882698 0.408029 0.491103
24800 2.2219748100000007 9.87735546 -2.3900789700000002 -0.937958 0.205981 0.716371
24820 0.8897473800000001 10.18781253 1.24151436 -0.7821819999999999 -0.091413 0.893028
24840 0.6560829899999999 11.724813900000001 3.27099735 -0.748095 -0.17752 0.818601
24860 2.21434263 15.681844170000002 4.02468003 -1.004339 -0.164287 0.395915
24880 -0.8647515000000001 22.273232220000004 3.6181242 -0.5348149999999999 0.180678 -0.23043
24900 -6.16403502 20.764071630000004 0.79319736 -0.003961999999999999 0.6852590000000001 -0.334191
24920 -5.54895783 12.3695271 -1.01997513 -0.040369 0.8592709999999999 -0.12957
24940 -4.399804620000001 6.629862870000001 -1.6585472700000001 -0.340004 0.387466 -0.164173
24960 -4.34755656 4.09817655 -0.5110421400000001 -0.341488 0.13033599999999998 -0.329428
24980 -3.8136178800000002 3.81811086 1.20754233 0.093193 -0.047844 -0.369961
25000 -3.0151819800000004 4.8716165700000005 2.6912557800000005 0.605956 -0.030893 -0.25851
25020 -1.90179603 7.130418120000001 3.13777755 0.857311 0.18949 -0.177989
25040 -0.57645522 7.94907243 2.4459174900000002 0.700626 0.280352 -0.120447
25060 -0.51837021 6.534215370000001 1.8190192500000002 0.223125 0.380146 0.112166
25080 -0.24354306000000003 4.934636010000001 0.90741519 -0.32044 0.5067689999999999 0.35283000000000003
25100 0.05433759 4.67418051 0.4716648 -0.696241 0.401854 0.541551
25120 -0.430659 6.032306340000001 0.7652094300000001 -0.672214 0.045987 0.536834
25140 -1.25229555 8.53899678 1.0785114 -0.384024 -0.340994 0.358814
25160 -1.1166821100000002 10.523569590000001 1.0449808200000001 -0.12825799999999998 -0.28070900000000004 0.246223
25180 0.3005784 10.810364940000001 0.9391505400000001 -0.054155 -0.185041 0.233799
25200 1.7956616400000003 10.781778599999999 0.06660990000000001 -0.053338 -0.191633 0.282952
25220 1.6727717700000002 10.27268865 -1.4135130900000004 0.064559 -0.089705 0.265485
25240 0.85202793 10.30352148 -3.24629577 0.267974 0.175361 0.136243
25260 -1.6874377200000001 12.21010479 -2.93929182 0.449746 0.302299 -0.063476
25280 -4.44336102 14.25769704 -2.4535496700000006 0.478414 0.237246 -0.33665700000000004
25300 -6.20324559 16.11892872 -2.5261436700000006 0.407651 -0.093852 -0.592032
25320 -7.768990260000001 18.683998470000002 -0.71341263 0.13271 -0.301524 -0.634279
25340 -4.1589495 17.98779258 1.95883137 -0.619023 -0.455454 -0.648946
25360 -0.89124831 13.042826640000001 3.56019615 -0.82486 -0.473773 -0.6845439999999999
25380 0.7683486300000001 9.75401433 4.082009670000001 -0.964437 -0.190896 -0.442327
25400 0.74335275 7.9327584 4.3439661 -0.546059 0.08047 -0.202607
25420 -0.025594290000000002 6.39230391 3.44224071 0.216072 0.086752 -0.037058
25440 -2.0011909500000002 5.767357860000001 1.98412155 0.781384 0.048591 -0.041606
25460 -3.79955034 5.194797210000001 0.6301943999999999 0.693063 -0.11206 -0.016380000000000002
25480 -4.63436172 5.52725811 -0.67315239 0.032843000000000004 -0.41071 0.116124
25500 -4.957542360000001 7.489827090000001 -1.45257651 -0.45506 -0.5704779999999999 0.266744
25520 -4.31897022 9.49909167 -0.9128008800000001 -0.315915 -0.588488 0.38738
25540 -2.6292860100000004 9.51092253 -0.07663572 0.214618 -0.648428 0.265113
25560 -0.82612953 8.422238160000001 0.9886910400000001 0.820442 -0.540556 -0.063011
25580 0.6185106900000001 7.23505158 2.32691238 1.220085 -0.291205 -0.428007
25600 0.14295132 6.39409914 3.4061693400000004 1.268921 -0.073242 -0.631976
25620 -1.01204865 6.25384557 2.81833452 0.999019 -0.031968 -0.596526
25640 -2.24802036 6.79496517 1.0645910100000002 0.5156229999999999 -0.06315599999999999 -0.370195
25660 -3.5154429300000003 7.98320142 -0.39787398 -0.012711 -0.008362 -0.02892
25680 -3.06143613 8.75678859 -1.2930070500000002 -0.512075 0.289339 0.281268
25700 -1.3662092700000001 8.74900926 -3.59102898 -0.910304 0.382888 0.674676
25720 0.16420959 8.65260639 -3.62261718 -1.0557299999999998 0.051332 1.130216
25740 1.09482543 9.47170215 -1.23343092 -0.957624 -0.079445 1.248574
25760 0.9629496000000001 11.236079700000001 1.6290584099999998 -0.749516 -0.26907800000000004 0.80589
25780 2.65652838 14.20935336 2.04250086 -0.25537600000000005 0.006795999999999999 -0.146002
25800 2.8717794000000003 19.770740460000003 2.85666219 0.3176 0.6113149999999999 -0.5027659999999999
25820 -4.92506145 22.02474492 3.5630410500000003 0.359663 0.79725 -0.4172520000000001
25840 -5.817800879999999 16.216822710000002 2.13575472 0.07818 0.40497 -0.374919
25860 -4.55892282 10.40949891 -0.12903093000000002 0.002004 -0.066123 -0.514784
25880 -3.8227509900000003 6.006555090000001 -1.42712937 0.173867 -0.217189 -0.448229
25900 -3.5857904400000002 4.4656591500000005 -0.8792703000000001 0.388024 -0.07283300000000001 -0.237546
25920 -2.36687832 5.01187995 1.3674060900000002 0.570471 0.136621 -0.028237
25940 -2.39771115 6.54154344 3.72275766 0.555272 0.140683 0.034677
25960 -2.1525200100000004 8.260118100000001 4.31163234 0.23627 0.30942800000000004 0.203148
25980 -0.66911067 7.89922782 3.47727222 -0.361971 0.653401 0.482675
26000 -0.14369688 6.355634129999999 2.38678281 -0.928031 0.652701 0.615455
26020 -0.1041822 5.761972170000001 1.3697997299999998 -0.867217 0.274883 0.47429
26040 -0.45879408 6.47748414 0.60489441 -0.380479 0.04635 0.193836
26060 -0.8616123 8.004901140000001 -0.06795387 -0.058184000000000013 0.12796400000000002 0.017588999999999997
26080 -0.7200049500000001 9.23594823 -0.24713352 0.087586 0.292514 0.033352
26100 0.118701 9.79413723 0.032186610000000004 0.284339 0.402572 0.045267
26120 1.3548296699999998 9.693094230000002 -0.26824464000000003 0.357475 0.489845 0.001869
26140 1.3159134000000001 9.18025686 -1.43865612 0.170745 0.315407 -0.169059
26160 0.8060778900000001 9.36826551 -2.77552368 -0.14008099999999998 -0.07852999999999999 -0.485851
26180 -1.8540409500000001 10.173146580000001 -1.81182852 -0.203491 -0.39278 -0.6984670000000001
26200 -4.86204201 12.43524429 -1.9573304400000002 -0.640003 -0.175067 -0.685772
26220 -7.19134803 16.365767940000005 -2.5953041700000004 -0.814578 -0.132838 -0.971192
26240 -6.977136870000001 20.57965344 2.23665057 -0.833357 -0.134407 -0.829248
26260 -2.6487392400000003 19.55069235 3.42846747 -0.54582 0.42529 -0.386781
26280 -0.8583161400000001 12.68941158 2.8476762300000003 0.315958 0.299091 -0.210752
26300 0.94618431 8.797058640000001 2.7804679200000004 1.040814 -0.020057 -0.14866500000000002
26320 0.59485878 6.77640465 2.6750889 1.141109 0.03159 -0.097824
26340 -1.08344583 5.630243490000001 3.0120329700000004 0.570699 0.044626 0.066954
26360 -2.5753898700000004 4.922510850000001 2.06825211 -0.208033 -0.221861 0.25093200000000004
26380 -3.4756241400000003 4.72432923 0.28934595 -0.495975 -0.4709350000000001 0.450065
26400 -4.177362870000001 6.3364752 -0.4972689 -0.091296 -0.601381 0.486174
26420 -4.259246940000001 8.92324467 -0.29010132000000005 0.625499 -0.642313 0.244474
26440 -3.2754903300000002 10.487194109999999 -0.13053186 1.092688 -0.616663 -0.180653
26460 -1.6649924400000002 10.67699799 -0.08397360000000001 1.24405 -0.452121 -0.70003
26480 -0.53573391 10.01627487 1.01369673 1.068475 -0.237947 -0.8275809999999999
26500 -0.06930765000000003 8.666830890000002 1.63310013 0.6506609999999999 -0.164937 -0.608403
26520 -0.6478524 7.02579447 1.1752085700000001 0.200011 -0.06178400000000001 -0.17371199999999998
26540 -1.8675198900000003 6.1709216399999995 -0.0023936400000000003 -0.199278 0.111242 0.059354
26560 -2.45025351 6.00147351 -1.3521417299999998 -0.496381 0.345132 0.168074
26580 -0.99004482 6.195015 -3.4012251000000004 -0.508738 0.625678 0.350294
26600 -0.24354306000000003 6.45084018 -3.0341937600000004 -0.32260900000000003 0.553538 0.646516
26620 0.13785993 8.303537160000001 -0.5468094 -0.131686 0.029022000000000006 0.847211
26640 -0.8442486 11.44759311 2.0251371600000003 -0.165823 -0.376051 0.6776449999999999
26660 -0.06556023 14.801818500000001 1.04916969 -0.406395 -0.26131 0.431194
26680 0.8740317600000002 22.13865864 3.49927605 -0.902293 -0.738761 0.380272
26700 -5.303619540000001 26.1506151 4.662506610000001 -0.6583359999999999 -0.076286 -0.065389
26720 -5.91480216 16.693284600000002 3.53190411 -0.164439 0.452108 -0.231396
26740 -3.92798286 8.85902841 0.92971332 0.021452 0.378588 -0.122113
26760 -3.0588855300000004 4.9861287 -1.4430019500000002 0.307635 0.04913 -0.032097
26780 -3.0590424900000004 3.95866854 -0.39816828 0.569168 -0.209364 -0.08441799999999999
26800 -2.7304761600000003 4.33887471 1.8064428300000002 0.57275 -0.33412600000000003 -0.05646
26820 -2.3613356700000003 6.140079 3.4329604500000004 0.416724 -0.399598 -0.064943
26840 -2.03247504 7.897579740000001 4.00387302 0.188629 -0.296863 -0.250402
26860 -1.3228000200000003 7.61690583 3.61663308 -0.193292 -0.143899 -0.342997
26880 -0.8451413100000001 6.782241600000001 1.9257422400000002 -0.400822 0.300779 -0.011731
26900 -1.22474907 6.512211540000001 0.6970986 -0.33767600000000003 0.851399 0.497546
26920 -1.79746668 7.241486940000001 0.04371336 -0.316058 0.841073 0.663285
26940 -1.9109291400000001 8.134236180000002 -0.32722236 -0.328529 0.32386 0.5463560000000001
26960 -1.8045004500000001 9.2575008 -0.09999333 -0.264342 -0.16203800000000002 0.257939
26980 -1.10260476 9.963428400000002 0.8059209300000001 -0.087979 -0.240874 0.106516
27000 -0.173637 10.23511635 1.05021936 0.105243 -0.180965 0.141972
27020 -0.25267617 10.095157080000002 0.7914021300000001 0.257452 -0.020648 0.144967
27040 0.27946728 9.15705621 0.16765290000000002 0.405508 0.100529 0.08282
27060 0.20417553000000002 8.25009228 -1.4253341400000001 0.321413 -0.029514 -0.090652
27080 -1.32908823 7.98050367 -2.2312648800000003 0.147213 -0.388855 -0.386238
27100 -3.57246846 9.06889374 -2.37376494 0.142291 -0.540193 -0.6307010000000001
27120 -4.9021551 11.39760135 -2.41103313 -0.263304 -0.479526 -0.532131
27140 -5.510639970000001 15.30612117 -4.096234170000001 -0.6570630000000001 -0.37531 -0.412169
27160 -8.01927279 19.58347737 1.06952544 -0.8365299999999999 -0.462955 -0.44963
27180 -4.66355628 19.06824636 4.03934598 -0.75397 -0.177466 -0.253935
27200 -1.4331232800000002 11.36182428 2.82268035 -0.186718 0.064189 -0.172302
27220 0.9125065800000001 7.904466360000001 2.52389718 0.304756 0.038817 -0.114357
27240 1.6777160100000001 6.22570068 2.66116851 0.530149 -0.046488 -0.022943
27260 0.30252078000000004 5.7754413 1.9896642 0.327069 -0.171203 0.172351
27280 -1.6780103100000001 6.19831116 0.66820815 0.052447 -0.30209 0.374631
27300 -2.61520866 6.30787905 0.26719497000000003 0.013436000000000002 -0.33962800000000004 0.471615
27320 -3.0069513900000002 7.68396699 0.5897772000000001 0.226785 -0.477264 0.340822
27340 -3.71646945 9.43891713 0.9833053500000001 0.531852 -0.602626 -0.008331
27360 -3.70314747 10.134828720000002 1.0916764200000002 0.8318549999999999 -0.511393 -0.438983
27380 -2.92432176 10.20847239 1.01922957 1.006161 -0.29329 -0.786285
27400 -1.55481633 9.492813270000001 0.5319963 0.918009 -0.11544 -0.697398
27420 -1.2754962 8.327336220000001 0.9404945100000001 0.612007 -0.165974 -0.315979
27440 -1.7901288000000002 6.815772180000001 1.3124700900000001 0.18532 -0.202409 0.107308
27460 -2.35056429 6.02871588 0.9282222 -0.16608299999999998 0.063599 0.223085
27480 -3.02266701 6.413709330000001 0.23081949000000002 -0.360451 0.385476 0.35057
27500 -2.55623094 7.007822550000001 -1.72022274 -0.473275 0.692735 0.599352
27520 -1.30933089 7.84877499 -3.77455446 -0.46038 0.181804 1.019908
27540 -0.79664067 9.36647028 -2.7619074 -0.425041 -0.397182 1.124514
27560 -0.7170129000000001 11.80400022 0.6063855300000001 -0.532862 -0.259153 0.799913
27580 -0.93150855 14.960338290000001 1.37309589 -0.994437 -0.445953 0.761677
27600 0.05283666000000001 18.92275425 0.7189552800000001 -0.654296 0.03395 0.335081
27620 -1.0659349800000002 21.965620050000002 2.333799 0.19511 1.000357 0.08126599999999999
27640 -3.36575214 17.633779110000003 2.68900929 0.044891 1.182391 -0.022566
27660 -2.58497424 10.69166394 1.76722245 -0.296299 0.561177 -0.219638
27680 -2.141591670000001 6.07856049 1.23657993 -0.221486 0.081568 -0.491965
27700 -1.76782086 4.15805679 0.8732862 0.252793 0.015827 -0.446908
27720 -2.00583108 4.436621550000001 1.3257920699999999 0.784724 -0.107264 -0.22939
27740 -2.1784184100000004 5.62934097 2.59769781 0.970495 -0.12678 -0.038992
27760 -2.04878907 7.07653179 3.5046617400000004 0.702621 -0.023008 0.08291799999999999
27780 -1.23747264 8.3381076 3.5310114 0.228203 0.20176 0.228867
27800 -1.00351395 8.47567323 2.5363264500000002 -0.142226 0.547568 0.385001
27820 -1.49389623 7.878263850000001 1.47577716 -0.299944 0.788065 0.585485
27840 -1.90254159 8.02929861 0.64964763 -0.33079400000000003 0.5676720000000001 0.582348
27860 -2.1900923100000007 8.30383146 -0.16375833 -0.382963 0.12456 0.350747
27880 -1.8134766 8.093671830000002 -0.52719921 -0.482162 -0.209292 0.009719
27900 -1.2271525200000002 8.212971240000002 -0.0779895 -0.463466 -0.425194 -0.093491
27920 -0.7532314200000001 8.64258057 0.89693811 -0.185394 -0.5124449999999999 -0.093574
27940 -0.53259471 8.94120678 1.3994357400000002 0.154151 -0.4804890000000001 -0.121153
27960 0.49681764000000006 8.96694822 0.80053524 0.449806 -0.419864 -0.087119
27980 0.86804766 9.35719002 -1.3331299500000002 0.498983 -0.396604 -0.085737
28000 -0.23291883000000002 10.7874684 -2.5114777200000002 0.494324 -0.367337 -0.207584
28020 -3.09841002 12.1756815 -1.21606722 0.299194 -0.47054 -0.337002
28040 -4.17092751 13.353283710000001 -1.31636466 -0.206341 -0.5131939999999999 -0.420595
28060 -5.236107120000001 17.07154839 -3.0638297700000003 -0.8713290000000001 -0.585547 -0.664429
28080 -8.16506901 22.48249914 1.48401756 -1.322444 -1.106895 -1.230933
28100 -2.7662434200000003 17.80128486 3.14765622 -1.565293 -1.066327 -1.042538
28120 0.29129814000000004 10.87563087 3.29075469 -1.072657 -0.928223 -0.8416530000000001
28140 1.5865516800000001 7.80806349 3.84894369 -0.125918 -1.043395 -0.566768
28160 0.8077161600000001 5.604943500000001 3.9793284 0.714079 -0.882491 -0.241709
28180 -1.1268550800000001 4.56894864 2.80636632 0.927054 -0.6257659999999999 0.10769
28200 -2.77223733 4.406985540000001 0.6336279 0.532296 -0.447216 0.28737
28220 -3.8049360300000004 4.18080618 -0.53888292 0.163173 -0.534931 0.43125
28240 -4.4020413000000005 6.108500610000001 -0.9695321100000001 0.139506 -1.057879 0.426414
28260 -4.910238540000001 9.20780334 -0.48918546 0.332606 -1.546509 0.176289
28280 -3.95462682 10.719357570000001 0.35281665 0.579126 -1.711869 -0.242657
28300 -2.06136549 10.477756890000002 0.9984225600000001 0.7063550000000001 -1.52449 -0.591317
28320 0.15986376000000002 8.84195901 1.13524263 0.667111 -1.04161 -0.634939
28340 0.7837699500000002 7.373068470000001 1.42039971 0.527884 -0.653382 -0.36508
28360 -0.00179523 6.42583449 1.73729214 0.106936 -0.422212 -0.001917
28380 -1.54119024 5.79714102 1.89221166 -0.370975 -0.206181 0.200635
28400 -3.29285403 5.6297922300000005 1.42159653 -0.688049 -0.246644 0.204882
28420 -4.63450887 6.417152639999999 0.23172201 -0.70292 -0.4936390000000001 0.180525
28440 -5.23791216 6.678510660000001 -2.3779538100000006 -0.440951 -0.7040000000000001 0.07900700000000001
28460 -3.84026184 7.897275629999999 -5.20242939 0.039115 -1.033438 -0.003744
28480 -1.86407658 10.55380401 -3.83726979 0.460986 -0.744848 0.187909
28500 -0.6391705499999999 13.42123758 -0.4864877100000001 0.651835 -0.330769 0.633091
28520 0.70039476 15.572717730000003 2.84542974 0.956741 0.132474 0.673084
28540 3.57127164 18.447037920000003 4.10341509 0.062072 -1.24245 1.094817
28560 2.5851213900000003 23.66204373 5.1742943100000005 -0.825501 -2.4135020000000003 0.611554
28580 -3.70285317 19.62523854 3.9025357200000004 -0.607661 -2.523804 -0.496665
28600 -5.822745120000001 12.49855803 1.8646749900000001 0.337476 -2.143225 -0.31963600000000003
28620 -5.5342918800000005 7.50554271 0.17872839 1.106276 -1.591589 -0.142989
28640 -5.41334439 4.47913809 -0.28800198 1.0720299999999998 -1.3456290000000002 -0.34971
28660 -4.94766369 3.3998811300000003 0.75578202 0.6258229999999999 -1.395228 -0.346354
28680 -3.14765622 4.58841168 2.34487449 0.29780700000000004 -1.331919 -0.176743
28700 -1.2686095800000001 6.988663620000001 3.65420538 0.6463899999999999 -0.8361049999999999 -0.327699
28720 0.17977806 8.303537160000001 3.44463435 1.269672 -0.22927600000000006 -0.240801
28740 0.5566880700000002 8.182736819999999 3.11412564 1.61581 -0.026349 -0.139299
28760 -0.13457358 7.476505110000001 2.66925195 1.289407 -0.182186 -0.312295
28780 -1.02327129 7.27786242 1.5416415 0.47409 -0.32702600000000004 -0.413944
28800 -1.48491027 7.0016913 0.19235448000000002 -0.11168 -0.203019 -0.281462
28820 -0.69276258 6.94855053 0.41643450000000004 -0.023452 0.087101 0.08304600000000001
28840 -0.28441152000000003 8.321195160000002 2.06629992 0.226607 0.097424 0.48109
28860 -1.15799202 10.36175364 3.3150050100000006 0.100566 0.090412 0.7451369999999999
28880 -2.67344082 11.06887806 4.211197560000001 -0.171699 0.125123 0.8254440000000001
28900 -3.36544803 9.92511054 4.07871351 -0.256763 -0.109759 0.7631939999999999
28920 -3.8414586600000002 7.561979640000001 3.2467470300000003 -0.229988 -0.475698 0.6110939999999999
28940 -4.62807351 5.36230296 2.34023436 0.046972 -0.488824 0.457085
28960 -4.70381652 3.85957773 2.66745672 0.225732 -0.461332 0.353613
28980 -2.66445486 2.66849658 -0.09939492000000001 0.386166 -0.40753 0.08013200000000001
29000 1.88802279 7.15751334 -0.85487283 0.249377 -0.362913 -0.302236
29020 2.0610613800000004 18.83697561 -0.58648104 0.253764 -0.376833 -0.820275
29040 -5.0942054699999995 29.30501079 -2.15612028 0.30792 -0.608548 -0.995857
29060 -6.09922035 32.27752908 -6.96157821 0.469137 -1.421296 -0.8836620000000001
29080 -7.28579871 21.2279571 -9.20465433 0.349487 -2.331988 -0.809624
29100 -6.646029750000001 9.186692220000001 -2.1143493000000007 -0.004555 -2.930594 -0.256923
29120 -1.4852143800000002 5.353317 0.37302525000000003 -0.359172 -2.924315 0.07815
29140 1.5356574000000003 6.0674850000000005 2.9147373900000004 -0.853894 -2.591283 0.34025500000000003
29160 2.33604549 8.43960186 4.54469832 -1.313108 -2.3472310000000003 0.445694
29180 1.36934847 9.33563745 4.39920621 -1.052192 -2.537416 0.361234
29200 1.12656078 8.936419500000001 2.9416854600000004 -0.16534300000000002 -2.926357 0.154283
29220 0.19264878 7.4244140100000005 1.1076961500000004 0.8200850000000001 -3.544327 -0.139281
29240 -0.54950715 6.71009886 -1.43850897 1.204508 -3.795644 -0.228141
29260 -1.3298337900000001 7.34552199 -2.18111616 0.688351 -3.772329 -0.017063
29280 -2.27901015 8.28781173 -1.06907418 -0.192587 -3.833603 0.08582000000000001
29300 -3.3112674 7.94682594 0.53034822 -0.735716 -3.857255 0.077784
29320 -3.2196518100000002 6.679560330000001 2.1903964200000003 -0.572759 -3.834726 0.16328299999999998
29340 -2.22632064 6.61668804 2.6110197900000003 0.075502 -3.631615 0.223098
29360 -1.3190526 6.84721323 1.64672622 0.676574 -3.273762 0.254612
29380 -1.40961852 7.45764048 0.8854113600000001 0.774759 -2.962358 0.083983
29400 -3.3968890800000002 9.58755825 1.1437675200000001 0.352477 -2.768884 -0.247158
29420 -4.36821642 10.690467120000001 2.5225532100000003 -0.162741 -2.598534 -0.575715
