time Ax Ay Az Gx Gy Gz
20 4.28633235 10.8310248 1.4771309400000001 -0.389836 -0.484962 -0.395207
40 0.39921795000000004 12.430604160000001 2.16389961 -0.217487 -0.478677 -0.517925
60 -1.6278615900000002 12.94433424 2.9912259600000004 -0.341389 -0.525167 -0.7719
80 -2.24742195 12.39886881 1.54957779 -0.618587 -0.37571 -1.143632
100 -0.25791471 11.237129370000002 0.13037490000000002 -0.843031 -0.206804 -1.363334
120 0.68408073 9.96582204 0.60563997 -0.920605 -0.478718 -1.228931
140 1.07985537 8.379123210000001 0.17977806 -0.778845 -1.083668 -0.851152
160 1.6453822500000002 7.209006030000001 -0.15642045 -0.168225 -1.161643 -0.529525
180 2.29398021 6.249352590000001 -0.30297204000000005 0.5173399999999999 -0.916144 -0.180015
200 2.8333045800000005 6.12751239 -1.14631812 1.25157 -0.7581869999999999 0.17422
220 2.45295126 7.4443185000000005 -1.14272766 2.070162 -0.635464 0.475678
240 1.69207785 9.18175779 -0.8984292300000001 2.907276 -0.685189 0.995404
260 1.1999003400000001 9.52065405 0.37242684 2.985275 -0.653199 1.7180259999999998
280 1.43671374 9.42051357 1.2835796400000001 2.682829 -0.8655440000000001 2.334686
300 1.72815903 8.80334685 1.18898181 2.499099 -0.934073 2.31533
320 2.0558228400000003 8.42523021 0.062116920000000006 2.183211 -0.639375 2.152513
340 3.00559761 10.083483180000002 -1.2796850700000002 1.7851990000000002 -0.8873840000000001 1.915042
360 3.4844531400000003 12.318338520000001 -2.04025437 1.254924 -1.152835 1.891382
380 3.02251005 11.7823005 -2.54306592 1.000074 -1.6946259999999995 2.269515
400 2.52030672 12.215049030000001 -0.36240102 0.8940459999999999 -1.87042 2.89925
420 2.16284994 15.13772271 1.40512554 0.278289 -1.659409 3.144643
440 1.8353332800000002 14.401256580000002 2.92581288 -0.080813 -1.927264 2.775009
460 0.3094074 12.98444733 2.34202959 -0.052309 -2.564235 2.202389
480 -2.12408082 10.328674320000001 -1.52023608 -0.015913999999999998 -2.852955 1.64647
500 -1.2463114499999999 13.07246265 -1.82904507 -0.097087 -2.741566 1.300725
520 0.033383430000000006 15.270795360000001 1.01997513 -0.407818 -2.373835 1.251081
540 1.5926927400000002 14.88430098 -0.27288477000000005 -0.725499 -1.967421 1.124428
560 2.53288314 10.52072469 -0.37063161000000006 -1.134048 -1.382716 0.978751
580 3.5233694100000004 8.05070403 -0.16720164 -1.477459 -0.648692 0.731857
600 2.8605469500000003 8.14591008 -0.94094577 -1.582008 -0.08430599999999999 0.342639
620 2.2628432700000003 9.875717190000001 -1.04572638 -1.67547 0.059415 -0.085487
640 2.1206375100000003 10.346332319999998 -1.1277576 -1.5978629999999998 -0.407942 -0.493475
660 -0.19414971 8.252044470000001 0.14804271000000002 -1.141396 -1.302709 -0.638691
680 -0.02994012 7.317985320000001 0.31180104000000003 -0.667387 -1.949793 -0.401678
700 0.40131729000000005 7.076384640000001 -0.29982303 -0.156074 -1.589414 0.14088399999999998
720 1.0717719300000002 7.09524927 -0.6969514500000001 0.041352 -0.032937 0.740609
740 0.97222986 7.32681432 -0.7852708800000001 0.106502 0.827155 1.112771
760 0.5620835700000001 7.38234873 -0.97851807 -0.645744 0.944167 1.008022
780 0.46778004 7.03267128 -1.7317494900000001 -1.914401 -0.294818 0.261539
800 0.21495672000000002 7.3057032 -1.99475559 -1.6473919999999995 -1.260567 0.182388
820 -0.03248091 7.678581300000001 -2.49456528 -0.990516 -1.759472 0.234618
840 0.83032821 7.4504595600000005 -3.4277219100000003 -1.078551 -1.5595629999999998 -0.396504
860 2.5885647 7.568415 -4.5394597800000005 -1.248157 -1.316523 -1.352991
880 4.7717802 8.812175850000001 -5.5639278899999995 -1.359775 -1.093181 -1.696956
900 6.92265213 11.092235669999999 -5.78232792 -1.228337 -1.835607 -1.29664
920 8.01762471 11.754606870000002 -3.48251076 -1.235531 -1.673847 -0.717921
940 6.92279928 8.08289064 -1.46829213 -1.428943 -0.8026909999999999 -0.490721
960 5.46393456 6.83343999 -0.64515465 -1.283311 -0.338108 -0.38134
980 2.30940153 10.30322718 -1.71752499 -1.143466 0.011393 -0.525021
1000 2.35295793 16.761846690000002 -1.8236593800000003 -0.958959 0.183529 -0.575228
1020 4.97550447 13.085941590000001 -0.057329639999999994 -0.7375 0.302139 -0.591992
1040 1.1017120500000002 9.91269108 -1.35602649 -0.553909 0.386459 -0.5256569999999999
1060 -2.31464007 9.25360623 -0.31943322 -0.374644 0.210904 -0.468632
1080 -1.01698308 8.649015930000001 2.31598404 -0.266968 -0.256164 -0.442712
1100 1.08629073 9.54804357 3.7868267700000002 -0.391087 -0.761935 -0.393793
1120 1.2406216500000002 11.36227554 1.8821858400000002 -0.599763 -0.8466549999999999 -0.33852600000000005
1140 -0.02140542 10.59451551 0.22108797000000002 -0.550834 -0.579693 -0.275501
1160 -0.67329954 9.79233219 1.01953368 -0.237565 -0.468668 -0.073698
1180 -1.1274534900000002 10.26161316 1.53341091 0.139767 -0.546571 0.166183
1200 0.47751156 10.02959685 1.86108453 0.7294010000000001 -0.424798 0.370971
1220 1.9422132300000001 10.113717600000001 1.1593359900000002 1.6856369999999998 -0.565561 0.643818
1240 2.92372335 9.92765133 0.44322561 2.591617 -1.332974 1.027144
1260 3.4527177900000003 9.2347416 0.21749751 3.101131 -1.998797 1.656466
1280 3.58729137 8.90109369 0.25147935000000005 3.620492 -2.641201 2.015567
1300 3.68009397 9.00961191 0.329616 3.963832 -1.294064 1.029202
1320 3.7184216400000003 9.21034413 0.04759812000000001 3.129294 0.789009 0.307131
1340 3.59642448 9.062752680000001 -0.6032463299999998 1.878562 2.198118 0.122468
1360 3.06517374 8.00176194 -1.73952882 1.3647049999999998 2.047895 0.8379850000000001
1380 2.62314495 7.5459599100000005 -2.54620512 1.566006 0.444697 1.4514
1400 2.25910566 9.22830624 -3.18671964 1.280877 -0.220647 1.31887
1420 1.90523934 9.895327380000001 -2.50444395 0.690067 -0.2779 0.96444
1440 2.26104804 9.49909167 -0.6557886900000001 -0.003161 -0.227634 0.717047
1460 1.7994090600000001 10.399777200000003 -0.4918734 -0.615682 -0.117506 0.614351
1480 -2.07633555 13.26421872 -5.55659982 -1.106178 0.100777 0.531596
1500 -6.91652088 20.20902183 -3.2207014800000002 -1.526062 0.570339 0.419103
1520 -7.7029787700000005 17.38619433 4.99930353 -1.985743 0.717316 0.292858
1540 -1.53071316 12.836110320000001 3.87020196 -2.340418 0.52704 -0.034115
1560 5.46782913 10.484496360000001 -1.5530210999999998 -2.170522 0.760837 -0.57268
1580 8.3526264 12.70632402 -5.1602169600000005 -1.7069919999999998 1.129529 -1.2663950000000002
1600 5.0322357 10.743912 -4.50892125 -1.287266 0.301207 -1.479251
1620 1.41096249 7.1301238200000014 -2.160162 -0.815615 -1.164947 -1.538171
1640 -0.35042301000000003 4.27346163 -1.29675447 -0.778112 -1.439514 -1.373051
1660 0.38859372000000003 3.23657406 -1.50227397 -0.956655 -0.327622 -0.8886139999999999
1680 1.7738147700000002 2.97416637 -1.39555098 -0.376858 0.5958760000000001 -0.302498
1700 2.4960564 2.70891378 -1.3415076900000003 0.34833600000000003 0.913521 0.08565199999999999
1720 2.06256231 1.94819733 -0.9535123800000002 -0.28231 1.998676 0.721858
1740 1.3201022700000002 1.17834777 -1.3218975000000002 -1.7357349999999998 1.267316 0.528909
1760 -0.20283156000000002 -0.02410317 -2.4191165700000004 -0.094782 -2.755649 0.293425
1780 -1.0434798900000002 1.13209362 -1.6407421200000003 0.01451 -0.8880549999999999 0.1572
1800 -1.23059583 3.2648562900000004 -0.46478799 -0.070262 -0.116221 0.087252
1820 -0.21330864 5.71361868 -1.10829456 0.724819 0.114661 0.267699
1840 2.46342834 8.100401490000001 -3.2207014800000002 0.6522140000000001 -1.03366 0.318869
1860 4.75576047 8.13512889 -4.33963008 0.155994 -1.381111 -0.006755
1880 5.93949393 7.616013120000001 -2.9882339100000004 -0.448998 -0.685717 -0.489367
1900 3.25528173 10.126294020000001 -4.1594007600000005 -0.6640739999999999 0.368341 -0.960101
1920 1.73069982 11.168724240000003 -5.361704550000001 -0.540678 0.3156 -0.931398
1940 3.8487965400000004 11.13803856 1.92125907 -0.4446850000000001 -0.369622 -0.420307
1960 3.2579794800000004 16.23149847 4.0257297 -0.08970399999999999 -0.858851 -0.128781
1980 0.9618999300000001 20.333863890000003 -3.39868431 0.220256 -0.6302479999999999 -0.023291
2000 2.9624924700000004 11.486067929999999 0.8722365300000001 0.55707 -0.038932 -0.07083400000000001
2020 6.28737615 18.19885473 -2.30984298 0.845658 0.01794 0.108433
2040 7.632032850000001 20.220548580000003 -4.78644615 1.460473 -0.304144 0.200735
2060 5.85432351 10.591072200000001 1.8648221400000002 1.75574 -0.5685319999999999 -0.005167000000000001
2080 2.6038388700000006 10.745403120000002 1.0777560300000004 2.353343 -0.559758 0.21264
2100 0.78601644 9.21184506 1.42159653 2.893503 -1.543188 0.588346
2120 1.08045378 8.979671790000001 -1.4289246 3.446527 -1.491506 1.036523
2140 4.1155402500000005 10.005346529999999 -2.4698637 3.529085 -0.799764 1.402614
2160 6.98313078 8.9480934 -1.5513730200000002 2.913175 0.608222 1.21491
2180 5.26575294 5.930969040000001 -0.6717986100000001 2.474134 0.536046 1.26321
2200 2.9734208100000004 5.4768150900000006 -2.5533860400000004 1.866358 0.454651 1.099904
2220 2.44845828 7.021899899999999 -2.2372489800000004 1.106818 1.054491 1.202788
2240 2.4962133600000005 8.52537069 -2.2671891000000004 -0.045599 0.786718 0.967551
2260 -0.49591512000000004 6.62627241 -4.32765207 -1.065565 1.12541 1.068951
2280 0.44382402 5.1654555 -3.42936999 -1.638912 1.446164 1.006851
2300 2.74813416 4.62343338 -1.98337599 -2.093813 1.503396 0.675656
2320 2.8765666800000007 4.925659860000001 -3.24734544 -2.382231 1.19723 -0.030993
2340 0.013469130000000001 7.478751600000001 -1.8657246600000001 -2.711585 0.9002950000000001 -0.8789450000000001
2360 -0.27453285000000005 10.96694235 -3.75478731 -3.023071 0.74311 -1.526125
2380 -1.0418318100000001 15.34743108 -3.60345825 -3.070404 0.8211129999999999 -2.07669
2400 -0.0865242 18.14451714 -2.42181432 -2.94352 0.545806 -2.336097
2420 4.97311083 10.20697146 -3.28656582 -2.411912 -0.473793 -2.231732
2440 5.26439916 9.39700881 -4.30504983 -1.552834 -1.424562 -2.041847
2460 2.25057096 14.706318150000001 -5.71436424 -1.032094 -1.544679 -1.227276
2480 3.21816069 12.39631821 -7.390128060000001 -0.763049 0.490185 -0.176874
2500 2.83630644 7.491171060000001 -7.16709771 -0.606951 2.987839 0.590136
2520 2.9289618900000005 4.23184761 -5.230868580000001 -0.171152 3.727033 0.505707
2540 3.77470161 2.93105142 -2.5607239200000005 -1.366218 0.88631 -0.413399
2560 3.3778773000000006 0.5123861099999999 -1.09212768 -0.341889 -3.142861 -0.427786
2580 1.5929870400000001 0.60654249 -1.2464585999999998 -0.305411 -1.7437779999999998 -0.021263
2600 0.77344002 1.8163215000000001 -1.7759043 -0.519706 0.17038699999999998 0.198045
2620 0.22483539 4.131412830000001 -2.87223066 0.5373359999999999 0.202464 0.051564
2640 0.053140770000000004 8.188426620000001 -3.43685502 0.8415729999999999 -0.376358 0.14843399999999998
2660 0.69754986 13.340707290000001 -4.23813582 -0.083022 -0.950822 -0.045295
2680 1.56784401 16.444503 -6.15863952 -0.378093 -1.337716 -0.538242
2700 2.95470333 10.05488703 -4.400697330000001 -0.6501939999999999 -0.471577 -0.8521059999999999
2720 7.02938493 5.73801615 0.76790718 -0.8779030000000001 0.6687270000000001 -1.035687
2740 5.95716174 5.279074919999999 2.7306233100000004 -0.864342 0.786284 -0.609522
2760 2.95381062 9.3241107 -0.7667103599999999 -0.559476 0.867858 -0.228278
2780 -4.79183184 15.72973659 -7.42365864 -0.183069 0.489929 -0.083091
2800 -0.63123426 15.152987070000002 6.649620210000001 0.222398 0.201143 -0.143982
2820 11.828848950000003 11.25929016 2.42765127 0.563878 0.495935 -0.101383
2840 5.40301446 20.715276690000003 -7.666456139999999 1.093073 0.564249 0.204533
2860 5.437290600000001 19.860845310000002 -1.5618501 1.987026 -0.259617 0.5963930000000001
2880 5.399119890000001 9.394016760000001 1.0547025300000001 2.725915 -1.3814110000000002 0.769634
2900 4.48662312 11.48127084 0.58423455 2.764571 -1.349494 0.746363
2920 1.9247023800000003 11.057351310000001 1.42982712 3.164827 -1.597726 0.937484
2940 -1.1455725600000002 9.998008650000001 1.8562874400000002 3.272127 -2.052505 0.821311
2960 -0.53588106 9.00138132 0.80966835 3.524956 -0.748916 0.945321
2980 3.39254325 8.61144363 0.34442910000000004 3.24106 -0.070259 1.172136
3000 4.27032243 7.139855340000001 -0.38096154000000004 2.826702 0.292294 0.909199
3020 3.6664776900000002 5.992938810000001 -2.18844423 2.168618 0.022177 0.831241
3040 3.3718833900000003 5.61362535 -1.27819395 1.634853 0.188091 0.828368
3060 3.87393957 5.6914677 -1.03644612 0.614644 0.7639050000000001 0.506447
3080 3.9172016700000003 6.17810256 -3.1190600699999997 -0.402721 1.345865 0.5092770000000001
3100 3.07505241 6.40383066 -6.514301070000001 -0.972912 1.353681 0.381371
3120 3.02431509 7.562872350000001 -5.85657 -1.4157110000000002 1.3571959999999998 0.152878
3140 1.63534662 5.17384305 -0.91070154 -1.790491 1.019768 -0.120636
3160 0.38080458 6.1804962 -3.3028798500000005 -2.313832 0.694183 -0.562913
3180 -1.46230803 7.2763713 1.0767063600000002 -2.833908 0.868049 -1.233339
3200 -0.34578288 8.774750700000002 0.01332198 -3.017598 1.10586 -1.669693
3220 0.68587596 13.978985130000002 -3.4995703500000004 -3.082094 1.006761 -2.138966
3240 0.14878826999999997 19.36119258 -3.4823538000000003 -3.055832 0.465301 -2.352802
3260 4.20775425 13.966408710000001 -3.75478731 -2.559186 -0.261121 -2.008707
3280 3.0250606500000004 10.53314415 -3.6911694600000002 -1.386478 -0.999638 -1.357568
3300 2.6351229600000003 14.05067661 -5.68412982 -0.37308 -0.462911 -0.06397
3320 2.3020636500000005 10.74525597 -7.243135020000001 -0.352354 2.8435900000000003 1.010842
3340 1.65810582 7.4323404900000005 -5.57231544 -0.503174 4.682784 1.275556
3360 1.6572033000000002 5.126539230000001 -3.35033082 -1.38898 -0.7026600000000001 -0.499116
3380 2.2150980000000002 3.1692087900000008 -2.69903511 0.469621 -3.393351 -0.8266530000000001
3400 2.8437816600000003 1.14332607 -2.7413946900000004 -0.12505 -0.5259149999999999 -0.240549
3420 2.47644621 0.09475478999999999 -2.1368043900000004 0.056769000000000014 0.266315 0.217973
3440 1.6079571000000001 1.0548594900000001 -1.9779903 0.50255 0.23065500000000005 0.224337
3460 1.87111035 3.8719971900000005 -2.52779175 -0.215143 -0.6702130000000001 -0.041236
3480 2.8506682800000003 9.071140230000001 -3.24839511 -0.634813 -1.056363 -0.34598
3500 3.18986865 14.49106713 -3.78727803 -0.475674 -0.786423 -0.589837
3520 1.82679858 15.86849904 -6.98791806 -0.482937 0.124751 -0.674377
3540 2.89857051 10.04875578 -5.56871517 -0.525518 0.305463 -0.275391
3560 8.04981132 5.86644867 -0.33634566000000005 -0.442555 0.543565 -0.217432
3580 7.8162940800000005 5.9288697 5.54940909 -0.194575 0.839026 -0.260944
3600 -4.014654210000001 12.82832118 -10.33824888 0.34044800000000003 0.8356120000000001 -0.137562
3620 -10.125097199999999 14.840440470000003 7.009176330000001 0.8770899999999999 0.688606 0.195388
3640 9.46646361 17.663719230000005 0.8897473800000001 1.615468 -0.552366 0.60165
3660 9.21304188 22.25048283 -4.7717802 2.537332 -1.451506 0.879502
3680 6.06344328 14.53177863 -1.6367004000000003 4.414068 -1.194606 1.606922
3700 6.14457198 11.16992106 1.8874243800000001 4.180239 -2.270438 1.519073
3720 5.250930030000001 12.233011140000002 1.4906000700000002 4.1166480000000005 -1.199723 1.546099
3740 1.49793795 9.608522220000001 1.93308012 3.600293 -0.12154 1.430016
3760 -2.122884 8.93027844 0.9541206 2.827613 0.225417 1.115458
3780 -1.37518542 8.84345994 -0.40385808000000006 2.464546 0.431896 0.677891
3800 1.31441247 9.306295740000001 0.43874244 1.6886580000000002 0.888251 0.713547
3820 3.6814477500000002 9.31901931 -0.63483453 0.7013520000000001 0.8676229999999999 0.068949
3840 5.46857469 8.62326468 -0.060321690000000004 -0.247605 -0.316349 -0.06114500000000001
3860 5.05005066 7.19119107 -1.47637557 -1.454081 0.561937 0.06069400000000001
3880 3.04212024 6.834489659999999 -6.3575765099999995 -2.4990650000000003 0.651795 -0.458399
3900 1.9477460700000002 5.059929330000001 -2.3599917 -3.046579 0.046734 -0.786187
3920 3.55166145 3.9686943600000006 -4.315075650000001 -3.688078 0.680726 -0.801095
3940 0.35341506000000006 6.27166053 -5.453761590000001 -3.886883 2.22281 -1.318274
3960 -3.19151673 5.920335000000001 2.57105385 -3.2462020000000003 2.725458 -2.364505
3980 -1.74507147 4.985834399999999 0.9225324 -2.211846 0.973734 -2.093321
4000 -0.63243108 4.3730037 1.4545287000000002 -1.727915 -0.6749850000000001 -1.264229
4020 1.42039971 3.0353905800000005 -1.42548129 -1.335064 -0.569602 -0.254287
4040 1.35872424 5.9607522 -5.261858370000001 -0.534177 1.296359 0.748772
4060 1.85568903 17.38858797 -2.68212267 -1.637449 0.671245 0.8550979999999999
4080 6.25743603 11.95847829 -3.37412988 -0.026515 -2.193895 0.145768
4100 2.4903665999999998 13.11287985 -3.28776264 -0.068569 -0.104949 0.197277
4120 4.77701874 8.8439112 -7.15152924 0.479103 0.932081 0.924028
4140 6.52642623 6.73898931 -8.121963870000002 1.095384 -0.49372 0.772063
4160 5.1392628 4.53317157 -7.197783390000001 0.179446 -1.94969 -0.096661
4180 3.2368683600000003 1.81483038 -3.78412902 -0.42777 -2.058391 -0.890179
4200 0.7438040100000001 2.05373331 -0.62629983 -0.634927 -0.780087 -1.236163
4220 -0.40969503 5.01412644 -0.10463346000000001 -0.538453 -0.07053200000000001 -1.340016
4240 0.7683486300000001 8.959620150000001 -3.39897861 -0.371343 -0.359619 -0.587519
4260 2.86848324 13.260177 -6.087693600000001 -0.311197 -0.602114 -0.204364
4280 7.89038901 12.307851630000002 -4.400697330000001 0.053828 -0.612798 -0.246666
4300 8.52716592 9.45493686 3.1753498500000004 0.15354 -0.566021 -0.309055
4320 0.58648104 16.613352719999998 -2.29173372 0.442329 -0.567326 -0.233329
4340 -4.76204868 17.75503071 2.78570646 1.035351 -0.931119 -0.08130599999999999
4360 12.270436290000001 20.94803856 -3.1859740800000003 1.595941 -0.890094 0.09561
4380 6.4256873400000005 11.482624620000003 -0.46433673000000003 2.028744 -1.048832 0.255865
4400 3.1903199100000004 11.95863525 -1.5935854500000002 2.300656 -1.244913 0.569936
4420 3.0919746600000004 16.404684210000003 0.7093709100000001 2.821199 -1.811887 0.979155
4440 1.99939572 13.381124490000003 1.42279335 3.259644 -1.425233 1.1419549999999998
4460 1.29615606 11.147622930000002 0.7697024100000001 3.3795610000000003 -1.076309 1.159437
4480 3.23672121 9.80610543 0.52750332 2.8096400000000004 -0.344976 0.982535
4500 5.49327627 8.724003569999999 0.5816937600000001 1.871107 0.369013 0.667417
4520 4.1156874000000006 9.087150150000001 -2.50578792 1.769486 0.941852 0.8251379999999999
4540 4.12436925 8.21072475 -1.88757153 1.294997 -0.087113 0.6810689999999999
4560 3.4030203300000004 6.8394240900000005 -1.22864364 -0.031243 -0.095325 0.687839
4580 1.94670621 5.586235830000001 -2.94243102 -1.295866 0.340247 0.484031
4600 1.3088796300000003 5.0555835 -2.9823969600000004 -2.051973 0.854232 0.209967
4620 2.4551977500000004 5.37022944 -2.78271441 -2.70538 1.586567 -0.144844
4640 2.0378607300000002 4.66280091 -0.9398961000000001 -3.262715 1.897506 -0.6960649999999999
4660 0.20372427 4.8731175 -4.24367847 -3.381864 1.638062 -1.511618
4680 -1.13613534 5.8323196799999995 -1.6395453 -3.223191 1.263666 -2.060164
4700 -1.8092877300000003 6.00042384 0.91145691 -2.892245 0.33041 -2.327985
4720 -0.26135802 6.61519692 -0.47226321000000004 -1.905538 -1.879805 -1.644213
4740 -0.09714843000000001 6.62132817 -2.08516455 -0.804573 -1.981923 -0.7722
4760 0.11391372000000001 10.29993102 -3.9441497400000003 -0.695669 0.34389899999999995 0.116477
4780 4.58092665 18.750608370000002 -4.0462326000000015 -1.061186 0.471808 0.14794300000000002
4800 6.36132393 12.83415813 -3.8711044800000005 -1.728462 -1.822932 -1.1025280000000002
4820 0.73781991 12.38853888 -4.7111544 -0.387192 -0.810353 -1.075229
4840 -0.46463103000000006 11.037593970000001 -5.873482439999999 -1.018193 1.103972 -0.003186
4860 1.5399934199999998 7.0742853000000006 -5.55165558 0.761071 0.699019 0.621853
4880 3.2289320700000004 3.5220254399999997 -4.63570569 0.647991 -1.537146 0.757456
4900 4.850064000000001 0.72553779 -3.4269763500000003 0.039275 -2.62733 -0.210003
4920 4.5144639 -1.2641166000000001 -2.9936294100000005 -0.686575 -1.592699 -1.239756
4940 2.6951405400000006 0.45206442 -2.6180535600000003 -0.989063 -0.24375 -2.385527
4960 1.4545287000000002 6.652170810000001 -3.3792212700000004 -1.346839 0.674605 -2.097578
4980 2.10537315 13.33412478 -5.96778597 -1.475394 0.997125 -1.655577
5000 3.86616024 12.11759649 -4.54814163 -1.411317 0.686412 -1.265898
5020 5.429511270000001 6.4830169799999995 2.30385888 -1.061496 -0.131445 -1.105378
5040 2.7831656700000007 4.23199476 0.6529437900000001 -0.5655359999999999 -0.786546 -1.01348
5060 -5.74145946 18.00905085 -3.6616806 0.013893 -0.88066 -0.89074
5080 -2.0209482900000006 22.38999084 8.621616600000001 0.6751010000000001 -0.476936 -0.6612439999999999
5100 16.99775757 20.33790561 -6.32868606 1.212391 0.0023 -0.559828
5120 13.195960740000002 19.56731049 -0.7286868000000001 1.525375 0.056729 -0.589759
5140 5.9080626899999995 9.899064990000001 0.08636724000000001 1.984815 -0.483986 -0.566629
5160 1.2463114499999999 14.189144760000001 1.27864521 2.714598 -1.578672 -0.238593
5180 -2.18724741 13.309119090000001 3.5784623700000004 3.237472 -2.108125 0.641679
5200 -5.757773490000001 9.10467081 1.2223554300000001 3.0232 -2.449169 1.929964
5220 -0.9139977 8.38796202 0.06780672000000001 2.802 -1.151328 2.835812
5240 5.39358705 7.87362372 1.5751720800000002 2.40333 -0.004077 3.193685
5260 5.04031914 5.61721581 0.9948321 1.814048 0.105871 3.381708
5280 3.09137625 5.475912570000001 -0.16555356 1.17532 -0.647887 3.022494
5300 2.59650099 5.5263555900000005 -1.2614286599999998 1.158526 -1.173731 2.670537
5320 2.66281659 5.389241220000001 -2.5408194300000004 0.852232 -1.525632 3.2916220000000003
5340 1.9247023800000003 6.55846569 -2.11240692 0.121446 -1.7976470000000002 3.484487
5360 -0.13172868000000001 8.631200970000002 -2.43064332 -0.594078 -2.0494830000000004 3.147595
5380 -1.1424235500000002 10.01147778 -2.18006649 -1.144778 -1.94705 3.050682
5400 1.97933427 7.542065340000001 -1.04063499 -1.906188 -1.633438 2.806748
5420 5.968237230000001 5.26320234 -2.59740351 -2.192333 -2.00527 2.002991
5440 5.92527924 8.27374419 0.38230551 -2.258321 -2.068995 0.948277
5460 2.10207699 17.427955500000003 -0.17798283 -2.51652 -1.972102 -0.14644200000000002
5480 -1.9383186600000002 23.13424611 1.00980216 -2.660207 -2.260108 -0.990972
5500 -4.17227148 21.24472239 -0.77838426 -2.572418 -2.468316 -1.745325
5520 -3.7658726099999997 19.97431758 -4.43737692 -1.691197 -2.733579 -2.239826
5540 0.3468325500000001 23.52523347 -5.0960007 0.09437 -3.506701 -1.7242990000000002
5560 6.28243191 16.814389050000003 -2.94661989 1.1593870000000002 -2.768307 -0.557717
5580 7.4920735800000005 11.299099140000001 -2.0275308000000005 1.75263 0.133945 0.6807770000000001
5600 5.10812586 12.91618935 -0.77599062 1.001199 0.977407 1.124169
5620 1.52802522 12.89628486 -1.08942993 -1.733609 1.063699 0.5644359999999999
5640 -1.03914387 10.263555540000002 -1.3162175100000002 -1.683315 0.976845 -1.465792
5660 -1.66753323 7.85910492 -1.3979446199999999 0.140568 -1.963142 -0.960039
5680 -1.22775093 4.33169379 -1.1437675200000001 -0.7114659999999999 -1.395145 -0.007455
5700 -0.26944146 1.2889653300000001 -0.61731387 -1.115422 -2.186585 0.06124
5720 0.01032993 -0.7614620100000001 -1.12536396 -1.617984 -2.794859 -0.301481
5740 -0.71101899 -1.2816372600000001 -1.5338621700000001 -2.218913 -2.5875060000000003 -0.751393
5760 -0.80457696 0.01212516 -1.9374259500000002 -2.10862 -1.508924 -0.711412
5780 0.7123727700000001 3.8363770800000006 -2.34397197 -1.7412869999999998 -0.814002 -0.321972
5800 2.94812082 9.309739050000001 -5.102887320000001 -1.658794 -0.146829 -0.204747
5820 6.50307843 18.927835830000003 -7.558379370000001 -1.3199040000000002 0.206764 -0.478434
5840 5.19360039 17.78497083 -4.31433009 -0.8954489999999999 0.247472 -0.6368229999999999
5860 0.76595499 8.88507396 -5.3374542300000005 -0.460662 0.100155 -0.669917
5880 -3.4516681200000003 8.5982688 3.9454937100000005 -0.374098 0.16895 -0.633081
5900 -3.00619602 13.738130009999999 5.291200080000001 -0.499997 0.217126 -0.583815
5920 -1.68774183 22.03222995 2.93105142 -0.299892 0.122644 -0.572682
5940 7.413485670000001 11.192670450000001 1.04108625 0.043806 -0.38641 -0.6412
5960 7.7865109200000004 8.17090596 3.98830455 -0.218431 -0.95909 -0.789713
5980 1.1811926700000002 8.143967700000001 2.31194232 -0.64251 -1.012305 -0.966727
6000 -0.15268283999999996 11.983631130000001 2.8104080400000004 -0.901458 -0.706734 -0.967859
6020 -0.55280331 12.5314902 2.06151264 -1.016291 -0.490602 -0.838615
6040 0.30177522 11.42529498 1.5762217500000002 -0.924931 -0.632274 -0.654061
6060 0.30775932000000006 10.85617764 1.55571885 -0.400632 -0.841426 -0.486693
6080 -1.1602385100000001 10.09530423 0.48902850000000003 0.290966 -0.854102 -0.314135
6100 -0.59501574 9.72064071 -0.44726733 0.902104 -0.8244540000000001 -0.00012
6120 1.19362194 8.55007227 -0.40820391000000006 1.659243 -0.830472 0.314961
6140 2.0989377900000004 6.706802700000001 -0.28620675 2.69936 -0.648388 0.7642369999999999
6160 2.71235709 5.99967828 -1.8076396500000003 3.116019 -0.442101 1.56164
6180 2.58497424 6.6903415200000005 -0.94379067 2.614345 -0.255738 2.27681
6200 1.7326422000000001 8.56384551 -0.42332112000000005 2.361224 -0.369578 2.4599900000000003
6220 1.57846824 9.954452250000001 -0.31658832000000003 2.151267 -0.35485900000000004 2.424322
6240 1.7554014000000002 9.115295040000001 1.63146186 1.705288 -0.5009170000000001 2.041107
6260 2.1136037400000003 7.91703297 2.06031582 1.30894 -0.775876 1.881662
6280 2.79453546 8.15414067 0.95531742 0.953534 -1.317666 2.0807
6300 2.7966348 9.58936329 -1.09602225 0.891252 -1.654881 2.54751
6320 2.00657664 11.287582200000001 -2.44097325 0.63573 -1.640679 2.680303
6340 1.3332771 12.517265700000001 -1.6357978800000001 0.214612 -1.697301 2.55352
6360 0.9174410100000001 11.45447973 0.025751250000000003 0.064868 -2.14062 2.191983
6380 1.6458237 14.57009649 0.27228636 0.173966 -2.587435 1.681639
6400 2.65473315 14.419061730000001 2.1399534 0.186758 -2.496461 1.2981200000000002
6420 2.3067037800000003 12.450959910000002 3.73294044 -0.042062 -2.128276 1.0642459999999998
6440 0.030391380000000003 9.81404172 0.47751156 -0.300342 -1.6482150000000002 0.850319
6460 -0.63887625 11.10031911 -2.26344168 -0.484418 -1.03314 0.6410100000000001
6480 -0.04235958 14.64404427 0.4366431 -0.701333 -0.431533 0.365259
6500 1.10095668 17.31928032 -0.5547456900000001 -1.134242 0.107793 0.13401300000000002
6520 2.5632745200000002 13.114233630000001 -1.0681814699999999 -1.559799 0.40402 -0.315856
6540 4.57463844 9.09075042 -1.0792569600000002 -1.809673 0.421339 -0.966035
6560 4.0577593499999995 8.500070700000002 -1.1047041 -1.996643 -0.049333 -1.381207
6580 2.3502601800000003 9.13370841 -1.20020445 -1.818298 -1.330835 -1.27577
6600 2.12692572 9.6073254 -0.65847663 -0.28534 -2.115486 -0.5889409999999999
6620 1.7774052300000003 8.45606304 -0.40445649000000006 0.481497 -0.311598 1.047415
6640 0.42960933 7.96987944 -0.33619851000000006 0.229171 0.134418 1.615512
6660 -0.48543804 7.055126370000001 -0.6417113400000001 -0.123923 0.705008 1.222413
6680 -0.38005902 6.901845120000001 -1.4721867000000002 0.288662 0.022034 0.366252
6700 0.20747169000000001 7.26199965 -1.3304322000000002 -0.970434 -0.545515 0.065491
6720 0.40969503 7.07054769 -1.31606055 -1.487667 -1.263409 0.487951
6740 0.6236020800000001 6.215076450000001 -1.22041305 -0.8820180000000001 -0.79166 0.8034979999999999
6760 0.84753495 5.88336111 -0.8599642200000001 -1.241325 -1.207396 -0.145992
6780 0.6170195700000001 6.06942738 -1.27085607 -1.397988 -1.491703 -1.902879
6800 0.33395202000000007 5.44687497 -1.6631874 -1.708286 -0.6233380000000001 -2.739373
6820 0.70084602 5.19898608 -2.6150615100000003 -1.296428 -1.439991 -2.135108
6840 3.48370758 6.048169110000001 -4.420160370000001 -1.224944 -1.995441 -1.0229469999999998
6860 7.353007020000001 10.37433006 -7.58667141 -1.512556 -1.144397 -0.7461720000000001
6880 11.8605843 17.026942320000003 -8.4972258 -1.469791 -0.448665 -0.5438029999999999
6900 10.928477339999999 17.37706122 -5.529651750000001 -1.1986 -0.085612 -0.461189
6920 5.47815906 9.66270285 -7.57918638 -0.776676 0.22849 -0.255682
6940 5.98291299 4.94511309 -5.092861500000001 -0.541068 0.320885 -0.122763
6960 2.7401978700000003 8.461752839999999 0.09909081000000002 -0.4503720000000001 0.052254 -0.155969
6980 1.16861625 13.92479469 3.86511057 -0.424654 -0.297757 -0.294209
7000 4.0083660000000005 20.09091924 -3.55345668 -0.402715 -0.560317 -0.453953
7020 3.4587117000000003 6.20744427 3.07999665 -0.450829 -0.622842 -0.493733
7040 -4.2861852 10.19036313 -1.9911553200000003 -0.7175739999999999 -0.6664979999999999 -0.533996
7060 -4.57568811 8.418490740000001 2.4742095300000004 -0.959035 -0.8176899999999999 -0.610265
7080 -0.68063742 8.578207350000001 4.4045919 -0.969349 -0.775958 -0.647778
7100 0.73916388 12.081829230000002 3.3314760000000003 -0.816706 -0.350114 -0.713487
7120 0.84888873 10.973681820000001 1.51035741 -0.622265 0.113952 -0.783226
7140 0.50100651 8.00984538 0.8843616900000001 -0.448062 0.341621 -0.8592129999999999
7160 -1.39150926 8.08184097 0.42332112000000005 -0.238894 -0.106579 -0.844359
7180 -0.7369173900000001 9.78110955 0.56477151 -0.056868 -0.493566 -0.663131
7200 2.49306435 9.7519248 1.09063656 -0.081374 -0.380877 -0.31841
7220 4.0026762 8.656795259999999 0.10104300000000001 0.027086 -0.178925 -0.033765
7240 3.94190325 8.475378930000002 -1.20230379 0.34656 0.119482 -0.07678099999999999
7260 3.1145769000000003 8.75589588 -1.5476354099999998 0.7806310000000001 0.257782 -0.140156
7280 1.99834605 9.489213000000001 -0.6195603599999999 1.391816 0.101797 -0.023523
7300 1.3937557500000002 9.78305193 0.9397489500000001 2.372719 -0.327312 0.407962
7320 0.82777761 9.50762637 1.57547619 2.548964 -0.649629 1.470351
7340 0.11570895 9.472898970000001 1.29840255 2.156804 -1.021633 2.663428
7360 0.31838355 9.60597162 1.15813917 2.738886 -0.715403 2.833745
7380 1.1648786400000002 9.69503661 1.07536239 2.989435 -0.174688 2.461992
7400 1.16143533 9.74473407 0.29488860000000006 2.343975 0.264149 1.704893
7420 1.2081407400000002 9.452690370000001 -0.50834439 1.544722 0.250655 1.244265
7440 2.03157252 8.91920295 -0.46642626 1.290327 -0.015088999999999997 1.320809
7460 3.7320379200000002 9.039699180000001 0.91758816 1.239977 -0.350049 1.746039
7480 3.34898685 9.13655331 1.6976205000000002 1.105479 -0.759926 2.065023
7500 1.27864521 9.530385570000002 1.5290748900000002 0.914842 -1.008082 2.216765
7520 0.07380063 11.424990870000002 0.29249496 0.472605 -1.183159 2.160489
7540 1.35857709 11.479328460000001 -0.62390619 -0.020186000000000003 -1.010744 1.828882
7560 2.7852552000000004 12.162957930000001 -0.19310004 -0.464115 -1.389134 1.46948
7580 3.92663889 12.554543700000002 2.5307838000000005 -0.406073 -1.7465099999999998 1.014212
7600 2.40983631 10.413246330000002 1.8914661000000002 -0.5433899999999999 -1.41611 0.559904
7620 -2.30835186 8.90273196 -3.3465932100000004 -0.8519620000000001 -0.64657 0.192499
7640 -2.81369439 13.14251586 -0.65683836 -1.104502 0.076693 -0.10609
7660 -2.78735454 16.33553352 0.56357469 -1.277102 0.659667 -0.28964
7680 -1.95942978 18.895502070000003 -0.5522049 -1.272229 0.8065 -0.516257
7700 1.3823761500000002 14.14004571 -1.5405918300000003 -1.0935709999999998 0.502976 -0.6908770000000001
7720 3.62111625 9.08475651 -1.8712575 -0.901487 -0.002471 -0.730548
7740 3.27249828 7.9197307200000004 -2.19608622 -0.900583 -0.477731 -0.694682
7760 2.4050490300000003 8.423130870000001 -2.31882894 -1.107859 -0.719078 -0.632795
7780 1.67831442 8.37718083 -2.3622381900000002 -1.352523 -0.494775 -0.56963
7800 1.8751520700000002 8.340658200000002 -2.05642125 -1.35381 0.033194 -0.466698
7820 1.16442738 8.41939326 -0.8482903200000002 -1.032555 0.277279 -0.246849
7840 -0.8220878100000001 7.1636544 -1.0756665 -0.878862 0.271604 -0.026783
7860 -0.6709058999999999 6.14816244 -0.7111759500000001 -0.916514 0.032731 -0.197656
7880 -0.18262296000000003 5.59760562 -1.71019692 -0.795601 -0.356652 -0.429184
7900 0.7188081300000001 5.07564495 -2.5797357 -0.822824 -0.450417 -0.400412
7920 1.65062079 4.97909493 -1.8995495400000002 -1.052602 -0.4149600000000001 -0.277081
7940 1.3482471600000001 4.65217668 -1.73204379 -0.991834 -0.7067680000000001 -0.08293400000000001
7960 1.74731796 4.13021601 -2.00073969 -1.4402629999999998 -0.870919 0.063695
7980 2.47076622 4.39381071 -2.5782347700000003 -0.547513 -2.655001 -0.240772
8000 3.13762059 5.29688988 -2.38199553 -0.731805 -0.377226 -0.400939
8020 3.4075133100000006 6.31581534 -1.95104223 0.199769 -0.136378 -0.433196
8040 3.1603797900000004 7.273526400000001 -2.20520952 1.4795040000000002 -0.394332 0.6261359999999999
8060 3.21636546 7.762711860000001 -1.9273903200000002 1.684511 -1.768243 0.641079
8080 3.4124575500000005 7.65492939 -1.5486752700000002 1.387943 -2.2541900000000004 0.145043
8100 3.99638799 6.5508237000000005 -1.09571814 0.922815 -1.018297 -0.293488
8120 3.8441564100000005 6.08829201 -2.38469328 0.6195609999999999 0.351628 -0.29202
8140 2.2781174400000004 7.248824820000001 -3.4578091800000004 0.957946 0.37937 -0.064297
8160 1.32848982 7.870484520000001 -3.0985571700000003 1.627135 0.034893 0.252739
8180 1.0844955 7.70627493 -1.47637557 2.611968 0.032944 0.95076
8200 0.44143038000000007 6.84436833 -0.09714843000000001 3.242797 -0.564611 1.718643
8220 2.15117604 7.835305860000001 -0.43544628 2.980223 -0.493997 1.337499
8240 6.05700792 8.88806601 1.77501159 2.514263 -0.7149479999999999 1.052517
8260 3.74131818 12.784617630000001 2.96383644 2.013013 -0.659038 0.825686
8280 1.2461544900000001 23.388864660000003 -3.8119698 1.908236 0.283815 0.629329
8300 5.6993941800000005 20.21186673 -4.25325303 1.534706 0.89794 0.555431
8320 5.96658915 25.40921454 0.42332112000000005 0.338472 0.7476970000000001 -0.261376
8340 5.174441460000001 8.419540410000002 0.5590915200000001 -0.580333 0.376271 -0.35277600000000003
8360 1.8805377600000002 6.525533520000001 -0.35611281 -1.225171 0.699495 -0.171824
8380 1.04362704 9.369315180000001 -1.33253154 -2.29361 1.772673 -0.42208
8400 3.1392686700000008 12.97786482 0.76790718 -3.08931 1.651368 -0.8312709999999999
8420 2.74978224 8.568181529999999 -0.8451413100000001 -3.246402 1.471311 -0.954983
8440 2.4917203800000003 5.461089660000001 -3.7131831 -3.149335 1.341405 -1.31947
8460 2.7677443500000005 4.831650629999999 -1.8616829400000001 -2.748831 1.297732 -1.932981
8480 4.09308516 3.16831608 -3.9182513400000003 -2.213473 0.34344 -1.6470759999999998
8500 2.1911419800000003 7.071293250000001 -2.4418757700000002 -1.6729900000000002 -0.061566 -1.000781
8520 -2.75996502 5.308112520000001 -1.07446968 -1.020252 0.674449 -0.213089
8540 -1.60915392 1.58430519 1.35558504 -0.972719 1.57125 0.318068
8560 -0.7258419 0.12319398000000001 -0.14983794 -1.542837 0.32758200000000004 -0.129769
8580 0.88945308 3.2945021100000003 -3.7103382000000003 -0.31129 -1.802925 -0.67498
8600 0.93585438 12.410238600000001 -4.3063938 0.054304999999999985 -0.272962 -0.250303
8620 5.707183320000001 22.768548929999998 -4.301459370000002 -0.007923999999999999 0.655103 0.283252
8640 4.42779255 11.129503860000002 -5.77903176 1.172184 0.672558 0.755081
8660 2.00537982 11.46226887 -3.44238786 0.765188 -0.628961 0.513556
8680 3.9570204600000003 7.90550622 -5.58937503 0.12313 -1.543034 0.022065
8700 5.1364179000000005 4.86668214 -6.725068919999999 -0.447858 -1.7929080000000002 -0.664197
8720 4.144283550000001 3.7829322000000003 -5.28775677 -0.791042 -0.531691 -1.147842
8740 3.16741356 2.17078623 -3.43625661 -0.629283 0.366679 -1.10727
8760 1.7208211500000001 4.74633306 -1.96242183 -0.455067 0.712458 -0.351264
8780 1.9559864700000003 9.03790395 -3.682193310000001 -0.297581 0.301261 0.044537
8800 2.65368348 12.359344320000002 -4.43886804 -0.05914700000000001 -0.216657 -0.113367
8820 4.847219100000001 11.5685406 -3.21785658 0.023703 -0.07956 -0.370405
8840 4.5378117 6.22555353 -0.22019526000000003 0.431376 0.172604 -0.3807
8860 0.4249692 10.421025660000002 0.25581537 1.160353 -0.192204 -0.09313
8880 -5.58817821 21.89855889 -1.05366267 1.660092 -0.8329 0.12269
8900 6.40562589 16.63071642 4.07707524 1.7255900000000002 -0.837951 0.263091
8920 10.489283640000002 16.059951 -5.847593850000001 2.38086 -1.384967 0.626223
8940 7.12473813 19.653981840000004 -1.89760716 2.808911 -2.286497 0.864309
8960 6.78149604 8.73897363 2.30086683 3.240184 -1.793453 1.067516
8980 4.67148276 11.00422035 -1.64103642 3.281743 -1.138159 1.260314
9000 0.7824259800000002 10.346332319999998 2.79962685 2.955641 0.38943 1.280648
9020 -1.22550444 10.762021260000001 0.4713705 2.438556 0.185817 1.232432
9040 1.42143957 12.66396444 0.21390705000000002 1.796586 -0.2137 0.99986
9060 4.258942830000001 8.9105211 0.18067077 1.066098 0.662011 1.086571
9080 3.4040700000000004 5.989348350000001 -2.55398445 -0.008556999999999999 1.039685 0.811525
9100 2.32392033 6.27675192 -2.31464007 -0.790903 1.434472 0.798077
9120 2.9223695700000003 6.50996505 -0.99213435 -1.339091 1.614688 0.6946720000000001
9140 4.2599925 6.31970991 -1.4911984800000002 -1.658047 1.562675 0.39234
9160 4.65411906 5.407801740000001 -3.1720536900000003 -1.82904 1.205342 -0.141439
9180 3.22564572 5.39837433 -4.2610421700000005 -2.205292 0.8197030000000001 -0.6114539999999999
9200 3.6616806 4.76145027 -1.0054563300000001 -2.70317 0.642335 -1.111428
9220 1.6603425000000003 4.540362300000001 -4.299212880000001 -3.06453 0.589542 -1.714225
9240 0.38410074000000005 6.16418217 -2.9767071600000006 -3.165034 0.8747809999999999 -2.0955790000000003
9260 0.14923953 7.16335029 0.87373746 -2.783142 0.5753729999999999 -2.143803
9280 -0.2809682100000001 10.7757945 -2.36044296 -1.884291 -0.480198 -1.887276
9300 0.47586348000000006 17.11974492 -4.14098739 -0.914958 -1.3713879999999998 -1.241635
9320 -1.13689071 21.25010808 -4.2167304 -0.359831 -1.157298 -0.384522
9340 3.2067810900000002 11.26661823 -4.31657658 -0.321667 1.833292 0.290233
9360 3.38655915 10.84314996 -4.402345410000001 0.156636 3.39011 0.8278270000000001
9380 3.31904673 15.87299202 -7.51212522 0.323684 4.269213 0.620632
9400 3.18477726 11.183243040000002 -8.1786951 -1.191523 0.40515 -0.118869
9420 2.5572806100000003 7.78351887 -6.132446820000001 -0.347693 -3.737203 -0.443088
9440 3.1964511600000005 6.10011306 -3.5224767000000003 -1.006426 -1.589681 0.145626
9460 3.63115188 4.7362974300000005 -1.5138007199999999 0.149474 0.145045 0.360849
9480 2.7384026400000003 3.1424176800000003 -1.1124834300000002 0.041625 -0.928181 -0.22071
9500 1.94759892 2.35909899 -2.10028176 -0.924565 0.179392 -0.635871
9520 1.4672522700000001 2.39711274 -3.1874750100000004 -0.48738 0.983914 -0.010006
9540 0.30357045 3.5458245 -3.05529507 0.315835 -0.590765 -0.123087
9560 -0.42990363000000004 5.53489029 -2.81549943 0.402675 -1.025592 -0.415684
9580 -0.23545962 9.492960420000001 -2.42465922 0.453734 -1.090517 -0.20800900000000005
9600 0.13726152 13.7087883 -2.8487259 0.80685 -0.753522 -0.339502
9620 1.36291311 13.842312210000001 -6.796466100000001 0.884877 0.034332999999999995 -0.295102
9640 6.892113600000001 8.99628993 -1.41904593 0.8867709999999999 0.09459 -0.180866
9660 7.1349111 5.154831270000001 1.50497172 1.100981 -0.31251 -0.059207
9680 4.74573465 4.37165973 2.0251371600000003 1.302517 -0.784171 -0.031558
9700 -0.59681097 5.2838622 -4.69872513 1.5338969999999998 -0.660958 0.123725
9720 -5.1361236 10.62026676 -3.68803026 1.9766 -1.032508 0.480874
9740 4.778362710000001 12.835511910000001 9.46661076 2.38292 -1.476178 0.7897930000000001
9760 20.82798378 23.16986622 -1.11817323 3.058107 -1.435049 1.107445
9780 -0.76595499 9.891727110000001 0.63213678 3.183916 -1.237154 1.325988
9800 -1.47967173 9.53187669 -0.15268283999999996 3.062111 -1.015359 1.111208
9820 7.419018510000001 25.651403820000002 -1.56918798 2.424946 -0.394273 0.591079
9840 7.653281310000001 14.6891016 -1.31187168 1.790607 0.608431 0.538361
9860 3.2060355300000003 10.16521029 0.50235048 1.556031 1.300926 0.724911
9880 2.2384458 9.967774230000002 -0.53917722 0.49934 -0.122438 0.34868000000000005
9900 0.63692406 10.66487283 -0.10687995 -0.4669 0.542979 0.216097
9920 2.60428032 10.61727471 -1.76827212 -1.380934 1.462683 0.116666
9940 5.31499914 7.513174889999999 -0.31374342 -2.512405 1.374749 -0.088745
9960 4.63256649 5.65598493 -2.2758709500000003 -3.101699 0.822729 -0.325027
9980 3.10109796 4.694683410000001 -3.2111269200000003 -3.375514 0.8397120000000001 -0.8706860000000001
10000 2.24832447 4.2927775200000005 -0.83780343 -3.46417 1.259649 -1.380317
10020 2.4984500400000003 4.071532590000001 -2.2350024900000003 -3.33649 1.41878 -1.858192
10040 1.6229271600000001 5.24719242 -3.3591598200000004 -2.763364 0.914277 -1.931523
10060 -0.051198389999999996 5.769604350000001 -1.70675361 -2.081763 -0.605531 -1.276404
10080 -0.49172625000000003 5.745648330000001 -1.7591390100000002 -1.498714 -0.91434 -0.747438
10100 -0.9306158400000001 6.5647440900000005 1.33941816 -0.7226090000000001 0.715947 0.07308400000000001
10120 -0.11945637 5.4506125800000005 0.16705449 -0.561995 1.506355 0.738695
10140 0.87762222 5.328919530000001 -3.12864444 -1.100347 -0.533172 0.021839
10160 0.44412813 10.7410671 -6.20938665 0.072516 -1.189338 -0.47226
10180 2.5282430099999997 19.27961262 -4.388425020000001 -0.234356 0.965151 -0.065899
10200 5.9619490200000005 10.30667049 -3.14301609 0.294574 0.481834 0.460776
10220 1.69043958 11.72497086 -4.39904925 0.704871 -0.064074 0.493183
10240 3.4073661600000005 9.20749923 -5.8902477300000005 0.5061479999999999 -1.54436 0.021538
10260 3.8239478100000004 8.04531834 -7.343579610000001 0.180442 -1.6890759999999998 -0.534959
10280 4.66624422 4.671335610000001 -6.0990633899999995 -0.156478 -1.278493 -0.888215
10300 5.2317711000000005 2.7345178800000003 -4.1876928 -0.34548 -0.245108 -1.007296
10320 3.1100839200000006 0.03322647 -2.6485920899999997 -0.378274 0.161619 -0.660874
10340 0.3646377 1.70450712 -0.8035272900000001 -0.266978 0.413103 -0.244881
10360 -0.43724151 7.343726760000001 -2.4343907400000004 0.315237 0.209435 0.099142
10380 -0.15462522000000004 13.61060001 -4.63570569 1.537853 -0.466025 0.38949
10400 1.8077868000000001 13.961768580000001 -4.891079610000001 2.239183 -0.916596 0.570154
10420 6.03125667 10.23691158 1.4636520000000002 2.801911 -1.1089950000000002 0.511306
10440 5.99667642 8.24724738 3.06428103 3.23156 -1.576324 0.5896819999999999
10460 -1.4871567600000002 15.75324135 -6.1550490600000005 3.463534 -1.148074 0.918698
10480 -3.4530219000000004 18.50586849 5.382207449999999 3.314213 -0.7508100000000001 1.068833
10500 12.68252496 16.2102402 -1.9404180000000002 2.773692 -0.312729 0.941651
10520 4.92610131 18.86631732 -2.24234037 2.280554 0.000381 0.590633
10540 8.03529252 12.82413231 1.02237858 1.911494 0.168206 0.500246
10560 4.74528339 12.92996259 -0.8020361700000002 1.37959 0.442092 0.667095
10580 1.73878326 12.453049440000001 0.94468338 0.636568 0.7631819999999999 0.135928
10600 -0.26824464000000003 11.121577380000002 1.99744353 -0.439931 0.251374 -0.143332
10620 1.06698465 10.6775964 0.03503151 -1.099008 0.585989 0.13151
10640 3.99683925 10.77249834 -0.20223315000000003 -2.2807060000000003 0.704942 -0.08626900000000001
10660 3.94355133 8.46878661 -0.9693849600000001 -3.124426 0.328202 -0.51149
10680 3.30213429 7.416928980000001 -3.14166231 -3.465329 1.109234 -0.794747
10700 3.27039894 6.9708584700000005 -3.65704047 -3.545475 2.165503 -1.136355
10720 2.4676172100000002 6.555463830000001 -1.3883602500000003 -3.091486 1.875726 -1.789769
10740 0.10104300000000001 4.4771859 -3.57366528 -2.277157 0.800078 -1.500692
10760 -1.05426108 3.5322082200000002 -2.40579459 -2.094791 0.269422 -0.8236209999999999
10780 -0.19145196 3.3183011700000002 -1.2073853700000001 -1.51941 0.76862 -0.153672
10800 -0.6794406000000001 4.1706234 0.60982884 -0.584138 1.314515 0.248472
10820 -0.9383951700000001 3.7706598900000006 2.2489228800000003 -1.370444 0.5598989999999999 -0.034858999999999994
10840 0.03967164 2.5421633999999997 0.34279083000000005 -0.209328 -0.715535 -0.433175
10860 1.2600748800000001 3.23746677 -3.1554355500000004 0.117406 -0.8318639999999999 -0.130573
10880 -0.1070271 7.99068645 -4.11149853 -0.748635 -0.267452 0.132914
10900 1.6639427700000002 18.86002911 -2.09399355 -0.5113260000000001 -0.8055760000000001 -0.03245
10920 6.18184017 11.475738 -4.782855690000001 -0.57193 -1.482943 -0.283037
10940 2.7952908300000003 12.603338640000002 -4.10057019 -0.635128 -1.259403 -0.718531
10960 3.4913397600000002 9.70087356 -5.90911236 -0.6753439999999999 -0.722541 -1.206609
10980 4.35759219 7.974970830000001 -8.836122060000001 -0.557917 -0.509844 -1.484868
11000 4.5750897 5.145099750000001 -7.321870080000001 -0.72523 -0.107083 -1.3615700000000002
11020 3.85014051 3.02341257 -4.14293958 -0.732536 0.535838 -1.228918
11040 3.0725116199999998 3.7390716900000003 -0.38799531000000004 -0.7782720000000001 0.7302850000000001 -1.06498
11060 2.47240449 5.81854644 -0.55340172 -0.616322 0.473936 -1.034678
11080 2.2270662000000003 9.76688505 -3.83562171 -0.394786 0.180103 -1.006049
11100 2.1026754000000003 14.435532720000003 -5.51168964 -0.162613 0.126943 -0.966971
11120 5.367541500000001 12.42266787 -0.8169964200000002 0.105542 -0.032704000000000004 -0.969166
11140 3.72679938 11.367357120000001 1.3084283700000001 0.509022 0.037157 -0.9408
11160 0.37018035000000005 19.69753824 -3.28611456 0.7426050000000001 -0.047423 -0.771349
11180 3.3353607600000004 14.154270210000002 5.539079159999999 0.7613439999999999 -0.389328 -0.5336350000000001
11200 10.40635971 12.53014623 -1.12969998 0.918197 -0.860722 -0.534072
11220 6.7898835900000005 16.81692984 -1.93322727 1.336508 -0.908778 -0.6005229999999999
11240 6.00955695 17.41718412 0.72853965 1.730329 -1.414841 -0.661217
11260 3.0103947 12.40410735 2.13785406 2.404184 -1.227636 -0.375807
11280 -0.6162642 10.340495370000003 2.29158657 3.011946 -1.185073 0.7062189999999999
11300 -3.0482613 9.37230723 0.66028167 2.766751 -1.087066 1.715987
11320 -1.8871300800000002 9.45014958 0.45999090000000004 2.594814 -0.5295920000000001 2.313344
11340 -0.09415638000000001 6.931333980000001 2.73122172 2.531763 -0.141138 2.726876
11360 0.9122024700000001 5.807922210000001 1.63235457 2.009574 0.025762 2.999684
11380 1.18209519 7.069350870000001 -0.25282332 1.649025 -0.500142 2.694465
11400 1.5429952800000002 6.5985787799999995 -1.2663630900000002 1.359754 -0.626696 2.359321
11420 2.4189694200000003 6.0933834 -0.54441576 0.825168 -1.157203 2.5560240000000003
11440 2.8812068100000006 6.537354570000001 -0.46778004 0.210714 -1.380779 2.789164
11460 3.6694697400000003 6.821010720000001 0.22632651000000004 -0.30632600000000004 -1.360589 2.71716
11480 3.2976413100000004 7.867041210000001 -0.23890293 -0.909533 -1.234835 2.694626
11500 2.8487259 8.4767229 -1.20723822 -1.7320669999999998 -1.191737 2.486931
11520 2.09250243 9.07862526 -3.59941653 -2.336432 -1.496828 2.051539
11540 1.8778498200000002 9.64504485 -2.6435007 -2.646127 -1.657618 1.238802
11560 3.4545130200000003 8.679103200000002 -2.6755401600000006 -2.83818 -1.729655 -0.025086
11580 4.61280915 8.71068159 -0.43888959000000005 -2.527631 -1.81056 -0.840003
11600 3.40347159 8.868161520000001 1.5081109199999998 -1.82389 -1.883611 -1.296465
11620 0.9479795400000001 14.590756350000001 -1.5476354099999998 -0.537347 -3.135384 -1.327535
11640 -2.08755819 15.42003489 -0.16720164 0.975941 -4.7487 -0.653668
11660 -3.16621674 18.02447217 2.0121192900000002 1.483927 -2.375509 0.031569
11680 -6.739283610000001 21.0372507 -2.08666548 1.54031 0.426231 0.49839
11700 -3.3169572 23.942707830000003 -5.7583719 0.549798 1.076165 0.529095
11720 1.8636253200000001 21.24217179 -4.68360792 -1.487561 0.800416 0.391303
11740 6.584059980000001 13.89800358 -4.0547673 -2.285231 -0.428206 -0.69053
11760 6.740333280000001 10.59616359 -2.06165979 -1.24599 -0.875123 -0.916639
11780 4.22945397 10.010879370000001 -0.06392196 -0.5958 -0.84577 -0.030852
11800 0.29443734 9.58726395 0.54097245 -0.954965 -1.2515040000000002 -0.286009
11820 -1.02477222 8.4047175 -0.9096616800000001 -1.14553 -2.402292 -0.580695
11840 -1.00994931 7.552248120000002 -2.39935923 -1.4009200000000002 -3.012794 -0.8669120000000001
11860 -0.10673280000000002 4.651431120000001 -3.0573944100000006 -1.570884 -2.844968 -0.864041
11880 0.27527841000000003 0.62749665 -3.51753246 -1.40409 -2.004068 -0.575534
11900 1.0591955100000001 0.47450970000000003 -2.123629560000001 -1.189083 -0.818438 -0.224106
11920 2.30012127 1.82650428 -1.75794219 -1.075848 -0.234307 -0.146083
11940 2.98868517 4.3234632 -2.36463183 -0.960054 -0.019987 -0.296169
11960 3.1795387200000005 8.52522354 -5.610182040000001 -0.824304 -0.14649 -0.479861
11980 4.2430800600000005 14.81080446 -7.3827999900000005 -0.651419 -0.23511 -0.578952
12000 4.84916148 12.68911728 -2.8699841700000004 -0.501891 -0.178189 -0.557685
12020 2.3760114300000006 6.520589280000001 -0.8129547 -0.392392 -0.270164 -0.5621430000000001
12040 -0.46837845000000006 6.2863264800000005 4.08755232 -0.329071 -0.5394359999999999 -0.6777920000000001
12060 -1.7458170300000002 10.42896195 -2.2528174499999998 -0.388908 -0.8659899999999999 -0.7472260000000001
12080 1.94805018 20.222049509999998 3.7453599000000004 -0.564674 -1.052826 -0.757828
12100 3.8446076700000003 21.01599243 -2.17258146 -0.827743 -1.021801 -0.82914
12120 5.4401355 10.05624081 0.97851807 -1.1620700000000002 -0.7877850000000001 -0.985599
12140 2.5680618 10.0818351 3.35871837 -1.123625 -0.40296 -1.0841
12160 1.0737143100000002 9.1129014 3.1275947700000004 -0.7388979999999999 -0.148016 -0.970644
12180 -0.018413370000000002 9.301802760000001 2.93989023 -0.379523 -0.34442 -0.6516890000000001
12200 -0.49023513 10.650648330000001 1.79821224 -0.197036 -0.490149 -0.330829
12220 -0.43544628 11.33667144 0.8222447700000001 0.113884 -0.499202 -0.201527
12240 -0.12364524000000002 10.051443720000002 -0.18052362000000002 0.709569 -0.649379 -0.191833
12260 0.16091343000000002 9.35719002 0.8319664800000002 1.243806 -0.561403 -0.277944
12280 0.6902119800000001 8.81502075 0.69724575 1.567228 -0.414909 -0.16371
12300 1.58116599 8.46923787 0.12080034 2.145785 -0.503432 0.159843
12320 2.12139288 7.6728915 -0.69889383 2.699068 -1.091929 0.860943
12340 1.93008807 6.81637059 -1.3611178800000001 2.682592 -1.408037 1.603647
12360 1.7235189000000002 7.58083446 -1.2501962100000001 2.41276 -1.605099 2.099806
12380 1.81153422 8.94539565 -0.44472654 2.452293 -0.6697069999999999 2.31146
12400 1.7925224400000002 9.30150846 0.35880075000000006 2.292783 0.023823 2.174861
12420 1.70345745 8.83298286 0.71820972 1.741378 -0.269064 1.8381
12440 1.53535329 8.276736240000002 0.5613282000000002 1.033147 -0.729991 1.568824
12460 1.445994 9.317371230000001 0.8434932300000001 0.6701199999999999 -1.33449 1.739047
12480 1.7148370499999999 9.89098155 1.17760221 0.515474 -1.835325 2.177648
12500 2.18650185 9.879160500000001 1.21113279 0.194304 -2.231792 2.50172
12520 1.93652343 11.206600650000002 0.47555937000000004 -0.252795 -2.357515 2.628013
12540 0.03907323000000001 12.127328010000001 -1.67935428 -0.486021 -2.487893 2.4011560000000003
12560 -0.11480643 11.77436421 -2.50593507 -0.591808 -2.821889 2.101743
12580 2.12199129 11.950394850000002 -0.8508311099999999 -0.7297140000000001 -2.881182 1.864779
12600 4.16373678 12.98040561 0.33500169 -0.906754 -2.87107 1.621043
12620 3.6901296 11.84905755 0.9951264000000001 -0.905668 -2.661197 1.350521
12640 3.79027008 10.61338014 2.74693734 -0.94193 -2.100116 1.195725
12660 2.9482679700000003 10.13946885 3.4063164900000005 -0.966462 -1.438285 1.143431
12680 -0.47196891 9.10960524 1.24735131 -0.987243 -0.992314 0.989958
12700 -1.90164888 11.20883733 -1.47877902 -1.012734 -0.785445 0.6946859999999999
12720 -2.0392047 13.62885642 0.11346246 -1.170181 -0.775054 0.364561
12740 -0.9511187400000001 15.87897612 -1.0623445200000001 -1.422611 -0.954171 0.088494
12760 0.38319822000000003 13.981221810000001 -2.9928740400000002 -1.511429 -1.243754 -0.14356
12780 3.82784238 9.863592030000001 -2.0239403400000002 -1.551693 -1.529729 -0.254569
12800 5.38010811 7.791445350000001 -0.7471001700000001 -1.433329 -1.549292 -0.260127
12820 4.452190020000001 7.763908680000001 -0.53498835 -0.282042 -0.808581 -0.012684
12840 4.28573394 8.565640740000001 -0.23696055000000005 0.247657 -0.166878 0.757177
12860 3.98096667 9.374406570000001 0.42167304000000005 0.10983 0.238727 1.20862
12880 1.9143724500000001 8.99374914 0.69724575 0.053879 -0.093595 0.980056
12900 0.8405011800000001 8.737335360000001 0.04011309 -0.391506 -0.64527 0.533271
12920 -0.27677934 8.58853728 -0.28829628 -1.5250549999999998 -1.032241 0.25345300000000004
12940 -0.23875578 8.518631220000001 -0.90112698 -2.203607 -0.471915 0.5770069999999999
12960 0.42691158 8.4132522 -1.17341334 -0.293935 -1.9069 1.066476
12980 1.46769372 9.03221415 -1.7323479000000002 -0.053128 -2.663338 0.615133
13000 1.5477825600000001 8.97818067 -1.57652586 0.050352 -2.038692 -0.902888
13020 0.74021355 8.244255330000001 -1.03120758 -1.204157 0.362985 -2.347214
13040 -0.00748503 7.16425281 -0.9803133 -1.668611 1.767224 -2.528514
13060 0.30985866000000006 6.672673710000001 -1.19556432 -1.021653 -0.688281 -1.747456
13080 1.28567898 6.96457026 -2.00568393 -1.460584 -1.115033 -0.409357
13100 2.11599738 7.48114524 -2.6200057500000002 -1.625349 -0.462684 -0.366478
13120 2.55997836 7.60104306 -4.934783159999999 -1.0536709999999998 -0.8371280000000001 -0.4624180000000001
13140 4.00925871 8.856036360000001 -6.74452215 -1.064223 -0.737362 -0.6271260000000001
13160 6.72656004 11.167821720000001 -5.41169631 -1.207013 -0.045264 -0.6866939999999999
13180 8.533758240000001 12.948827220000002 -3.87319401 -1.194954 0.220124 -0.730747
13200 8.057296350000001 9.9864819 -4.288578840000001 -0.973272 0.201111 -0.697127
13220 7.40600064 6.535412190000001 -4.54574799 -0.737627 0.035824 -0.59272
13240 6.772215780000001 6.3617751899999995 -1.75779504 -0.559621 -0.23751 -0.5911270000000001
13260 6.242318820000001 9.03476475 1.6566048900000003 -0.451439 -0.494159 -0.70541
13280 5.85387225 15.58348911 4.756662990000001 -0.488728 -0.735783 -0.721384
13300 4.4771859 21.12961185 0.89199387 -0.638149 -0.451075 -0.661904
13320 -0.63393201 9.921215970000002 -5.77783494 -0.808519 -0.12881199999999998 -0.6517569999999999
13340 -8.0719623 8.81143029 -7.54895196 -0.888318 -0.130462 -0.702518
13360 -6.13424205 6.09038154 3.3635056500000005 -0.796038 -0.331794 -0.7838689999999999
13380 -2.39082453 6.64198803 6.84197469 -0.515875 -0.429701 -0.784991
13400 1.53535329 12.255162120000001 5.663921220000001 -0.04169 -0.20598 -0.6665979999999999
13420 5.11740612 16.00816401 0.2817137700000001 0.359829 0.068816 -0.470797
13440 6.63225651 8.7630768 -1.4880592800000003 0.401794 0.260077 -0.119304
13460 2.5182171899999997 8.7195204 0.98569899 0.696647 0.215058 0.226781
13480 -0.87373746 9.70596495 1.58355963 1.401165 0.091146 0.499984
13500 -0.8116107300000001 9.055267650000001 2.1927900600000005 2.139971 -0.183198 1.0663129999999998
13520 -0.13426947 8.711731259999999 1.8214128900000002 2.184205 -0.450802 1.88095
13540 0.6936552900000001 9.03536316 0.54876159 2.276724 -0.860613 2.252794
13560 1.76662404 8.80364115 0.11511054 2.791545 -0.3708550000000001 2.1403950000000003
13580 2.2552110900000004 9.22576545 -0.9617527800000001 2.915641 0.006514 1.967726
13600 1.9293425100000001 9.38742444 -1.8369813600000002 2.572964 0.340348 1.6316190000000002
13620 1.6949227500000001 9.28534158 -0.89244513 2.120415 0.183554 1.2750780000000002
13640 2.3659758 9.108114120000002 1.2289477500000001 1.766821 -0.115778 1.312516
13660 2.3553515700000003 8.571771990000002 2.6958959100000004 1.513041 -0.5526409999999999 1.556994
13680 1.18538154 8.545128029999999 1.9871136 1.265627 -0.553701 1.76998
13700 0.39981636000000004 9.481286520000001 -0.060772950000000006 0.859253 -0.52991 1.767111
13720 0.6857288100000001 9.93603888 -1.92409416 0.51558 -0.621145 1.7039380000000002
13740 1.6732230300000004 9.410036490000001 -1.5452319600000002 0.469974 -1.193469 1.545188
13760 2.6680551300000004 9.69788151 0.68961357 0.195529 -1.274549 1.280592
13780 2.8231316100000003 9.752523210000001 1.76647689 -0.245261 -0.906386 0.969394
13800 1.16921466 9.799817220000001 0.45085779000000004 -0.5733689999999999 -0.438291 0.6118520000000001
13820 1.3404580200000002 12.188405070000002 0.71761131 -0.824888 -0.031142000000000006 0.244242
13840 2.18515788 14.158606230000002 1.6139412000000002 -1.143653 0.381517 -0.111027
13860 0.9593591400000001 12.91274604 1.8809890200000001 -1.305222 0.714488 -0.388183
13880 -2.2008735 11.423489940000001 -2.0936992500000002 -1.300286 0.821058 -0.6692279999999999
13900 -2.11330944 12.25546623 -1.97139798 -1.268887 0.662209 -0.931587
13920 -0.7105677300000001 13.217660460000001 0.030391380000000003 -1.049085 0.599928 -0.998338
13940 -0.40400523 15.350727240000001 -1.1499085800000002 -0.640416 0.7270439999999999 -0.640997
13960 0.87013719 15.16152177 -0.65698551 -0.741544 0.490259 -0.214111
13980 2.5325790300000004 11.309733180000002 -0.37991187 -0.8667549999999999 -0.14391099999999998 -0.288949
14000 2.65937328 9.23354478 -1.5453889200000002 -0.933742 0.081457 -0.113449
14020 2.0158569 9.648782460000001 -2.02648113 -0.697994 -0.185487 0.104321
14040 1.38716343 9.25675524 -2.25162063 -0.8221879999999999 -0.629895 -0.007072
14060 0.9575541000000001 8.089326 -1.80359793 -0.40003 -0.763329 -0.304123
14080 0.87013719 7.2134990100000005 -1.7431290900000003 -0.247613 -0.598691 -0.582075
14100 0.70428933 6.7918259700000005 -0.90861201 -0.72797 -0.455296 -0.8601469999999999
14120 -0.028586340000000002 6.239621070000001 -0.7833186900000001 -1.348704 -0.620496 -0.834361
14140 -0.5004081 5.597762580000001 -1.10874582 -1.796454 -1.2059950000000002 -0.54725
14160 -0.25791471 5.362901370000001 -1.9758909600000003 -1.554654 -1.836977 -0.139897
14180 0.99423369 4.88689074 -2.60832204 -0.93755 -0.974117 0.393146
14200 2.0300814000000003 4.80485952 -2.1254346 -0.976895 -0.325809 0.538387
14220 2.12498334 4.66399773 -1.6408892700000002 -0.470534 -0.405605 0.075213
14240 2.1414445200000003 4.3581906 -1.91466675 -0.466216 -0.166959 0.06532400000000001
14260 2.17048212 4.98179268 -2.0868126300000003 -0.24936 -0.080462 0.091297
14280 2.6280891900000003 6.68269953 -1.5633510300000002 0.557545 0.084784 0.424665
14300 4.46282406 9.18849726 -1.1621808900000001 0.466297 -0.6281770000000001 0.31064200000000003
14320 3.6049493700000004 9.06066315 -3.1897215 0.092775 -1.115041 -0.15602
14340 4.1118026400000005 8.104148910000001 -3.76961022 -0.184481 -0.6263310000000001 -0.651033
14360 4.47134895 6.72895368 -1.16861625 -0.277615 -0.033624 -0.939795
14380 3.2298345900000003 7.429946850000001 -2.43977643 -0.401999 0.175268 -0.590555
14400 2.2489228800000003 7.49551689 -4.94511309 -0.549845 0.176294 -0.45272
14420 2.39696559 6.9171192900000005 -5.1882147 -0.463493 -0.008570999999999999 -0.384582
14440 2.64304944 5.09450958 -2.3167296000000004 -0.348793 0.097616 -0.398872
14460 1.95118938 4.6328706 -0.32363190000000003 -0.234152 -0.017891 -0.384036
14480 1.80254826 5.697903060000001 0.25012557 0.051147000000000005 -0.399172 -0.386896
14500 1.40588091 7.669752300000001 -0.24533829000000001 0.384123 -0.461771 -0.472084
14520 1.62891126 13.08549033 -2.58676947 0.280508 -0.140259 -0.598202
14540 4.284694080000001 16.87784994 -1.13314329 0.409111 0.04018 -0.545192
14560 5.19584688 16.288082550000002 1.23822801 0.867633 -0.591427 -0.169438
14580 0.40026762 15.79829868 -0.40954788000000003 1.400544 -0.863139 -0.08204600000000001
14600 1.8197648100000001 12.462486660000001 2.5469506800000006 1.8849240000000005 -0.935898 -0.15548199999999998
14620 5.528602080000001 20.76601401 -2.77148196 2.587721 -1.7772990000000002 0.258566
14640 8.00774604 14.84373663 -2.41642863 3.11473 -2.074852 0.685645
14660 4.84138215 10.038425850000001 0.26958861 3.494415 -0.6646340000000001 0.940727
14680 1.79656416 10.50515622 1.78189821 3.50507 0.151963 1.048713
14700 -0.61282089 8.8410663 2.31538563 2.931608 0.897858 0.962567
14720 -0.8183502000000001 7.71465267 0.021258270000000003 2.147901 0.948731 0.907889
14740 1.84267116 7.81554852 -0.7893126 1.407317 0.252393 1.195233
14760 4.21223742 7.916140260000001 0.16705449 0.997861 -0.177483 1.4257959999999998
14780 4.224813840000001 6.907387770000001 -0.6236020800000001 0.435622 -0.033455 1.3266129999999998
14800 3.1355310600000004 6.080051610000001 -1.29240864 -0.177273 0.168429 0.922558
14820 2.27242764 5.961507570000001 -1.20080286 -0.609574 0.257588 0.579729
14840 1.83847248 5.480856810000001 -0.82612953 -0.951255 0.147013 0.290133
14860 2.1860505900000002 5.870794500000001 -3.61632897 -1.416702 0.146146 0.111694
14880 2.77867269 5.945183730000001 -0.5448670200000001 -1.986978 0.234414 -0.155185
14900 2.6900589600000004 6.597980370000001 -1.01728719 -2.496675 0.381569 -0.5488350000000001
14920 2.9463255900000003 7.879617629999999 -3.8690051400000005 -2.81969 0.626729 -0.8376889999999999
14940 3.4353540899999997 9.163050120000001 -3.67934841 -3.066634 0.753188 -1.078857
14960 2.67329367 6.50757141 0.46792719 -3.040464 0.8838860000000001 -1.5509959999999998
14980 -0.39218418 9.47320308 -3.5176894200000004 -2.744929 0.340912 -1.619807
15000 -3.2817785400000004 15.668365230000001 -7.01426772 -2.060246 -0.971383 -1.445632
15020 -2.2384458 18.870054930000002 -3.1575348900000004 -0.6600630000000001 -2.021253 -0.918555
15040 0.16630893 17.436195900000005 -0.8858626199999999 0.440217 -0.628728 -0.061281
15060 1.3373188200000001 15.8806242 -1.2244547700000001 0.674285 1.573883 0.628671
15080 3.53953629 14.09498838 -3.9067245900000005 1.163505 3.612363 1.117654
15100 4.52389131 14.559177960000001 -6.69048867 -0.989639 2.728452 0.25451
15120 4.64229801 13.16317572 -6.94795212 -1.928922 0.49858 -0.46597
15140 2.5991987400000003 10.79959356 -5.13567234 0.377 -2.151915 -0.577858
15160 1.2488522400000002 7.666161840000001 -3.55225986 -1.397142 -0.751402 1.03913
15180 0.95965344 4.77118179 -2.50593507 0.172248 -0.568106 0.993241
15200 1.11742767 3.7612324800000003 -1.9666107000000002 -0.337442 -0.582325 0.197078
15220 1.16158248 3.0497622300000002 -1.8004587300000001 0.036781 0.226319 0.114267
15240 1.0355436 2.54290896 -2.24907003 0.089698 -0.047986 -0.06554199999999999
15260 0.9777627 1.7330934600000003 -2.3457672 -0.201395 -0.138181 -0.43386
15280 1.5432895800000002 1.6313049000000004 -1.2919671900000003 -0.493278 0.3881 -0.721788
15300 1.6090067700000001 2.139649290000001 -0.72239859 -0.6767479999999999 0.978359 -0.853081
15320 1.2433194000000003 2.96309088 -1.23433344 -0.818679 1.023383 -0.800719
15340 0.69290973 6.86802024 -2.4288480900000002 -0.913723 0.964325 -0.60155
15360 0.1793268 10.63732635 -4.36806927 -1.080944 1.0119479999999998 -0.378452
15380 -1.31007645 14.084658450000001 -6.32389878 -1.035628 1.015427 -0.488167
15400 -0.32437746000000006 15.23980557 -5.407350480000001 -0.650274 0.520063 -0.5532060000000001
15420 4.6806158700000005 9.26109126 -1.8598779 -0.194258 0.244303 -0.45246
15440 7.675883550000001 3.6446210100000003 -4.00492269 0.5523710000000001 0.288331 -0.122561
15460 2.83600233 2.6176023 -4.14921798 1.245539 0.482994 0.14588199999999998
15480 -3.9191538599999998 6.74826957 0.7973960400000001 1.637605 0.226611 0.251498
15500 -4.48766298 19.367176680000004 7.472610540000001 1.564191 -0.444242 0.247572
15520 6.31536408 18.400185360000002 2.12677857 1.298979 -0.924403 0.141649
15540 18.26127576 15.46837857 -2.82657492 1.123043 -0.980997 0.06144400000000001
15560 1.27160163 10.825639110000001 0.50789313 0.883634 -0.766441 -0.106077
15580 -0.00045126000000000004 24.072494130000003 -2.41583022 0.618119 -0.827993 -0.200788
15600 5.220244350000001 15.373182330000002 0.51732054 0.943268 -1.337349 -0.177568
15620 2.5861710600000003 13.66597746 1.24002324 1.70487 -2.030412 0.119196
15640 1.31830704 12.71890044 1.26846243 2.360012 -1.89246 0.483586
15660 0.82358874 10.01627487 1.02626334 3.102101 -1.842294 0.880743
15680 0.6330294900000001 8.55620352 0.6749476200000001 3.401216 -0.498181 0.953749
15700 2.90126826 7.349122260000001 1.0377900899999999 3.497357 0.740192 0.740258
15720 4.31163234 6.0296085900000005 0.73407249 2.756558 1.911107 0.805153
15740 3.0316431600000007 5.65344414 -0.31674527999999996 1.981554 1.496756 1.199786
15760 2.01540564 6.14067741 -1.75315491 1.276809 1.208064 1.278555
15780 2.35879488 7.600297500000001 -2.8259765100000003 0.736574 0.988904 1.142602
15800 3.94594497 8.61323886 -3.04795719 0.251039 0.427216 0.836556
15820 4.03919883 7.097044500000001 -2.08411488 -0.235505 -0.078183 0.574227
15840 3.4599085200000004 5.17308768 -0.6141746700000001 -0.823399 -0.275644 0.381298
15860 3.75823062 4.52987541 -1.92260304 -1.421257 -0.222045 0.28305
15880 3.52876491 4.46895531 -2.3245187400000002 -1.94114 0.058311 0.154077
15900 2.99078451 4.79333277 -0.95022603 -2.432499 0.36155 -0.12748099999999998
15920 2.9071052100000006 6.16447647 -1.0115973900000002 -2.889863 0.46189 -0.580526
15940 1.90703457 7.56736533 0.52496253 -3.24614 0.280582 -1.017549
15960 1.5639494400000002 6.7210272 0.9759674700000001 -3.277484 0.107277 -1.340148
15980 2.3110398 7.82408322 -1.38207204 -2.911543 0.126055 -1.55767
16000 2.2858967700000004 12.288251250000002 -4.20804855 -2.478087 -0.29077 -1.325509
16020 0.64426194 17.42002902 -3.6844398000000003 -2.076443 -1.069003 -1.261886
16040 -1.3692013200000002 19.888990200000002 -2.12243274 -0.915978 -1.7009880000000002 -0.8673420000000001
16060 -2.3306499900000004 18.01533906 -2.45654172 0.8798360000000001 -0.5325880000000001 0.02392
16080 -1.62367272 17.26659081 -2.7167029200000004 1.052343 1.571005 1.020148
16100 -1.2621742200000001 19.092800790000002 -4.08171537 1.082881 3.843182 1.007836
16120 1.9760381100000002 17.06721237 -6.32315322 0.985353 3.4653 0.487415
16140 6.32539971 11.987221590000003 -6.853648590000001 0.528697 1.370863 -0.42108
16160 8.306676359999999 7.928559720000001 -5.828876370000001 -0.198624 0.03086 -0.8837780000000001
16180 6.43122999 6.141432780000001 -4.058357760000001 -1.024826 -0.218113 -1.041986
16200 3.4480776600000005 5.66227314 -3.0964578300000003 -1.60535 0.39843 0.321561
16220 1.3697997299999998 4.424349240000001 -2.8957256100000004 -1.701541 0.214541 1.367982
16240 0.49667049 3.5892337500000004 -2.59860033 0.0138 -1.348617 1.046546
16260 0.38828961 2.7878058000000006 -2.3745105 -0.390782 -0.990514 0.024177
16280 0.8015849100000001 3.0030568200000003 -2.15507061 0.011549 -0.4532560000000001 -0.413809
16300 1.36261881 3.3096193200000004 -1.7501628599999999 0.512459 -0.348196 0.051027
16320 1.7031631500000002 3.1338829800000005 -1.31411817 0.009228 -0.375961 -0.294283
16340 1.70480142 3.1127816700000004 -0.95575887 -0.5526300000000001 -0.020564 -0.50483
16360 0.30042144 4.496501790000001 -0.88331202 -0.766725 0.368601 -0.670262
16380 -1.25664138 7.532333820000001 -1.5901421400000002 -0.94423 0.762165 -0.901674
16400 -2.4319971000000002 10.92937005 -2.78450964 -0.987226 1.152259 -0.915293
16420 -2.2619505600000007 17.070351570000003 -3.19391037 -0.956661 1.160307 -0.8232229999999999
16440 0.6970986 15.366295710000001 -3.89789559 -0.838568 0.8870319999999999 -0.78466
16460 6.329137320000001 7.854768900000001 -4.631065560000001 -0.539882 0.5741310000000001 -0.8494700000000001
16480 5.5221667199999995 4.15221984 -4.86233631 -0.307893 0.323569 -0.728956
16500 1.8546393600000002 3.41619516 -3.9884517 -0.416195 0.011632 -0.682311
16520 -0.10882233000000001 1.83038904 0.98405091 -0.284263 -0.07084700000000001 -0.68342
16540 -0.28336185 3.8040433200000003 0.85068396 -0.017862 0.006347 -0.771389
16560 2.5885647 12.205768769999999 -1.3331299500000002 -0.110782 0.187902 -0.8053859999999999
16580 6.3460497600000005 18.517689540000003 0.9780668100000001 -0.126435 0.401531 -0.669036
16600 11.09776851 16.79866362 6.81937245 0.215937 0.16599 -0.404629
16620 6.21926532 14.59719171 -7.069046760000001 0.8300559999999999 -0.634899 0.078182
16640 3.1976479800000006 12.68986284 -2.02573557 1.082364 -1.015774 0.5344270000000001
16660 3.3090209100000005 22.821993810000002 2.63826216 1.345498 -1.021168 0.85567
16680 4.73944644 15.86565414 -2.3540076 1.650839 -1.655132 0.888526
16700 0.64455624 11.216626470000001 3.3618575699999997 1.615957 -2.19148 0.515092
16720 1.3760879400000001 13.229638470000001 1.90688742 1.521288 -1.757383 -0.067238
16740 1.1856856500000001 11.626625610000001 1.24750827 1.518462 -0.799497 -0.381475
16760 0.25776756 10.311752069999999 1.1731092300000001 1.338219 -0.429805 -0.50178
16780 0.5903756099999998 9.481129560000001 1.8279954 1.287274 -0.345573 -0.476606
16800 1.96271613 8.184679200000001 1.0469232 1.4067459999999998 -0.816763 -0.229477
16820 1.80973899 7.5158726399999995 0.6155186400000001 1.436425 -1.466889 0.353744
16840 1.5518242800000004 6.935228550000001 0.67629159 1.591495 -1.6544580000000002 1.037662
16860 1.80225396 6.524032590000001 0.35506314 2.221975 -1.007469 1.464252
16880 2.7196949700000004 7.87153419 -1.63146186 2.519037 -0.505386 1.388772
16900 3.3437483100000005 9.15975396 -2.36553435 2.316128 0.378411 1.127712
16920 2.40729552 9.087150150000001 -3.7630277100000002 1.841699 0.953083 1.150368
16940 2.28499425 7.76405583 -2.287692 1.309475 0.582873 1.218695
16960 4.069737360000001 8.117323740000002 0.5836361400000002 0.735012 0.193041 1.169249
16980 5.27204115 8.26056936 1.51006311 0.12928599999999998 0.058623 1.210055
17000 5.244190560000001 8.68807935 0.94408497 -0.27021 -0.050762 1.205268
17020 4.1589495 8.532551609999999 0.6026479200000002 -0.589379 -0.165454 1.126274
17040 3.33057348 7.12204038 0.30611124000000006 -0.925784 -0.13710799999999998 0.989292
17060 2.4848337600000003 6.042636270000001 -0.053739180000000004 -1.226282 0.045584 0.851295
17080 -0.38993769 7.3229197500000005 -3.1820795100000003 -1.447348 0.251772 0.629433
17100 -1.3275873 7.478447490000001 0.25851312000000004 -1.7030740000000002 0.505252 0.332492
17120 -1.2603789900000002 5.70733047 2.04385464 -2.090588 0.792534 -0.04446
17140 0.6447132 4.90634397 0.19534653000000002 -2.5166150000000003 0.96739 -0.511269
17160 2.32720668 4.916673899999999 0.14070483 -2.715732 0.8791959999999999 -0.927017
17180 3.2518384200000003 5.27188419 0.45654759 -2.6058220000000003 0.581753 -1.2303110000000002
17200 2.43498915 9.64249425 -1.16203374 -2.172898 0.161054 -1.360276
17220 1.2798420300000002 16.709451480000006 -2.5542885600000003 -1.728352 -0.363656 -1.330861
17240 -1.10035827 19.959043410000003 -4.9861287 -1.1469280000000002 -0.808874 -1.052764
17260 -2.46866688 15.75548784 -5.6276928900000005 0.286629 -0.7555850000000001 -0.438205
17280 -1.15290063 16.90869258 -4.36357629 0.891609 0.888713 0.490062
17300 2.30445729 17.12184426 -5.1651612 0.699296 2.816218 0.817397
17320 2.85831027 15.413893830000001 -6.98013873 0.705116 3.726427 0.430644
17340 2.65053447 12.97861038 -6.73823394 0.151607 1.810675 -0.589852
17360 2.86249914 9.83634966 -5.58114444 -1.430706 -0.9000739999999999 -0.910419
17380 2.8547100000000003 7.815401370000001 -4.4099775900000004 -1.7034939999999998 0.117504 -0.202193
17400 2.6789834700000004 8.02929861 -3.4298212500000003 -2.122242 -0.539633 0.923766
17420 1.9547896500000002 7.54925607 -2.75397111 -0.23490300000000006 -0.484964 0.269241
17440 1.10575377 6.64184088 -1.9429587900000003 -0.182886 -3.006402 -0.059382
17460 0.28695231 5.7651113700000005 -1.03255155 -0.704775 -1.541438 -0.45801
17480 -0.21465261000000002 4.72402512 -0.66956193 -0.413245 0.059252 -0.339452
17500 -0.5263065 4.09264371 -1.34300862 -0.347829 0.060495000000000014 -0.174491
17520 -0.5333402700000001 4.0261809600000005 -2.20461111 -0.572966 0.124698 -0.583138
17540 0.14624748 4.55637222 -2.58272775 -0.731536 0.771317 -0.977112
17560 0.74230308 3.96046377 -2.1444365700000003 -0.719308 1.159824 -1.174077
17580 0.45953963999999997 3.70300032 -1.15380315 -0.54192 0.8657809999999999 -1.054957
17600 0.57390462 5.71706199 -0.85188078 -0.476999 0.629027 -0.779667
17620 0.29293641 8.14231962 -2.2703283 -0.383515 0.555244 -0.524683
17640 0.69859953 11.90174706 -4.002529050000001 -0.241539 0.381988 -0.477535
17660 2.72403099 14.43254067 -4.73076459 -0.27876100000000004 0.22530300000000006 -0.423115
17680 5.785015860000001 9.852359580000002 -2.57868603 -0.137252 0.296615 -0.264121
17700 5.9778216 3.7305468000000004 -1.86377247 0.12849100000000002 0.197205 -0.143565
17720 3.4705327500000003 1.4533318800000001 -0.2630061000000001 0.460453 -0.257696 -0.157755
17740 -3.03075045 2.33784072 -4.378095090000001 0.865295 -0.28083600000000003 -0.050212
17760 -2.52270036 15.568371899999999 -2.77209018 0.704439 -0.06998099999999999 0.106491
17780 9.34027758 19.93210515 14.817838230000001 0.748454 -0.91083 0.154878
17800 16.40812752 19.685864340000002 4.44111453 1.354565 -1.615948 0.138651
17820 9.983185740000001 16.433123400000003 -12.74164983 1.448312 -1.853953 0.169521
17840 -4.13694567 11.278743390000002 5.113070100000001 1.842407 -2.215477 0.193033
17860 -2.11195566 22.641470190000003 -0.05268951 2.207437 -2.353476 0.02164
17880 3.5862417000000004 17.146094580000003 -0.21300453 2.347638 -1.224148 -0.133721
17900 1.9917537300000001 13.420187910000001 0.38799531000000004 2.791962 -1.694835 0.238523
17920 0.51088518 12.98669382 1.9616664600000002 3.150807 -1.451502 0.8795139999999999
17940 1.49478894 10.762021260000001 2.54366433 3.648256 0.236762 1.562351
17960 1.31830704 8.03079954 0.90696393 3.388933 0.8972180000000001 1.524442
17980 1.24855794 6.32899017 0.6882696 2.3520950000000003 1.41619 1.046517
18000 1.8486552600000001 5.13581949 0.9455859000000001 1.842816 1.521494 0.994755
18020 1.79716257 4.92191244 0.27961443 1.2312379999999998 1.054758 1.294456
