time Ax Ay Az Gx Gy Gz
20 -4.38378489 9.00272529 -5.7670537500000005 0.21823 -0.420175 -0.074849
40 -2.9177294400000005 10.25322561 -3.5745678 0.141526 -0.32538 -0.005004
60 -1.90119762 8.860970790000001 -3.34479798 0.276145 -0.482596 0.033526
80 -1.6946284500000002 8.09591832 -4.73569902 0.227595 -0.621901 0.014137
100 -1.9723005000000002 7.445966580000001 -4.339031670000001 0.045032 -0.555597 0.107849
120 -2.40310665 6.448289580000001 -5.04630324 -0.152031 -0.530231 0.06264299999999999
140 -1.92215178 5.9080626899999995 -4.64064993 -0.102222 -0.437443 -0.0076310000000000015
160 -1.1508111 6.74482626 -2.9882339100000004 0.009204 -0.683455 -0.120837
180 -1.33237458 6.737037120000001 -2.9621883600000003 0.003856 -0.490347 0.076499
200 -1.85209857 6.10745094 -4.17542049 0.035236 -0.7444850000000001 0.199889
220 -1.73069982 6.72311673 -4.81323726 0.7904140000000001 -0.378148 0.373474
240 -1.47667968 8.76891375 -5.16860451 1.507806 -0.218971 0.438101
260 -0.86909733 9.04479057 -3.67260894 1.921686 -0.217291 0.458082
280 -1.33762293 7.293136590000001 -2.65906917 2.044507 0.051784 0.4618
300 -1.93562091 6.73179858 -3.4558668000000003 1.799006 0.025056 0.698333
320 -1.7142386400000003 9.32037309 -4.797070379999999 2.203619 -0.280297 1.050859
340 -1.23358788 9.75865446 -3.8160115200000004 1.914064 0.39692 1.109925
360 -1.27864521 7.4705112 -2.5403681700000003 1.311374 0.01502 0.70028
380 -2.68226982 7.50853476 -4.24442403 1.823475 -0.321931 0.603876
400 -1.51694973 10.45665558 -3.5473254300000003 1.830236 -0.577117 0.744188
420 -1.26831528 10.31160492 -1.4388032700000002 1.635556 -0.7414569999999999 0.452482
440 -2.61491436 10.011634740000002 -1.7970154200000001 1.427693 -0.5592520000000001 0.355725
460 -6.21328122 11.843367750000002 -3.6049493700000004 1.33734 -0.4727 0.367801
480 -7.49176947 13.50626085 -4.99586022 1.179133 -0.620966 0.28677
500 -7.683819840000001 12.530744640000002 -4.56026679 0.911506 -0.500107 0.13199
520 -7.461829350000001 14.82726564 -3.4178432400000003 0.60577 -0.290787 -0.000737
540 -5.168447550000001 15.17828706 -7.546558320000001 0.241202 -0.038958 -0.057017
560 -3.18671964 7.881864120000001 -6.86921706 -0.159119 0.078822 -0.126194
580 -3.5947764 7.2274194 -4.32001989 -0.404689 0.047679 -0.117188
600 -3.2332779 10.018962810000001 -4.73974074 -0.632458 -0.054913 -0.10476
620 -2.95994187 7.193888820000001 -5.63562918 -1.03851 -0.031897 -0.180265
640 -4.30773777 7.6055360400000005 -6.189776460000001 -1.45925 0.01049 -0.292217
660 -4.84736625 7.50195225 -5.7697515 -1.799543 0.104971 -0.447471
680 -4.15835109 6.602914800000001 -5.0927143500000005 -1.910236 0.310255 -0.5393060000000001
700 -2.433193920000001 6.51848994 -4.78988946 -1.881404 0.116123 -0.501468
720 -2.3022108000000006 6.224955120000001 -4.84602228 -2.106226 -0.114026 -0.560427
740 -2.9904804 5.23715679 -5.209463159999999 -2.317079 -0.29745 -0.59478
760 -3.4974808200000003 4.05266796 -5.80074129 -2.343894 -0.26565500000000003 -0.5309149999999999
780 -3.3620047200000003 4.3322922 -5.50554858 -2.086191 0.123359 -0.268967
800 -2.58392457 4.98957201 -4.574187180000001 -1.580776 0.257153 -0.066919
820 -2.0630135700000003 4.4450091 -4.44964923 -1.251976 -0.0046 0.104492
840 -1.7956616400000003 3.96435834 -5.41289313 -0.908161 -0.100928 0.186066
860 -1.4681449800000002 4.15206288 -5.75088687 -0.7424350000000001 -0.206115 0.23970100000000005
880 -1.37010384 4.6231390800000005 -5.35077621 -0.652104 -0.481436 0.281277
900 -1.95822315 4.273167330000001 -4.5713422800000005 -0.544936 -0.244886 0.173832
920 -2.14414227 3.5904305700000005 -4.65306939 -0.5486770000000001 0.223282 0.049292
940 -2.15566902 3.7788904800000003 -4.4399177100000005 -0.212266 0.590368 -0.13363
960 -1.9529846100000001 5.47995429 -4.32705366 -0.930787 0.8765440000000001 -0.213792
980 -2.2008735 8.03993265 -5.121899100000001 -0.214972 0.359738 0.001242
1000 -2.31613119 9.26857629 -5.11426692 0.16326300000000002 0.346407 0.342528
1020 -2.0446002 8.491545810000002 -4.69543878 -0.636338 0.018982 0.599076
1040 -2.25131652 7.896981330000001 -4.6807630200000006 -0.297785 -0.377309 0.8401620000000001
1060 -2.36642706 8.126898299999999 -4.84886718 0.759938 -0.079377 0.808713
1080 -2.72014623 8.28108207 -4.9133777400000005 0.666848 1.150706 0.434745
1100 -3.11113359 7.78919886 -5.013371070000001 0.099172 0.075896 -0.151092
1120 -3.71018124 6.6547116000000015 -5.4836919 -0.442021 -0.171703 -0.101144
1140 -4.65966171 8.5430385 -6.041586600000001 -0.633642 -0.077185 0.137746
1160 -6.8832846000000005 9.950704830000001 -7.56182268 -0.593593 -0.005725 0.081319
1180 -8.001163530000001 13.923745020000002 -1.7863813800000001 -0.477012 -0.039823 -0.017168
1200 -6.745571820000001 12.8093094 3.2971900500000006 -0.197712 -0.29977 0.011822
1220 -0.8220878100000001 6.67446894 1.7122864500000001 -0.368302 -0.502681 0.020504
1240 -1.10530251 8.23827123 -2.07468747 -0.429789 -0.656914 0.015999
1260 -5.438340270000001 18.095123790000002 -3.9767778000000003 -0.410734 -0.6751510000000001 0.031111
1280 -4.32165816 25.37657667 -8.78822964 -0.410866 -0.507739 -0.009697
1300 0.23486121000000001 11.54773359 -1.75629411 -0.242506 -0.373871 -0.066376
1320 -6.568187399999999 0.38844657000000005 -0.40550616000000006 -0.057613 -0.340274 -0.103584
1340 -6.08529996 5.383404270000001 -0.12424365 6e-05 -0.325566 -0.102132
1360 -4.13335521 14.57668881 -2.8672864200000006 0.042414 -0.373745 -0.078273
1380 -2.3616397800000004 11.6323056 -4.16538486 0.149239 -0.28380900000000003 -0.017822
1400 -1.25050032 9.17592084 -1.37025099 0.226642 -0.143501 -0.007847
1420 -1.8965574900000002 8.743613759999999 -1.43551692 0.247924 0.031332 -0.058128999999999986
1440 -2.49935256 9.52723656 -3.4049725200000003 0.349053 0.16011199999999998 -0.11634
1460 -2.5801869600000003 9.57139137 -2.0275308000000005 0.478354 0.11316500000000003 -0.20938
1480 -2.2369448700000003 9.04524183 -1.454823 0.457923 0.237121 -0.287662
1500 -2.2873977 8.713085040000001 -2.8738689300000004 0.462109 0.207325 -0.299345
1520 -2.13276267 8.99344503 -2.8069647300000002 0.431978 0.14990599999999998 -0.299482
1540 -2.1308202900000004 8.98596 -2.4551977500000004 0.253361 0.048271 -0.302735
1560 -2.06495595 8.37223659 -2.66700546 0.27875 0.068149 -0.234217
1580 -2.00672379 8.16461775 -2.71894941 0.310124 -0.006795000000000001 -0.16767200000000002
1600 -1.7595902700000001 8.58793887 -2.74289562 0.280053 -0.226386 -0.105644
1620 -1.8721600200000001 8.44663563 -3.2485422600000002 0.217901 -0.289012 -0.108134
1640 -2.06256231 7.71256314 -2.8972265400000006 -0.014466 -0.40992 -0.040168
1660 -2.2350024900000003 7.056921600000001 -1.96751322 0.028336 -0.511704 0.068152
1680 -2.4941140200000005 6.81906834 -2.3363397900000002 -0.020855 -0.477682 0.127585
1700 -2.4496551 7.07698305 -3.00081033 0.417201 -0.338587 0.12833
1720 -2.3426280000000004 7.34252994 -2.68915644 1.176109 -0.205102 0.187939
1740 -1.8618300900000002 7.68771441 -2.87791065 1.517539 -0.230668 0.15830999999999998
1760 -1.949247 7.919279460000001 -3.91107042 1.976402 -0.051910000000000005 0.079033
1780 -1.3042395000000002 8.79316407 -3.23237538 1.980566 0.296945 0.21428000000000005
1800 -0.6875240400000001 8.91680931 -3.01772277 1.6476810000000002 0.560154 0.480809
1820 -0.60968169 7.48653093 -2.1435438600000003 1.477866 0.5893390000000001 0.7883020000000001
1840 -1.6256151 7.412288850000001 -3.1853756700000004 1.624072 0.578368 1.007254
1860 -1.7053998300000002 8.26984962 -3.74102388 1.359494 0.8835870000000001 0.833031
1880 -1.01324547 9.83274939 -3.441348 1.358168 0.435617 0.44049
1900 -1.0090467900000002 10.549458180000002 -3.91076631 1.40122 -0.131507 0.502406
1920 -0.67898934 8.87504814 -2.43303696 1.389948 -0.707913 0.5351130000000001
1940 -1.4611112100000003 8.30742192 -2.1368043900000004 1.408035 -1.130191 0.360592
1960 -4.766384700000001 8.85708603 -3.35781585 1.367913 -0.992916 0.165719
1980 -5.84728974 9.70985952 -2.0936992500000002 1.147305 -0.864727 0.001645
2000 -7.056627300000001 11.67422373 -2.55488697 0.700646 -0.685769 -0.14164200000000002
2020 -6.809189669999999 15.200595000000002 -4.60008558 0.237393 -0.39068 -0.274511
2040 -6.883431750000001 15.38470908 -3.6440226000000004 -0.041514 -0.040199 -0.30040900000000004
2060 -7.6700466 14.764991760000001 -4.080361590000002 -0.268123 0.098027 -0.305373
2080 -6.318964350000001 9.67692735 -5.188813110000001 -0.538212 0.04895 -0.318948
2100 -4.58691075 8.18317827 -4.690945800000001 -0.704446 0.112306 -0.300962
2120 -3.28357377 10.843748370000002 -5.26559598 -0.8419270000000001 0.170208 -0.276359
2140 -1.9314320400000002 12.206818440000001 -6.165378990000001 -1.067359 0.255479 -0.35922800000000005
2160 -2.74992939 9.08640459 -5.3130469499999995 -1.248002 0.341636 -0.436444
2180 -4.174223670000001 6.77101896 -3.52905921 -1.333691 0.30025300000000005 -0.402806
2200 -4.9630752000000005 5.529651750000001 -3.2052801600000005 -1.385759 0.196752 -0.315443
2220 -4.1441364 5.34643038 -4.078115100000001 -1.322528 0.130051 -0.207026
2240 -3.15978138 5.656583340000001 -5.15542968 -1.336381 -0.026805 -0.130009
2260 -3.03104475 5.943094200000001 -5.25317652 -1.391764 -0.19724 -0.084244
2280 -3.1611253500000003 5.31708867 -4.7542595400000005 -1.506141 0.061736 -0.013804
2300 -3.34119771 5.00169717 -4.685256000000001 -1.509733 0.293651 0.068127
2320 -2.8813539599999998 5.68712187 -4.812491700000001 -1.473898 0.5073479999999999 0.142879
2340 -2.4628299300000003 6.077657970000001 -4.73151015 -1.43972 0.564557 0.192182
2360 -2.49800859 5.977223189999999 -5.20003575 -1.275783 0.429976 0.13902
2380 -2.4379812 5.732630459999999 -5.49342342 -0.851131 0.176119 0.117743
2400 -2.56282326 5.761972170000001 -4.99196565 -0.663099 0.208588 0.093377
2420 -2.5355808900000003 5.147797500000001 -4.679271900000001 -0.817792 0.386209 0.031181
2440 -2.17782 5.208423300000001 -4.01989275 -0.825471 0.322388 0.014117
2460 -2.08336932 5.71840596 -3.5245662300000005 -0.505135 0.323639 -0.043467
2480 -1.97379162 6.049817190000001 -3.40841583 -0.20947 0.400187 0.004433
2500 -1.4837134500000002 6.10625412 -3.6756108000000003 -0.320373 0.54799 -0.098012
2520 -1.45393029 6.05266209 -4.27974984 -1.019035 1.506078 -0.126552
2540 -2.02678524 6.54498675 -4.87326465 -0.399629 0.657058 -0.397807
2560 -2.5950000600000007 7.70941413 -5.2337134800000005 0.16886600000000002 0.053791 -0.011708
2580 -3.0311919 8.68688253 -5.325329070000001 -1.12548 0.382656 0.120903
2600 -3.1464594000000004 9.10003068 -5.06591343 -1.067118 -0.4386100000000001 0.321052
2620 -1.9276944300000003 9.01694979 -4.34950875 -0.845042 -0.946178 0.252751
2640 -0.85576554 9.13115781 -4.75650603 -0.089635 -0.420704 0.057597
2660 -2.44157166 9.715990770000001 -5.25527586 -0.073854 0.407251 -0.014925
2680 -4.8277560600000005 9.52199802 -5.276681280000001 -0.474876 0.11603 -0.099606
2700 -5.89160151 8.07181515 -5.294937689999999 -0.4697020000000001 -0.016648 0.041606
2720 -5.45076954 9.708358590000001 -5.28132141 -0.587481 -0.23295 0.15642799999999998
2740 -4.69902924 13.00391037 -5.602245750000001 -0.648187 -0.311158 0.053555
2760 -4.25640204 11.95099326 -1.3248993599999999 -0.353371 -0.135848 -0.086684
2780 -7.232059530000001 9.98963091 0.32871348000000006 -0.135223 -0.035362 -0.097039
2800 -2.15088174 8.65260639 -1.9218574800000001 0.081856 -0.081183 -0.015348
2820 -0.03233376 8.84076219 0.49366863 0.21804 -0.12973800000000002 0.020917
2840 -4.5463464 14.515013340000001 0.8405011800000001 0.25459 -0.339589 -0.012742
2860 -4.1706234 16.21069146 -2.3593932900000008 0.340775 0.033158999999999994 -0.062824
2880 -3.44493846 16.74432603 -5.2431507 0.419607 0.488794 -0.055379
2900 -3.24435339 6.95768364 -3.8077809300000003 0.56513 0.30840700000000004 -0.092588
2920 -3.8974443300000003 5.225188590000001 0.5285529900000001 0.805752 0.209517 -0.080098
2940 -2.64949461 8.77355388 1.05081777 0.663101 0.4977140000000001 -0.099624
2960 -3.2121667800000004 10.38674952 -1.62022941 0.604932 0.394393 -0.317815
2980 -2.75097906 10.16057016 -2.64694401 0.579418 0.361672 -0.371362
3000 -1.7794947600000002 9.4598811 -2.07438336 0.798871 -0.135713 -0.320054
3020 -1.9520919 9.35075466 -2.10042891 0.90005 -0.06513300000000001 -0.20941
3040 -2.6355644100000006 9.13744602 -1.6374459600000002 0.7911560000000001 0.162127 -0.204053
3060 -2.9707230600000005 8.283024450000001 -1.6407421200000003 0.52982 -0.125403 -0.267467
3080 -2.8120561200000003 7.71076791 -1.9742428800000003 -0.052832 -0.222061 -0.099429
3100 -2.1571601400000002 7.765998210000001 -2.69110863 0.135154 -0.16512000000000002 0.14963800000000002
3120 -1.41215931 6.827151780000001 -2.7556191899999996 0.356929 0.145813 0.255475
3140 -2.060168670000001 5.83995186 -2.50877997 1.165198 0.248502 -0.017817
3160 -3.4287715800000003 8.542135980000001 -3.63788154 1.541012 0.384306 0.060478
3180 -1.92394701 8.86606218 -2.40774678 2.183826 0.344476 0.139795
3200 -1.15260633 5.46213933 -0.69036894 2.415002 0.5183270000000001 0.152937
3220 -0.58648104 4.928347800000001 0.91310499 2.400123 0.6553 0.27764
3240 -1.3494439800000002 7.30780254 -1.83308679 2.509764 0.551888 0.468681
3260 -2.4237567 10.256070509999999 -3.81436344 2.255913 0.315384 0.691538
3280 -1.23747264 7.83934758 -2.13815817 1.748725 0.481339 1.18771
3300 -2.52090513 5.6993941800000005 -2.5909583400000002 0.676662 0.792896 1.459697
3320 -1.89925524 8.43300954 -4.79692323 0.643913 0.379399 0.732539
3340 -0.17708031000000002 13.71328128 -5.3275755600000005 1.063581 -0.340752 0.641321
3360 -0.57569985 10.408900500000001 -4.04234784 0.697902 -0.941679 0.453667
3380 -2.14174863 7.90610463 -4.693937850000001 0.39026 -1.290127 -0.052237
3400 -3.5203773600000003 8.927580690000001 -2.82088512 0.062277 -1.129394 -0.269446
3420 -4.577630490000001 9.31947057 -2.3354470800000002 -0.17485499999999998 -0.794825 -0.348443
3440 -7.670949120000001 10.22748417 -4.2022116 -0.6017680000000001 -0.0544 -0.5254260000000001
3460 -6.77371671 13.02606135 -4.1125482 -1.236969 0.229456 -0.6306390000000001
3480 -4.322707830000001 14.51321811 -4.49275437 -1.6871029999999998 0.238529 -0.644478
3500 -5.12414559 15.188018580000001 -5.09226309 -1.878168 0.231684 -0.631916
3520 -7.594303590000001 15.64621425 -7.85027592 -1.866851 0.06374099999999999 -0.468184
3540 -7.40854143 8.03289888 -8.561442060000001 -1.900825 -0.051533 -0.382816
3560 -4.12482051 5.35585779 -5.51558421 -2.095359 -0.147729 -0.400075
3580 -1.6170902100000002 10.50650019 -4.50263304 -1.908229 0.150032 -0.433333
3600 0.83212344 9.45209196 -4.16389374 -1.521977 0.194348 -0.39544
3620 -0.7444024200000001 5.270393070000001 -4.57449129 -1.170665 0.067251 -0.351163
3640 -4.884497100000001 4.8819465 -4.75306272 -0.979325 0.022461 -0.238674
3660 -6.2875233 4.5792785700000005 -4.378095090000001 -0.986148 0.497219 -0.144258
3680 -3.81496185 4.34516292 -3.8711044800000005 -1.001219 0.509884 -0.10165
3700 -1.69821891 4.030664129999999 -4.114049130000001 -0.720791 0.003944 -0.09477
3720 -1.8552377700000002 4.223018610000001 -4.46326551 -0.636778 0.242979 -0.270747
3740 -1.9826304300000002 4.47359544 -4.11449058 -0.357515 0.668081 -0.260795
3760 -2.45714013 3.988755810000001 -4.01674374 0.114926 0.457361 -0.188859
3780 -1.3997398499999998 4.36432185 -4.16104884 -0.905189 0.494596 -0.357333
3800 -1.2213057600000001 6.20175447 -4.3024992300000005 0.694504 1.036791 -0.138551
3820 -1.8269555400000002 6.95034576 -3.8989452600000005 0.217615 0.651517 0.185488
3840 -2.0910015 6.435418860000001 -3.46799196 -1.787265 0.280913 0.562928
3860 -2.1257289 6.925497030000001 -3.9790242900000004 -1.682424 -0.336264 0.833643
3880 -2.6345245500000005 7.13326302 -5.209168860000001 -0.15331 -1.485835 0.342664
3900 -2.25206208 6.67446894 -5.85597159 0.822857 1.051817 0.520351
3920 -1.46410326 6.752154330000001 -4.77402669 0.046561 -0.344377 -0.499161
3940 -1.5660389700000001 7.25975316 -3.42562257 -1.126456 0.424962 -0.334221
3960 -1.9323345600000001 7.778868930000001 -3.73877739 -1.341779 -0.08509 0.064444
3980 -3.92992524 9.54295218 -5.36544216 -1.40304 -1.052476 0.14644100000000002
4000 -7.227566550000001 13.14236871 -7.90655589 -0.8346020000000001 -0.629505 -0.093685
4020 -9.13370841 16.28658162 -4.72746843 -0.365188 -0.330043 -0.263842
4040 -9.13115781 14.82367518 4.66549866 -0.341525 -0.296003 -0.272266
4060 -3.0570903000000005 7.1040782700000005 1.65330873 -0.219838 -0.467083 -0.218854
4080 -0.1130112 4.06404756 -3.83413059 -0.071875 -0.425455 -0.101438
4100 -0.9410929200000001 11.926301490000002 0.63498168 0.219647 -0.242681 0.025346
4120 -5.9064146100000015 19.87820901 -2.5613223300000003 0.630883 -0.16304100000000002 -0.000725
4140 -4.957689510000001 29.359044270000002 -8.99075709 0.928081 0.16208499999999998 -0.046068
4160 -2.39292387 6.23947392 -4.304598570000001 1.185226 0.328743 -0.121397
4180 -7.923026879999999 0.5215192200000001 -1.5012243 1.045906 0.031589 -0.28115500000000004
4200 -3.11637213 9.461676330000001 1.58550201 0.8477979999999999 -0.12965 -0.280195
4220 -1.8047947500000001 13.20328881 0.32796792 0.6539149999999999 -0.13179200000000002 -0.109563
4240 -1.7440218 8.923695930000001 -1.63804437 0.956444 -0.5563819999999999 0.046918
4260 -1.2760946100000001 7.910901720000001 -1.94654925 0.900418 -0.533443 -0.046438
4280 -2.88151092 8.888811570000001 -4.34516292 0.516626 -0.574294 -0.153752
4300 -3.05380395 8.77520196 -3.5700748200000003 0.486025 -0.719133 -0.136689
4320 -1.9296368099999999 8.0545986 -1.8359316900000002 0.502363 -0.490775 0.018025
4340 -0.7667103599999999 8.51025348 -2.5354239300000008 0.5651689999999999 -0.475204 0.065445
4360 -0.7438040100000001 8.609501250000001 -3.2016897 0.404394 -0.390536 0.077032
4380 -1.6428316500000002 8.01568233 -3.898494 0.478391 -0.237668 0.14572000000000002
4400 -1.7986635000000002 7.244488800000001 -2.4673229100000005 1.228367 -0.196813 0.201112
4420 -1.6612450200000002 5.755527000000001 -2.30999994 2.015277 0.041849 0.307784
4440 -2.21613786 5.745952440000001 -2.7443965500000003 2.250914 0.08015800000000001 0.379884
4460 -1.5308701200000001 7.6272357600000005 -2.4540009300000003 2.267497 0.344808 0.516393
4480 -0.22378572 9.39146616 -0.9864445500000001 2.158799 0.572242 0.477954
4500 -1.5762217500000002 7.76480139 -1.60420968 1.936837 0.510479 0.6644899999999999
4520 -1.87829127 6.507718560000001 -3.5844464700000005 2.326724 0.325259 1.090467
4540 -2.35609713 6.5488813200000004 -2.35295793 1.7397169999999995 0.865765 0.963897
4560 -2.1116613600000003 9.62154009 -3.45541554 1.213135 0.293051 0.520845
4580 -0.64440909 9.208254600000002 -2.60788059 1.454782 -0.511229 0.310987
4600 -2.6515841399999998 6.00326874 -2.8151953200000004 1.324856 -1.032147 0.688898
4620 -3.20977314 7.28086428 -3.79820637 1.006111 -1.304442 0.5951529999999999
4640 -1.05440823 10.52685594 -3.11128074 0.738958 -1.320031 0.196997
4660 -2.34457038 10.910211120000001 -2.16674451 0.322855 -0.847843 -0.042592000000000005
4680 -5.49626832 9.51616107 -3.3765333300000004 -0.107333 -0.328052 -0.1862
4700 -6.51235869 11.32963767 -2.1095620200000003 -0.64252 0.117437 -0.305877
4720 -7.522906410000001 14.520850290000002 -4.7644423200000015 -1.068805 0.189364 -0.340994
4740 -6.24980385 13.85084691 -5.02265133 -1.47778 0.259322 -0.431534
4760 -8.599318470000002 17.93885049 -3.4813139400000006 -1.848123 0.34844400000000003 -0.552808
4780 -9.8854389 15.38081451 -6.97594005 -1.97022 0.276299 -0.5204529999999999
4800 -7.15182354 7.96627917 -7.164704070000001 -2.027344 0.141233 -0.527089
4820 -2.82717333 7.170835320000001 -4.6069722 -2.294419 -0.038525 -0.630205
4840 -2.380651560000001 11.557612259999999 -5.3711319600000005 -2.469983 -0.168949 -0.629128
4860 -2.56596246 12.071352150000001 -5.68458108 -2.135288 -0.22863200000000006 -0.379954
4880 -3.31306263 6.63914313 -3.99803607 -1.653447 -0.27617 -0.09879
4900 -4.976554139999999 2.7551679300000003 -2.8644415200000006 -1.718462 0.476038 -0.073502
4920 -5.876925750000001 2.68841088 -2.6677510200000003 -1.915081 0.960042 0.004621
4940 -3.8079280800000004 3.3263846100000003 -3.21516864 -1.302724 0.584519 -0.12308
4960 -2.21479389 3.79116279 -4.348459080000001 -1.050949 0.457376 -0.247209
4980 -2.3918742 3.20828202 -5.079539520000001 -1.149671 0.31397600000000003 -0.264806
5000 -2.5861710600000003 3.2389677000000003 -4.88493855 -1.342207 -0.09948 -0.331851
5020 -1.7051055300000002 3.50092413 -3.60450792 -1.5587799999999998 0.5344770000000001 -0.173943
5040 -1.23882642 3.4049725200000003 -3.02955363 -0.109024 -0.037045 -0.23145
5060 -0.34338924000000004 3.63744009 -3.4522665300000006 0.11176400000000003 -0.109794 0.186792
5080 -0.89708526 4.97115864 -3.9550780800000003 -0.830626 0.573072 0.46455
5100 -2.8175889600000006 5.99683338 -4.48302285 -0.8052779999999999 -0.659478 0.715202
5120 -3.8327768100000004 6.9726537 -4.85350731 -0.088825 -1.404894 0.557723
5140 -2.7411003900000006 7.347621330000001 -6.0616480500000005 0.08504500000000001 -0.017436 0.290105
5160 -1.7115408900000002 8.87084946 -6.947206560000001 -0.138822 0.256914 -0.191442
5180 -2.39636718 9.23968584 -6.31192077 -0.768858 0.387925 -0.173578
5200 -3.8775398400000003 7.8954804 -4.94271945 -0.808493 0.174768 -0.113762
5220 -4.0499800200000005 7.513174889999999 -4.39755813 -0.8872049999999999 -0.304103 -0.171382
5240 -4.312976310000001 9.07578036 -5.266645649999999 -0.7622479999999999 -0.352165 -0.248428
5260 -5.629497929999999 12.954958470000003 -6.609507120000001 -0.480556 -0.163302 -0.303318
5280 -6.22794717 14.475792960000001 1.11008979 -0.228721 -0.408055 -0.320473
5300 -7.6580784 13.82375169 2.65652838 0.113193 -0.6982229999999999 -0.24721
5320 -3.9839685300000003 10.446472799999999 -0.82478556 0.404236 -0.6113649999999999 -0.109624
5340 0.02365191 6.98222826 -1.12835601 0.6286510000000001 -0.4802520000000001 -0.059087
5360 -2.24578368 12.0194082 1.66753323 0.6941149999999999 -0.244702 -0.146526
5380 -4.89736782 18.22444902 -1.8163215000000001 0.875625 0.219293 -0.187513
5400 -4.16014632 21.16493766 -4.75920378 1.038145 0.036660000000000005 -0.210713
5420 -6.1989095700000005 5.634138060000001 -1.90688742 1.156265 -0.136966 -0.316487
5440 -6.238277100000001 5.48444727 1.9447540200000002 0.738312 -0.362222 -0.36612
5460 -3.94190325 8.555006700000002 2.5583302800000003 0.344597 -0.642893 -0.165548
5480 -4.036658040000001 8.9307297 0.7011403200000002 0.785957 -1.134687 -0.106288
5500 -3.9971335500000005 8.01238617 -0.33365772000000005 0.7189180000000001 -1.081249 -0.091869
5520 -1.5636453300000002 8.772955470000001 -1.62022941 0.556076 -1.0389540000000002 -0.137926
5540 -0.7925989500000001 9.71883567 -2.82028671 0.361972 -1.233333 -0.111259
5560 -1.42473573 9.63845253 -2.41268121 0.398658 -1.131237 -0.100452
5580 -1.72591254 8.845108020000001 -2.45804265 1.049657 -0.883034 -0.130405
5600 -1.49988033 7.263794880000001 -2.85920298 2.058309 -0.520205 -0.098188
5620 -1.91317563 6.61878738 -3.7815882300000006 2.086431 -0.378848 -0.041556
5640 -2.03636961 7.5715542 -3.4624493100000002 2.365639 0.109975 0.283439
5660 -1.4374593 7.08581205 -2.40160572 2.43932 0.431261 0.592258
5680 -1.42174368 6.044725800000001 -2.3902261200000003 2.140622 0.6731739999999999 0.8270069999999999
5700 -1.58146029 6.701711310000001 -3.2482479600000005 1.980956 0.048609 1.309528
5720 -0.5167221300000001 7.695346590000001 -1.4436003599999998 1.633804 -0.15426700000000002 1.196268
5740 0.8565209100000001 8.87055516 1.3162175100000002 1.474337 0.330283 0.839884
5760 -1.76692815 7.56721818 -1.93353138 1.913571 0.013459 0.8348120000000001
5780 -2.08112283 8.19111456 -2.31464007 1.708189 -0.220681 0.957591
5800 -2.4647723100000003 8.41564584 -2.64125421 1.007889 -0.652466 0.8528399999999999
5820 -1.6381915200000001 9.26528013 -2.1844123200000003 0.698797 -1.196258 0.713577
5840 -1.48476312 9.4598811 -2.15327538 0.622997 -1.444315 0.475152
5860 -3.54807099 10.002952890000001 -2.71026756 0.454653 -1.617535 0.249871
5880 -5.544916110000001 9.54998595 -4.97909493 0.325325 -1.377617 0.304208
5900 -6.070928310000001 11.33293383 -3.1802842800000004 -0.381682 -0.737522 0.152103
5920 -6.33377745 12.84239853 -2.33604549 -1.07984 -0.035749 -0.246779
5940 -6.3659640600000005 12.955105620000001 -3.56663151 -1.401258 -0.177061 -0.326823
5960 -7.26154839 18.183433410000003 -2.8159408800000003 -1.7217169999999995 -0.199749 -0.502084
5980 -6.79108041 16.411570830000002 -4.58317314 -1.749628 -0.195562 -0.459556
6000 -9.07293546 7.41602646 -4.36611708 -1.4155719999999998 -0.7480100000000001 -0.32405500000000004
6020 -9.976004820000002 9.12187755 -3.3585614100000005 -1.097244 -1.01804 -0.205049
6040 -5.363499780000001 10.051149420000002 -2.7710405100000006 -0.420545 -0.466394 0.048935
6060 -1.93023522 8.303684310000001 -3.68099649 0.4781220000000001 0.664571 0.158448
6080 -2.8294198200000005 6.94300788 -3.7473120900000003 0.81361 1.295978 0.209121
6100 -4.03410744 6.587199180000001 -2.2108993200000002 0.582341 0.714728 0.045881
6120 -5.56512471 5.92872255 -1.6437341699999999 1.573799 0.019904 -0.480415
6140 -5.705535240000001 4.30968996 -1.8184208400000001 2.755861 1.83366 -0.071762
6160 -5.05438668 2.6946990900000003 -2.12977062 -2.005418 -0.548705 -0.6360779999999999
6180 -2.04819066 3.01832118 -3.2067810900000002 -0.519403 0.025517 0.462084
6200 -2.14474068 3.7761927300000004 -3.61947798 -1.57609 -0.732595 0.753708
6220 -3.07939824 3.7528449299999997 -4.631065560000001 0.7855439999999999 -3.243785 -0.941074
6240 -3.08208618 3.28477059 -4.82072229 -0.108683 0.709361 0.920207
6260 -3.00918807 3.5221725900000003 -3.53175696 -1.031537 -0.963379 0.187377
6280 -2.88883899 5.4025632 -3.4218849600000003 -1.6730040000000002 -1.202238 0.003741
6300 -2.86414722 8.155788750000001 -3.86017614 -2.13037 -0.903383 -0.010518
6320 -3.3890999400000004 10.05204213 -5.0436153 -2.118475 -1.298819 0.033868
6340 -3.30423363 8.82430101 -8.137679490000002 -1.719035 -1.282961 -0.281692
6360 -2.8195411500000005 6.95184669 -11.03235543 -1.241003 -0.632372 -0.356098
6380 -3.175497 4.95095004 -9.711949050000001 -0.925238 -0.4341390000000001 -0.386194
6400 -6.877153350000001 10.86605631 -8.62311753 -0.765724 -0.726824 -0.324884
6420 -5.76420885 16.327744380000002 -4.1384466 -0.72523 -1.1363370000000002 -0.248232
6440 -4.63331205 8.48465919 10.4547132 -0.8921379999999999 -1.014273 -0.259169
6460 -1.51006311 6.710550120000001 6.44544468 -0.976179 -0.691327 -0.228123
6480 1.82815236 12.266394570000001 -0.18172044 -0.81402 -0.66219 -0.196049
6500 -15.266155230000003 45.797867280000006 -20.60210853 -0.672487 -0.7584960000000001 -0.21096
6520 -2.3125407300000003 10.70543718 5.20931601 -0.547205 -0.252643 -0.281236
6540 -4.58212347 2.8560637800000004 -0.43589754000000003 -0.270125 -0.046035 -0.24111
6560 -6.98926203 7.772139270000001 -1.3941972 0.067635 -0.584254 -0.203877
6580 -8.62806177 11.50462845 -0.41523768 0.372932 -0.353976 -0.246905
6600 -7.46961849 9.839783160000001 -0.7375158 0.498388 -0.162869 -0.194999
6620 -5.05349397 6.70350654 -0.17917965 0.839493 0.05626 -0.144827
6640 -3.22280082 4.41566739 -1.4591688299999999 1.369865 0.343016 -0.121194
6660 -1.9001479500000003 6.5160963 -2.50069653 2.020354 0.35851500000000003 -0.032281
6680 -2.35654839 7.444916910000001 -1.63654344 2.778412 0.046793 0.008665
6700 -2.5852783500000003 7.085066490000001 -1.02237858 3.163465 0.383723 0.131632
6720 -2.22871428 7.678581300000001 -1.93023522 3.08239 0.99292 0.503095
6740 -2.14174863 8.384067450000002 -2.42975061 2.961601 1.748241 0.5974229999999999
6760 -2.6309242800000003 8.73478476 -2.5863182100000004 2.39659 1.02117 0.958672
6780 -3.8823271200000002 9.06126156 -3.56394357 2.034925 -0.111124 1.248153
6800 -3.70300032 9.21962439 -3.3894040500000004 2.355714 -1.353374 1.271213
6820 -4.06569564 10.49212854 -0.61731387 3.018289 -1.876377 1.217759
6840 -5.09061501 11.29835358 0.32841918 3.313019 -2.0319580000000004 1.241382
6860 -4.22856126 10.96140951 -1.53715833 3.236612 -1.853079 1.329281
6880 -3.8257430400000003 12.067153470000003 -3.2189062500000003 2.897566 -1.750906 1.380193
6900 -2.71879245 11.97764703 -4.11704118 2.414886 -1.869412 1.597027
6920 -1.85374665 11.58142113 -3.37443399 1.984665 -2.1025270000000003 1.6584139999999998
6940 -1.94745177 11.137440150000002 -0.5783976000000002 1.544533 -2.277638 1.608563
6960 -3.4159008600000003 10.04081949 0.35910486 1.019428 -2.025701 1.664392
6980 -5.404515389999999 9.51810345 -0.24189498000000004 0.591964 -1.7375349999999998 1.633263
7000 -6.671928149999999 11.963569680000003 -1.12371588 0.219851 -1.601398 1.477734
7020 -6.486009030000001 12.157572240000002 -0.40685013000000003 -0.080594 -1.552346 1.193562
7040 -5.40571221 14.07987117 -0.49980969000000003 -0.399095 -1.445864 0.948714
7060 -3.69461277 12.41532999 -0.26090676 -0.793185 -1.36338 0.6435489999999999
7080 -3.14705781 11.012902200000003 0.3793134600000001 -1.068745 -1.459354 0.374692
7100 -3.58069905 10.1310813 0.36419625 -1.170679 -1.90609 0.293367
7120 -3.55376079 8.93446731 0.29309337 -0.809063 -1.8279330000000005 0.14837899999999998
7140 -4.45204287 7.42815162 -0.6304887000000001 0.47709 -0.867891 0.041832
7160 -4.65411906 6.4535281200000005 -1.84207275 1.703787 0.312462 0.569112
7180 -4.978800629999999 6.22301274 -2.61356058 1.889428 -1.135578 1.023054
7200 -4.19472657 6.58540395 -2.4679213200000003 0.7452340000000001 -1.84566 1.367417
7220 -3.5763630300000004 6.571032300000001 -2.1927900600000005 0.130496 -1.859628 1.397324
7240 -3.8002959000000005 6.2842271400000005 -2.6286875999999997 -0.14543699999999998 -1.738428 1.430493
7260 -4.24203039 5.76420885 -3.15438588 -0.167665 -1.606846 1.045609
7280 -3.4757712900000004 6.01659072 -3.1436145000000004 0.288511 -2.082041 0.671254
7300 -3.06337851 5.90671872 -2.8572606000000005 0.684449 -1.931693 0.558459
7320 -3.61183599 5.751936540000001 -3.09870432 0.50826 -1.762002 -0.431095
7340 -4.11584436 5.7708011699999995 -3.9065774400000004 -0.137917 -1.410695 -0.8772340000000001
7360 -3.80104146 6.3818268300000005 -4.48766298 -0.646872 -1.230505 -0.210177
7380 -3.4605069300000006 7.287741090000001 -4.50219159 -0.960204 -0.586151 0.361512
7400 -4.373759070000001 6.6660912 -5.210218530000001 -0.942156 -0.813239 0.39184
7420 -4.5574218900000005 9.28863774 -7.531137000000001 -0.996513 -0.967908 0.223947
7440 -3.6422273700000005 14.321471850000002 -8.26640631 -1.0053 -0.928954 0.080694
7460 -2.0510355600000003 11.951591670000001 -9.866436929999999 -0.833082 -1.069095 0.078872
7480 0.60159825 9.85190832 -6.979089060000001 -0.732101 -1.434656 0.034112
7500 2.8515708 7.24463595 -1.9597240800000002 -0.754189 -1.41732 -0.019475
7520 1.1975067000000001 6.854247 -2.1218343300000004 -0.764076 -1.261682 -0.037903
7540 -2.5188156 8.72385642 -3.65779584 -0.644621 -1.281227 -0.048794
7560 -9.994565340000001 15.48350559 -3.79924623 -0.457117 -1.3500219999999998 -0.057011
7580 -9.41527503 14.061761910000001 2.9044074600000003 -0.37657 -1.253277 -0.077936
7600 -3.5717229000000006 2.49935256 1.5452319600000002 -0.414301 -1.142198 -0.117866
7620 -3.8550847500000005 3.85328952 1.25259966 -0.379227 -1.010983 -0.194702
7640 -5.5342918800000005 9.027730980000001 0.06316659000000001 -0.310224 -0.866282 -0.21042800000000006
7660 -6.3322863300000005 12.427160850000002 -1.6572033000000002 -0.22208200000000006 -0.905149 -0.15742
7680 -4.58346744 10.221647220000001 -0.52196067 -0.099934 -0.946378 -0.076397
7700 -4.54125501 7.83724824 -0.9330094800000001 0.262322 -0.758259 -0.015356
7720 -4.30564824 8.17375086 -1.16143533 0.448639 -0.279897 0.076132
7740 -3.6556965 8.75843667 -0.66387213 0.508541 -0.197207 0.124514
7760 -3.3564718800000004 7.7722864199999995 -1.09078371 0.797496 -0.42531 0.173826
7780 -3.8019439800000003 7.763604570000001 -1.7318966400000002 1.102525 -0.206941 0.178882
7800 -3.8847207600000004 8.93686095 -1.4388032700000002 1.5707209999999998 0.023534 0.211767
7820 -3.32458938 9.784248750000001 -1.12536396 2.392126 0.149926 0.12654400000000002
7840 -3.31815402 8.54393121 -0.98809263 3.128874 0.647413 0.019957
7860 -3.5838480600000002 7.556731290000001 -0.9428881500000001 3.459519 1.1212959999999998 0.040888
7880 -3.7815882300000006 8.20923363 -1.2350790000000003 3.04853 1.459802 0.193544
7900 -3.63369267 8.96156253 -1.5486752700000002 2.526116 1.151392 0.516097
7920 -3.44029833 9.80626239 -1.4648586300000002 2.221054 0.760268 0.822116
7940 -3.5684267400000005 10.03527684 -1.3847697899999998 2.421412 -0.07 0.753008
7960 -3.57920793 9.27531576 -1.7142386400000003 2.811433 -0.685868 0.715929
7980 -4.163138370000001 9.849671640000002 -2.1746808 2.982402 -0.8049470000000001 0.7760279999999999
8000 -5.159922659999999 10.16655426 -2.4698637 2.790846 -0.651065 0.8214950000000001
8020 -4.8847914 9.99336852 -1.7283061800000001 2.4175310000000003 -0.5764739999999999 0.8732709999999999
8040 -4.22691318 10.45845081 0.43934085000000006 1.970868 -0.6901390000000001 0.914094
8060 -5.3530227 10.741959809999999 0.28425456 1.893395 -1.006526 0.981256
8080 -4.58810757 11.0507688 -1.4834191500000002 1.077727 -0.93439 0.698797
8100 -3.79206531 11.57348484 -1.3216032000000002 0.564686 -1.08103 0.5191439999999999
8120 -3.9037325400000005 10.79809263 -1.00980216 -0.084444 -0.954098 0.508038
8140 -4.96787229 9.41856138 -0.28396026 -0.512001 -0.948133 0.452701
8160 -6.3938048400000005 9.88170129 0.20851155000000002 -0.712919 -0.843872 0.394548
8180 -7.6451978700000005 10.218046950000002 -1.4929937100000004 -0.849102 -0.613993 0.301435
8200 -5.961507570000001 10.858424130000001 -1.7621310600000002 -0.609336 -2.403168 0.238105
8220 -4.19532498 10.97188659 -0.54831033 -0.963494 -1.780474 0.135489
8240 -4.716687240000001 10.54736865 -0.14534496 -1.1753790000000002 -1.2480129999999998 0.097007
8260 -4.70711268 9.497453400000001 -0.70742853 -1.08844 -1.007002 0.22335500000000005
8280 -4.46506074 8.48375667 -1.28448216 -1.176022 -0.684348 0.330221
8300 -4.7111544 7.24672548 -2.1683925900000003 -1.258844 -0.052629 0.399335
8320 -4.8819465 6.52867272 -3.3078240900000004 -1.048539 0.379426 0.32868
8340 -4.80291714 6.62971572 -3.9624061500000005 -0.330247 -0.181535 0.661292
8360 -4.67882064 5.736073770000001 -2.26344168 0.120252 -0.698286 0.560415
8380 -3.2361228000000004 5.1781790700000006 -3.4784690400000002 0.7709520000000001 -0.984986 0.298272
8400 -4.33573551 3.5521127100000003 -2.7590625 1.807914 0.4673600000000001 0.104965
8420 -3.45541554 3.1153224600000002 -3.60735282 -0.087812 0.495175 -0.145458
8440 -3.0210189300000003 3.56438502 -4.38572727 -0.949248 -0.964711 -0.083375
8460 -2.2129986600000002 4.45443651 -4.64978304 -0.305445 1.810197 0.457019
8480 -1.84176864 4.60637379 -4.66908912 -0.6864939999999999 -0.502433 1.032024
8500 -3.10753332 2.8539644400000004 -3.11382153 0.9319 -2.085723 -0.296329
8520 -0.68408073 1.6290584099999998 -2.45833695 1.183643 1.938564 0.896681
8540 -2.0895005700000002 3.82634145 -3.43430442 0.359615 -0.6797890000000001 0.256552
8560 -2.5596742500000005 4.722828300000001 -4.9912200900000006 -0.097462 -1.031917 0.000642
8580 -2.10178269 4.82551938 -6.22315989 -0.926793 -0.5118050000000001 0.122369
8600 -2.7357147000000004 6.53586345 -5.3191880099999995 -1.222059 -1.263422 0.261207
8620 -2.3534091900000003 8.16117444 -4.51879992 -1.513365 -1.21895 0.314662
8640 -4.96981467 9.433835550000001 -4.14622593 -0.6389130000000001 -1.007175 0.143174
8660 -5.61273264 6.7529097 -5.50989441 -0.323786 -0.5115850000000001 0.077442
8680 -5.10274017 5.42501829 -5.45824476 -0.645335 0.169889 -0.100865
8700 -3.03329124 7.73726472 -8.145762930000002 -0.643259 0.464571 -0.268939
8720 -3.8369754900000004 8.44020027 -0.40744854 -0.757927 0.810183 -0.285138
8740 -11.800861020000001 9.233996040000001 6.277193370000001 -0.548167 0.8844129999999999 -0.116057
8760 -3.38041809 13.35388212 4.6809199800000005 -0.46838 0.731256 0.02036
8780 -4.40129574 12.18915063 -0.49366863 -0.367876 0.688769 0.168531
8800 -8.670117240000002 19.63646118 -8.16477471 -0.235321 0.279212 0.17639200000000002
8820 -8.422238160000001 33.89192154 -12.40006563 0.583205 -0.536895 0.026126
8840 -3.0689211600000004 6.47523765 3.40227477 0.660741 -0.97545 0.140461
8860 -7.0822215900000005 4.34860623 -0.24084531 0.697793 -0.747939 -0.043306
8880 -6.33243348 9.63141876 -1.36156914 1.181824 0.070752 -0.335803
8900 -4.16104884 9.17217342 -1.52278668 2.071366 0.381285 -0.442151
8920 -1.65062079 8.51190156 -1.23343092 2.508734 0.153831 -0.41744
8940 -2.0872638900000005 9.624237840000001 -4.67148276 2.383326 0.592785 -0.323807
8960 -3.6051063300000004 10.24738866 -8.17510464 2.490346 0.55356 -0.198027
8980 -2.25640791 5.73532821 -5.12878572 2.4574700000000003 0.16468 -0.156097
9000 -3.213069300000001 3.17399607 -3.46933593 2.573878 0.254566 -0.091306
9020 -2.56027266 3.60150606 -3.67530669 2.327863 0.106534 0.377183
9040 -1.3078299600000003 5.43429855 -3.3449451300000006 1.924431 0.31576 0.6187189999999999
9060 -0.5773479300000001 5.9138996399999995 -3.2383692900000005 1.0788950000000002 0.215061 0.161084
9080 -1.01953368 5.482946340000001 -2.8026189 0.309963 0.376193 0.491997
9100 -0.41344245 6.324801300000001 -1.4662026 0.05737 -0.341514 0.904554
9120 0.47914983 8.069568660000002 -0.42855966000000006 0.323079 -1.074154 0.873166
9140 -1.2359815200000002 8.76996342 -1.8163215000000001 0.462725 -1.064241 0.671166
9160 -2.4540009300000003 8.73418635 -1.7561469600000001 -0.20487 -0.949318 0.4826220000000001
9180 -3.1963040100000004 7.61586597 -1.1907770400000002 -1.335828 -0.944488 0.25573
9200 -5.37502653 9.75716334 -2.95350651 -2.188127 -0.5766319999999999 0.111505
9220 -6.87939003 11.6320113 -5.038072649999999 -2.576364 -0.5253180000000001 0.136501
9240 -6.01554105 11.03101146 -3.49507737 -2.390293 -0.882919 0.158555
9260 -6.6985721100000015 13.931082900000002 -2.8321077600000004 -2.06025 -0.468035 0.016119
9280 -9.114990930000001 17.03832192 -5.0840325 -1.876299 -0.527692 -0.142753
9300 -9.6221385 15.96235131 -4.3004097 -1.344917 -0.808409 -0.19957
9320 -10.42178103 13.055098950000003 -4.44740274 -0.550325 -1.116733 0.025361
9340 -8.391101220000001 7.6791797100000005 -4.95919044 -0.266542 -0.251215 0.183263
9360 -6.2035497 7.3130410800000005 -8.070314220000002 -0.42128 1.453558 0.234476
9380 -5.429658419999999 8.73389205 -7.36378821 -0.403286 2.0174950000000003 0.117443
9400 -4.519849590000001 8.98476318 -5.1711453 -0.083867 1.3008 -0.218034
9420 -3.9910023000000003 6.25130478 -1.5416415 -0.459885 -0.549113 -0.5419609999999999
9440 -4.05043128 3.60540063 0.36299943 -0.283956 -1.941204 -0.484469
9460 -4.563562950000001 2.65353633 -0.72479223 -0.244485 1.31803 0.406801
9480 -4.61685087 2.40684426 -3.59522766 -0.622771 -0.494642 0.627603
9500 -3.4985206800000004 1.5296733000000002 -4.06299789 -0.8425819999999999 -0.8873219999999999 0.7163010000000001
9520 -3.40392285 2.44771272 -3.92079213 -1.432453 0.22845 0.853893
9540 -1.56904083 4.1613431400000005 -3.1118791500000005 0.800211 -1.97109 -0.078411
9560 -1.7735106600000001 4.60352889 -1.95448554 1.355099 1.344698 0.609151
9580 -3.3787700099999998 4.73525757 -1.86647022 -0.209834 -0.26410700000000004 -0.104745
9600 -4.52628495 4.67807508 -2.0688505200000002 -1.7525810000000002 1.546183 -0.195821
9620 -5.054092379999999 6.14667132 -4.00597236 -2.142392 0.284182 0.054106
9640 -4.38288237 8.067469319999999 -6.863527260000001 -1.785182 -2.023828 0.16638
9660 -2.5569863100000005 7.1278773300000005 -8.12854638 -0.891064 -0.558148 -0.040760000000000005
9680 -2.8303125300000005 6.36790644 -6.48631314 -0.946245 -0.314939 -0.340559
9700 -3.22998174 5.413491540000001 -4.36761801 -1.192297 -0.29038600000000003 -0.406403
9720 -4.78734867 5.031931590000001 -0.9365999400000001 -0.670589 -0.432142 -0.30750500000000003
9740 -7.444916910000001 7.24643118 -3.42038403 -0.269173 -0.511704 -0.206323
9760 -8.53330698 19.395919980000002 0.22708187999999999 0.062348 -0.029507 -0.134123
9780 -0.70128747 13.320047430000002 1.6949227500000001 0.607931 0.513035 -0.15344000000000002
9800 -6.08409333 2.46612609 0.09984618 0.984933 0.7920699999999999 -0.197097
9820 -5.14914147 11.65281831 -2.37271527 0.6323270000000001 1.19366 -0.153073
9840 -6.47284401 23.72356224 -5.57260974 0.915678 1.208089 -0.277163
9860 -9.684108270000001 33.17162229 -11.02307517 1.297884 0.332102 -0.259484
9880 -6.00011973 4.295171160000001 -1.10245761 0.951306 -0.612422 -0.053459000000000007
9900 -10.416689640000001 0.7502393700000001 -0.22617936000000002 0.82675 -0.5522229999999999 0.184876
9920 -3.30063336 11.85699384 0.0865242 0.902672 -0.237324 0.224527
9940 -0.52436412 14.17087854 1.91796291 0.992628 -0.366777 0.019154
9960 -2.36493594 6.53825709 3.27563748 0.540434 -0.24315100000000006 -0.134782
9980 -2.92312494 4.89272769 0.6481565100000001 1.043425 -0.14473 -0.142077
10000 -3.85164144 7.033720949999999 -4.378693500000001 1.535025 0.148203 -0.031128
10020 -3.31306263 8.07705369 -1.65166065 2.496737 0.471832 -0.277994
10040 -2.8853956800000002 7.584876179999999 0.22363857000000004 2.87245 0.596936 -0.187936
10060 -2.20491522 6.2568376200000015 -1.0687798800000001 2.8197 0.413362 0.210378
10080 -1.8636253200000001 6.4991838600000005 -3.11802021 2.862384 0.7323649999999999 0.05217
10100 -2.3912757900000003 8.17510464 -5.85716841 2.713129 0.362909 0.132786
10120 -3.08343996 8.308177290000001 -6.25968252 2.931281 -0.086717 0.7619319999999999
10140 -2.3632878600000002 6.492444389999999 -2.7086194800000003 2.789451 -0.588863 0.718856
10160 -1.16741943 5.29897941 1.08853722 1.95076 -0.067551 0.548892
10180 -1.34719749 5.11202043 0.19399275000000002 0.833493 0.334948 0.761694
10200 -1.38881151 7.19448723 -1.6777160100000001 0.257069 -0.127932 0.600164
10220 -1.20379491 10.333461600000001 -2.48244012 0.553952 -0.903972 0.472909
10240 -2.1921916500000003 7.9273629 -2.13201711 0.596212 -1.035103 0.195634
10260 -4.80770442 4.5378117 -3.2986909800000004 0.094818 -0.8838299999999999 0.096867
10280 -3.4419464100000003 7.28984043 -2.7851080500000003 -0.986837 -0.945704 -0.008886
10300 -3.0517046100000003 10.727588160000002 -3.0517046100000003 -2.039027 -0.680413 -0.171468
10320 -4.27824891 10.73403333 -3.0557463300000003 -2.560498 -0.5203 -0.066357
10340 -6.20759142 9.211246650000001 -2.7440924399999997 -2.7778 -0.552021 0.062489
10360 -9.911641410000001 12.85601481 -3.2272839900000005 -2.89516 -0.194275 -0.055225
10380 -9.26079696 15.785575110000002 -5.02429941 -2.91181 -0.122864 -0.316079
10400 -8.680898430000001 14.61156336 -4.72687002 -2.414173 -0.009587 -0.304203
10420 -8.24231295 16.520991570000003 -3.70629648 -1.844212 -0.132196 -0.240244
10440 -8.41370346 13.37558184 -4.43153016 -1.178037 0.319881 -0.118665
10460 -8.999134830000001 6.69378483 -7.1916423300000005 -0.804139 0.792115 0.01046
10480 -7.898472450000001 8.8555851 -8.179744770000001 -0.8527549999999999 1.32404 -0.035427
10500 -4.62103974 7.78875741 -6.73284825 -0.60496 1.2321799999999998 -0.188471
10520 -3.24839511 5.60718999 -4.4134209 -0.325483 1.0105879999999998 -0.160597
10540 -3.5531623800000003 4.40189415 -0.9286734600000001 -1.109625 -0.997461 -0.278869
10560 -3.78831789 4.06674531 -0.15328125 -1.04325 -0.395056 -0.201197
10580 -5.432356169999999 1.68114951 -1.15918884 0.382121 0.267154 -0.007287
10600 -4.676427 0.26569404 -3.25647855 0.223432 -1.162361 0.640779
10620 -3.4458311700000004 1.6272631800000001 -4.84767036 -1.458458 0.731833 0.733426
10640 -2.8258195500000003 2.485883430000001 -4.15176858 -1.513444 0.340002 0.467556
10660 -2.0910015 3.4783120800000003 -3.70914138 -0.13433299999999998 -0.321558 0.609428
10680 -2.20056939 2.938095 -3.3441995700000002 -0.047556 0.268895 -0.070111
10700 -2.9939237100000002 3.0238638300000003 -3.0169772100000003 -0.1488 0.434753 -0.167171
10720 -5.4572049 5.11291314 -2.1555218700000003 -0.6659069999999999 0.27367 0.070842
10740 -4.95919044 7.4643799500000005 -3.3465932100000004 -0.927139 -0.150528 0.08558400000000001
10760 -4.68824805 8.96680107 -4.7223770400000005 -0.65792 -0.597604 0.033558
10780 -4.48871265 7.77827052 -5.75733204 -0.32815900000000003 -0.703706 -0.092189
10800 -4.1415858000000005 7.049436570000001 -6.14366946 -0.057601 -0.202442 -0.20631
10820 -4.50817569 6.772215780000001 -4.88703789 -0.043046 -0.124428 -0.281084
10840 -5.33894535 7.49281914 -4.45488777 0.110707 -0.06119400000000001 -0.243771
10860 -6.18678441 8.40427605 -4.462372800000001 0.374169 0.08531799999999999 -0.081885
10880 -5.08702455 14.777715330000001 1.32908823 0.714579 0.166959 -0.014451
10900 -5.04285993 15.37722405 5.30017623 0.598337 0.164114 -0.267359
10920 -6.710550120000001 6.66339345 -1.4238430200000003 0.208797 0.525878 -0.354933
10940 -4.163138370000001 6.6401928 -4.23079794 0.577407 0.283383 -0.238816
10960 -4.88045538 20.16412146 -1.2740050800000002 0.894065 -0.5482319999999999 -0.072101
10980 -8.79136884 18.600466320000002 -1.7841447000000001 0.597228 -0.608955 -0.080506
11000 -6.55261893 8.542587240000001 -1.10080953 0.477109 -0.683477 -0.254301
11020 -5.444324370000001 8.243205660000001 -1.69013547 0.767777 -0.490009 -0.403138
11040 -5.94474228 7.98439824 -1.1397258000000001 1.633891 0.030723 -0.308025
11060 -2.9752160400000003 11.59174125 -1.42982712 2.421763 0.370084 -0.07649299999999999
11080 -2.35475316 10.68522858 -0.45549792000000006 2.28945 0.663254 -0.016905
11100 -3.0810463200000004 7.78007556 -1.05665472 2.508235 1.001972 0.069647
11120 -2.77657335 6.76353393 -1.8136237500000003 2.316097 1.330293 0.182184
11140 -3.1563380700000003 6.521491800000001 -3.2656116600000002 1.987628 1.22439 0.044361000000000005
11160 -3.39119928 5.8784266800000005 -3.2292361800000005 2.081203 1.124162 0.25237800000000005
11180 -2.19473244 7.049436570000001 -2.74679019 2.015414 0.15879 0.633443
11200 -0.96654006 7.52724243 -4.10161986 1.604772 0.200633 0.6486810000000001
11220 -1.3841713800000002 6.076912409999999 -6.22914399 1.2523 0.362555 0.421685
11240 -1.9749884400000002 4.4248005 -4.53601647 0.939515 0.110005 0.446529
11260 -1.4867055 6.60456288 -0.5926221000000002 0.4572890000000001 -0.36767 0.4395
11280 -0.30491442 8.335262700000001 0.059428980000000006 -0.002909 -0.777962 0.346012
11300 -1.7362424699999999 5.035531860000001 -1.6546625100000003 -0.336072 -0.958498 0.228548
11320 -2.16853974 6.567893100000001 -0.9457330500000001 -0.654038 -0.854615 0.100144
11340 -3.3624559800000005 6.89675373 -1.04452956 -1.1280629999999998 -0.731354 0.056083
11360 -4.442164200000001 7.978855590000001 -1.6661892600000001 -1.984915 -0.637366 -0.061117999999999985
11380 -6.45548031 11.85969159 -4.45713426 -2.8134740000000003 -0.578947 -0.099027
11400 -6.551873370000001 9.83754648 -4.76908245 -3.129058 -1.148043 0.23385100000000006
11420 -6.52613193 13.33487034 -2.2679346600000003 -2.846004 -1.345019 -0.036316
11440 -10.68433587 16.642694430000002 -4.69992195 -2.1500790000000003 -1.064086 -0.297802
11460 -11.355840180000001 13.278139110000001 -6.142178340000001 -1.2505110000000002 -0.292843 -0.274347
11480 -9.35539479 11.78529255 -4.28603805 -0.27570700000000004 1.3622299999999998 0.036921
11500 -7.494467220000001 14.03691318 -2.3227235100000003 -0.323324 1.867567 -0.020675
11520 -8.181235890000002 10.4145903 -5.03253 -0.193643 1.375553 -0.16869
11540 -9.18145368 6.57028674 -5.775735600000001 -0.174543 1.072056 -0.211964
11560 -7.7303781 7.58083446 -5.41648359 -0.062894 -0.459041 -0.23486
11580 -4.0362067800000005 7.63023762 -4.62358053 -0.324375 -1.176079 0.018469
11600 -3.0650265900000004 6.44110866 -4.15311255 -0.646647 1.275866 0.111353
11620 -3.9321717300000003 5.1828192 -2.90275938 -0.312402 -1.105774 0.274836
11640 -4.66923627 3.42413145 -1.8631740600000002 -0.708134 -0.530431 0.593938
11660 -4.929848730000001 1.2578382000000001 -0.87792633 -1.612956 0.660618 1.093497
11680 -4.144577850000001 0.45849978 -1.38297456 -0.79435 -0.911586 0.8811760000000001
11700 -3.43355886 1.84267116 -2.61880893 0.93882 0.20806 0.700635
11720 -3.85418223 2.28634803 -3.3892569000000003 1.056548 0.6966680000000001 0.15497
11740 -1.6681316400000001 3.7473120900000003 -3.5992693800000004 -0.676569 0.07837999999999999 -0.365885
11760 -1.41380739 5.144501340000001 -2.13575472 -1.566956 0.737478 -0.050346
11780 -4.3246600200000005 5.413638689999999 -1.9883104200000001 -1.477363 -1.318943 0.513731
11800 -5.7332288700000005 6.728208120000001 -3.72320892 -0.7880020000000001 -1.483536 0.317932
11820 -6.1290035099999995 7.773336090000001 -7.17877161 -0.153295 -0.27173600000000003 -0.110749
11840 -6.21596916 5.347931310000001 -8.60410575 -0.34523200000000004 -0.195755 -0.29699000000000003
11860 -4.47029928 4.47569478 -2.86848324 -0.094062 0.168652 -0.268997
11880 -3.2013954000000004 5.60284416 -0.27468 0.119119 -0.21825100000000006 -0.135621
11900 -6.476581620000001 8.73268542 -4.299055920000001 0.003711 -0.140562 -0.016886
11920 -6.6824052300000005 17.63572149 -2.5903599300000004 0.26474699999999995 0.252693 -0.018771
11940 -3.5997108300000003 14.112057780000002 2.73765708 0.695562 0.500129 -0.198745
11960 -4.99272102 4.37495589 0.49217751000000004 0.564067 0.4959939999999999 -0.382324
11980 -7.7489386200000006 13.542489180000002 -2.70502902 -0.13935 0.483282 -0.323127
12000 -3.7969997400000004 15.43694733 -1.58789565 0.314183 -0.376116 -0.253697
12020 -7.37830701 17.81056512 -3.7083860100000003 0.935823 -0.451801 -0.247121
12040 -7.05198717 22.95715599 -5.37831288 0.705647 -0.311877 -0.407005
12060 -5.45017113 4.458183930000001 -4.05701379 0.206657 -0.20058 -0.367904
12080 -6.689586149999999 -0.14624748 -1.98382725 0.157114 -0.181617 -0.006147
12100 -2.62658826 10.635236820000001 1.7780036399999999 0.8707729999999999 0.297302 0.021725
12120 -2.3532522300000003 14.73341337 0.23725485000000002 2.098553 0.676718 -0.02146
12140 -3.48909327 8.549925120000001 -0.5809383900000001 2.157727 0.8964719999999999 -0.149515
12160 -3.8079280800000004 5.980813650000001 -2.0779836300000003 2.526467 1.24899 -0.180506
12180 -4.83344586 6.21717579 -5.29957782 2.357899 1.187194 0.233934
12200 -3.4236801900000002 7.92332118 -2.30909742 2.250124 1.3879709999999998 0.200877
12220 -2.7502335 7.54505739 -1.6753125600000003 2.2046810000000003 0.8836959999999999 0.074088
12240 -1.93113774 6.47732718 -3.0208717800000002 2.1900310000000003 0.229909 0.545909
12260 -0.7381142100000001 6.3768924 -2.80636632 1.796544 0.203972 0.713041
12280 -2.15416809 5.942338830000001 -4.0161453300000005 1.310699 0.097913 0.218401
12300 -3.68833437 5.634138060000001 -4.54290309 0.974669 -0.361251 -0.015162
12320 -2.3216738400000003 6.0595487100000005 -1.53924786 0.752026 -0.765263 -0.020472
12340 -0.69905079 8.18003907 1.40407587 0.549713 -0.972054 -0.079304
12360 -1.00291554 8.068518990000001 -0.43289568 0.106872 -0.885819 -0.214967
12380 -4.187545650000001 5.30227557 -3.18657249 -0.475168 -0.642629 -0.319757
12400 -5.22338355 6.51489948 -3.05364699 -1.1560780000000002 -0.54191 -0.407964
12420 -3.80044305 10.77654006 -3.2486894100000003 -1.827041 -0.708072 -0.364368
12440 -2.6039860200000002 10.70079705 -2.71775259 -2.380749 -0.787732 -0.210037
12460 -5.08342428 9.314379180000001 -3.80344491 -2.646721 -1.165542 0.195582
12480 -7.47935001 9.16379568 -3.7214136900000003 -2.537887 -1.303839 0.054446
12500 -8.18422794 10.03139208 -1.7649759600000003 -2.264173 -1.299068 -0.310048
12520 -11.23817904 15.247290600000001 -5.29223994 -1.324331 -0.445554 -0.382557
12540 -7.8778224 14.85465516 -4.41970911 -0.207495 0.651278 -0.18495
12560 -6.78239856 13.52182932 -3.37862286 -0.129102 1.167952 -0.256635
12580 -7.89578451 15.000304230000001 -4.05701379 -0.126453 1.43991 -0.337082
12600 -7.61811246 10.57042215 -5.413040280000001 -0.439041 1.578826 -0.439856
12620 -7.37980794 5.61766707 -6.348747510000001 -0.7759590000000001 -0.520675 -0.453406
12640 -5.745805290000001 6.45443064 -4.953647790000001 -0.530669 -0.306337 -0.454104
12660 -3.1346285400000005 7.043305320000001 -3.1034916 -0.846366 1.408778 -0.18611
12680 -2.92551858 5.616323100000001 -1.39464846 -0.997007 -0.703096 0.600687
12700 -4.5057820500000005 3.5470213200000003 -0.89543718 -0.8792110000000001 -0.541842 0.665396
12720 -6.509513790000001 1.66693482 -1.57337685 -0.8806639999999999 0.149265 0.73073
12740 -5.75702793 0.93855213 -2.3460713100000006 -0.954011 -0.210654 1.02444
12760 -3.6089910900000004 2.42495352 -2.9126478600000003 -0.531237 -0.422164 0.272432
12780 -3.41454708 2.57899014 -3.34150182 -0.250806 -0.189017 0.066857
12800 -2.46821562 3.18253077 -3.7052468100000002 -0.953823 0.088171 0.089365
12820 -1.1832920100000002 5.325770520000001 -3.89759148 -1.207182 -0.031295 0.081339
12840 -2.4742095300000004 6.815026620000001 -4.04579115 -0.971863 -0.48016 -0.026469
12860 -5.823186570000001 6.809189669999999 -4.585409820000001 -0.878286 -0.661131 -0.13881500000000002
12880 -7.33848822 6.387222330000001 -5.8365085500000005 -0.6303310000000001 -0.384789 -0.19619
12900 -6.96366774 4.6288288799999995 -6.93927027 -0.5231560000000001 -0.349715 -0.269193
12920 -6.852903030000001 3.4958327400000004 -4.48153173 -0.334995 -0.30227600000000004 -0.307464
12940 -5.60644443 3.6627302700000004 -1.89296703 -0.207825 -0.44884 -0.262591
12960 -6.3858685500000005 6.16208283 -1.3528872900000002 -0.111047 -0.364571 -0.108199
12980 -8.56009809 13.12755561 -3.10109796 0.113667 0.042561 -0.085787
13000 -7.925273370000001 20.51079705 -0.71042058 0.676963 0.220847 -0.137628
13020 -3.05304858 10.320286770000001 0.28291059 0.851794 0.012159 -0.315601
13040 -2.87058258 5.51138553 -0.91803942 0.433285 0.263642 -0.238729
13060 -5.539079159999999 16.62323139 -2.31823053 0.312039 0.326049 -0.022807
13080 -7.41393693 15.74575632 -5.138360280000001 1.035368 -0.8558819999999999 -0.248044
13100 -5.367688650000001 11.920160430000001 -3.55990185 1.089512 -1.242405 -0.33797
13120 -6.508012860000001 14.203065150000002 -3.72125673 0.658615 -1.11772 -0.242863
13140 -8.87025105 8.96335776 -2.6693991 1.076103 -0.974574 -0.171764
13160 -5.442087689999999 7.618259610000001 -0.07334936999999998 1.680809 -0.334229 -0.191862
13180 -2.65906917 9.20151513 0.64306512 2.834286 -0.07824600000000001 -0.205497
13200 -4.03979724 8.33286906 0.17753157 2.805413 0.3799300000000001 -0.207354
13220 -4.05087273 7.57634148 0.11915226000000001 2.313311 1.487592 0.008911
13240 -3.6283069800000005 6.9624709199999995 -1.0795512600000001 2.608379 1.483082 0.347468
13260 -2.8855526400000002 6.3758427300000005 -1.91497086 2.5419110000000003 0.8318969999999999 0.480298
13280 -2.31493437 6.150556080000001 -1.81706706 2.13735 0.714501 0.8846149999999999
13300 -3.0109931100000003 7.65628317 -2.9223695700000003 1.86711 0.430917 0.90766
13320 -1.8588380400000002 7.793838990000001 -3.39419133 2.088418 0.224835 0.83683
13340 -0.65937915 5.88291966 -2.5643143800000003 1.7481330000000002 0.074557 1.149772
13360 -1.10679363 4.0062666600000005 -3.2135205600000005 1.573265 -1.090352 0.909693
13380 -3.48834771 5.83786233 -4.84078374 1.573344 -1.583539 0.634724
13400 -2.6191032300000003 10.386151110000002 -3.69910575 1.186008 -1.638585 0.351147
13420 0.046705409999999996 7.79039568 0.57779919 0.678826 -1.425207 0.177483
13440 -1.1901786300000001 5.980666500000001 0.72838269 0.227673 -1.381075 0.188162
13460 -3.2275881000000006 6.72057594 -2.30565411 -0.36703 -1.220475 -0.030910000000000007
13480 -3.81436344 7.40585349 -1.14766209 -0.956227 -1.001385 -0.229723
13500 -4.13424792 8.681349690000001 -0.64710684 -1.341849 -0.7884869999999999 -0.388649
13520 -6.711589980000001 10.545867720000002 -1.82186415 -1.586789 -0.5337689999999999 -0.471872
13540 -9.139692510000001 9.723632760000001 -5.588923770000001 -1.689821 -0.500005 -0.301719
13560 -7.7505866999999995 11.167223309999999 -4.0140558 -1.5988209999999998 -0.749158 -0.144804
13580 -9.763147440000001 14.140644120000001 -3.6544996800000003 -1.434195 -1.271126 -0.025481
13600 -10.310555250000002 14.021491860000001 -3.0066472800000006 -0.873207 -1.171393 0.121452
13620 -9.72932256 13.20509385 -2.8473819300000005 -0.08267999999999999 -0.055358 0.062519
13640 -9.07203294 11.094482160000002 -3.2230951200000004 0.6249600000000001 0.482279 0.063568
13660 -9.6568659 10.96364619 -4.8008178 0.8509389999999999 0.027423000000000003 0.129822
13680 -10.272237389999999 11.692784249999999 -6.330638250000001 1.123922 -0.392529 0.217725
13700 -6.56938422 8.3289843 -5.241502620000001 2.375311 -0.7352890000000001 0.13397
13720 -2.98748835 7.40495097 -3.59073468 -0.582019 0.912374 -0.152649
13740 -2.38110282 7.15377573 -1.87604478 -1.845619 -1.033068 -0.592681
13760 -4.672983690000001 4.88943153 -1.61304849 0.19768 -0.200617 0.447086
13780 -7.3893825 1.83443076 -1.02312414 -2.649569 0.26915 1.320698
13800 -7.878263850000001 0.22768029 -1.22265954 -2.421132 -2.197822 0.0072689999999999986
13820 -4.83719328 2.2878391500000004 -2.2897913400000003 -1.358409 -0.418011 -0.8464389999999999
13840 -3.60675441 4.09159404 -2.8581533100000005 -1.010352 0.492624 0.492239
13860 -3.58265124 3.60719586 -2.97326385 -1.910429 0.152539 0.5387310000000001
13880 -3.85403508 2.39098149 -3.79340928 -2.400454 -0.192996 0.261218
13900 -3.6875790000000004 1.8682654500000002 -4.37899761 -2.168713 -0.098217 0.068299
13920 -3.8330809200000004 3.20259222 -3.7631748600000003 -1.651719 -0.122802 -0.092565
13940 -4.86592677 4.32959445 -4.447255590000001 -1.368938 -0.154503 -0.135414
13960 -4.9861287 7.959402360000001 -4.6678923 -1.121117 0.064425 -0.22049
13980 -4.00925871 10.90272609 -5.163061860000001 -0.8863639999999999 -0.05625 -0.349018
14000 -4.65816078 6.9132247200000005 -8.42148279 -0.5846020000000001 -0.340627 -0.35722800000000005
14020 -5.87438496 3.9092751900000002 -8.993003580000002 -0.52141 -0.515584 -0.349085
14040 -5.64236865 3.59282421 -4.85724492 -0.857366 -0.500522 -0.361065
14060 -5.27487624 4.866083730000001 -6.06523851 -1.065707 -0.524467 -0.319761
14080 -4.68360792 9.24851484 -1.7438746500000002 -0.929474 -0.599504 -0.32085
14100 -11.45328291 9.83200383 6.77206863 -0.602533 -0.383881 -0.447029
14120 -12.58972236 15.68722986 0.7461976499999999 0.022757 -0.523792 -0.366638
14140 -0.63962181 9.544600260000001 2.6002386000000004 0.511243 -0.6326729999999999 -0.201785
14160 -8.224645140000002 14.69134809 -3.16710945 0.7597 -0.389729 -0.166178
14180 -14.49195984 22.81166388 -0.47586348000000006 1.046028 0.002099 -0.099518
14200 -13.68903096 16.044980940000002 -2.86249914 1.1722860000000002 0.954331 -0.177837
14220 -7.2362484 9.56645694 -2.67927777 1.651482 1.315566 -0.087358
14240 -4.85276175 8.01553518 -0.8244814500000002 2.366335 1.210309 0.040615
14260 -4.2966622800000005 8.12615274 0.83122092 2.782821 1.3523459999999998 -0.142528
14280 -5.086867590000001 6.64797213 2.00268207 2.835814 1.073865 -0.343695
14300 -5.817653730000001 4.40024607 0.82912158 2.472757 1.5437 -0.041322000000000005
14320 -4.3565425200000005 3.9648096000000006 -0.42571475999999997 2.161999 1.405743 0.361541
14340 -2.4810863400000005 5.327418600000001 -1.09392291 2.290467 0.5680430000000001 0.614544
14360 -2.42226558 6.24037644 -1.15529427 2.476294 -0.264886 0.690616
14380 -3.35976804 6.61519692 -1.67157495 2.943626 -0.958986 0.7033159999999999
14400 -3.85223985 7.120843560000001 -2.46342834 3.966283 -1.077345 1.176356
14420 -4.24980972 7.613021070000001 -1.9832288400000002 4.091844 -1.264704 1.3013860000000002
14440 -4.48722153 8.16267537 -2.71056186 3.659746 -1.386288 1.178883
14460 -3.61079613 9.565407270000001 -2.9901861000000003 2.680809 -1.396373 0.8206129999999999
14480 -4.307296320000001 12.135715560000001 0.20178189000000002 2.196727 -1.487806 0.662457
14500 -6.377186700000001 11.292967890000002 0.90770949 2.046182 -1.646426 0.7662939999999999
14520 -6.493945320000001 11.63110878 -0.3558087 1.884971 -1.531377 0.906026
14540 -7.83111699 11.91626586 -3.33476235 1.555857 -1.278281 1.034794
14560 -6.93283491 10.78357383 -5.02295544 1.06417 -1.387737 1.12764
14580 -4.513865490000001 11.566892520000001 -1.2524427 0.647353 -1.371135 1.067023
14600 -2.9981125800000004 10.76531742 2.6753832 0.367737 -1.288658 0.930368
14620 -3.9758850900000002 9.12442815 1.8624285 0.045024 -1.266883 0.8266049999999999
14640 -7.637869800000001 8.140073130000001 -0.49696479000000005 -0.2444 -1.238667 0.6814060000000001
14660 -9.28593999 8.335419660000001 -1.44465003 -0.440233 -1.311833 0.50067
14680 -9.20525274 10.29005235 -0.66671703 -0.5596760000000001 -1.5977370000000002 0.440382
14700 -6.0375448800000004 10.81755567 0.68048046 -0.4556770000000001 -1.957104 0.442637
14720 -5.2636536000000005 9.92226564 0.8327218500000001 0.674465 -1.210001 0.176109
14740 -5.49088263 10.193502330000001 0.87253083 2.030893 0.34563 -0.016166999999999997
14760 -7.22832192 9.17337024 1.4931408600000002 2.4571110000000003 -0.226931 0.00784
14780 -7.24433184 7.14538818 0.86070978 1.68852 -1.957346 0.508889
14800 -6.767281350000001 5.592524040000001 -1.6833960000000001 0.242792 -2.076328 0.8802989999999999
14820 -4.956639840000001 5.935756320000001 -2.75068476 -0.5997640000000001 -1.081436 1.0963969999999998
14840 -3.4033244399999996 6.82325721 -2.71325961 -0.6969350000000001 -0.972108 0.7473380000000001
14860 -4.62373749 6.8198139 -1.2394248300000001 -0.302913 -1.289352 0.354186
14880 -5.78666394 6.11463186 -0.60654249 0.346669 -0.549369 0.419732
14900 -6.499487970000001 5.335659000000001 -0.74664891 -0.026848 -0.398783 0.115691
14920 -6.716387070000001 4.988375189999999 -1.52786826 -0.916882 -0.866891 -0.065114
14940 -6.30563256 4.72177863 -3.41349741 -1.156852 -1.26057 -0.241474
14960 -5.6393766 4.806203490000001 -3.4998744600000005 -0.887316 -1.253255 0.092616
14980 -5.40585936 5.3015300100000005 -3.2223495600000005 -0.605746 -1.341095 0.5027560000000001
15000 -5.2608087 5.65210017 -2.7960363900000003 -0.353017 -0.899754 0.7368279999999999
15020 -5.389241220000001 5.738163300000001 -2.58707358 -0.232428 -0.8799870000000001 0.750464
15040 -5.9302136700000005 5.661978840000001 -3.1720536900000003 -0.238184 -1.24745 0.475294
15060 -6.63600393 5.555991600000001 -5.2456914900000005 -0.210206 -1.487121 0.180967
15080 -6.34156659 6.42673701 -6.98103144 0.113049 -1.530695 0.14162
15100 -8.28227889 11.29790232 -7.34642451 0.485815 -1.369279 0.211315
15120 -8.9657514 10.67953878 -7.821532620000001 0.521316 -1.064741 0.21330900000000005
15140 -5.1819264899999995 5.84429769 -11.19806595 0.392158 -1.071777 0.219893
15160 0.30581694000000004 4.33588266 -5.5283077800000004 0.344507 -1.202747 0.246434
15180 -0.7689470400000001 7.124434020000001 -0.04999176 0.333316 -1.342166 0.223034
15200 -7.13431269 8.350536870000001 -0.20178189000000002 0.252728 -1.330833 0.123112
15220 -14.07013965 12.00728304 -5.1262351200000005 0.11254000000000003 -1.318103 -0.008206999999999999
15240 -12.20801526 11.530369890000001 -2.7562176 -0.010871 -1.320547 -0.089183
15260 -5.1319249199999994 5.2079720400000005 0.62929188 0.029183 -1.26818 -0.165882
15280 -4.2950142 2.00597823 1.59074055 0.000586 -1.061108 -0.243259
15300 -4.191734520000001 3.83353218 1.62262305 -0.199833 -0.839693 -0.295149
15320 -4.71414645 9.699529590000001 1.8513530100000002 -0.451496 -0.591604 -0.313248
15340 -5.1144140700000005 12.45560004 1.0891356300000001 -0.517807 -0.375185 -0.29796500000000004
15360 -5.20512714 11.70236862 -0.14385383999999998 -0.155038 -0.546072 -0.235392
15380 -5.50599984 9.230699880000001 -0.84708369 0.404188 -0.703715 -0.19176
15400 -5.436996300000001 7.70357718 -1.8080909100000002 0.598997 -0.420646 -0.286902
15420 -5.9980302 7.161103800000001 -1.45601982 0.6507930000000001 -0.425499 -0.183984
15440 -6.818774040000001 6.93807345 -0.5516064900000001 0.716677 -0.210688 -0.14748
15460 -6.21103473 6.15445065 0.33231375 0.774827 0.103538 -0.190205
15480 -5.3055717300000005 6.599471490000001 0.21316148999999998 1.555295 0.456666 -0.198025
15500 -4.94062992 8.274941010000001 -0.32646699000000007 2.384707 0.666378 -0.08140499999999999
15520 -4.79139039 8.951987970000001 -0.6649218 2.87686 0.530313 -0.047883
15540 -4.9454172000000005 8.8615692 -0.13232709 3.287632 0.7282649999999999 -0.090132
15560 -5.254373340000001 8.3785248 0.08128566000000001 3.418427 1.349906 -0.083606
15580 -5.4341514 8.080192890000001 -0.0811287 3.27021 1.163975 0.187994
15600 -5.4066049199999995 7.9341023700000015 0.14849397 2.974503 0.810684 0.34875100000000003
15620 -5.35870269 7.210359810000001 0.36359784 3.035072 0.60347 0.433829
15640 -5.60644443 6.84107217 0.28485297000000004 3.270221 0.122733 0.5706829999999999
15660 -5.996078010000001 7.44566247 -0.22213764000000003 3.366196 -0.306068 0.627451
15680 -6.089037570000001 7.426807650000001 -1.0330028100000002 3.4391480000000003 -0.270839 0.811649
15700 -5.75253495 7.88560173 -1.17640539 3.391662 -0.4705180000000001 0.970738
15720 -5.90985792 8.39095407 -0.20477394000000002 3.146241 -0.530176 0.917826
15740 -6.28123509 8.21730726 0.22363857000000004 2.458599 -0.436095 0.8968790000000001
15760 -4.36223232 9.24822054 0.6873670799999999 1.59572 -0.335386 0.702716
15780 -3.3662034000000003 11.37933513 0.93570723 0.894183 -0.5149090000000001 0.651044
15800 -5.821097040000001 12.14304363 -0.10298538000000002 0.403336 -0.861065 0.795473
15820 -6.218814060000001 10.170154530000001 -2.5691114699999997 -0.116727 -1.104678 0.8957700000000001
15840 -5.513180760000001 10.0300383 -3.49897194 -0.562196 -1.1737799999999998 0.714354
15860 -4.900212720000001 10.92383721 -1.8928100700000001 -1.087092 -1.255765 0.6264029999999999
15880 -5.6223072 11.04747264 -0.37736127 -1.408366 -1.284483 0.627401
15900 -5.846995440000001 9.79338186 1.04617764 -1.362093 -1.164396 0.659617
15920 -7.3227726 7.4503026000000006 2.4777999900000003 -0.8542200000000001 -0.775898 0.5675939999999999
15940 -9.409281120000001 6.59843163 1.5967344600000002 -0.388167 -0.174291 0.498508
15960 -10.44034155 8.13632571 -1.03853565 -0.318742 0.027019 0.445324
15980 -8.97892623 9.22801194 -1.53655011 -0.31082600000000005 -0.192127 0.363407
16000 -6.030059850000001 9.744135660000001 -1.00665315 -0.125028 -0.435383 0.561569
16020 -5.92542639 8.400077370000002 -0.6107313599999998 -0.79462 -0.166376 0.736009
16040 -5.54417055 7.406893350000001 -0.47930679000000004 -1.252891 -2.33524 0.591377
16060 -5.924533680000001 6.92594829 0.25566822 0.309502 -1.145993 0.735362
16080 -7.05617604 6.91188075 -0.8821152000000001 0.549462 -0.542462 0.6476029999999999
16100 -6.8297023800000005 6.324350040000001 -1.5308701200000001 0.165437 -1.267758 0.142717
16120 -7.766302320000001 4.9915242 -2.96847657 0.28295 -1.044374 -0.1441
16140 -6.7079995199999995 2.5872207300000003 -3.70225476 -0.043196 -0.553941 0.036728
16160 -6.0318550800000015 2.5533860400000004 -3.5295104700000004 -0.367424 -0.5812579999999999 0.222505
16180 -5.69805021 2.94841512 -3.7986478200000002 -0.270303 -0.686495 0.3483
16200 -5.21216091 3.5651403900000003 -4.701275730000001 -0.138286 -0.673407 0.4239810000000001
16220 -3.73458852 3.9425016600000005 -5.370386399999999 -0.064224 -0.421918 0.338718
16240 -3.5546535 4.036952340000001 -6.402633840000001 0.174129 -0.162518 0.264207
16260 -4.21823133 4.597839090000001 -5.42441988 0.446078 -0.28875700000000004 0.162651
16280 -5.9138996399999995 4.94122833 -5.132974590000001 0.687619 -0.581946 0.013026
16300 -6.55786728 6.356978100000001 -5.755379850000001 0.8443940000000001 -0.182761 -0.049415
16320 -6.490207710000001 8.41280094 -5.56947054 1.02371 0.403094 -0.193123
16340 -5.639219639999999 7.4733561 -4.97625003 1.100273 0.013323 -0.289297
16360 -5.95117764 6.09068565 -4.80531078 1.116502 -0.93145 -0.334975
16380 -5.401817639999999 6.085447110000001 -4.6689419700000006 1.103687 -0.249518 -0.362644
16400 -3.6715690800000003 7.25212098 -2.26554102 0.772461 0.253892 -0.225666
16420 -6.058047780000001 7.64235297 -2.71235709 0.728504 -0.230807 -0.187964
16440 -8.38960029 13.62242106 -0.8614553400000001 0.577916 -0.04698 -0.207411
16460 -7.44162075 10.882664640000002 2.01540564 0.305012 -0.22928 -0.202674
16480 -6.130200330000001 2.8966281300000003 0.8834591700000001 0.689623 -0.781537 -0.15868800000000002
16500 -7.31064744 3.71093661 -1.3992885900000003 0.724169 -0.284963 -0.227449
16520 -6.24126915 8.75095164 -2.31208947 0.8051010000000001 0.429301 -0.4296930000000001
16540 -5.753584620000001 11.076215939999999 -2.32511715 1.440349 0.955657 -0.4750680000000001
16560 -6.0993675000000005 9.01635138 -1.7498587500000002 2.397728 0.701431 -0.333459
16580 -6.176307330000001 7.17263055 -2.07782667 2.9235130000000003 0.8500979999999999 -0.138765
16600 -5.545818629999999 7.20675954 -1.80254826 2.64822 0.914682 -0.067064
16620 -4.2807995100000005 8.29485531 -1.1687732100000001 2.432411 0.910923 -0.005541
16640 -4.16538486 7.30466334 -0.85277349 1.563313 0.360904 0.298877
16660 -4.39306515 6.39694404 -1.94700051 1.066909 0.018921 0.735956
16680 -4.32914319 6.40727397 -3.18267792 1.240563 0.418094 1.193856
16700 -3.9805252200000005 6.087693600000001 -3.2591763000000005 0.884466 0.246823 1.44262
16720 -3.2452559100000005 4.90530411 -2.21374422 0.43115 0.22175300000000006 0.912853
16740 -4.269272760000001 3.87349812 -3.63039651 0.35688000000000003 -0.623132 0.209458
16760 -5.17788477 4.85724492 -4.23215172 0.036095 -1.093635 0.134113
16780 -3.84505893 8.26940817 -4.76489358 -0.044383 -0.994142 0.098172
16800 -2.8741730400000005 5.721554970000001 -3.4302627 -0.31942 -0.6992010000000001 0.10548699999999997
16820 -2.8978249500000004 3.74550705 -3.91855545 -1.190251 -0.629666 -0.01178
16840 -2.6298844200000007 6.0099984 -3.4970295600000005 -1.967526 -0.7367670000000001 0.006429000000000001
16860 -3.23626995 6.716387070000001 -1.5646950000000002 -2.605963 -0.5918140000000001 0.008193
16880 -5.85357795 5.301824310000001 -2.8398969000000003 -2.942969 -0.300982 0.031104000000000007
16900 -5.4109507500000005 5.889207870000001 -4.70441493 -2.717522 0.267013 0.051178
16920 -5.244190560000001 6.686741250000001 -2.95276095 -2.35511 0.258033 0.117815
16940 -6.261781860000001 8.4881025 -0.87702381 -1.924578 -0.433227 0.250963
16960 -9.29731959 9.42844005 -2.8765666800000007 -1.477237 -0.31248400000000004 0.304139
16980 -11.283236370000001 12.28450383 -4.94871336 -1.209366 0.011217 0.373962
17000 -9.23638968 12.523112460000002 -5.57396352 -0.7893 -0.045671 0.383378
17020 -6.7237151399999995 9.23325048 -4.61594835 -0.6039680000000001 -0.160116 0.33781700000000003
17040 -7.42575798 9.683509860000001 -5.95551366 -0.737592 -0.106945 0.210766
17060 -12.868139970000001 14.34287727 -9.042995340000001 -0.62626 0.301272 0.060401
17080 -14.950165320000002 9.75207195 -9.35764128 -0.869188 -0.6119640000000001 -0.45394
17100 -8.431067160000001 3.0777501600000003 -6.436468530000001 -1.071364 -0.815342 -0.301268
17120 -3.72859461 2.63586852 -3.0551479200000005 -0.8787379999999999 0.87839 0.078194
17140 -2.9114412300000003 3.1195113300000004 -3.8393691300000006 0.390826 0.584625 0.512591
17160 -5.4586960200000005 4.1733211500000005 -4.469700870000001 -0.059675 1.280792 1.033049
17180 -7.2393974100000005 3.4045212600000005 -2.57134815 -0.6418229999999999 0.039135 0.891705
17200 -7.15257891 1.2710032199999999 -2.40579459 -0.383611 -0.27781 0.807389
17220 -5.60628747 0.98704296 -4.398607800000001 -0.257096 -0.680766 0.502209
17240 -2.94348069 2.05029 -4.55981553 -0.205384 -0.044332 0.075534
17260 -2.23754328 3.3910521300000003 -3.4102110600000004 -0.187708 0.115189 -0.138191
17280 -3.3090209100000005 2.98538901 -2.05596999 -0.124264 -0.262087 -0.151151
17300 -4.12541892 3.5820528300000003 -1.6566048900000003 0.007495 -0.723279 -0.017181000000000002
17320 -4.39591005 4.24397277 -3.80060001 -0.321177 -0.849413 0.108872
17340 -4.41162567 5.745952440000001 -5.48384886 -0.672319 -0.8769610000000001 0.109659
17360 -4.49095914 7.250472899999999 -4.71175281 -0.306412 -0.7171 0.041507
17380 -4.96263375 7.36004079 -4.08545298 0.569504 -0.568527 -0.043363
17400 -5.339700720000001 5.49372753 -3.7018035000000005 1.072455 0.451435 -0.069999
17420 -5.49387468 5.09226309 -4.30594254 0.436717 0.934064 -0.3325
17440 -5.705535240000001 5.62335687 -4.291276590000001 -0.6756439999999999 0.787734 -0.336878
17460 -7.400762100000001 6.0397913700000005 -3.0638297700000003 0.02476 0.547263 -0.215241
17480 -9.78829047 6.557710320000001 -3.3419530800000006 1.3349950000000002 -0.170931 -0.236147
17500 -10.640024100000002 11.909084940000001 0.24129657000000002 1.262798 -0.39636 -0.541874
17520 -7.57409499 12.929364180000002 3.0030568200000003 0.257013 -0.306557 -0.283027
17540 -8.75394369 13.099557870000002 -2.01496419 -0.08968 -0.7824369999999999 -0.05730800000000001
17560 -4.96936341 10.00414971 -4.17107466 0.459876 -0.523351 -0.057006
17580 -3.89909241 12.80571894 -3.88876248 1.34831 -0.227814 -0.407965
17600 -7.21230219 16.860191940000007 -2.0184075 1.38055 0.225113 -0.482027
17620 -6.461013149999999 12.3925806 -1.5675399000000003 1.2162389999999998 0.386947 -0.317808
17640 -6.594988320000001 6.29411562 -1.1085986700000001 1.976911 0.917755 -0.253355
17660 -5.4823479299999995 5.53983453 -0.14954364 2.11137 1.0319040000000002 -0.144671
17680 -5.895643230000001 7.49371185 -0.0013439700000000003 2.414411 1.369352 0.186026
17700 -6.29216343 8.59527675 -0.93555027 2.592143 1.368234 0.045195
17720 -4.15595745 6.80469669 -1.8562874400000002 2.121414 1.368493 -0.143964
17740 -2.36508309 5.835762990000001 -1.5715816200000001 2.006374 0.708378 -0.13324
17760 -3.26530755 6.40158417 -1.02506652 2.037702 0.128683 0.151869
17780 -5.83127001 8.992248210000001 -3.4822066500000006 1.830537 -0.124237 0.177452
17800 -5.86525185 8.80708446 -6.25459113 1.447555 -0.252213 0.278558
17820 -4.40354223 4.1891839200000005 -6.69123423 0.982248 -0.418255 0.380206
17840 -2.8717794000000003 2.43723564 -3.68698059 0.466901 -0.566102 0.237927
17860 -0.11121597 7.7845587300000005 2.20161906 0.05975700000000001 -0.623741 0.086674
17880 -1.09647351 7.347170070000001 0.8678907000000001 -0.351299 -0.466726 0.071852
17900 -4.64050278 4.87297035 -3.93546789 -1.185701 -0.437387 0.118329
17920 -5.05574046 7.495958340000001 -4.3266024000000005 -1.978346 -0.398513 0.141584
17940 -2.17557351 9.80655669 -1.5881997600000002 -2.641857 -0.40037 0.115587
17960 -2.41342677 8.920703880000001 0.29878317000000004 -2.9573270000000003 -0.61839 0.298466
17980 -5.087318850000001 6.384073320000001 -2.6680551300000004 -3.004134 -0.940434 0.421397
18000 -8.835523649999999 6.81817563 -5.0983943400000005 -3.013736 -1.158967 0.201556
18020 -8.587791720000002 9.39251583 -3.19659831 -2.494215 -1.187453 -0.051152
18040 -7.94921958 9.75731049 -1.6393883400000002 -1.370851 -0.053505 -0.083214
18060 -10.12868766 10.532398590000001 -2.21838435 -0.226648 0.676963 0.068052
18080 -12.73910904 12.3809067 -3.06308421 -0.127166 0.6842779999999999 0.017463
18100 -11.79816327 12.99298203 -4.63211523 -0.527829 0.875914 -0.139405
18120 -9.96866694 10.29378996 -5.739664230000001 -0.904272 1.254981 -0.036767
18140 -7.66181601 9.27965178 -4.31478135 -0.27407 0.784705 -0.194132
18160 -7.051241610000001 8.291412 -3.06517374 0.321292 0.811319 -0.172916
18180 -7.66676025 8.056393830000001 -4.57014546 -0.221804 -0.674883 -0.465361
18200 -8.11028016 7.1696385000000005 -5.64296706 -0.747309 -1.230398 -0.415977
18220 -6.796014840000001 4.934783159999999 -4.913681850000001 -0.460847 1.012344 0.049963
18240 -4.90514715 3.7372764600000004 -3.4197856200000003 -0.761506 -0.170808 0.484145
18260 -3.84609879 2.8337558400000002 -2.23949547 -0.539938 -0.846248 0.8380040000000001
18280 -4.13515044 1.6801096500000001 -1.7368408800000001 -1.227423 0.273528 0.8584719999999999
18300 -5.280723 1.46605545 -3.22863777 -0.389238 -0.302454 0.847973
18320 -4.900811129999999 2.55278763 -4.2369390000000005 0.405729 0.278974 0.212916
18340 -5.33610045 2.9975141700000005 -4.35564 0.591079 0.739173 -0.213668
18360 -5.22982872 3.56258979 -4.3900731 -0.435971 0.362491 0.037083
18380 -4.114941840000001 4.40084448 -3.71093661 -1.56554 -0.093497 0.229534
18400 -3.7749959100000003 6.29186913 -3.35871837 -1.071249 -0.677091 0.28928200000000004
18420 -4.2284043 6.56235045 -2.4670188000000004 -0.6745720000000001 -0.946025 0.067003
18440 -4.854252870000001 6.099661800000001 -0.7499450700000001 -0.459275 -0.446498 -0.097708
18460 -6.642733590000001 5.654493810000001 -2.0014852500000004 -0.270774 -0.358439 -0.171279
18480 -7.88933934 4.53422124 -5.77214514 0.09924 -0.408705 -0.176108
18500 -6.123617820000001 4.39335945 -7.67992527 0.281002 -0.552113 -0.168245
18520 -4.01345739 5.047657020000001 -5.40346572 0.396374 -0.250105 -0.13577999999999998
18540 -3.31739865 6.0574493700000005 -2.2080544200000003 0.6985979999999999 0.249684 -0.174902
18560 -3.6182713500000006 5.163209010000001 0.30027429 1.026392 0.550945 -0.40587
18580 -5.794904340000001 5.246888310000001 -2.2233285900000004 0.450845 0.785705 -0.539446
18600 -9.226511010000001 7.11425124 -6.41401344 0.353389 0.5481590000000001 -0.457569
18620 -10.517879790000002 14.36697063 -1.65870423 0.777067 -0.359816 -0.202414
18640 -5.47036992 12.19723407 2.45295126 0.673922 -0.688905 -0.133279
18660 -3.44104389 5.079539520000001 1.40138793 0.533168 -0.265227 -0.202103
18680 -5.97706623 11.39669883 -2.96054028 0.8358469999999999 -0.123435 -0.225808
18700 -8.65485288 19.039807170000003 -1.9247023800000003 0.958318 -0.021249 -0.311609
18720 -10.037974590000001 12.38674365 -2.0348686800000007 0.932736 0.49323 -0.277196
18740 -8.371638180000001 8.948240550000001 -3.3617104200000005 1.836481 0.6386029999999999 -0.385369
18760 -7.6438539 9.274118940000001 -4.9195188000000005 1.801546 0.8523379999999999 0.007219
18780 -7.83965169 8.111182680000002 -3.7074933 1.853285 1.284349 0.085007
18800 -3.27249828 11.518401690000001 0.23036823 2.134668 1.32981 0.193736
18820 -4.43721996 9.31662567 0.18636057 2.298593 1.293783 0.003716
18840 -4.9793990400000006 6.77670876 -0.82163655 2.096331 0.977862 0.062528
18860 -4.20685173 7.115457870000001 -1.32639048 1.893474 0.795099 0.388221
18880 -4.028721750000001 6.5351080800000005 -1.8829314000000001 1.6165 0.61511 0.351266
18900 -3.4530219000000004 5.97751749 -2.06345502 1.2340719999999998 0.7845989999999999 0.38897
18920 -3.3082655400000003 6.2297424 -3.1934591100000005 1.092961 0.174027 0.5532729999999999
18940 -3.1750457400000003 6.659047620000001 -3.60090765 1.148161 -0.393833 0.522339
18960 -3.02071482 6.083946180000001 -3.9884517 0.8458690000000001 -0.77825 0.215209
18980 -3.76063407 4.46461929 -4.51520946 0.310225 -0.729873 0.037285000000000006
19000 -3.5151388199999998 4.18050207 -3.3296807700000004 -0.20477 -0.532691 -0.075523
19020 -2.91129408 7.164105660000001 -0.55385298 -0.692398 -0.548027 -0.079978
19040 -2.5134201000000003 7.4541971700000005 0.05583852 -1.2197559999999998 -0.706579 0.067161
19060 -2.60503569 6.42284244 -2.15507061 -1.778936 -0.699448 0.100634
19080 -2.9722239900000003 8.10340335 -1.55107872 -2.255571 -0.754743 0.22235700000000005
19100 -4.0540217400000005 6.34829625 -1.52262972 -2.555124 -0.973957 0.423508
19120 -6.5207364299999995 5.363794080000001 -4.01330043 -2.558442 -1.086407 0.5753159999999999
19140 -5.6046492 9.699980850000001 -3.6130328100000013 -2.217866 -1.39602 0.450974
19160 -8.57791305 10.24319979 -3.9086767800000004 -1.445906 -0.8392360000000001 0.403309
19180 -9.69758721 11.343410910000001 -3.6670761 -0.5465810000000001 0.513955 0.350173
19200 -11.42558928 11.87091423 -3.0139851600000003 -0.26574000000000003 0.7496970000000001 0.294149
19220 -11.283383520000001 12.218786640000001 -2.84693067 -0.398515 0.490845 0.140797
19240 -9.63605889 10.424468970000001 -4.050578430000001 -0.622024 0.116724 0.120488
19260 -9.35809254 9.94217994 -3.3271301700000007 -0.696714 0.155172 0.160509
19280 -9.982744290000001 8.99284662 -3.77963604 -0.85409 0.471195 0.121617
19300 -10.451868300000001 8.94120678 -6.02855892 -1.018377 0.281858 -0.072636
19320 -9.84353058 8.193508200000002 -6.212084399999999 -0.476556 -0.328854 0.067595
19340 -7.53876918 7.05767697 -5.30347239 -0.281775 -1.018314 -0.04446
19360 -5.06531502 6.60052116 -3.26171709 -0.604625 0.006721 0.175229
19380 -4.09368357 4.71189996 -2.3110398 0.002831 0.17790899999999998 0.261506
19400 -5.238353610000001 2.88330615 -2.9328466500000006 -0.282022 -0.325807 0.468465
19420 -6.167027070000001 2.04280497 -3.80732967 -1.046481 0.055963 0.497888
19440 -5.795345790000001 2.213449920000001 -4.05342333 -0.635197 -0.00525 0.796736
19460 -4.565956590000002 3.1642743600000003 -4.11030171 -0.488601 0.222525 0.452433
19480 -3.9784258800000005 3.5425381500000004 -4.0022249400000005 -0.875026 0.32956 0.12806199999999998
19500 -3.6992529 3.4684334100000003 -4.1831998200000005 -0.92566 -0.063163 0.081209
19520 -3.2376139200000003 4.53706614 -3.48729804 -0.893575 -0.180867 0.184134
19540 -4.253400180000001 5.02280829 -3.25827378 -0.992884 -0.198638 0.185599
19560 -4.9397274 4.69244673 -3.7251513000000003 -1.029265 -0.182802 -0.013365
19580 -4.27271607 5.77753083 -3.1237002 -0.968884 -0.159102 -0.131546
19600 -3.9209490900000006 6.53840424 -2.6728424100000003 -0.8750760000000001 -0.224219 -0.178877
19620 -5.63697315 5.12175195 -4.63974741 -0.694571 -0.159945 -0.158471
19640 -5.55943491 4.1734683 -5.77185084 -0.441178 -0.018168 -0.135518
19660 -4.3225606800000005 4.74363531 -4.50862695 -0.184819 0.127633 -0.055934000000000005
19680 -3.4202368800000005 5.6217087900000005 -2.8856997900000003 0.151628 0.496982 -0.005987
19700 -4.14038898 6.609507120000001 -3.1103782200000003 0.627686 0.55802 -0.231339
19720 -5.67604638 7.181165250000001 -3.3522830100000003 0.692752 0.584198 -0.44029
19740 -8.28976392 6.762337110000001 -4.38378489 0.651281 0.8220200000000001 -0.470795
19760 -8.27628498 8.665781220000001 -5.385650760000001 0.648035 0.693719 -0.351012
19780 -6.803951130000001 13.004803080000002 0.13053186 0.968396 0.352505 -0.281039
19800 -5.74280343 9.098981010000001 3.36589929 1.0963 0.15036 -0.456143
19820 -6.23782584 6.890024070000001 -1.76468166 0.799952 -0.319257 -0.507818
19840 -9.11395107 14.58027927 -3.87888381 0.297868 -0.344507 -0.15237
19860 -10.778933700000001 17.267944590000003 -1.2919671900000003 0.554713 0.294984 0.076136
19880 -6.90828048 8.91800613 -1.09736622 1.297697 1.05426 0.031214
19900 -6.15131145 8.672510879999999 -2.08037727 2.629243 1.371698 -0.851857
19920 -7.178467500000001 9.80416305 -0.24234624000000002 2.863207 1.446498 -0.846046
19940 -7.25975316 10.7009442 1.16263215 3.007379 1.4112209999999998 -0.674078
19960 -5.36873832 10.030793670000001 0.11061756 3.0344990000000003 1.777463 -0.644447
19980 -5.14600227 7.7447399400000005 -0.80861868 2.532576 0.951626 -0.414023
20000 -5.063068530000001 6.5250822600000005 -0.5146326 2.254644 0.512119 -0.020159
20020 -4.4480011500000005 6.7156317 -0.77478399 1.766391 0.319148 0.175367
20040 -3.6973105200000003 5.887108530000001 -0.7288339500000001 1.438566 0.587183 0.030660000000000007
20060 -2.89602972 5.95581777 -1.3397124600000003 0.962048 0.437673 0.27001
20080 -4.04952876 7.849971810000001 -2.77209018 0.43927 -0.145861 0.397429
20100 -2.9183278500000003 6.9847788600000005 -2.82237624 0.288464 -0.806459 0.293605
20120 -1.5702376500000002 4.511619 -1.9056906 0.115057 -0.938992 0.287222
20140 -2.9621883600000003 3.02431509 -2.35250667 -0.362919 -0.697663 0.291052
20160 -4.6011352500000005 5.8534308 -3.5221725900000003 -1.372682 -0.675601 0.178216
20180 -4.01509566 9.314683290000001 -3.2576753700000003 -2.2982560000000003 -0.582938 -0.080468
20200 -2.22856713 7.8462342000000005 -1.4046742800000003 -2.673652 -0.992953 -0.050518
20220 -1.3253408100000001 5.990545170000001 -0.25820901 -2.617037 -1.858322 0.257566
20240 -4.2309549 6.1945637399999995 -2.6289819000000003 -2.290772 -1.6655810000000002 0.259598
20260 -5.640122160000001 7.81734375 -3.8227509900000003 -1.937754 -1.105972 0.135297
20280 -5.52201957 11.468252970000002 -3.6016630200000006 -1.385712 -0.7692359999999999 -0.103765
20300 -4.84736625 8.795704859999999 -3.2192103600000004 -0.781699 0.5322319999999999 -0.020029
20320 -6.30713349 7.720048170000001 -2.38574295 -0.197884 0.939846 0.103167
20340 -11.1865392 7.43743188 -3.6178299000000003 -0.00796 0.677243 0.07492
20360 -13.6014669 9.8415882 -3.38775597 0.005386999999999999 0.481505 -0.004852
20380 -10.626996420000001 11.72751165 -2.61700389 0.49684 1.295994 -0.05267
20400 -8.346348 13.71806856 -5.07609621 -0.820575 -0.651694 -0.15124300000000002
20420 -6.79512213 13.33831365 -3.7880235900000003 -0.297845 -0.519646 0.471808
20440 -8.2162674 11.546683920000001 -5.5363912200000005 -0.172736 0.448433 0.427644
20460 -9.464962680000001 9.46751328 -5.99368437 0.17114100000000002 -0.813339 0.517121
20480 -10.124194680000002 6.94450881 -5.4943259399999995 -1.339768 0.304292 0.721984
20500 -6.59992275 5.128932870000001 -4.086198540000001 -1.740582 0.377071 0.718023
20520 -3.79027008 4.68510885 -2.91518865 -0.17918 -0.09566 0.367408
20540 -2.9602459800000003 5.16201219 -1.9237998600000001 0.251383 0.911965 0.292212
20560 -4.45742856 3.79804941 -1.38522105 -0.700639 0.377132 0.06833
20580 -5.708076030000001 0.9292718700000001 -2.19248595 -1.148307 0.496729 -0.147526
20600 -4.374504630000001 -0.62809506 -3.2682996 -0.9031 0.104426 -0.023534
20620 -3.8517885900000004 0.25701219000000003 -3.50181684 -0.742406 -0.847778 0.065335
20640 -3.40930854 1.7474651099999998 -2.59021278 -0.537197 -0.536338 0.058891999999999986
20660 -2.7390010500000006 4.39710687 -1.55361951 -0.377309 -0.412994 -0.022403
20680 -3.52756809 4.17646035 -0.6155186400000001 -0.212576 -0.35907 -0.06405
20700 -4.49260722 3.6215675100000007 -2.9183278500000003 -0.186703 -0.241149 -0.005268
20720 -5.68772028 5.860464570000001 -6.277644629999999 -0.292526 -0.058578 -0.015855
20740 -7.952064480000001 7.2593019 -6.25728888 0.186917 -0.05245 -0.09904
20760 -7.504797150000001 6.258780000000001 -5.61527343 0.461546 0.578067 -0.039177
20780 -5.64431103 5.56602723 -5.3611061399999995 0.346001 0.50168 -0.283441
20800 -3.95297874 4.01809752 -5.23072143 0.572475 0.625185 -0.462547
20820 -4.18080618 5.31514629 -2.8307637900000002 0.857872 0.057363 -0.436325
20840 -9.84622833 12.40095834 -2.7457405200000005 0.8214870000000001 -0.498248 -0.25427
20860 -7.2393974100000005 17.93330784 3.94998669 0.803944 -0.317286 -0.205486
20880 -4.5235970100000005 9.917772660000002 3.01937085 0.899329 -0.112568 -0.334337
20900 -12.355302600000002 7.268435010000001 -4.9135347 1.409799 0.303812 -0.740434
20920 -10.49781834 12.42431595 -3.4907413500000004 1.403747 0.791146 -0.32876700000000003
20940 -6.51370266 13.790966670000001 -3.3283269900000003 1.981201 0.331352 -0.131864
20960 -11.682601470000002 19.16554194 -5.9112117 2.128452 0.90146 -0.039699
20980 -4.9076977500000005 10.998824850000002 -3.85164144 1.760098 1.433728 -0.160458
21000 -5.44552119 3.4066206 -3.0458676600000008 1.687484 1.479545 -0.100136
21020 -3.9763265400000005 6.52044213 -1.15380315 1.858567 0.76695 0.531155
21040 -4.5316804500000005 9.7377003 -0.11960352 1.618067 1.2096049999999998 0.5983430000000001
21060 -4.09368357 6.3381232800000005 -0.6364728 0.977519 0.616454 0.568991
21080 -2.6785322099999997 5.96898279 -1.1229605100000002 1.090005 0.30454000000000003 0.152502
21100 -3.0178699200000003 7.054675110000001 -2.9966214600000005 1.237295 -0.328058 -0.018711
21120 -4.13679852 6.42418641 -3.6500067000000005 0.972742 -0.664289 0.111263
21140 -3.7470079800000002 5.4572049 -3.3501836700000003 0.749355 -0.895175 -0.031006
21160 -2.27063241 5.0289395400000005 -2.78735454 0.473913 -1.007911 -0.104357
21180 -4.10506317 6.251746230000001 -3.1295469600000003 -0.030648 -0.854475 -0.208491
21200 -4.4020413000000005 7.19015121 -4.063302 -0.901479 -0.709608 -0.25001
21220 -2.1903964200000003 3.78847485 -2.3397831 -1.662593 -0.688244 -0.13785
21240 -1.91661894 4.00611951 -0.63467757 -2.381924 -0.5025229999999999 -0.137771
21260 -2.48572647 6.69752244 -0.83241774 -2.967902 -0.575939 0.081488
21280 -4.05566982 7.95251574 -1.16308341 -3.171104 -0.976515 0.265385
21300 -3.82035735 9.69084774 -2.65607712 -2.909066 -1.451955 0.12041
21320 -4.03126254 8.83762299 -4.035157110000001 -2.066427 -1.566468 0.054871
21340 -5.924376720000001 8.1499518 -4.401747 -0.6273 -0.303145 0.162649
21360 -8.0113365 10.316843460000001 -2.6930510100000005 0.139904 0.8735809999999999 0.131249
21380 -8.32224483 12.101586569999998 -2.19728304 -0.15617899999999998 0.374489 -0.009048
21400 -10.71187254 9.083108430000001 -2.9307571200000004 -0.542738 0.179238 -0.130071
21420 -10.70978301 7.12967256 -4.29367023 -0.512754 0.361617 -0.210212
21440 -9.15720336 11.27275929 -2.96563167 0.375271 0.335634 -0.07685700000000001
21460 -11.801753730000001 17.168245559999995 -4.291875 0.023407 -0.40109 -0.14994200000000002
21480 -11.13624333 13.01842917 -5.69640213 -1.589526 -0.023956 0.175867
21500 -9.894719160000001 5.44223484 -5.93590347 -0.6068819999999999 0.688736 0.649698
21520 -6.0757155900000015 4.85515539 -3.74281911 -1.2038879999999998 -1.63437 0.8354440000000001
21540 -4.4973945 8.252937180000002 -4.79947383 -2.217604 -1.399923 0.627237
21560 -3.51454041 8.71637139 -4.0894947 -1.7749529999999998 -0.677108 0.902868
21580 -4.273608780000001 5.6059931700000005 -2.2671891000000004 -0.20962 -0.62327 0.202297
21600 -7.202717820000001 2.5755468300000004 -1.3921076700000001 0.031111 0.7582260000000001 -0.230422
21620 -7.2732222900000005 1.4633577 -1.51080867 -0.36004 1.1132540000000002 0.035583
21640 -4.92610131 2.3213697300000002 -3.0620345400000004 -0.857024 0.364391 0.193304
21660 -3.4703856 2.75607045 -3.49807923 -0.464833 -0.078618 0.08338
21680 -3.5890866000000003 2.87132814 -3.4587117000000003 -0.355535 -0.77957 -0.011098
21700 -4.08246093 2.52809586 -3.4623021600000006 -0.4248770000000001 -0.424106 -0.132747
21720 -3.98576376 3.2401645200000004 -3.3410505600000007 -0.340291 0.096495 -0.392402
21740 -4.342170870000001 5.47605972 -3.1539444300000006 -0.115298 -0.06884900000000001 -0.530555
21760 -4.7809035 6.00461271 -2.79005229 0.182213 -0.51542 -0.467016
21780 -4.38333363 6.036799320000001 -2.7876488400000006 -0.015775 -0.38796 -0.202575
21800 -5.71436424 5.96015379 -3.1495986000000005 -0.232451 -0.07334700000000001 -0.104079
21820 -7.595804520000001 3.9969864000000004 -6.273750060000001 0.052506 -0.216423 -0.268548
21840 -5.94414387 3.76871751 -6.47029341 0.323137 -0.34086900000000003 -0.5506449999999999
21860 -3.9902567400000004 5.13581949 -4.431235860000001 -0.036538 0.19468 -0.70019
21880 -6.30997839 7.335349020000001 -2.79214182 -0.488221 0.412237 -0.635258
21900 -9.97959528 10.87129485 -5.6018043 0.095297 0.106811 -0.6852699999999999
21920 -11.315118870000001 14.779363410000002 -1.70809758 0.570038 -0.677445 -0.511101
21940 -4.24562085 9.78201207 4.52793303 0.63125 -0.589129 -0.272573
21960 -0.37391796 4.42839096 1.75390047 1.199172 -0.078662 -0.548067
21980 -5.35032495 11.24162235 -2.8319606100000003 1.605216 0.76461 -0.7930699999999999
22000 -10.67774355 21.01180356 -0.49576797 2.400475 0.735921 -0.436034
22020 -10.806480180000003 13.668528060000002 -1.8173711700000001 2.810805 0.924039 -0.15033
22040 -9.74204613 9.94816404 -4.4837782200000005 2.146959 1.791581 0.056498
22060 -6.29171217 7.548353550000001 -2.31029424 1.880071 1.954694 0.256319
22080 -5.11785738 6.29381151 0.15313410000000002 1.909297 1.248884 0.6462600000000001
22100 -4.62553272 9.90445068 1.06773021 2.346957 -0.104552 0.667075
22120 -5.89519197 9.003323700000001 0.6665600700000001 2.837289 -0.26038 0.849092
22140 -3.9234898800000004 5.992036290000001 -0.26554689 2.520036 -0.35288400000000003 1.079867
22160 -2.31613119 5.13372015 -0.9196875 2.27976 -0.565404 1.154305
22180 -3.4587117000000003 4.27436415 -1.39150926 2.222941 -0.8316540000000001 1.186296
22200 -4.938079320000001 4.57433433 -0.8809183800000001 1.973631 -1.282252 1.132789
22220 -4.6448388000000005 6.483762540000001 -1.3992885900000003 1.80692 -1.6648330000000002 1.047725
22240 -1.9591256700000002 7.341637230000001 -2.10357792 1.520033 -1.931006 0.99372
22260 -1.13568408 5.80402764 -1.53326376 0.963751 -1.752491 0.789848
22280 -4.36432185 5.64909831 -1.73325042 0.234745 -1.45137 0.444675
22300 -6.27494688 7.853572080000001 -4.35759219 -0.074945 -1.308489 0.413487
22320 -3.3890999400000004 7.13536236 -3.54133152 -0.174379 -1.028448 0.265019
22340 -1.32430095 6.00011973 -0.2956341600000001 -0.20765300000000006 -1.2078209999999998 0.129352
22360 -2.9464727400000004 8.8439112 0.03831786 -0.241008 -1.6958 0.178883
22380 -4.83464268 11.81972565 -2.32796205 0.011249 -2.040973 -0.033626
22400 -3.94983954 10.37433006 -3.2841721800000006 1.667923 -0.281318 -0.358662
22420 -5.4326504700000005 8.00549955 -3.86496342 3.005987 1.592366 -0.419015
22440 -10.03962267 11.72781576 -3.24225405 2.246815 -0.019412 0.242182
22460 -12.82697721 12.291243300000001 -1.5682854600000002 1.060696 -1.448664 0.650199
22480 -9.63471492 10.770850260000001 -0.5022033300000001 -0.033087 -1.842722 0.775523
22500 -11.26752075 11.051514359999999 -1.20214683 -0.556068 -1.098714 0.851033
22520 -10.96335189 13.78543383 -0.45011223 -0.619263 -0.883551 0.645217
22540 -10.35876159 15.828081840000001 0.08067743999999999 -0.364736 -0.889416 0.027434
22560 -11.765083950000001 14.86364112 -1.0225257300000001 0.267387 -0.500911 -0.173747
22580 -12.4011153 11.10345831 -2.46027933 0.271038 0.227109 -0.019762
22600 -8.49573468 8.90183925 -1.6167861 -0.75812 0.565246 0.227921
22620 -5.66856135 7.009470629999999 -0.7532314200000001 -1.494873 -0.464869 -0.19999
22640 -4.8060563400000005 5.214407400000001 -0.64620432 -1.27072 -1.306493 -0.114024
22660 -5.18446728 3.80837934 -0.35281665 -0.677225 -1.86158 0.4559220000000001
22680 -5.579349209999999 2.0917470600000008 -0.04984461 -0.183548 -2.001377 0.621919
22700 -5.03582616 1.11278754 -0.28769787 0.01402 -1.245722 0.6233989999999999
22720 -3.1617237600000005 1.81751832 -1.0409391000000001 -0.275021 -0.820349 0.791751
22740 -3.6121401 2.62180098 -2.0408527800000003 -0.564574 -1.359666 0.582116
22760 -5.25781665 3.53774106 -2.15102889 -0.649323 -1.942168 0.338716
22780 -5.08058919 4.14802116 -2.56491279 -0.133562 -1.889552 0.053831
22800 -5.73292476 4.43737692 -3.0741597 0.444262 -1.391475 -0.062412
22820 -7.362287280000001 4.918626090000001 -4.18260141 0.668262 -1.16641 -0.06327200000000001
22840 -7.97870844 6.76712439 -5.59312245 0.50463 -1.277603 -0.08670499999999999
22860 -9.457928910000001 11.132495910000001 -6.94300788 0.228756 -1.413003 -0.086322
22880 -10.4663871 12.56038065 -8.12584863 0.128404 -1.401041 -0.06033300000000001
22900 -5.77199799 6.06973149 -13.29325632 0.199332 -1.493027 -0.028741000000000006
22920 0.68183424 2.94557022 -5.388495659999999 0.238238 -1.456644 -0.103292
22940 -1.35797868 6.15700125 -1.26547038 0.236341 -1.259188 -0.196493
22960 -7.18281333 6.6386918700000015 -2.0231947800000003 0.167381 -1.057122 -0.319011
22980 -11.79771201 7.467666300000001 -5.5411785 0.046895 -0.925183 -0.441799
23000 -17.77313997 12.31937838 -7.421716260000001 0.0048 -0.8290280000000001 -0.4753310000000001
23020 -13.94919216 11.7823005 -1.839375 0.169188 -0.7520680000000001 -0.4165970000000001
23040 -2.11525182 2.06495595 1.55675871 0.49378 -0.785747 -0.267941
23060 -0.80472411 1.37458701 1.6079571000000001 0.768846 -0.5503779999999999 -0.225728
23080 -3.25677285 6.342606450000001 0.8684891100000001 0.919705 -0.4603350000000001 -0.230131
23100 -5.71047948 9.65102895 0.85801203 1.059028 -0.430442 -0.10101
23120 -4.833602820000001 10.990594259999998 0.05223825 1.183198 0.146352 -0.328413
23140 -3.10289319 11.95624161 -0.42122178 1.550777 1.557125 -0.46759
23160 -3.89474658 11.567343780000002 -1.15035984 2.01257 1.689057 -0.294686
23180 -6.68733966 8.727750990000002 -1.50930774 2.977842 0.504167 0.009472
23200 -6.5668434300000005 6.74347248 -0.86355468 3.529175 0.6144970000000001 0.178756
23220 -6.983425080000001 6.44723991 0.6156657900000001 3.120407 0.542682 0.376819
23240 -7.31363949 6.289318530000001 1.8661661100000002 2.583485 0.692731 0.34830700000000003
23260 -7.540417260000001 6.390361530000001 1.8562874400000002 2.315571 0.6416689999999999 0.562282
23280 -6.7458759299999995 6.87909573 -0.032785020000000005 2.56936 -0.088862 0.812818
23300 -5.6717103600000005 8.38466586 -1.18793214 3.041727 -0.503252 0.935221
23320 -4.87431432 9.039247920000001 -0.8306225100000001 3.333563 -0.979815 1.044693
23340 -5.301078750000001 8.203386870000001 0.04565574000000001 3.406513 -1.164107 1.247332
23360 -5.412441870000001 7.375314960000001 0.3817071 3.064175 -1.129908 1.250238
23380 -4.622982120000001 7.599699090000001 0.07289811 2.881624 -1.465604 1.175686
23400 -4.84257897 7.49162232 -0.48783168000000005 2.783327 -1.589419 1.321504
23420 -5.550311610000001 6.881489370000001 -0.7664062500000001 2.720356 -1.712189 1.441931
23440 -6.04667799 6.79272849 -0.9113097600000001 2.549802 -1.629768 1.490841
23460 -6.553374300000001 7.76420298 -0.72569475 2.247192 -1.581688 1.4512770000000002
23480 -6.59303613 8.347093560000001 -0.18681183 2.011701 -1.771482 1.432784
23500 -6.4574226900000005 8.796460230000001 -0.6842278800000001 1.96116 -1.964763 1.326925
23520 -3.95462682 9.3354903 0.14818986 1.855783 -1.843334 1.155118
23540 -6.3162666000000005 10.95436593 0.86325057 1.526853 -1.574268 1.020016
23560 -9.47664639 10.065364109999999 -1.4844590100000001 1.106976 -1.404854 0.8427459999999999
23580 -7.962992820000001 8.253084330000002 -4.752022860000001 0.7116640000000001 -1.40091 0.732089
23600 -4.659063300000001 9.42740019 -4.151317320000001 0.371326 -1.449596 0.681704
23620 -4.12287813 11.57961609 -0.19848573000000003 0.11368699999999997 -1.402589 0.605069
23640 -4.57463844 11.42140041 3.89505069 0.090275 -1.230681 0.525636
23660 -7.647601320000001 9.34417215 5.933058570000001 0.5549930000000001 -0.712067 0.433146
23680 -10.244543759999999 6.108049350000001 0.008985960000000001 1.563304 -0.053739 0.361365
23700 -8.21012634 8.04681927 -2.94348069 2.158268 -0.058248 0.440303
23720 -6.33856473 9.532475100000001 -0.68078457 1.986799 -0.8250059999999999 0.794737
23740 -5.965098030000001 9.35958366 0.004640130000000001 1.35628 -1.557646 1.007053
23760 -5.4777078 8.37239355 0.8253839700000001 0.400666 -1.494518 1.233169
23780 -5.209463159999999 8.74391787 0.65339505 -0.136865 -1.433073 1.251768
23800 -5.3908892999999996 9.13191318 -0.72149607 -0.143377 -0.918999 0.83873
23820 -6.015992310000001 8.645866920000001 -0.83631231 0.549099 -0.222907 -0.143294
23840 -6.721468649999999 6.445591830000001 -0.8184973500000001 2.330794 0.558896 -0.062416
23860 -6.86262474 6.63540552 -0.5634275400000002 0.974184 0.378681 0.359901
23880 -6.90514128 6.627469230000001 -1.070271 -1.390884 -1.543061 0.275341
23900 -6.336171090000001 6.33183507 -1.1805942600000001 -0.8576959999999999 -1.199363 0.442063
23920 -6.169567860000001 6.076166850000001 -1.8489593700000002 -0.02785 -0.386723 0.829241
23940 -5.82827796 6.3165609 -2.1582098100000007 -0.229019 -0.16162200000000002 1.187538
23960 -6.096375450000001 6.092029620000001 -2.5146169200000004 -0.639209 -0.7674340000000001 0.928008
23980 -6.431671440000001 4.709212020000001 -1.9429587900000003 -0.784015 -1.251549 0.375346
24000 -6.680011590000001 4.66011297 -2.06330787 -0.817693 -0.838616 -0.029206
24020 -6.74841672 4.62567987 -2.28020697 -0.917196 -0.599906 0.034955
24040 -6.53450967 4.29202215 -2.4611818500000004 -0.6132529999999999 -0.586106 0.315866
24060 -6.238277100000001 4.2749625600000005 -2.8657953000000003 -0.308971 -0.771364 0.559647
24080 -5.614076610000001 4.054168890000001 -3.82320225 -0.199135 -1.012532 0.5682010000000001
24100 -5.69445975 4.54754322 -5.15048544 -0.033062 -0.977466 0.44647
24120 -5.604796350000001 5.88141873 -6.054908580000001 0.104897 -0.8005720000000001 0.312611
24140 -7.26544296 8.26506234 -6.15789396 0.254839 -0.536496 0.210771
24160 -8.33511555 8.5606965 -7.83365778 0.560669 -0.226169 0.129188
24180 -6.068230560000001 7.55928189 -8.94151089 0.899533 0.105228 0.07771900000000001
24200 -1.4311710900000003 5.88860946 -8.291412 0.991637 1.041652 -0.013636
24220 -0.64635147 5.45555682 -5.01577452 1.04643 0.8624930000000001 -0.279011
24240 -5.02070895 6.00939999 -3.8697507 1.207778 0.558816 -0.40034
24260 -7.7865109200000004 7.60238703 -5.0049933300000005 0.828787 1.062611 -0.318176
24280 -11.95519194 10.142313750000001 -3.0548438100000004 0.222333 0.470471 -0.097326
24300 -18.02447217 14.180914170000001 -0.58798197 0.245004 0.016847 0.103171
24320 -11.255846850000001 6.94885464 0.6014511 0.429416 -0.393374 -0.033884
24340 -0.07739109000000001 0.13082616000000002 -1.0473744600000001 0.33365900000000004 -0.012016 0.051484
24360 0.44652177000000004 2.87027847 1.1687732100000001 0.113958 -0.33351 0.187094
24380 -5.833673460000001 10.75169133 -0.11121597 0.22863000000000006 0.08649 0.017509
24400 -7.81210521 15.354474660000001 -1.9202094 0.923794 0.7101850000000001 -0.445247
24420 -6.85005813 9.72168057 -1.9910081700000002 1.954368 1.251708 -0.363967
24440 -7.118597070000001 4.0978822500000005 -2.18860119 2.930695 1.255855 -0.38279
24460 -7.07504067 3.4391015100000004 -1.9976004900000002 3.239543 1.532057 -0.457898
24480 -6.94345914 5.32473066 -1.23957198 3.0762110000000003 1.246392 -0.007883
24500 -6.79108041 8.46624582 -1.21023027 3.230331 1.328099 0.204596
24520 -5.4253224 9.4279986 -1.28178441 2.224635 0.691521 0.429123
24540 -4.679419050000001 8.48705283 -1.91856132 1.24775 0.210595 0.332117
24560 -4.20415398 7.71421122 -2.3376935700000003 1.354002 0.207824 0.666148
24580 -4.13096157 7.526202570000001 -2.0667511800000007 0.994976 0.118611 1.175433
24600 -4.36357629 6.9787849500000005 -1.78144695 0.471119 -0.51915 1.012358
24620 -4.6997748 5.49117693 -1.6108020000000003 0.320168 -1.071872 0.571904
24640 -4.734806310000001 4.43377665 -2.16195723 -0.049923 -1.078968 0.536213
24660 -4.3177734 3.0900224700000005 -3.20663394 -0.572812 -0.8885049999999999 0.51202
24680 -3.2150116800000004 3.48744519 -3.4700814900000005 -1.231455 -0.631066 0.373562
24700 -4.7604006000000005 4.13485614 -4.01061249 -1.905142 -0.625019 0.244935
24720 -6.26597073 5.74340184 -3.7975981500000002 -2.1540470000000003 -0.757066 0.182477
24740 -4.8936204000000005 7.64430516 -2.7819688499999997 -2.245559 -0.8869290000000001 0.236483
24760 -1.4528806200000002 6.62432022 -0.50459697 -2.382487 -0.945135 0.259102
24780 -1.25543475 5.08028508 -0.99662733 -2.560126 -0.979056 0.105149
24800 -3.8956491000000004 6.78404664 -4.56026679 -2.540253 -1.258525 -0.086634
24820 -6.41146284 9.719591040000001 -4.80785157 -2.010534 -0.811294 -0.233058
24840 -4.35159828 7.341333120000001 -2.53602234 -1.527404 -0.328463 -0.184368
24860 -3.75179526 5.350619250000001 -3.2418126 -1.220853 0.216035 0.046743
24880 -6.45307686 6.81053364 -4.26269025 -0.979809 0.562924 -0.06418099999999999
24900 -7.9595495099999996 10.798995150000001 -2.12213844 -0.8499120000000001 0.975812 -0.067008
24920 -9.17322309 9.273667679999999 -2.4587882100000003 -0.656733 0.961412 -0.096618
24940 -12.41398602 10.813965210000001 -4.31897022 -0.5755859999999999 0.441622 0.083008
24960 -14.101875000000001 14.116697910000001 -7.531441110000001 -0.932738 0.186437 0.006065
24980 -9.087307110000001 13.6885797 -4.35908331 -1.035161 -0.21299 0.081705
25000 -4.0749759 8.28213174 -5.45660649 -0.230747 0.5075850000000001 0.337432
25020 -6.16987197 8.27912988 -6.74631738 -0.746436 -0.34580700000000003 0.278308
25040 -11.924947710000001 10.28196891 -9.24058836 -0.7336600000000001 -1.213666 -0.349673
25060 -9.74533248 6.723420840000001 -6.92250498 -0.003512 0.168434 0.239041
25080 -4.904097480000001 3.59552196 -4.43886804 -0.008228000000000001 0.823641 0.7594609999999999
25100 -2.6571267900000004 1.2710032199999999 -2.3920213500000003 -0.941701 0.352772 0.507853
25120 -3.120561 2.42975061 -2.73077046 -0.963129 -0.248605 0.400584
25140 -4.94601561 2.63617263 -4.11718833 -0.974152 -0.8926940000000001 0.309465
25160 -5.45630238 1.29809844 -4.1713787700000005 -1.296628 -0.568431 0.218134
25180 -4.972355460000001 1.42039971 -4.84078374 -1.194466 -0.626421 -0.020359
25200 -4.05252081 2.26613943 -4.62852477 -0.935772 -0.624745 -0.130718
25220 -3.62426526 3.0858336000000004 -3.5811503100000004 -0.6891930000000001 -0.631853 -0.16530599999999998
25240 -3.01862529 3.7034515800000003 -3.4108094700000002 -0.510429 -0.7474850000000001 -0.174591
25260 -3.77455446 3.71302614 -3.39299451 -0.12546300000000002 -0.491268 -0.113478
25280 -5.05199304 3.48175539 -3.3124642200000003 0.328579 -0.019198 -0.012635
25300 -5.530701420000001 3.84565734 -3.0650265900000004 0.758941 0.4844890000000001 -0.072232
25320 -6.90469002 5.619168 -4.1848479 1.176295 0.826766 -0.248148
25340 -8.83777014 7.631581590000001 -6.7021625700000005 0.800428 1.188307 -0.291829
25360 -7.56481473 7.586818560000001 -8.089326 0.993106 0.868002 -0.278322
25380 -3.4181375400000005 6.9986992500000005 -6.081552540000001 1.839016 0.109838 -0.29067
25400 -4.301459370000002 6.87579957 -3.98860866 1.7439900000000002 -0.7976800000000001 -0.232487
25420 -6.62297625 7.932601440000001 -3.92499081 0.834275 -0.315813 -0.067475
25440 -7.81509726 8.67955446 -4.4499435300000005 0.7359680000000001 -0.449186 0.070878
25460 -9.44640216 10.468182330000001 -0.9036677700000001 0.960301 0.025402 0.007743000000000002
25480 -7.47455292 10.674898650000001 3.4166464200000006 0.708969 0.142221 -0.216352
25500 -2.8520220600000004 5.8962416399999995 2.9446775100000004 1.492621 0.038139 -0.441481
25520 -7.22832192 8.63658666 -1.17999585 0.946306 0.321142 -0.144421
25540 -14.17926609 17.171237610000002 -1.9044937800000001 1.61654 0.699699 -0.288707
25560 -13.059140670000001 14.482385279999999 -4.05342333 2.274684 0.650617 -0.30648000000000003
25580 -3.64536657 8.95393035 -4.49829702 2.719098 0.665732 0.056596
25600 -1.70749917 7.72528671 -0.38051028000000003 2.866743 0.732649 0.5093989999999999
25620 -6.37314498 8.594825490000002 0.20013381 2.5039990000000003 1.486784 0.311483
25640 -8.07810336 9.950410530000001 -0.8114635800000001 2.051203 1.188766 0.106808
25660 -5.2636536000000005 7.443720090000001 -1.1374891200000001 2.081856 0.369744 0.30248800000000003
25680 -4.694987520000001 6.33752487 -0.89393625 1.582059 0.35099 0.63017
25700 -4.4259973200000005 7.5658644 -0.4316988600000001 1.139702 -0.07459099999999999 0.348819
25720 -4.39426197 7.57110294 -0.14445225 1.167875 -0.636306 0.403147
25740 -4.43901519 7.045394850000001 -0.43619184 1.169602 -1.027968 0.577781
25760 -4.2767577900000004 6.7329954 -1.3675532400000001 0.77041 -0.978041 0.426446
25780 -3.2229479700000003 6.314020110000001 -2.9177294400000005 0.17355 -0.851407 0.17856
25800 -3.73278348 5.98110795 -4.17437082 -0.400597 -0.7318939999999999 0.093211
25820 -4.06239948 6.37898193 -4.569547050000001 -1.074056 -0.792379 0.08538
25840 -1.8369813600000002 6.025566870000001 -2.45549205 -1.7216 -0.930023 0.169696
25860 -0.17499078 6.712639650000001 1.1768566500000002 -2.142064 -0.87455 0.247873
25880 -3.06652752 5.7809741400000005 0.57674952 -2.375273 -0.8498959999999999 0.411786
25900 -4.545600840000001 5.57126577 -3.51709101 -2.752048 -0.7765850000000001 0.5201560000000001
25920 -3.0072456900000004 9.81494424 -2.71534914 -3.104292 -0.927347 0.166444
25940 -4.70606301 8.188573770000001 -2.7966348 -2.719151 -0.779306 -0.159
25960 -4.81473819 3.9519290700000003 -3.1172648400000003 -1.600946 0.069516 -0.278327
25980 -5.761668060000001 4.31537976 -3.46933593 -0.15319000000000002 0.643567 -0.168537
26000 -8.36864613 7.488473310000001 -5.27099148 0.342147 1.105666 -0.007573000000000002
26020 -5.12744175 9.69204456 -3.3353607600000004 -0.450809 0.980868 -0.079181
26040 -5.40750744 10.548418320000001 -1.6048080900000001 -1.256926 1.116696 -0.047598
26060 -8.795861819999999 11.274250410000002 -1.0060547400000002 -1.070833 0.557633 0.005693
26080 -14.501838509999999 13.674659310000001 -4.39845084 0.13020199999999998 0.601908 -0.119503
26100 -13.87270359 13.209429870000001 -6.394697550000001 0.15235 0.367229 -0.059227
26120 -9.28025019 10.687779180000001 -4.09039722 -0.67895 -1.137089 -0.100494
26140 -8.26850565 9.87196977 -4.674926070000001 -0.6441399999999999 0.155254 0.094646
26160 -8.70185259 8.98072146 -5.85702126 -0.055935000000000006 0.5946819999999999 -0.016108
26180 -7.078327020000001 6.806344770000001 -6.25623921 0.27560100000000004 0.16084 0.563604
26200 -7.27278084 7.121294820000001 -5.977223189999999 -1.252864 -0.140872 0.882326
26220 -6.710550120000001 7.051683060000001 -4.078115100000001 -1.820046 -0.434345 0.971676
26240 -4.742732790000001 6.317610570000001 -2.4351363000000004 -1.203677 -1.320344 0.62674
26260 -3.68862867 3.7973038500000005 -2.1435438600000003 0.488221 -0.8196620000000001 0.225583
26280 -5.04600894 2.24009388 -2.64155832 0.166223 1.066168 0.16536900000000002
26300 -5.93860122 1.38581946 -3.30617601 -1.542343 0.14999 0.058469000000000014
26320 -4.49844417 2.0736378 -4.11628581 -1.565655 0.137481 0.010252
26340 -4.20954948 2.8821093300000005 -3.67530669 -0.976135 -0.772768 0.15761
26360 -3.82664556 3.3795253800000005 -2.9413813500000003 -0.493663 -1.324674 0.029228
26380 -3.39928272 3.33281997 -2.40160572 -0.061539 -0.764139 -0.128706
26400 -4.109409 3.54388212 -2.5104280500000002 -0.090165 -0.648339 -0.291424
26420 -5.557796639999999 4.4652177 -2.1923388000000004 0.171983 -0.445919 -0.256737
26440 -6.20280414 5.391340560000001 -1.60525935 0.561393 -0.24038 -0.047045
26460 -6.340369770000001 5.10214176 -1.8627228 0.956999 -0.080776 -0.076533
26480 -6.55172622 5.00528763 -3.48983883 1.080144 0.309431 -0.262044
26500 -6.567893100000001 5.826031469999999 -5.93710029 0.429669 0.729799 -0.393176
26520 -4.259394090000002 7.86524598 -8.865169470000001 0.5322819999999999 0.439008 -0.489295
26540 -3.3311718900000002 7.10393112 -6.366709620000001 1.1150790000000002 -0.048382 -0.32223
26560 -4.694085 5.998324500000001 -3.7827850499999998 0.961785 0.017281 -0.093717
26580 -4.15476063 6.0972681600000005 -1.40318316 0.662786 -0.512205 -0.089786
26600 -6.45771699 8.0227161 -4.78195317 0.6590699999999999 -0.476687 -0.177451
26620 -10.17958194 9.56944899 -5.76466011 0.527366 -0.783285 -0.379872
26640 -8.08184097 12.529694970000003 1.36066662 0.085953 -0.200291 -0.335633
26660 -6.224209560000001 11.309733180000002 2.30116113 0.657786 0.435151 -0.166878
26680 -6.555169530000001 8.55620352 -2.02648113 1.674541 0.8538 0.01808
26700 -4.495746420000001 9.83410317 -4.676427 2.011085 0.533801 -0.169302
26720 -4.38527601 14.30664894 -1.12401018 2.267637 0.884438 -0.165823
26740 -7.7089726800000005 14.600791980000002 -0.46957527000000004 2.093201 1.293898 -0.113087
26760 -14.578032780000001 17.12184426 -4.29022692 1.564845 1.476727 -0.354157
26780 -8.235426330000001 6.9757929 -4.49395119 1.889316 1.037745 -0.347055
26800 -5.10902838 2.5135770600000003 -3.7854828 2.085306 0.07923999999999999 -0.045356
26820 -3.2091747300000004 6.39110709 0.59381892 1.61962 -0.128518 0.099072
26840 -4.58511552 9.07757559 2.53393281 1.359022 -0.152263 0.135738
26860 -5.186566620000001 6.91351902 1.15320474 1.166493 -0.120201 0.276426
26880 -4.323011940000001 7.566766920000001 -1.2919671900000003 0.938442 -0.27715500000000004 0.297467
26900 -3.8257430400000003 7.24942323 -4.47150591 0.8798530000000001 -0.425303 0.366682
26920 -4.17646035 7.75597239 -3.7266522300000005 0.550823 -0.383163 0.5031979999999999
26940 -4.10521032 7.5717013500000006 -2.43348822 -0.162476 -0.299649 0.483154
26960 -3.0118858200000003 5.9231799 -2.10028176 -0.885598 -0.238578 0.489775
26980 -3.87918792 4.6270238400000006 -3.69401436 -1.341374 -0.316762 0.4567810000000001
27000 -3.69461277 3.7772424 -3.63324141 -1.580526 -0.229189 0.342835
27020 -1.90658331 4.96263375 -0.81400437 -2.10177 -0.614013 0.326869
27040 -3.12325875 7.981553340000001 -0.14265702 -2.822422 -1.082935 0.202795
27060 -2.57315319 7.4640758400000005 -1.24495767 -3.177896 -0.989681 0.100848
27080 -2.16884385 6.186038850000001 -1.17176526 -2.486486 -0.406676 -0.040348
27100 -2.8827077400000003 6.792130080000001 -0.2314179 -0.958937 0.356601 -0.167388
27120 -4.714892010000001 6.55442397 -2.34652257 -0.159369 1.380858 -0.193026
27140 -6.435418860000001 6.024075750000001 -3.45840759 -0.846226 2.078069 -0.260674
27160 -6.43795965 11.55806352 -3.63788154 -1.696247 2.124781 -0.282695
27180 -7.3784541599999995 13.357472580000001 -4.2968192400000005 -1.495588 0.235383 -0.290623
27200 -7.510182840000001 10.24604469 -3.3413546700000003 -0.084141 -1.868196 -0.001398
27220 -12.00338847 11.194024230000002 -1.7010638100000002 -0.649479 0.056813 0.473954
27240 -14.57623755 12.48403923 -3.46813911 -1.101999 -0.214544 -0.004218
27260 -10.82234295 9.2720196 -4.80740031 0.305236 -0.529018 0.161975
27280 -7.664808060000001 10.24709436 -2.62149687 0.011249 0.00388 0.351519
27300 -7.58637711 9.453141630000001 -1.24765542 -1.546588 0.198097 0.817883
27320 -7.880510340000002 8.088433290000001 -3.1446641700000004 -1.569718 -0.048514 0.970794
27340 -9.79877736 8.084833020000001 -4.77506655 -0.932489 -0.474864 0.4790680000000001
27360 -9.7954812 7.388038530000001 -3.8811303 0.070046 -0.490646 -0.171934
27380 -7.3248719399999995 5.039269470000001 -2.1734839800000003 0.5170100000000001 0.8758950000000001 0.024922
27400 -5.9739270300000005 4.27346163 -1.2546891900000001 -0.105431 0.6760689999999999 -0.079583
27420 -6.08125824 3.70450125 -1.23657993 -0.32219000000000003 0.128339 -0.11351
27440 -5.8106199599999995 3.4329604500000004 -2.80965267 -0.386513 -0.269372 0.032897
27460 -5.0486968800000005 2.14967511 -3.67889715 -0.383777 -0.767189 0.11367
27480 -4.4598222000000005 1.4606599500000002 -3.10723902 -0.102876 -0.7721319999999999 0.040863
27500 -3.5790607800000003 2.1430926 -2.3107455000000003 0.17288 -0.510686 -0.04514
27520 -2.9270097000000006 2.16584199 -3.2016897 0.474622 -0.405909 -0.135033
27540 -1.91661894 3.18881898 -4.23019953 0.815915 -0.203591 -0.143591
27560 -3.13373583 4.336932330000001 -3.1162151700000003 0.651552 0.345137 -0.294993
27580 -6.82415973 4.7689353 -1.9736444700000002 0.341943 0.973811 -0.33321300000000004
27600 -8.07047118 5.922885600000001 -2.82373002 0.454626 0.578472 -0.400285
27620 -6.46535898 6.16987197 -5.770349909999999 0.5847359999999999 0.097558 -0.394487
27640 -6.07825638 5.80029003 -8.35951302 0.513921 -0.301273 -0.228897
27660 -6.22435671 5.57096166 -7.1958410100000005 0.8718 -0.440869 0.004518
27680 -5.72275179 5.19644529 -3.4033244399999996 0.907356 -0.5435979999999999 -0.1767
27700 -5.723801460000001 8.680898430000001 1.9143724500000001 0.65859 -0.473088 -0.54386
27720 -6.80320557 15.02335773 -2.8041198300000003 0.5901810000000001 -0.5334409999999999 -0.576307
27740 -3.41499834 14.165492850000001 -0.8884034100000001 0.302082 -0.042401 -0.314029
27760 -7.522602300000001 9.85955031 1.399887 1.228728 0.206362 -0.190371
27780 -10.098600390000001 8.49678435 -0.33110712 2.224556 0.27118400000000004 -0.214477
27800 -7.6526829 9.819584370000001 -3.45646521 2.188807 0.595274 -0.245052
27820 -5.7670537500000005 12.763506510000001 -2.1305161800000003 1.6564299999999998 1.505015 -0.049111
27840 -4.85096652 10.022111820000001 0.9967744800000001 1.472634 1.948566 -0.254993
27860 -6.80260716 9.37529928 -0.35386632 1.6598700000000002 1.7320529999999998 -0.351684
27880 -12.28524939 14.552438490000002 -3.42637794 2.047758 0.932858 -0.09585
27900 -5.895339120000001 8.80469082 -4.1216813100000005 1.7405150000000005 0.4600010000000001 0.13868699999999998
27920 -4.13455203 5.600901780000001 -2.5673064300000004 1.169372 0.403202 -0.079943
27940 -3.9130128 7.13431269 -0.046548450000000005 0.82021 0.22803 -0.193252
27960 -3.40361874 8.00580366 0.79888716 0.684446 -0.181068 -0.067626
27980 -2.85666219 5.98770027 0.3583593 0.672479 -0.435766 -0.0332
28000 -3.6579429900000004 7.1118576000000004 -1.29809844 0.471606 -0.4692850000000001 -0.001446
28020 -3.9736386 7.909999200000001 -3.4373062800000005 -0.020843 -0.413059 -0.048754
28040 -4.32510147 7.535924280000001 -4.0023819000000005 -0.609243 -0.304449 -0.059413
28060 -4.28379156 5.844896100000001 -3.31275852 -1.321669 -0.432142 -0.009746
28080 -4.68824805 6.677765100000001 -5.347931310000001 -2.104705 -0.58735 0.055486
28100 -3.3998811300000003 5.84025597 -3.56468913 -2.653151 -0.685129 0.20774
28120 -2.05297794 3.3012317700000002 0.19190322 -2.817606 -0.96352 0.438753
28140 -2.0507314500000002 4.420160370000001 -1.15619679 -2.867952 -0.93711 0.271724
28160 -2.17856556 9.286087140000001 -1.5702376500000002 -2.583498 -0.7317819999999999 0.092919
28180 -2.4029496900000002 9.130559400000001 -0.59920461 -1.31118 -0.413132 0.28833600000000004
28200 -3.8814246000000003 4.74468498 -1.9170603900000003 0.114677 -0.041095 0.320252
28220 -5.455851120000001 4.8181815 -3.01757562 0.239576 0.779317 0.174795
28240 -7.53383475 7.640410590000001 -4.832396190000001 -0.319353 1.209684 -0.138377
28260 -5.65868268 10.55469672 -3.10798458 -0.192647 1.912027 -0.32960300000000003
28280 -5.79115692 12.28794714 -1.76946894 0.216401 1.110259 -0.513726
28300 -9.1533186 9.53158239 -2.02243941 -0.265244 -1.5959299999999998 -0.265795
28320 -12.66486696 9.80909748 -3.35976804 0.038337 0.988332 0.293831
28340 -15.15882402 10.718759160000003 -5.66212599 -0.339451 -0.158867 0.594969
28360 -11.437861589999999 8.959473000000001 -4.066146900000001 -0.586973 -1.732838 0.682851
28380 -9.53158239 9.26857629 -1.43896023 -1.87057 -0.453715 0.798296
28400 -9.70507224 11.34835515 -2.87013132 -1.538253 -0.61016 1.004848
28420 -8.632849049999999 10.58972823 -5.35376826 -1.0392 -0.38751 0.571146
28440 -7.60658571 7.13760885 -6.902002080000001 -0.5584439999999999 -0.045156 0.054909000000000006
28460 -7.43384142 7.554043350000001 -5.486840910000001 -0.268991 0.217149 0.008525
28480 -5.96973816 6.671329740000001 -2.66325804 -0.656492 0.239518 0.078429
28500 -5.025947490000001 4.7051703 -0.69006483 -0.953744 -0.189633 0.030969
28520 -5.427264780000001 2.60324046 -0.79230465 -0.584717 -0.463587 0.022147
28540 -6.01613946 1.8979014600000002 -1.89625338 -0.189198 -0.577692 -0.024082
28560 -5.854774770000001 1.68683931 -2.42750412 -0.15928399999999998 -0.162063 -0.092772
28580 -4.6768782600000005 1.9751454 -2.9111469300000006 -0.316168 -0.037536 -0.195509
28600 -3.6318974400000004 2.83045968 -3.3474859200000004 -0.20764 -0.07318999999999999 -0.164795
28620 -4.08126411 3.46993434 -3.89310831 -0.029522000000000007 0.145773 0.067973
28640 -3.2229479700000003 3.6600423300000005 -4.45922379 0.212351 0.26550100000000004 0.020371
28660 -2.9642877000000003 4.74798114 -3.70793475 0.334023 0.192863 -0.301289
28680 -4.7304604800000005 5.062018860000001 -2.3472681300000002 0.186158 0.398428 -0.430772
28700 -6.518195639999999 5.335502040000001 -1.60361127 0.786864 0.028434 -0.333167
28720 -6.4036835100000005 6.16403502 -3.70450125 1.542697 0.237373 -0.22560500000000006
28740 -5.5383336000000005 5.069209590000001 -6.426589860000001 1.0917 -0.08217100000000001 -0.376829
28760 -4.15086606 3.8068882200000003 -8.378976060000001 0.708484 0.061997 -0.665974
28780 -4.9117394700000006 3.7971567000000004 -5.15677365 0.979387 -0.275142 -0.506621
28800 -7.139855340000001 5.1245968500000005 -3.8627169300000004 0.47367 0.212543 -0.016191999999999998
28820 -11.103909569999999 10.89374994 -3.3271301700000007 1.214613 0.879712 0.063973
28840 -7.506288270000001 18.18058851 1.08239616 2.160671 1.14546 -0.08037899999999999
28860 -1.30573062 11.737694430000001 2.7664003800000003 2.359188 1.142717 -0.099285
28880 -5.924680830000001 3.7570338 -2.32332192 2.424113 1.6482330000000005 -0.03325
28900 -7.7130144 12.322674540000001 -1.8390708900000001 2.347274 1.825449 -0.32777399999999995
28920 -10.171949759999999 16.57787976 -2.31942735 2.246245 1.035017 -0.240941
28940 -8.510106330000001 9.41272443 -0.9969314400000001 2.281021 0.360149 0.131908
28960 -8.48824965 10.677145140000002 -2.4370786800000004 1.795896 0.547786 0.248988
28980 -9.58247667 12.81679443 -3.8032879500000005 1.711446 0.280558 0.016936
29000 -6.37134975 8.736579990000001 -1.6681316400000001 1.537166 0.162104 0.219901
29020 -4.24038231 8.25233877 -1.4296799699999998 0.967745 -0.208908 0.254855
29040 -4.25864853 9.54355059 -0.19908414 0.418873 -0.70176 0.105306
29060 -5.02295544 7.41992103 -0.00494424 0.162135 -0.955059 0.002356
29080 -4.50159318 5.4893817 -0.90007731 -0.021224 -0.7655420000000001 -0.07928400000000001
29100 -3.3465932100000004 5.00259969 -2.36642706 -0.660116 -0.739826 -0.09553
29120 -3.8965516200000003 6.02287893 -3.0726587700000003 -1.707866 -0.7511 -0.097493
29140 -4.04833194 6.72791382 -2.8467835200000002 -2.441259 -0.528366 -0.017443
29160 -2.6752360500000005 5.2476338700000005 -1.9208078100000001 -2.614747 -0.137054 0.043868
29180 -1.95553521 2.2064161500000004 -1.4754828599999998 -2.518752 0.089537 0.038907
29200 -2.8872007200000005 2.6676038699999998 -1.98876168 -2.53835 -0.286233 -0.012023
29220 -3.3257862 8.4653433 -2.39950638 -2.558333 -0.712212 -0.02764
29240 -4.29412149 12.496017240000002 -1.60376823 -2.285384 -0.698461 0.026592
29260 -2.21718753 5.240148840000001 -0.40311252 -1.774291 0.316878 0.08334
