time Ax Ay Az Gx Gy Gz
20 0.86804766 1.22775093 -9.75836016 0.00023 0.040523 -0.010733
40 0.8828607600000001 1.21682259 -9.71031078 -0.0040420000000000005 0.035227999999999995 -0.015028
60 0.85456872 1.2319398000000001 -9.7032672 -0.0040420000000000005 0.039472 -0.010761
80 0.7894597500000001 1.21472325 -9.748922940000002 -0.004079999999999999 0.038377 -0.003282
100 0.77239035 1.19886048 -9.78829047 -0.005176 0.036233 0.000986
120 0.7593724800000001 1.22415066 -9.77032836 -0.003052 0.037278 0.004204
140 0.7586269200000002 1.2552876 -9.74324295 0.001206 0.039377 0.008504000000000001
160 0.7697024100000001 1.26875673 -9.721239120000002 0.000125 0.036185 0.0085
180 0.7857123300000001 1.26755991 -9.705670650000002 -0.002023 0.035119 0.010623
200 0.80682345 1.2644207100000002 -9.73260891 -0.000952 0.035119 0.009562
220 0.8137100700000001 1.24750827 -9.73784745 0.001191 0.037242 0.009575
240 0.8422964100000001 1.2088863 -9.76044969 0.00012 0.03512 0.008502
260 0.87582699 1.21816656 -9.77077962 -0.000933 0.033014 0.003156
280 0.88166394 1.25664138 -9.75162069 0.00443 0.035143 -0.001082
300 0.8873537400000001 1.2301445700000002 -9.76554108 0.002316 0.039412 -0.001103
320 0.9029222100000001 1.2253474800000002 -9.73111779 0.000192 0.042611 -5.3e-05
340 0.87986871 1.21322232 -9.72377991 -0.004076 0.043686 0.000984
360 0.8542744200000001 1.25394363 -9.73396269 -0.004085 0.042617 0.002053
380 0.8306225100000001 1.22864364 -9.77287896 -0.0008609999999999999 0.047932 0.002069
400 0.82748331 1.2350790000000003 -9.78545538 -0.004047 0.051139 0.002043
420 0.83870595 1.25887806 -9.75207195 -0.01152 0.052222000000000005 0.004126
440 0.8165549700000001 1.2567885300000001 -9.72183753 -0.01684 0.058619 0.007285
460 0.80502822 1.28013633 -9.75341592 -0.014677 0.066065 0.008359
480 0.7851139200000001 1.26456786 -9.75057102 -0.015701 0.071412 0.004072
500 0.80187921 1.23148854 -9.73904427 -0.015706 0.066102 -0.000194
520 0.79305021 1.23777675 -9.724231170000001 -0.009391 0.044783 -0.002259
540 0.8081674200000002 1.22879079 -9.735306660000001 -0.007295 0.036254 -0.002234
560 0.8270320499999999 1.2434665500000002 -9.779167170000001 -0.010486 0.041578 0.000942
580 0.8442486 1.2310372800000002 -9.76419711 -0.0008939999999999998 0.041536 0.003145
600 0.85697217 1.2115840500000001 -9.724378320000001 0.007606999999999998 0.038294 0.007481999999999998
620 0.8677435499999999 1.21577292 -9.727370370000001 0.007564 0.029767 0.00856
640 0.8439444899999999 1.17745506 -9.76898439 0.004339 0.025513 0.009612
660 0.86011137 1.20783663 -9.81808344 0.005464 0.03511 0.006403
680 0.87718077 1.20080286 -9.78275763 0.006583 0.044702 0.004262
700 0.91265373 1.25379648 -9.73036242 0.007617 0.035119 0.002145
720 0.8972324100000001 1.25379648 -9.660014910000001 0.0043630000000000006 0.024473 0.003204
740 0.8640059400000001 1.25259966 -9.70851555 0.005449 0.029792000000000006 0.004273
760 0.8813696400000001 1.2609774000000002 -9.791439480000001 0.0033490000000000004 0.040439 0.007449
780 0.8297199900000001 1.28508057 -9.752219100000001 0.0012109999999999998 0.037259 0.005302
800 0.7914021300000001 1.3102235999999998 -9.704022570000001 0.007573000000000002 0.029776 0.006423999999999999
820 0.8273263500000001 1.32040638 -9.70985952 0.013927000000000002 0.021223 0.008616
840 0.8126604000000001 1.2969016199999999 -9.73275606 0.013927000000000002 0.021223 0.008616
860 0.84573972 1.24975476 -9.79024266 0.010741 0.02443 0.008589
880 0.84992859 1.23672708 -9.73860282 0.0075590000000000015 0.029763 0.009629
900 0.8652027600000002 1.2404745000000001 -9.70596495 0.005454 0.03404 0.007471999999999999
920 0.8641530900000001 1.2391207199999998 -9.74967831 0.004397 0.036174 0.007462000000000002
940 0.86235786 1.23687423 -9.76628664 0.0033350000000000003 0.036182 0.006386
960 0.85816899 1.2472041600000001 -9.74129076 0.0044020000000000005 0.035118 0.005327
980 0.8747773200000001 1.1975067000000001 -9.75087513 0.002249 0.032986 0.007451
1000 0.8496342900000001 1.2461544900000001 -9.75386718 0.00223 0.028725 0.007456
1020 0.88061427 1.25154999 -9.76060665 0.006516 0.032971 0.007481
1040 0.85681521 1.27116018 -9.72662481 0.002278 0.038316 0.006376
1060 0.83212344 1.2445162200000002 -9.711949050000001 -0.004109000000000001 0.038352 0.003127
1080 0.8370578700000001 1.2274468200000002 -9.73590507 -0.003047 0.0341 -6.500000000000001e-05
1100 0.81490689 1.20080286 -9.75431844 0.000144 0.03408 0.002094
1120 0.8415508500000001 1.21711689 -9.76733631 -0.0019760000000000003 0.037283 0.002075
1140 0.8376562800000001 1.217421 -9.76464837 -0.007295 0.040498 0.002034
1160 0.84708369 1.21606722 -9.7260264 -0.005181 0.039412 0.005254
1180 0.8370578700000001 1.2070910700000002 -9.69054363 -0.003047 0.039405 0.005268999999999999
1200 0.83361456 1.2457130400000003 -9.71854137 -0.000937 0.034071 0.005291
1220 0.8584632900000001 1.23777675 -9.78589683 0.001182 0.031929 0.006377000000000001
1240 0.8421492600000001 1.22775093 -9.76628664 0.001187 0.031933 0.005308
1260 0.8268849 1.18987452 -9.752219100000001 0.001196 0.033002 0.004239
1280 0.83032821 1.21023027 -9.736954740000002 -0.003057 0.034091 0.002071
1300 0.84813336 1.20424617 -9.73829871 -0.0030280000000000003 0.040483 0.002063
1320 0.8689403700000001 1.21247676 -9.740241090000001 -0.005147 0.044747 0.003111
1340 0.84888873 1.20723822 -9.72198468 -0.003009 0.046866000000000005 0.004192
1360 0.83645946 1.1943675 -9.75176784 0.00015800000000000002 0.04152 0.006357
1380 0.8309266200000001 1.23433344 -9.775723860000001 -0.000928 0.038323 0.007422
1400 0.82748331 1.2481066800000002 -9.775871010000001 -0.002 0.03514 0.005282
1420 0.8433460799999999 1.24151436 -9.748922940000002 -0.0041 0.042604 0.005258
1440 0.83556675 1.2464585999999998 -9.73874997 -0.007262 0.050076 0.004158
1460 0.84604383 1.23148854 -9.748922940000002 -0.011525 0.046913 -0.00014099999999999998
1480 0.8213422499999999 1.20469743 -9.73006812 -0.00941 0.037339 -0.005455
1500 0.81206199 1.19092419 -9.74308599 -0.0030280000000000003 0.033056 -0.005405
1520 0.8211951000000001 1.1999003400000001 -9.768238830000001 -0.004076 0.042625 -8.3e-05
1540 0.8155053 1.19556432 -9.768238830000001 -0.008343000000000001 0.049006 0.006288
1560 0.83676357 1.2488522400000002 -9.752670360000002 -0.00409 0.046857 0.007389
1580 0.8298769500000001 1.24211277 -9.70955541 0.00122 0.042573 0.0085
1600 0.83107377 1.2177153 -9.736650630000002 0.000134 0.037254 0.007431
1620 0.8186445 1.2337350300000003 -9.79069392 0.002254 0.03299 0.006383
1640 0.83825469 1.22699556 -9.79383312 0.002273 0.035129 0.004244
1660 0.84858462 1.23119424 -9.76554108 0.0044210000000000005 0.036196 0.002121
1680 0.85472568 1.19496591 -9.73590507 -0.001942 0.041557 -0.001135
1700 0.89079705 1.17296208 -9.73844586 -0.009396 0.043718 -0.002258
1720 0.88929612 1.1943675 -9.759252870000001 -0.010458 0.044787 -0.0022670000000000004
1740 0.86221071 1.20678696 -9.72662481 -0.000904 0.038345 0.002081
1760 0.8270320499999999 1.22579874 -9.74293884 0.003296 0.028721 0.007464
1780 0.7964935200000001 1.2717585900000001 -9.74803023 9.1e-05 0.026606 0.006376
1800 0.81535815 1.2698064 -9.752366250000001 -0.002023 0.030875 0.0063560000000000005
1820 0.8069706000000001 1.2331366200000002 -9.75372003 -0.003062 0.035148 0.0042060000000000005
1840 0.8129547 1.23777675 -9.75176784 -0.000913 0.035153 0.001017
1860 0.84184515 1.2380710499999998 -9.728420040000001 -0.003052 0.034095 0.001003
1880 0.8301712500000001 1.21921623 -9.72064071 -0.006253 0.034107 0.000981
1900 0.8273263500000001 1.18717677 -9.73396269 -0.008372 0.036249 -0.000105
1920 0.83181933 1.1567952000000001 -9.74698056 -0.006233 0.04049 0.003109
1940 0.82059669 1.1798487 -9.77797035 -0.006219 0.045807 0.005239
1960 0.8752285799999999 1.21876497 -9.755966520000001 -0.006224 0.04262 0.003107
1980 0.8716381200000001 1.2868758 -9.711801900000001 -0.008357999999999999 0.040506 0.000958
2000 0.85277349 1.24181847 -9.72662481 -0.008367 0.038375 0.000961
2020 0.86340753 1.2488522400000002 -9.73755315 -0.008353 0.04051 -0.00011
2040 0.84873177 1.20304935 -9.7695828 -0.006219 0.041563 0.000972
2060 0.85501998 1.2012541200000002 -9.763451550000001 -0.007276 0.043698 0.000961
2080 0.86056263 1.21367358 -9.75372003 -0.01262 0.039464 -0.001207
2100 0.8041257 1.1999003400000001 -9.72662481 -0.013701 0.039455 0.00199
2120 0.8110123200000001 1.217421 -9.72377991 -0.006219 0.046868 0.006306
2140 0.8157996000000001 1.22924205 -9.77048532 -0.007281 0.046876 0.005229999999999999
2160 0.8255311200000001 1.23627582 -9.764491410000002 -0.005147 0.043686 0.002045
2180 0.82763046 1.2220611300000002 -9.75296466 -0.000866 0.044745 -6.3e-05
2200 0.8496342900000001 1.21801941 -9.73410984 -0.000875 0.041553 -0.001128
2220 0.83990277 1.2295461600000002 -9.728115930000001 -0.001956 0.036239 -0.003265
2240 0.8346642300000001 1.2307429799999998 -9.7664436 0.001244 0.037289 -0.002176
2260 0.8420021099999999 1.2304388700000002 -9.74593089 0.003373 0.038338 -2.6e-05
2280 0.8271792000000001 1.23987609 -9.727821630000001 0.004386999999999999 0.030861000000000006 0.004264
2300 0.80996265 1.2019996800000001 -9.73874997 0.014989 0.023337 0.011825
2320 0.82089099 1.21666563 -9.80760636 0.030877 0.004079999999999999 0.01837
2340 0.8352626400000002 1.27684017 -9.75910572 0.029608 -0.035352 0.023753
2360 0.8072747100000001 1.2663630900000002 -9.7493742 0.004037 -0.027806 0.023565
2380 0.83691072 1.2433194000000003 -9.73410984 -0.007492 0.012737 0.018091
2400 0.8137100700000001 1.25708283 -9.74607804 0.00233 0.050034 0.006361
2420 0.8268849 1.23927768 -9.727674480000001 -0.008237999999999999 0.052283 -0.014011
2440 0.8333202600000001 1.22699556 -9.727674480000001 -0.019925 0.050245 -0.026909
2460 0.8693916300000001 1.2454089300000002 -9.76030254 -0.01882 0.06300700000000001 -0.022645
2480 0.8768766600000001 1.2359815200000002 -9.755368110000001 -0.015691 0.059749 -0.0098
2500 0.9241804800000001 1.2436137 -9.752670360000002 -0.019959 0.072496 0.002972
2520 0.93869928 1.2927127500000002 -9.779010210000001 -0.017787 0.093743 0.015778999999999998
2540 0.92208114 1.2927127500000002 -9.66121173 -0.008286 0.085132 0.029743
2560 0.78286743 1.1632305600000001 -9.57932766 0.000134 0.06271900000000001 0.033035
2580 0.6554845799999999 1.08494676 -9.700128000000001 0.006511 0.055248 0.030953
2600 0.60354063 1.1618865900000004 -9.926611470000001 0.006520999999999999 0.051012 0.024549
2620 0.71940654 1.31411817 -9.860295870000002 -0.008367 0.048985 0.011629
2640 0.85472568 1.25274681 -9.70491528 -0.013638999999999998 0.045876 -0.005495
2660 0.8777791800000001 1.17894618 -9.70821144 -0.010367 0.054416999999999986 -0.012961000000000002
2680 0.9310671 1.2457130400000003 -9.75685923 -0.0029230000000000003 0.050125 -0.011835
2700 0.9660888000000001 1.27279845 -9.72497673 0.002306 0.034098 -0.0043
2720 0.84095244 1.2777426900000002 -9.771378030000001 0.003268 0.019147 0.0042710000000000005
2740 0.7444024200000001 1.2650191200000003 -9.81868185 0.012822 0.0073989999999999985 0.003285
2760 0.7319731500000001 1.27534905 -9.775723860000001 0.025638 0.01055 0.00337
2780 0.74949381 1.2555917100000002 -9.72587925 0.021371 0.013748 0.006541
2800 0.8415508500000001 1.2274468200000002 -9.71344998 -0.005306 0.013837 0.007423000000000002
2820 0.8952900300000001 1.2530411099999998 -9.7029729 -0.020184 0.028795 0.009436
2840 0.89962605 1.23418629 -9.70701462 -0.014768 0.047946 0.010518
2860 0.89199387 1.1966139900000001 -9.78919299 -0.0040950000000000005 0.051096 0.012725
2880 0.9186378300000001 1.2439178100000001 -9.81 -0.000961 0.03405 0.010632
2900 0.9367569000000001 1.25708283 -9.74248758 0.003244 0.015941999999999998 0.006412
2920 0.8872065900000001 1.24555608 -9.67692735 0.010702 0.006359 -0.001002
2940 0.8207438400000001 1.21427199 -9.680821920000001 0.006492 0.008546999999999999 -0.011716
2960 0.8098155 1.16741943 -9.72064071 -0.0008699999999999999 0.024582 -0.019266
2980 0.82748331 1.25200125 -9.79593246 -0.001894 0.034173 -0.019285
3000 0.8226862200000001 1.2560331599999999 -9.70476813 -0.004085 0.02458 -0.016083
3020 0.8134059600000001 1.17056844 -9.668392650000001 -0.007353 0.014982 -0.010753
3040 0.8057737800000001 1.11218913 -9.78215922 -0.00842 0.022413 -0.003292
3060 0.74409831 1.17011718 -9.86883057 0.000125 0.034063 0.006367
3080 0.76102056 1.23837516 -9.819427410000001 0.001177 0.03829 0.013846
3100 0.8502327000000002 1.3082812199999998 -9.67842828 -0.00521 0.044692 0.016998
3120 0.86834196 1.2816372600000001 -9.64354392 -0.012635 0.054304999999999985 0.016934
3140 0.8834591700000001 1.25633727 -9.66166299 -0.01151 0.067084 0.016925
3160 0.8827136099999999 1.2513930300000002 -9.736797780000002 -0.007214 0.074522 0.018014
3180 0.8761311 1.20634551 -9.783807300000001 -0.006181 0.067062 0.018031
3200 0.8571193200000001 1.2081407400000002 -9.81254079 -0.000909 0.047889 0.012751
3220 0.8880993 1.21546881 -9.72078786 0.007593000000000002 0.030854000000000006 0.003218
3240 0.84843747 1.20933756 -9.668392650000001 0.009765 0.029819 -0.006379
3260 0.8044298100000001 1.19271942 -9.744135660000001 0.004478 0.034125 -0.012831
3280 0.80173206 1.21322232 -9.813139200000002 -0.001884 0.039486 -0.016087
3300 0.86340753 1.25633727 -9.779314320000001 -0.004009 0.041624 -0.016105
3320 0.85501998 1.2710032199999999 -9.74114361 0.001287 0.037327 -0.011789
3340 0.81610371 1.2332837700000001 -9.731412090000001 0.005483 0.026639 -0.006405
3360 0.7804737900000001 1.21442895 -9.796226760000001 0.001134 0.019154 0.004256
3380 0.78347565 1.23163569 -9.79443153 -0.005282 0.01492 0.003149
3400 0.74545209 1.2470570100000002 -9.74264454 -0.005258 0.018124 0.001008
3420 0.67434921 1.23687423 -9.74473407 -0.006305 0.025572 0.004196
3440 0.70757568 1.2220611300000002 -9.708358590000001 -0.010597 0.023443 0.007373
3460 0.7789826700000001 1.22325795 -9.71883567 -0.009535 0.022374 0.007382
3480 0.82598238 1.22115861 -9.72303435 -0.006305 0.027694 0.00633
3500 0.84724065 1.2064926599999997 -9.73380573 -0.003086 0.030883 0.00528
3520 0.8421492600000001 1.22565159 -9.74308599 -0.004133 0.033025 0.003133
3540 0.8523320400000001 1.2148704000000001 -9.77392863 -0.003062 0.03727 0.00634
3560 0.87013719 1.2190690800000001 -9.75416148 -0.007286 0.046872 0.006298
3580 0.9093575700000001 1.2060414 -9.70521939 -0.008334000000000001 0.049015 0.004152
3600 0.90022446 1.2115840500000001 -9.74264454 -0.001932 0.047932 0.00313
3620 0.9123496200000001 1.1518509600000002 -9.768385980000001 0.000211 0.045811 -0.001125
3640 0.92013876 1.14751494 -9.82152675 -0.001918 0.042639 -0.005409000000000001
3660 0.89678115 1.21412484 -9.79069392 -0.007252 0.038414 -0.009714
3680 0.8672922900000001 1.2278980800000001 -9.751326390000001 -0.0083 0.040557 -0.01186
3700 0.8448470100000001 1.26187992 -9.751326390000001 -0.004057 0.03946 -0.007556
3720 0.7885572300000001 1.2543948900000002 -9.739642680000001 -0.004079999999999999 0.039438 -0.002215
3740 0.7446967200000001 1.2488522400000002 -9.764942670000002 -0.004118999999999999 0.035160000000000004 0.002063
3760 0.70757568 1.2723570000000002 -9.74248758 -0.007353 0.029836 0.004183
3780 0.7006890600000001 1.25723979 -9.7348554 -0.008439 0.02664 0.005248
3800 0.7113231000000001 1.2549933 -9.75386718 -0.0063100000000000005 0.027689 0.007398
3820 0.6991979400000001 1.27085607 -9.77751909 -0.007367 0.033007 0.010588
3840 0.7249393800000001 1.2656175300000003 -9.78485697 -0.006291 0.035133 0.010593
3860 0.79350147 1.25184429 -9.724074210000001 0.001191 0.03512 0.007441
3880 0.8129547 1.1900216700000001 -9.680664960000001 0.007612000000000002 0.036176 0.00428
3900 0.8464852800000001 1.19391624 -9.71779581 0.011879 0.032978 0.001109
3920 0.86340753 1.21546881 -9.759556980000001 0.011894 0.032991 -0.002096
3940 0.87388461 1.25887806 -9.77333022 0.008717 0.038328 -0.002125
3960 0.8660954700000001 1.23882642 -9.76419711 0.003426 0.044751 -0.005375
3980 0.8934948 1.23927768 -9.72722322 -0.000822 0.050088 -0.004343
4000 0.86909733 1.20783663 -9.70851555 -0.001923 0.049001 0.00206
4020 0.8388531 1.2029022 -9.74877579 -0.001971 0.042592000000000005 0.006340999999999999
4040 0.81670212 1.20663981 -9.78275763 -0.003086 0.034066 0.008481
4060 0.7632670500000001 1.23148854 -9.7547697 -0.000947 0.041489 0.014895
4080 0.7535355300000001 1.2680111699999999 -9.75102228 -0.000937 0.04362 0.014893
4100 0.73302282 1.31576625 -9.721386270000002 -0.004128 0.04364 0.012734
4120 0.7188081300000001 1.33148187 -9.70940826 -0.000904 0.04365 0.0074150000000000015
4140 0.7429014899999999 1.30079619 -9.71809011 0.000182 0.043663 0.00315
4160 0.7530842700000001 1.27744839 -9.70806429 -0.001932 0.044749 -7.099999999999999e-05
4180 0.74365686 1.23298947 -9.75700638 -0.002999 0.044752 -7.8e-05
4200 0.77239035 1.19496591 -9.78170796 -0.0008609999999999999 0.043688 -0.002198
4220 0.8123562900000001 1.20379491 -9.76809168 0.004459 0.041535 -0.00109
4240 0.8752285799999999 1.22385636 -9.72273024 0.006569 0.040445 0.003199
4260 0.88795215 1.21383054 -9.708809850000002 0.004411 0.03937 0.007458
4280 0.8767295100000001 1.1903257800000004 -9.76180347 0.000134 0.038315 0.008498
4300 0.84992859 1.2600748800000001 -9.76898439 0.00333 0.0383 0.009588
4320 0.82598238 1.25259966 -9.759851280000001 0.00334 0.03937 0.008519
4340 0.81416133 1.23747264 -9.755809560000001 0.001196 0.037246 0.008506
4360 0.7810722000000001 1.2100831200000002 -9.75850731 -0.002019 0.033001 0.007421
4380 0.7426071900000001 1.2573869400000002 -9.764795520000002 0.0033200000000000005 0.032986 0.00639
4400 0.7355734200000001 1.22804523 -9.74099646 0.0065260000000000006 0.03298 0.005344
4420 0.7438040100000001 1.25693568 -9.731559240000001 0.004386999999999999 0.0298 0.003197
4440 0.7908037200000001 1.25664138 -9.73860282 0.0044020000000000005 0.032996 0.003193
4460 0.8066763 1.26157581 -9.77407578 0.002278 0.035133 0.003176
4480 0.8448470100000001 1.2509515800000002 -9.73440414 0.00334 0.033003 0.002117
4500 0.8433460799999999 1.2495978 -9.72273024 0.002282 0.036199 0.003174
4520 0.8403540300000001 1.21651848 -9.72064071 0.002297 0.039395 0.00317
4540 0.83915721 1.18673532 -9.77482134 0.001235 0.040464 0.003161
4560 0.8583161400000001 1.2162241800000002 -9.73650348 -0.0008990000000000002 0.042593 0.00528
4580 0.8162508599999999 1.2205602 -9.72992097 -0.003038 0.042596 0.006334
4600 0.80682345 1.20678696 -9.733207320000002 -0.004104 0.0426 0.006326
4620 0.79319736 1.2347847 -9.744135660000001 -0.0040950000000000005 0.041547 0.003123
4640 0.795591 1.2457130400000003 -9.75312162 -0.005162 0.04049 0.002049
4660 0.78122916 1.22819238 -9.7784118 -0.005167000000000001 0.040486 0.003117
4680 0.777933 1.22565159 -9.75776175 -0.006233 0.04049 0.003109
4700 0.79769034 1.2394248300000001 -9.731412090000001 -0.008372 0.038371 0.002029
4720 0.80562663 1.23358788 -9.75356307 -0.005162 0.042612 0.004182
4740 0.8116107300000001 1.22804523 -9.76224492 -0.0040950000000000005 0.04473 0.006323
4760 0.8107180199999999 1.22086431 -9.77646942 -0.003047 0.040466 0.006336
4780 0.8048810700000001 1.23852231 -9.723927060000001 -0.001971 0.04047 0.004207
4800 0.82927854 1.21981464 -9.755368110000001 -0.003018 0.042613 0.002061
4820 0.80921709 1.20350061 -9.740093940000001 -0.004065999999999999 0.046878 0.002048
4840 0.8180460900000001 1.20020445 -9.76988691 -0.007256999999999999 0.050081 0.00309
4860 0.8313680700000001 1.2231108000000002 -9.780962400000002 -0.0062 0.046885 0.002033
4880 0.81880146 1.21082868 -9.73860282 -0.005147 0.042625 0.000978
4900 0.8288272799999999 1.23538311 -9.74803023 -0.005162 0.04049 0.002049
4920 0.8210381400000001 1.2278980800000001 -9.73889712 -0.004085 0.040495 -8e-05
4940 0.80233047 1.1795445900000001 -9.739642680000001 -0.005167000000000001 0.037303 -8.4e-05
4960 0.79664067 1.2380710499999998 -9.77692068 -0.001985 0.035153 0.002078
4980 0.80547948 1.26920799 -9.77661657 -0.0052 0.031968 0.002059
5000 0.79618941 1.24211277 -9.76464837 -0.006267 0.031972 0.002052
5020 0.7879588200000001 1.22115861 -9.7260264 -0.006253 0.035168 0.002048
5040 0.78556518 1.22010894 -9.74967831 -0.005181 0.036229 0.002054
5060 0.7682014800000001 1.2521484 -9.76628664 -0.0062380000000000005 0.037302 0.000977
5080 0.7984359000000001 1.1996060400000002 -9.74248758 -0.006229 0.041555 0.003108
5100 0.8102667600000001 1.21292802 -9.73920123 -0.005157 0.044738 0.005248
5120 0.8213422499999999 1.2223554300000001 -9.73724904 -0.006219 0.045807 0.005239
5140 0.8405011800000001 1.21352643 -9.74982546 -0.006214 0.047934 0.006305
5160 0.84604383 1.22385636 -9.74293884 -0.0062 0.047946 0.0031
5180 0.83556675 1.22041305 -9.75372003 -0.004076 0.043686 0.000984
5200 0.82463841 1.22430762 -9.74698056 -0.00409 0.03943 -7.900000000000001e-05
5220 0.82358874 1.23837516 -9.74234043 -0.005167000000000001 0.036242 -0.001151
5240 0.8051753700000001 1.22415066 -9.752219100000001 -0.007291 0.03838 -0.001168
5260 0.8177517900000001 1.2274468200000002 -9.72946971 -0.006229 0.038372 -9.3e-05
5280 0.8373619800000001 1.23148854 -9.751326390000001 -0.004118999999999999 0.037282 0.004196
5300 0.8114635800000001 1.21397769 -9.75372003 -0.003066 0.036205 0.006342
5320 0.8110123200000001 1.2323910599999999 -9.75072798 -0.004152 0.031947 0.006339
5340 0.80547948 1.24376085 -9.759252870000001 -0.002004 0.033014 0.004217
5360 0.7735871700000001 1.24211277 -9.75312162 -0.0041140000000000005 0.036225 0.002061
5380 0.79290306 1.27220004 -9.736954740000002 -0.004133 0.028781 -0.001134
5400 0.78182757 1.2603789900000002 -9.74503818 -0.004104 0.034112 -0.002209
5420 0.8015849100000001 1.2638223 -9.751473540000001 -0.005157 0.040494 0.00098
5440 0.8273263500000001 1.22520033 -9.763147440000001 -0.007305 0.038367 0.002036
5460 0.82777761 1.23268536 -9.731412090000001 -0.001966 0.039414 0.002072
5480 0.8315250300000001 1.20993597 -9.74473407 0.001249 0.043659 0.003157
5500 0.85322475 1.20469743 -9.75685923 0.001215 0.039385 0.006367
5520 0.8402068800000001 1.2175681500000002 -9.772280550000001 0.001201 0.03619 0.006371
5540 0.8406483299999999 1.2470570100000002 -9.75850731 0.0044020000000000005 0.03724 0.007461
5560 0.8195470199999999 1.2488522400000002 -9.72871434 0.005478 0.037244 0.005332
5580 0.82059669 1.2600748800000001 -9.724525470000001 0.005478 0.037244 0.005332
5600 0.80472411 1.2633710399999998 -9.74832453 0.0033490000000000004 0.035134 0.002115
5620 0.7939527300000001 1.2219041700000002 -9.731412090000001 0.00122 0.035146 0.001032
5640 0.7920005400000001 1.22550444 -9.763147440000001 -0.000889 0.039419 -5.7e-05
5660 0.8198413200000001 1.2578382000000001 -9.76030254 -0.003018 0.043674 0.003128
5680 0.8107180199999999 1.28776851 -9.74683341 -0.005143 0.045812 0.0031100000000000004
5700 0.82777761 1.2406216500000002 -9.767787570000001 -0.003038 0.041535 0.005267
5720 0.8162508599999999 1.23897357 -9.75341592 0.000149 0.037267 0.004226
5740 0.81730053 1.25035317 -9.74174202 0.001196 0.033002 0.004239
5760 0.8039785500000001 1.2650191200000003 -9.73081368 0.002273 0.034068 0.003177
5780 0.79350147 1.2464585999999998 -9.731412090000001 0.002278 0.035133 0.003176
5800 0.8057737800000001 1.2590350200000002 -9.75326877 0.00334 0.033003 0.002117
5820 0.83227059 1.2436137 -9.76764042 0.0012109999999999998 0.035137 0.003168
5840 0.8381075400000001 1.24181847 -9.74862864 0.002282 0.036199 0.003174
5860 0.80921709 1.2271525200000002 -9.71449965 0.000139 0.036198 0.005296
5880 0.81311166 1.20110697 -9.731412090000001 0.002278 0.038316 0.006376
5900 0.80562663 1.22070735 -9.75027672 0.003344 0.039374 0.00745
5920 0.80367444 1.20694392 -9.75760479 0.000149 0.039389 0.00636
5940 0.8222447700000001 1.22415066 -9.765246780000002 0.002278 0.037255 0.005309
5960 0.84499416 1.2376296 -9.735306660000001 0.003344 0.03513 0.003183
5980 0.8183502000000001 1.26247833 -9.73800441 0.002287 0.036203 0.002106
6000 0.8041257 1.25394363 -9.73979964 0.0044210000000000005 0.036196 0.002121
6020 0.83540979 1.26815832 -9.76254903 0.002292 0.037268 0.002105
6040 0.83376171 1.24840098 -9.727370370000001 -0.000923 0.036206 0.004220000000000001
6060 0.8163980100000001 1.24555608 -9.764795520000002 -0.002 0.036201 0.0063490000000000005
6080 0.8114635800000001 1.2295461600000002 -9.731863350000001 -0.00198 0.041523 0.007411
6100 0.7857123300000001 1.2205602 -9.728115930000001 -0.000909 0.042584 0.007417
6120 0.8138572199999999 1.21068153 -9.76149936 -0.003052 0.038339 0.0052710000000000005
6140 0.8032329899999999 1.23358788 -9.74428281 0.00122 0.037268 0.003165
6160 0.8162508599999999 1.24031754 -9.71674614 0.000144 0.035141000000000006 0.003161
6180 0.8222447700000001 1.2546891900000001 -9.75910572 0.002287 0.038325 0.00424
6200 0.82358874 1.2506474699999999 -9.74248758 0.00016299999999999998 0.041524 0.005289
6220 0.80247762 1.2754962 -9.751473540000001 -0.001971 0.041531 0.005274
6240 0.7896069 1.24990191 -9.77737194 0.000149 0.038328 0.005293
6260 0.8101196099999999 1.2407688000000001 -9.75836016 0.00122 0.03939 0.005299
6280 0.8189486100000001 1.2439178100000001 -9.7029729 0.0012109999999999998 0.037259 0.005302
6300 0.81311166 1.20663981 -9.7203366 -0.000909 0.037279 0.002082
6320 0.8108651700000001 1.17834777 -9.77333022 -0.003033 0.039417 0.002065
6340 0.8306225100000001 1.24136721 -9.77392863 -0.001971 0.038348 0.002074
6360 0.8388531 1.2734066700000002 -9.764795520000002 -0.003042 0.038348 0.003134
6380 0.84619098 1.20274524 -9.739946790000001 -0.004118999999999999 0.036221 0.003129
6400 0.81610371 1.21801941 -9.735757920000001 -0.004128 0.035152 0.0041990000000000005
6420 0.7813763100000001 1.25887806 -9.74188917 -0.000913 0.036214 0.002084
6440 0.7788257100000001 1.2481066800000002 -9.75640797 -0.000918 0.03621 0.003152
6460 0.78407406 1.22086431 -9.73021527 -0.003057 0.036213 0.004205
6480 0.80787312 1.2317926500000003 -9.73635633 -0.004118999999999999 0.037282 0.004196
6500 0.82478556 1.2190690800000001 -9.73006812 -0.00199 0.03727 0.005279
6520 0.82463841 1.25319807 -9.759409830000001 0.001206 0.036194 0.005303
6540 0.8176046400000001 1.23703119 -9.74683341 0.000149 0.036206 0.003159
6560 0.79783749 1.2202659 -9.72243594 -0.000923 0.035145 0.003153
6580 0.79050942 1.22804523 -9.74159487 -0.000918 0.03621 0.003152
6600 0.79185339 1.22460192 -9.7607538 -0.001966 0.039414 0.002072
6620 0.7996327200000001 1.23657993 -9.77302611 -0.000904 0.040467 0.004215
6640 0.8098155 1.22115861 -9.749227050000002 0.00123 0.040459 0.004229999999999999
6660 0.8234415900000001 1.2175681500000002 -9.73724904 -0.000909 0.040462 0.005283
6680 0.8297199900000001 1.2263971500000002 -9.75312162 -0.004109000000000001 0.038352 0.003127
6700 0.8270320499999999 1.21307517 -9.752817510000002 -0.001995 0.035144 0.004214
6720 0.8252368200000001 1.24031754 -9.75865446 0.002297 0.039395 0.00317
6740 0.81131643 1.2457130400000003 -9.74428281 -0.001956 0.039422000000000006 -6.4e-05
6760 0.7969447800000001 1.2290949000000002 -9.74982546 -0.004109000000000001 0.035169 -7.4e-05
6780 0.78286743 1.2436137 -9.75895857 -0.003042 0.039409 0.004201
6800 0.79020531 1.2488522400000002 -9.76209777 -0.0041 0.041543 0.004190999999999999
6820 0.79754319 1.24301529 -9.74728467 -0.004109000000000001 0.039413 0.004194
6840 0.78706611 1.20993597 -9.73470825 -0.000904 0.040467 0.004215
6860 0.7984359000000001 1.22819238 -9.74293884 0.000153 0.037271 0.003158
6880 0.80472411 1.2295461600000002 -9.75207195 0.00015800000000000002 0.039398 0.004224
6900 0.79469829 1.22775093 -9.755809560000001 -0.001966 0.042597 0.005273
6920 0.8020361700000002 1.2340293300000003 -9.75401433 -0.001952 0.044732 0.004202
6940 0.7866148500000001 1.20978882 -9.70821144 -0.0008939999999999998 0.041536 0.003145
6960 0.81924291 1.2325382100000002 -9.752219100000001 -0.00409 0.040491 0.0009880000000000002
6980 0.8057737800000001 1.24915635 -9.77347737 -0.004085 0.040495 -8e-05
7000 0.81730053 1.2261028499999997 -9.74563659 -0.005152 0.040499 -8.8e-05
7020 0.8348113800000001 1.19286657 -9.715990770000001 -0.006205 0.042637 -0.001166
7040 0.81999828 1.2322341 -9.74563659 -0.008353 0.04051 -0.00011
7060 0.8032329899999999 1.2650191200000003 -9.77617512 -0.009429 0.037322 -0.001182
7080 0.81939987 1.2322341 -9.76195062 -0.010506 0.036256 -0.00012
7100 0.82507986 1.21936338 -9.75700638 -0.0073 0.038371 0.000968
7120 0.7650622800000001 1.2081407400000002 -9.719738190000001 -0.007295 0.040498 0.002034
7140 0.7833186900000001 1.2573869400000002 -9.744439770000001 -0.007291 0.040502 0.000965
7160 0.7937957700000001 1.2261028499999997 -9.73724904 -0.008362 0.040501 0.002026
7180 0.8033801400000001 1.2231108000000002 -9.77287896 -0.009429 0.040505 0.002019
7200 0.81251325 1.23523596 -9.744439770000001 -0.007281 0.042632 0.000963
7220 0.8252368200000001 1.22594589 -9.7263207 -0.005133 0.045821 0.000974
7240 0.8032329899999999 1.22594589 -9.74114361 -0.004071 0.044752 0.000982
7260 0.81131643 1.20214683 -9.73126494 -0.005152 0.040499 -8.8e-05
7280 0.80861868 1.20274524 -9.75446559 -0.0041 0.037299 -7.6e-05
7300 0.8152011900000001 1.2148704000000001 -9.77333022 -0.0041 0.039421 0.002057
7320 0.81430848 1.2117312 -9.7519248 -0.004079999999999999 0.043682 0.002052
7340 0.8282288700000001 1.21876497 -9.747431820000001 -0.007271 0.043702 -0.000107
7360 0.82808172 1.2295461600000002 -9.740093940000001 -0.007286 0.041567 0.000964
7380 0.8414037000000001 1.23657993 -9.755211150000001 -0.006243 0.036237 0.000978
7400 0.8420021099999999 1.2308901300000001 -9.76090095 -0.004118999999999999 0.034099000000000004 0.000996
7420 0.8048810700000001 1.2344805900000002 -9.737101890000002 -0.004128 0.033030000000000004 0.002065
7440 0.7789826700000001 1.2488522400000002 -9.739348380000001 -0.001971 0.038348 0.002074
7460 0.78122916 1.26187992 -9.760008240000001 -0.005143 0.04369 0.000976
7480 0.7776288900000001 1.2651662700000001 -9.775723860000001 -0.0062380000000000005 0.036241 -9e-05
7500 0.8020361700000002 1.26652005 -9.77003406 -0.0062380000000000005 0.037302 0.000977
7520 0.80233047 1.2521484 -9.73246176 -0.0040950000000000005 0.041547 0.003123
7540 0.7863107400000001 1.2457130400000003 -9.71404839 -0.006214 0.044751 0.003104
7560 0.8156524500000002 1.23119424 -9.73440414 -0.003009 0.044744 0.002058
7580 0.79783749 1.22295384 -9.76195062 0.000197 0.045798 0.002079
7600 0.8071177500000001 1.21831371 -9.7610481 -0.000904 0.040467 0.004215
7620 0.82927854 1.23029172 -9.75087513 0.000153 0.040454 0.006359
7640 0.84724065 1.2325382100000002 -9.723328650000001 0.00015800000000000002 0.042581 0.007423999999999998
7660 0.8415508500000001 1.2434665500000002 -9.733207320000002 0.000168 0.041528 0.004221
7680 0.8214894 1.2467529000000002 -9.755515260000001 0.002282 0.03726 0.004241
7700 0.81595656 1.24196562 -9.75102228 0.004397 0.03193 0.003194
7720 0.8038314000000001 1.26846243 -9.76704201 0.002258 0.030872000000000007 0.003181
7740 0.7825731300000001 1.24855794 -9.70716177 0.0033350000000000003 0.032999 0.003186
7760 0.8032329899999999 1.2205602 -9.74114361 0.0012109999999999998 0.034076 0.002101
7780 0.80921709 1.26755991 -9.77737194 -0.000942 0.028762 0.001025
7800 0.8240400000000001 1.2919671900000003 -9.76300029 -0.002009 0.028765 0.001017
7820 0.8298769500000001 1.24765542 -9.74308599 -0.000937 0.031949 0.003157
7840 0.83181933 1.24750827 -9.73231461 0.00333 0.039361 0.010655
7860 0.81175788 1.24181847 -9.70476813 0.0076209999999999984 0.049977 0.016013
7880 0.80307603 1.25349237 -9.73784745 0.009755 0.046787 0.012827000000000002
7900 0.79424703 1.25334522 -9.74578374 0.000139 0.036198 0.005296
7920 0.80367444 1.2732497100000002 -9.755966520000001 -0.005219 0.021341 -0.004337
7940 0.8213422499999999 1.25963343 -9.76434426 -0.006281 0.017105000000000002 -0.00968
7960 0.85637376 1.2666672 -9.740545200000001 -0.004143 0.022407 -0.005399
7980 0.83975562 1.2488522400000002 -9.721386270000002 -0.004118999999999999 0.034099000000000004 0.000996
8000 0.84124674 1.21981464 -9.72572229 0.004397 0.039357 0.010662
8020 0.8134059600000001 1.25543475 -9.744439770000001 0.009717 0.04357 0.018172
8040 0.8129547 1.2546891900000001 -9.772280550000001 0.007587999999999998 0.044643 0.018156
8060 0.83227059 1.22864364 -9.76090095 0.005464 0.042537 0.013871
8080 0.8271792000000001 1.23298947 -9.732010500000001 0.00016299999999999998 0.041524 0.005289
8100 0.82897443 1.2323910599999999 -9.73874997 -0.004079999999999999 0.038377 -0.003282
8120 0.8102667600000001 1.2796850700000002 -9.751326390000001 -0.005152 0.032011000000000005 -0.008623
8140 0.7548795 1.34255736 -9.747883080000001 -0.003038 0.033047 -0.003268
8160 0.7562234700000001 1.3099292999999999 -9.740241090000001 -0.000918 0.035149 0.002085
8180 0.77329287 1.2452617800000003 -9.72871434 -0.000952 0.032997000000000005 0.007429000000000002
8200 0.82373589 1.1677235400000001 -9.74952135 -0.000947 0.038306 0.011695
8220 0.87792633 1.14945732 -9.75372003 -0.000933 0.041502 0.011691
8240 0.8753757300000001 1.14496434 -9.763294590000001 -0.001995 0.039388 0.008481
8260 0.85188078 1.21218246 -9.74428281 -0.00199 0.036209 0.004213000000000001
8280 0.81490689 1.2954105 -9.746235 0.00016299999999999998 0.036219 -4.5e-05
8300 0.80562663 1.32639048 -9.74638215 0.002302 0.035155 -0.002165
8320 0.7620604200000001 1.31636466 -9.76584519 0.001244 0.040472 0.001025
8340 0.75518361 1.2790866600000002 -9.75386718 0.000187 0.044728 0.003149
8360 0.76490532 1.22265954 -9.75401433 -0.000904 0.044711 0.008482
8380 0.7969447800000001 1.1906200800000002 -9.755515260000001 0.00015800000000000002 0.044703 0.009558
8400 0.8301712500000001 1.14766209 -9.72707607 0.00016299999999999998 0.044707 0.008490000000000001
8420 0.8416980000000001 1.17909333 -9.73336428 0.00122 0.040451 0.006365999999999999
8440 0.82239192 1.19047293 -9.71854137 0.001215 0.037263 0.004234
8460 0.8198413200000001 1.20334365 -9.75027672 0.000153 0.03621 0.002091
8480 0.8044298100000001 1.2623213700000002 -9.77422293 -0.00198 0.034096 -5.8e-05
8500 0.81416133 1.30064904 -9.7929306 -0.00199 0.034087 0.002079
8520 0.82612953 1.25887806 -9.76090095 -0.000909 0.037279 0.002082
8540 0.82194066 1.2451146300000002 -9.737101890000002 -0.000928 0.03514 0.004221
8560 0.77119353 1.23777675 -9.73096083 -0.003071 0.035139 0.006343
8580 0.7674559200000002 1.2434665500000002 -9.74683341 -0.000923 0.035145 0.003153
8600 0.75982374 1.2223554300000001 -9.74293884 -0.001985 0.036214 0.003144
8620 0.7960422600000001 1.2293892 -9.743537250000001 -0.003052 0.037278 0.004204
8640 0.8026345800000001 1.23059583 -9.759556980000001 -0.000918 0.03621 0.003152
8660 0.8107180199999999 1.24376085 -9.768238830000001 0.001215 0.036202 0.003167
8680 0.81115947 1.23882642 -9.75162069 0.000139 0.035137 0.004229
8700 0.80936424 1.22969331 -9.72183753 -0.000923 0.036206 0.004220000000000001
8720 0.80562663 1.24136721 -9.73081368 -0.000913 0.037275 0.003151
8740 0.8009865 1.2223554300000001 -9.73500255 -0.0008990000000000002 0.040471 0.003147
8760 0.79919127 1.20963186 -9.740093940000001 -0.0019760000000000003 0.039405 0.004209
8780 0.8152011900000001 1.22175702 -9.7607538 -0.0019760000000000003 0.038344 0.0031420000000000003
8800 0.80682345 1.22594589 -9.767934720000001 -0.000918 0.03621 0.003152
8820 0.81939987 1.2169697400000001 -9.74877579 -0.001985 0.037275 0.004211
8840 0.8156524500000002 1.22160987 -9.73246176 -0.000909 0.03834 0.003149
8860 0.7939527300000001 1.2323910599999999 -9.74503818 0.000153 0.038332 0.004225
8880 0.8253839700000001 1.2350790000000003 -9.77347737 -0.005181 0.036229 0.002054
8900 0.8012807999999999 1.23119424 -9.74533248 -0.004124 0.034095 0.002064
8920 0.8006823900000002 1.23703119 -9.756564930000001 -0.003042 0.04047 0.005268
8940 0.7864677000000001 1.25543475 -9.756260820000001 -0.005171 0.040482 0.004185
8960 0.7909508700000001 1.2424168800000002 -9.73605222 -0.0041140000000000005 0.037286 0.003128
8980 0.80053524 1.2404745000000001 -9.72183753 -0.00198 0.03834 0.00421
9000 0.79888716 1.23029172 -9.759556980000001 0.00122 0.037268 0.003165
9020 0.8089129800000001 1.2213057600000001 -9.752366250000001 0.00015800000000000002 0.039398 0.004224
9040 0.7885572300000001 1.2214627199999997 -9.755662410000001 -0.003033 0.041539 0.004198
9060 0.8074218599999999 1.22325795 -9.7493742 -0.003018 0.043674 0.003128
9080 0.79574796 1.22804523 -9.74578374 -0.005143 0.044751 0.002043
9100 0.80802027 1.2177153 -9.73724904 -0.006209 0.044755 0.002036
9120 0.78750756 1.2323910599999999 -9.73874997 -0.006229 0.040494 0.002041
9140 0.8180460900000001 1.22819238 -9.7667379 -0.006229 0.037311 -0.00116
9160 0.7996327200000001 1.2361286699999998 -9.72198468 -0.006233 0.037307 -9.1e-05
9180 0.8138572199999999 1.2091806 -9.74638215 -0.006233 0.038368 0.000976
9200 0.82942569 1.2340293300000003 -9.780511140000002 -0.006229 0.039433 0.000974
9220 0.8186445 1.2394248300000001 -9.7695828 -0.006243 0.038359 0.003112
9240 0.7984359000000001 1.2308901300000001 -9.755662410000001 -0.007315 0.036237 0.002039
9260 0.80966835 1.21053438 -9.73081368 -0.006257 0.036224 0.004183
9280 0.77523525 1.23418629 -9.740398050000001 -0.005167000000000001 0.039425 0.00205
9300 0.7725473100000001 1.25873091 -9.752219100000001 -0.0062380000000000005 0.037302 0.000977
9320 0.79679763 1.23553026 -9.72976401 -0.006229 0.038372 -9.3e-05
9340 0.79574796 1.2070910700000002 -9.73515951 -0.004109000000000001 0.03623 0.000993
9360 0.80861868 1.22729967 -9.76149936 -0.005162 0.039429 0.000982
9380 0.7954438500000001 1.21247676 -9.74593089 -0.005162 0.039429 0.000982
9400 0.8157996000000001 1.21517451 -9.743841360000001 -0.005152 0.042621 0.002046
9420 0.8195470199999999 1.2240035100000002 -9.72992097 -0.005147 0.045808 0.004178
9440 0.8069706000000001 1.20529584 -9.723328650000001 -0.005157 0.044738 0.005248
9460 0.8231374800000001 1.23703119 -9.75176784 -0.005152 0.044743 0.00418
9480 0.8095212000000002 1.22295384 -9.75431844 -0.004071 0.044752 0.000982
9500 0.8107180199999999 1.22819238 -9.76508982 -0.007276 0.042637 -0.000105
9520 0.81595656 1.2406216500000002 -9.74547963 -0.008348000000000001 0.040514 -0.001178
9540 0.8211951000000001 1.2467529000000002 -9.75207195 -0.007281 0.039449 -0.002238
9560 0.8098155 1.2470570100000002 -9.75640797 -0.006229 0.038372 -9.3e-05
9580 0.80562663 1.2337350300000003 -9.74952135 -0.003047 0.037283 0.003136
9600 0.80651934 1.23882642 -9.75836016 -0.0041 0.041543 0.004190999999999999
9620 0.77329287 1.2451146300000002 -9.73231461 -0.008395999999999999 0.035167000000000004 0.004169
9640 0.79439418 1.22699556 -9.743988510000001 -0.007329 0.036224 0.005243
9660 0.79364862 1.24376085 -9.75671208 -0.005167000000000001 0.042608 0.00525
9680 0.7824259800000002 1.2433194000000003 -9.76419711 -0.006224 0.043681 0.004173
9700 0.79469829 1.26187992 -9.7610481 -0.005143 0.042629 -9.1e-05
9720 0.80367444 1.2524427 -9.74607804 -0.001932 0.044749 -7.099999999999999e-05
9740 0.79350147 1.25334522 -9.74607804 -0.0008849999999999998 0.041545 0.001009
9760 0.7833186900000001 1.2507946200000002 -9.767189160000001 -0.001956 0.042605 0.003136
9780 0.8087658299999999 1.24765542 -9.76209777 -0.0008849999999999998 0.044728 0.004209
9800 0.8301712500000001 1.24256403 -9.752523210000001 -0.001956 0.043666 0.004203
9820 0.8198413200000001 1.24690986 -9.744439770000001 0.000168 0.040467 0.003154
9840 0.8327218500000001 1.2481066800000002 -9.72901845 0.00122 0.037268 0.003165
9860 0.8196941700000001 1.2427111800000001 -9.74488122 0.002268 0.031942 0.002111
9880 0.82897443 1.2489993900000003 -9.744439770000001 0.002258 0.030872000000000007 0.003181
9900 0.81400437 1.23119424 -9.72303435 0.001206 0.034072000000000005 0.003169
9920 0.78541803 1.2159200700000001 -9.72153342 0.000139 0.035137 0.004229
9940 0.7866148500000001 1.26741276 -9.75640797 -0.000928 0.036201 0.005288
9960 0.7945511400000002 1.2889653300000001 -9.77482134 0.000134 0.035132 0.005297
9980 0.7893126 1.25873091 -9.75027672 0.002263 0.032999 0.004246
10000 0.83227059 1.2489993900000003 -9.73410984 0.002273 0.033007 0.0021100000000000003
10020 0.8102667600000001 1.24107291 -9.721386270000002 0.0012109999999999998 0.034076 0.002101
10040 0.77478399 1.2487050900000003 -9.72557514 -0.000913 0.037275 0.003151
10060 0.75263301 1.2445162200000002 -9.740398050000001 -0.000909 0.03834 0.003149
10080 0.7912549800000002 1.2427111800000001 -9.77646942 0.002287 0.039386 0.005307
10100 0.8319664800000002 1.27250415 -9.76733631 0.00334 0.037248 0.006385
10120 0.84573972 1.27011051 -9.74488122 0.002263 0.036182 0.007447
10140 0.8469365400000001 1.25992773 -9.721239120000002 0.0033350000000000003 0.036182 0.006386
10160 0.84933018 1.2289477500000001 -9.696390390000001 0.001206 0.036194 0.005303
10180 0.83107377 1.2295461600000002 -9.73815156 0.000149 0.037267 0.004226
10200 0.82179351 1.25334522 -9.739946790000001 0.00015800000000000002 0.038337 0.003157
10220 0.8000839800000001 1.2322341 -9.763294590000001 0.000134 0.035132 0.005297
10240 0.8288272799999999 1.2386694600000003 -9.7493742 0.001201 0.035129 0.005304
10260 0.79035246 1.2608302500000002 -9.74458692 0.000134 0.036193 0.006364
10280 0.8071177500000001 1.2495978 -9.73800441 0.002263 0.03406 0.005313
10300 0.79439418 1.2394248300000001 -9.73051938 0.001201 0.03619 0.006371
10320 0.81939987 1.2590350200000002 -9.74219328 -0.000913 0.038336 0.004217
10340 0.7963463700000001 1.2356774099999999 -9.75836016 -0.001985 0.035153 0.002078
10360 0.80173206 1.2614286599999998 -9.75491685 -0.001971 0.04047 0.004207
10380 0.81490689 1.26247833 -9.74593089 -0.000918 0.039393 0.006352
10400 0.8138572199999999 1.2620270700000003 -9.75296466 -0.003057 0.038335 0.006339
10420 0.7960422600000001 1.24690986 -9.743537250000001 -0.00198 0.03834 0.00421
10440 0.80472411 1.23882642 -9.73380573 0.002302 0.04046 0.003169
10460 0.80307603 1.2263971500000002 -9.74143791 0.001215 0.038324 0.0053
10480 0.81311166 1.21831371 -9.75326877 -0.000909 0.040462 0.005283
10500 0.8162508599999999 1.2379239 -9.748922940000002 -0.0019760000000000003 0.039405 0.004209
10520 0.80562663 1.2278980800000001 -9.76060665 0.00122 0.03939 0.005299
10540 0.7981416 1.2379239 -9.74638215 0.002278 0.037255 0.005309
10560 0.81400437 1.2361286699999998 -9.77032836 0.001215 0.036202 0.003167
10580 0.8207438400000001 1.2237092100000002 -9.736199370000001 0.001215 0.035141000000000006 0.0021
10600 0.8044298100000001 1.2298404600000001 -9.73260891 0.000144 0.035141000000000006 0.003161
10620 0.8062250400000001 1.2274468200000002 -9.73111779 0.00122 0.037268 0.003165
10640 0.7888613400000001 1.2006557100000002 -9.7547697 -0.001985 0.036214 0.003144
10660 0.8066763 1.21322232 -9.787397760000001 -0.0041 0.039421 0.002057
10680 0.8306225100000001 1.27564335 -9.747431820000001 -0.003047 0.038344 0.004202
10700 0.8222447700000001 1.2629197800000003 -9.74547963 0.000144 0.036202 0.004228
10720 0.8152011900000001 1.20798378 -9.733207320000002 0.001201 0.035129 0.005304
10740 0.80218332 1.24226973 -9.7926363 -0.000918 0.037271 0.004219
10760 0.7776288900000001 1.22998761 -9.763147440000001 -0.003042 0.038348 0.003134
10780 0.7914021300000001 1.22819238 -9.7288713 -0.0019760000000000003 0.039405 0.004209
10800 0.79709193 1.2040990200000001 -9.71674614 -0.001961 0.040479 0.002071
10820 0.78272028 1.2290949000000002 -9.751473540000001 -0.00198 0.037279 0.003143
10840 0.79709193 1.23119424 -9.77766624 0.000144 0.036202 0.004228
10860 0.8072747100000001 1.2458601900000001 -9.7465293 -0.000918 0.037271 0.004219
10880 0.8057737800000001 1.2337350300000003 -9.71495091 -0.000913 0.039397 0.0052840000000000005
10900 0.78975405 1.2169697400000001 -9.70596495 -0.00198 0.039401 0.005277
10920 0.78975405 1.2323910599999999 -9.71809011 -0.0019760000000000003 0.039405 0.004209
10940 0.7973960400000001 1.22759397 -9.74698056 -0.0041140000000000005 0.038347000000000006 0.004195
10960 0.8000839800000001 1.2162241800000002 -9.75640797 -0.003042 0.037287 0.0020670000000000003
10980 0.80787312 1.21442895 -9.759704130000001 -0.003052 0.036217 0.003137
11000 0.8165549700000001 1.22041305 -9.755662410000001 -0.001971 0.038348 0.002074
11020 0.80367444 1.2317926500000003 -9.752670360000002 -0.004104 0.038356 0.002059
11040 0.8077161600000001 1.23298947 -9.73724904 -0.001966 0.041536 0.0042060000000000005
11060 0.78272028 1.23538311 -9.736797780000002 -0.001961 0.042601 0.004205
11080 0.8108651700000001 1.2340293300000003 -9.76809168 -0.004109000000000001 0.037291000000000005 0.00206
11100 0.80502822 1.21367358 -9.75895857 -0.005167000000000001 0.041547 0.004184
11120 0.7927559100000001 1.23957198 -9.74578374 -0.006209 0.045816 0.0031030000000000003
11140 0.8102667600000001 1.2319398000000001 -9.772133400000001 -0.008338 0.045828 0.002019
11160 0.8165549700000001 1.23462774 -9.72932256 -0.008353 0.041571 0.000957
11180 0.8027817300000001 1.21921623 -9.728420040000001 -0.005157 0.040494 0.00098
11200 0.8087658299999999 1.1999003400000001 -9.75895857 -0.006229 0.041555 0.003108
11220 0.78541803 1.2213057600000001 -9.77407578 -0.005147 0.043686 0.002045
11240 0.7819747200000001 1.23822801 -9.73889712 -0.006229 0.041555 0.003108
11260 0.80218332 1.2278980800000001 -9.72542799 -0.0041 0.038360000000000005 0.00099
11280 0.79305021 1.21383054 -9.74683341 -0.003042 0.037287 0.0020670000000000003
11300 0.80307603 1.2240035100000002 -9.747578970000001 -0.003047 0.037283 0.003136
11320 0.7997896800000001 1.22160987 -9.73815156 -0.003033 0.038356 0.000998
11340 0.8006823900000002 1.2156257700000002 -9.743684400000001 -0.001971 0.036226 -6e-05
11360 0.78975405 1.23538311 -9.76060665 -0.005167000000000001 0.038364 0.000983
11380 0.81430848 1.2231108000000002 -9.724231170000001 -0.007305 0.037306 0.000969
11400 0.79933842 1.19690829 -9.7582032 -0.006219 0.040502 -9.5e-05
11420 0.8134059600000001 1.25229555 -9.76149936 -0.004079999999999999 0.04156 -8.2e-05
11440 0.8403540300000001 1.2651662700000001 -9.77677353 -0.0030280000000000003 0.040483 0.002063
11460 0.8198413200000001 1.21517451 -9.75491685 -0.004104 0.037295 0.000992
11480 0.80038809 1.19630988 -9.73560096 -0.005176 0.036233 0.000986
11500 0.8089129800000001 1.2094847100000001 -9.75671208 -0.0040950000000000005 0.039425 0.000989
11520 0.7912549800000002 1.21651848 -9.72213183 -0.0040950000000000005 0.040486 0.002056
11540 0.80307603 1.22220828 -9.7345611 -0.006219 0.040502 -9.5e-05
11560 0.78736041 1.2214627199999997 -9.73500255 -0.005167000000000001 0.038364 0.000983
11580 0.79783749 1.23882642 -9.75011976 -0.004104 0.038356 0.002059
11600 0.83122092 1.2582796500000002 -9.75087513 -0.003038 0.038352 0.002066
11620 0.80053524 1.24435926 -9.751473540000001 -0.004104 0.040478 0.004192
11640 0.8006823900000002 1.23119424 -9.755368110000001 -0.005167000000000001 0.039425 0.00205
11660 0.8000839800000001 1.2094847100000001 -9.73650348 -0.008362 0.03944 0.000959
11680 0.78182757 1.2234051000000001 -9.728272890000001 -0.006214 0.04369 0.002037
11700 0.8081674200000002 1.2055901400000002 -9.74668626 -0.006209 0.044755 0.002036
11720 0.8087658299999999 1.2298404600000001 -9.752817510000002 -0.007281 0.042632 0.000963
11740 0.8238830400000001 1.2451146300000002 -9.75850731 -0.007291 0.039441 -0.000101
11760 0.8388531 1.26487197 -9.739946790000001 -0.005162 0.039429 0.000982
11780 0.80996265 1.25050032 -9.695635020000001 -0.005162 0.039429 0.000982
11800 0.7997896800000001 1.22998761 -9.755809560000001 -0.003033 0.040478 0.003132
11820 0.77613777 1.2448105200000001 -9.771378030000001 -0.003023 0.041548 0.002062
11840 0.8190957600000001 1.2379239 -9.76300029 -0.007315 0.034115 -9.5e-05
11860 0.81744768 1.25289396 -9.71988534 -0.005176 0.037294 0.002052
11880 0.8122091400000001 1.21936338 -9.72557514 0.00015800000000000002 0.04152 0.006357
11900 0.80472411 1.23119424 -9.74174202 -0.003038 0.042596 0.006334
11920 0.8234415900000001 1.23897357 -9.7579089 0.00016299999999999998 0.040463 0.004222
11940 0.79154928 1.2325382100000002 -9.755064 0.0044210000000000005 0.039379 0.005322
11960 0.80682345 1.21412484 -9.73066653 0.0033350000000000003 0.035121 0.005319
11980 0.79005816 1.24301529 -9.75162069 0.00015800000000000002 0.040459 0.00529
12000 0.79499259 1.2463114499999999 -9.7582032 -0.001961 0.043662 0.0052710000000000005
12020 0.8108651700000001 1.25573886 -9.759556980000001 0.000182 0.044724 0.004217
12040 0.82598238 1.25409078 -9.759252870000001 -0.003023 0.04367 0.004196
12060 0.81670212 1.2379239 -9.740093940000001 -0.008338 0.046889 0.003086
12080 0.82043973 1.2603789900000002 -9.752523210000001 -0.005138 0.046877 0.003109
12100 0.82089099 1.2603789900000002 -9.74533248 -0.003004 0.050053 0.006324000000000001
12120 0.8234415900000001 1.2573869400000002 -9.74264454 0.000197 0.055347 0.011681
12140 0.82942569 1.2603789900000002 -9.72932256 0.000192 0.054282 0.011682
12160 0.8059209300000001 1.22550444 -9.70072641 -0.005138 0.049 0.005242
12180 0.7973960400000001 1.22415066 -9.76988691 -0.011549 0.036281 -0.005468
12200 0.8244814500000002 1.3069274400000002 -9.767493270000001 -0.014802 0.010782 -0.019345
12220 0.79364862 1.2772914300000002 -9.756564930000001 -0.010606 -0.007334 -0.021429
12240 0.83241774 1.2436137 -9.75087513 -0.004267 -0.009534 -0.009632
12260 0.8039785500000001 1.25768124 -9.727370370000001 -0.001057 0.004256 0.002124
12280 0.7800323400000001 1.2597805800000001 -9.71928693 0.009659 0.030787 0.018188
12300 0.7833186900000001 1.2614286599999998 -9.75207195 0.023605 0.060514 0.031066000000000007
12320 0.7836228 1.23119424 -9.77661657 0.030045 0.072197 0.0343
12340 0.8268849 1.25124588 -9.7519248 0.025811 0.072242 0.026793
12360 0.86011137 1.2470570100000002 -9.73231461 0.014113999999999996 0.06489 0.010698
12380 0.8556183900000001 1.2325382100000002 -9.736199370000001 -0.005071 0.045876 -0.012913
12400 0.8339186700000001 1.22115861 -9.73784745 -0.02537 0.021518 -0.031183
12420 0.8169964200000002 1.21921623 -9.739348380000001 -0.023318 -0.007209 -0.041814
12440 0.8104139100000001 1.2747506400000002 -9.73351143 -0.018103 -0.019005 -0.026808
12460 0.78347565 1.3189054500000001 -9.740545200000001 -0.008607 -0.018071 -0.002173
12480 0.8169964200000002 1.31261724 -9.72707607 0.013797 0.007315 0.023588
12500 0.8182030499999999 1.23732549 -9.72946971 0.037345 0.045497 0.045068
12520 0.8556183900000001 1.1195172 -9.73889712 0.032087 0.068926 0.05141
12540 0.91325214 1.12670793 -9.716147730000001 0.009779 0.076516 0.037358
12560 0.9383951700000001 1.16727228 -9.7377003 -0.00609 0.078814 0.00947
12580 0.8767295100000001 1.25753409 -9.736954740000002 -0.02093 0.068341 -0.022666
12600 0.8098155 1.33911405 -9.74728467 -0.025264 0.034344 -0.041881
12620 0.74215593 1.4917968900000003 -9.795334050000001 -0.015797 0.007666 -0.038576
12640 0.68812245 1.5211386 -9.72377991 -0.002047 0.0032670000000000004 -0.016041999999999997
12660 0.65279664 1.4465924099999998 -9.715990770000001 0.008535 0.011641 0.011795
12680 0.67643874 1.3228000200000003 -9.696390390000001 0.017084000000000002 0.036027 0.033188
12700 0.7126670700000001 1.16997003 -9.712557270000001 0.012865 0.056244 0.042747
12720 0.8226862200000001 1.03255155 -9.768385980000001 0.004372999999999999 0.056312 0.033073000000000005
12740 0.9906432300000001 0.91055439 -9.825715620000002 -0.004128 0.046823 0.015934
12760 1.08883152 0.9575541000000001 -9.72512388 -0.008367 0.03307 -0.004374
12780 1.0036611 1.1329961400000002 -9.684108270000001 -0.006224 0.018217 -0.021431
12800 0.87986871 1.35333855 -9.71868852 -0.0041 0.015018 -0.022481
12820 0.7114702500000001 1.5370013700000003 -9.79338186 -0.000889 0.026686 -0.012859
12840 0.6393177000000001 1.6070545800000002 -9.787093650000001 0.005502 0.040449 0.003191
12860 0.57989853 1.50901344 -9.73365858 0.008698000000000001 0.056348 0.020285
12880 0.60833772 1.3239968400000002 -9.780962400000002 0.005502 0.06485199999999999 0.027729000000000004
12900 0.71775846 1.1883834 -9.7954812 0.002306 0.06380599999999999 0.025572
12920 0.8878050000000001 1.0240168500000002 -9.78170796 -0.003038 0.052145 0.015934999999999998
12940 1.0225257300000001 0.9777627 -9.70940826 -0.008343000000000001 0.04264 -0.000113
12960 0.99258561 1.1123362800000003 -9.68979807 -0.00941 0.033095 -0.009722
12980 0.9108585 1.26652005 -9.68665887 -0.007276 0.032027 -0.010774
13000 0.8102667600000001 1.3275873 -9.75087513 -0.005171 0.033055 -0.003283
13020 0.70757568 1.35453537 -9.77482134 -0.000933 0.031952999999999995 0.002089
13040 0.6683553 1.32624333 -9.83320065 -0.000957 0.034054 0.009564
13060 0.70637886 1.2507946200000002 -9.79443153 -0.000966 0.034045 0.0117
13080 0.7707520800000001 1.19302353 -9.73889712 -0.000952 0.034058 0.008495
13100 0.82507986 1.1720595600000001 -9.71659899 -0.000942 0.033006 0.005292
13120 0.86056263 1.1758069800000002 -9.72243594 0.000139 0.030893 -3.9e-05
13140 0.83047536 1.23747264 -9.71344998 -0.0019760000000000003 0.033039 -0.002193
13160 0.8032329899999999 1.29046626 -9.74698056 -0.003038 0.034108 -0.0022010000000000003
13180 0.76490532 1.3218975000000002 -9.756260820000001 -0.003033 0.036234 -0.001136
13200 0.74095911 1.3329828000000001 -9.79084107 -0.007305 0.039428 0.0031030000000000003
13220 0.72943236 1.2734066700000002 -9.79802199 -0.011558 0.045822 0.00627
13240 0.7532314200000001 1.2317926500000003 -9.783807300000001 -0.013663 0.050099 0.004113
13260 0.8240400000000001 1.1710197 -9.74129076 -0.004071 0.050057 0.0063170000000000006
13280 0.8402068800000001 1.1713140000000002 -9.724074210000001 0.018324 0.056336 0.015011000000000004
13300 0.86953878 1.14481719 -9.72183753 0.023629 0.053109 0.018257
13320 0.8604154800000001 1.18523439 -9.73126494 -0.0063100000000000005 0.024506 0.004197
13340 0.8301712500000001 1.23672708 -9.75356307 -0.034049 -0.001922 -0.022668
13360 0.8183502000000001 1.24181847 -9.76195062 -0.036149 -0.009311 -0.037628
13380 0.79589511 1.26726561 -9.759704130000001 -0.031881 0.002345 -0.025863
13400 0.7789826700000001 1.24840098 -9.75312162 -0.026585 0.008657999999999999 -0.010879
13420 0.80038809 1.25259966 -9.74578374 -0.010578 0.026643 0.006301
13440 0.8006823900000002 1.2379239 -9.73021527 0.018257 0.04991 0.023564
13460 0.7849667699999999 1.22101146 -9.724378320000001 0.030026 0.061570000000000014 0.027905000000000003
13480 0.77104638 1.2680111699999999 -9.731716200000001 0.018348 0.07333300000000001 0.02674
13500 0.7846724700000001 1.2295461600000002 -9.73650348 -0.003951 0.081993 0.011618
13520 0.8009865 1.23298947 -9.73874997 -0.022001 0.082133 -0.007736
13540 0.8051753700000001 1.2234051000000001 -9.75296466 -0.030560000000000007 0.061983 -0.022726
13560 0.80427285 1.21322232 -9.78110955 -0.025322 0.036415 -0.026929
13580 0.84319893 1.21442895 -9.78261048 -0.016912 0.016115 -0.019367
13600 0.85367601 1.2379239 -9.77003406 -0.011692 0.006445 -0.003295
13620 0.83376171 1.3953940200000001 -9.71375409 -0.007481999999999998 0.009562 0.012754
13640 0.7312275899999999 1.454823 -9.64593756 -0.004243 0.0255 0.020234
13660 0.66911067 1.20379491 -9.67632894 0.002182 0.031865 0.021339
13680 0.76715181 0.9833053500000001 -9.80790066 0.001139 0.029768 0.013857
13700 0.89828208 0.8515766700000001 -9.879758910000001 0.003301 0.022359 -6e-06
13720 0.95591583 1.0065060000000001 -9.81209934 0.008655 0.015992 -0.010642
13740 0.84184515 1.26367515 -9.74234043 0.011827 0.006406 -0.013812
13760 0.7471001700000001 1.4742860400000002 -9.728420040000001 0.019319 0.011706 -0.013766999999999998
13780 0.74829699 1.54283832 -9.70416972 0.015099 0.02874 -0.0074090000000000015
13800 0.6794406000000001 1.5769673100000001 -9.73006812 0.003407 0.044734 -0.001102
13820 0.68587596 1.5135064200000001 -9.77601816 -0.006142 0.063913 0.006285
13840 0.7138638900000001 1.26187992 -9.78261048 -0.012505 0.080945 0.014764
13860 0.78092505 1.1410795800000002 -9.767493270000001 -0.002937 0.077699 0.019108
13880 0.83376171 1.0415375100000002 -9.751473540000001 0.005521 0.06168600000000001 0.020256
13900 0.9262700100000001 1.03958532 -9.736954740000002 0.009707 0.0425 0.019241
13920 0.92507319 1.09437417 -9.677221650000002 0.009678 0.027621 0.010714
13940 0.87238368 1.12176369 -9.65013624 0.005464 0.027682 -0.001066
13960 0.8357139 1.21921623 -9.72213183 0.001254 0.033054 -0.008579
13980 0.7683486300000001 1.3362691500000001 -9.80251497 -0.0062 0.034153 -0.010769
14000 0.73781991 1.3859666099999999 -9.81119682 -0.013673 0.034175 -0.009753
14020 0.7661021400000001 1.40677362 -9.759409830000001 -0.019002 0.043747 -0.001257
14040 0.74230308 1.3678573500000002 -9.695487870000001 -0.014725 0.049046 0.001971
14060 0.73227726 1.29735288 -9.67438656 -0.012625 0.046887 0.007329
14080 0.74545209 1.2975000300000004 -9.66674457 -0.006257 0.04259 0.010584
14100 0.73017792 1.2763987199999998 -9.75850731 0.000149 0.043633 0.010627
14120 0.7351221600000001 1.3210047900000002 -9.784405710000001 0.000173 0.042594 0.004220000000000001
14140 0.7355734200000001 1.2855220200000002 -9.747726120000001 -0.001918 0.045822 -0.002209
14160 0.7607164500000001 1.24555608 -9.76164651 0.000259 0.050097 -0.0075400000000000016
14180 0.7945511400000002 1.21682259 -9.784248750000001 0.001287 0.043693 -0.005388
14200 0.8044298100000001 1.18987452 -9.803711790000001 -0.001961 0.039418 0.001004
14220 0.8008393500000001 1.25633727 -9.74324295 -0.0052 0.037273 0.007393
14240 0.79618941 1.3046907600000002 -9.66300696 -0.006281 0.036203 0.009524
14260 0.77374413 1.28881818 -9.667647089999999 -0.003057 0.042579 0.010606
14280 0.8032329899999999 1.2376296 -9.711350640000001 -0.003047 0.045771 0.011671
14300 0.80472411 1.1596401 -9.75312162 -0.003023 0.047914 0.008463
14320 0.8258352300000001 1.1424235500000002 -9.75461274 -0.004071 0.046874 0.003116
14340 0.8090699400000001 1.16727228 -9.73979964 -0.0051140000000000005 0.04796 -0.001165
14360 0.78422121 1.14272766 -9.7348554 -0.005095000000000001 0.047977 -0.005438
14380 0.78556518 1.19137545 -9.76030254 -0.010443 0.045861 -0.004405
14400 0.769104 1.2754962 -9.80490861 -0.008305 0.04798 -0.003324
14420 0.7851139200000001 1.2780468 -9.796678020000002 -0.007248 0.050089 0.000953
14440 0.79364862 1.39450131 -9.75176784 -0.008334000000000001 0.049015 0.004152
14460 0.79709193 1.37758887 -9.71359713 -0.0094 0.051141000000000006 0.006278
14480 0.8095212000000002 1.31606055 -9.73650348 -0.005143 0.048995 0.006311
14500 0.82163655 1.2826869300000001 -9.7493742 -0.001918 0.051127 0.0031260000000000003
14520 0.7851139200000001 1.2433194000000003 -9.76972995 -0.002903 0.06817999999999999 0.002029
14540 0.7667103599999999 1.21292802 -9.72572229 -0.005999 0.08844400000000001 -0.001223
14560 0.77463684 1.1900216700000001 -9.72078786 -0.005888 0.110823 -0.0033880000000000004
14580 0.786762 1.1918169 -9.74114361 0.000633 0.13531 -0.00551
14600 0.7981416 1.2340293300000003 -9.78919299 0.0007480000000000001 0.158754 -0.007676
14620 0.80187921 1.28223567 -9.796226760000001 -0.00662 0.182212 -0.006689
14640 0.8162508599999999 1.30378824 -9.735453810000001 -0.009806 0.185419 -0.0067150000000000005
14660 0.7954438500000001 1.28657169 -9.70147197 -0.004582 0.160899 -0.006648
14680 0.79350147 1.29720573 -9.74683341 -0.012232 0.128933 0.001886
14700 0.8180460900000001 1.27444653 -9.7582032 -0.027202 0.120468 0.000724
14720 0.8134059600000001 1.23163569 -9.74862864 -0.021963 0.095961 -0.002413
14740 0.82763046 1.20185253 -9.73920123 -0.021934 0.088559 -0.01629
14760 0.8132588100000001 1.23119424 -9.733207320000002 -0.027302 0.07369400000000001 -0.023786
14780 0.8213422499999999 1.25963343 -9.75296466 -0.015787 0.024651 -0.023643
14800 0.8009865 1.22251239 -9.74143791 -0.005286 -0.007365999999999998 -0.018187
14820 0.78616359 1.2359815200000002 -9.736797780000002 -0.008395999999999999 0.01819 -0.012901
14840 0.8090699400000001 1.27011051 -9.728115930000001 -0.008357999999999999 0.043689 0.004159
14860 0.7920005400000001 1.30273857 -9.71524521 -0.006205 0.050064 0.006302
14880 0.7825731300000001 1.29121182 -9.72497673 -0.004104 0.040478 0.004192
14900 0.77867856 1.3069274400000002 -9.77437008 -0.001961 0.040479 0.002071
14920 0.78975405 1.29645036 -9.76464837 -0.000904 0.039406 0.003148
14940 0.79799445 1.30034493 -9.7579089 0.004382 0.031917 0.006399
14960 0.79574796 1.26906084 -9.75102228 0.002258 0.035116 0.0074480000000000015
14980 0.88600977 1.2680111699999999 -9.749227050000002 0.00012 0.031937 0.005301
15000 0.92806524 1.2220611300000002 -9.79173378 8.1e-05 0.023415 0.005312
15020 0.99452799 1.24211277 -9.76584519 0.005372999999999999 0.020175 0.011762
15040 1.0517104800000001 1.28852388 -9.655973190000001 0.008597 0.031856 0.018179
15060 1.10530251 1.2638223 -9.68156748 0.004368 0.041454000000000005 0.019205
15080 1.0672789500000002 1.2590350200000002 -9.799974180000001 -0.00409 0.053223 0.01379
15100 1.05620346 1.29450798 -9.75372003 -0.011505 0.052235 0.000921
15120 1.18418472 1.22265954 -9.64309266 -0.010429 0.045873 -0.007609
15140 1.13029839 1.34330292 -9.67408245 -0.010419 0.04376 -0.011879
15160 0.9919872000000001 1.2552876 -9.66690153 -0.009367 0.043743 -0.008667
15180 0.95276682 1.2763987199999998 -9.684863640000001 -0.007248 0.042662 -0.006515000000000001
15200 0.9397489500000001 1.2976471800000002 -9.736650630000002 0.000173 0.040472 0.002086
15220 0.81715338 1.3807280700000002 -9.74293884 0.0033490000000000004 0.042561 0.009583
15240 0.9190890899999999 1.24466337 -9.71734455 0.00123 0.044703 0.008497
15260 0.9066598200000001 1.24555608 -9.6742296 -0.000866 0.044745 -6.3e-05
15280 0.9979713 1.2732497100000002 -9.67123755 0.000201 0.037314 -0.007523999999999999
15300 1.0065060000000001 1.2948120900000002 -9.724231170000001 -0.003018 0.030942 -0.009675
15320 1.04108625 1.27355382 -9.71779581 -0.007291 0.033075 -0.006503
15340 1.10035827 1.22775093 -9.71375409 -0.008386 0.036236 0.0031
15360 1.1335945500000002 1.22101146 -9.71359713 -0.010568 0.034079000000000005 0.011633
15380 1.1123362800000003 1.327293 -9.74593089 -0.009578 0.028702 0.023397
15400 1.07655921 1.3810321799999998 -9.743537250000001 -0.002119 0.037155 0.034121
15420 1.00246428 1.4124634200000001 -9.719591040000001 0.011803 0.047764 0.033136
15440 0.9919872000000001 1.3189054500000001 -9.70671051 0.011822 0.037171 0.018195
15460 0.97911648 1.26621594 -9.73874997 0.004411 0.031943 -1e-05
15480 1.03374837 1.22265954 -9.74279169 0.007665000000000002 0.037284 -0.006404000000000001
15500 1.0235754000000001 1.18104552 -9.719738190000001 0.011961 0.040477 -0.009582
15520 1.0160903700000001 1.22115861 -9.71644203 0.005612 0.049035 -0.012842
15540 0.99648018 1.31756148 -9.707613030000001 0.001374 0.056502 -0.011813
15560 1.01549196 1.37728476 -9.71000667 0.001359 0.05755 -0.007542
15580 1.01683593 1.40572395 -9.705366540000002 0.00345 0.055383 -4.7e-05
15600 0.98824959 1.37788317 -9.72647766 0.000182 0.05109 0.010618
15620 0.9563572800000001 1.31501088 -9.72932256 0.000115 0.042542 0.017038
15640 1.02177036 1.25514045 -9.71659899 0.001139 0.037195 0.021325
15660 1.06548372 1.19616273 -9.699529590000001 -0.001019 0.033998 0.02345
15680 1.09931841 1.1976636600000001 -9.696390390000001 -0.005286 0.03083 0.02022
15700 1.11652515 1.21637133 -9.70686747 -0.0074150000000000015 0.030842 0.019137
15720 1.09796463 1.22819238 -9.736199370000001 -0.007401 0.028733 0.013798
15740 1.11712356 1.2693649500000002 -9.768385980000001 -0.005253 0.026616 0.008475
15760 1.09063656 1.41021693 -9.76613949 0.001124 0.017023 0.004259000000000001
15780 1.02222162 1.5013812600000003 -9.70656336 0.0064730000000000005 0.024445 0.00856
15800 0.9759674700000001 1.47653253 -9.644142330000001 0.00755 0.03612 0.018166
15820 0.9111528000000001 1.32684174 -9.66435093 0.01076 0.037179 0.017119
15840 0.87582699 1.2627726300000002 -9.736650630000002 0.026806 0.041405 0.011885
15860 0.81490689 1.2832853400000002 -9.75341592 0.032226 0.052073 0.003363
15880 0.79618941 1.2808818900000003 -9.74293884 0.020548 0.051104 -0.010604
15900 0.8750814299999999 1.24466337 -9.71734455 0.008823000000000001 0.043727 -0.020291
15920 0.98704296 1.2307429799999998 -9.70671051 0.010966 0.04585 -0.020278
15940 1.11293469 1.22086431 -9.73291302 0.008799 0.046889 -0.011749
15960 1.18389042 1.2289477500000001 -9.72018945 -0.000904 0.038345 0.002081
15980 1.22684841 1.25319807 -9.737101890000002 -0.008415 0.038332 0.011643
16000 1.18358631 1.25963343 -9.7345611 -0.010558 0.046819 0.022299
16020 1.1653299000000001 1.30005063 -9.69354549 -0.012673 0.055332000000000006 0.026546
16040 1.13778342 1.2698064 -9.70476813 -0.013725 0.057470000000000014 0.025468
16060 1.08239616 1.2479595300000004 -9.731716200000001 -0.012654 0.048983 0.015872
16080 1.0583028 1.2620270700000003 -9.736199370000001 -0.019017 0.044795 0.003014
16100 0.99662733 1.24660575 -9.716294880000001 -0.02327 0.046945 0.001914
16120 0.9967744800000001 1.2766930200000002 -9.68606046 -0.012654 0.040495 0.0073370000000000015
16140 0.9939295800000001 1.33342425 -9.68261715 0.002225 0.031904 0.011725
16160 0.94468338 1.35573219 -9.711654750000001 0.001158 0.031907 0.011718
16180 0.83975562 1.3415076900000003 -9.74638215 0.000125 0.038307 0.010634
16200 0.79305021 1.41081534 -9.811049670000001 0.007612000000000002 0.041481 0.009614
16220 0.9334607400000001 1.4852143800000002 -9.747578970000001 0.014018 0.036158 0.003256
16240 1.04228307 1.38058092 -9.6164487 0.008722 0.039393 -0.0021260000000000003
16260 1.09691496 1.28178441 -9.63576459 0.003397 0.040482 -0.003233
16280 1.1017120500000002 1.21666563 -9.771230880000001 0.006573999999999999 0.037266 -0.00107
16300 1.16053281 1.16892036 -9.7664436 0.009784 0.040446 1.7e-05
16320 1.14122673 1.14287481 -9.739642680000001 0.005521 0.04471 0.003186
16340 1.09781748 1.15380315 -9.71330283 -0.0008990000000000002 0.041532 0.004213000000000001
16360 1.0699767 1.2000573 -9.74159487 0.000134 0.037254 0.007431
16380 1.06354134 1.22550444 -9.75446559 0.000125 0.038307 0.010634
16400 1.11427866 1.2289477500000001 -9.73724904 -0.000952 0.039363 0.01383
16420 1.06368849 1.2976471800000002 -9.712557270000001 -0.002009 0.040436 0.012753
16440 1.03853565 1.2777426900000002 -9.73081368 -0.006272 0.038334 0.009521
16460 1.07910981 1.23717834 -9.68740443 -0.005176 0.038355 0.003119
16480 1.03869261 1.20274524 -9.69294708 -0.003042 0.037287 0.0020670000000000003
16500 0.96264549 1.26547038 -9.72064071 -0.003052 0.036217 0.003137
16520 0.96115437 1.3771376100000001 -9.70626906 -0.006253 0.035168 0.002048
16540 0.9861502500000001 1.3835729700000001 -9.68725728 -0.003062 0.034087 0.00314
16560 0.99916812 1.34839431 -9.72992097 -0.000923 0.037267 0.005287
16580 1.00590759 1.3672589400000001 -9.755368110000001 -0.0041140000000000005 0.042591 0.008462
16600 0.9723770100000001 1.32878412 -9.704022570000001 -0.0062380000000000005 0.042607 0.006311
16620 0.9919872000000001 1.2340293300000003 -9.68950377 -0.004118999999999999 0.038343 0.005263
16640 0.99168309 1.19226816 -9.72467262 -0.000918 0.03621 0.003152
16660 1.0135397700000002 1.25798535 -9.760008240000001 -0.001971 0.038348 0.002074
16680 1.07387127 1.2928599000000003 -9.709113960000002 -0.000909 0.036218 0.001015
16700 1.11204198 1.2629197800000003 -9.67154166 0.00015800000000000002 0.038337 0.003157
16720 1.1511054 1.20754233 -9.69503661 0.002278 0.038316 0.006376
16740 1.14137388 1.2261028499999997 -9.73470825 0.005469 0.038297000000000005 0.008535
16760 1.10619522 1.25543475 -9.71045793 0.0076209999999999984 0.039367 0.005344
16780 1.061442 1.25753409 -9.72303435 0.004425999999999999 0.039383 0.004253
16800 1.05410412 1.2840309 -9.72213183 0.002292 0.036207 0.001038
16820 1.05799869 1.25963343 -9.74279169 0.000144 0.031958 -4e-05
16840 1.1148770700000001 1.25992773 -9.73111779 0.002273 0.031945999999999995 0.001043
16860 1.10126079 1.26621594 -9.715843620000001 -0.000928 0.03514 0.004221
16880 1.05560505 1.2617229600000002 -9.70207038 -0.006243 0.038359 0.003112
16900 1.0235754000000001 1.2213057600000001 -9.6941439 -0.006243 0.03942 0.004179
16920 1.01324547 1.27205289 -9.74547963 0.002268 0.038308 0.008513
16940 1.02477222 1.28852388 -9.74099646 0.004386999999999999 0.032983 0.006398
16960 1.04228307 1.26592164 -9.74264454 0.000139 0.033015 0.002095
16980 1.00471077 1.2717585900000001 -9.71913978 -0.000909 0.035157 -5.1e-05
17000 1.02537063 1.23298947 -9.72662481 0.003354 0.034077 -2e-05
17020 1.0472175000000001 1.26472482 -9.72078786 0.002302 0.036216000000000005 -0.001099
17040 1.01848401 1.28208852 -9.72287739 0.000182 0.039419 -0.001117
17060 1.02222162 1.25454204 -9.73590507 0.003354 0.038321 0.004247
17080 1.04661909 1.2487050900000003 -9.752817510000002 0.004386999999999999 0.032983 0.006398
17100 1.0057604400000002 1.29420387 -9.70716177 0.009741 0.038286 0.007497
17120 1.0210248000000002 1.31725737 -9.74324295 0.005459 0.032983 0.005337
17140 1.05201459 1.3421060999999999 -9.712557270000001 0.002263 0.031938 0.00318
17160 1.0497681 1.2439178100000001 -9.67886973 0.004406 0.031938999999999995 0.001058
17180 1.08614358 1.22729967 -9.71689329 0.00122 0.034085000000000004 -3.5e-05
17200 1.06653339 1.2189121200000002 -9.739348380000001 -0.005176 0.035172 -8.1e-05
17220 1.11891879 1.22086431 -9.736199370000001 -0.005171 0.040482 0.004185
17240 1.0916764200000002 1.25379648 -9.71000667 0.00016299999999999998 0.040463 0.004222
17260 1.0404878400000002 1.2148704000000001 -9.72183753 -0.003042 0.038348 0.003134
17280 1.0270187100000001 1.2439178100000001 -9.759704130000001 -0.004109000000000001 0.038352 0.003127
17300 1.05141618 1.29900096 -9.73036242 -0.0008990000000000002 0.040471 0.003147
17320 1.01429514 1.3085755200000002 -9.691750260000001 -0.0008939999999999998 0.041536 0.003145
17340 1.0234184400000002 1.25887806 -9.68111622 -0.00088 0.041549 -5.9e-05
17360 1.01444229 1.23268536 -9.70776018 -0.003018 0.040491 -7.3e-05
17380 1.0207305 1.24376085 -9.743390100000001 -0.005171 0.035177 -0.001149
17400 1.01638467 1.2705617700000003 -9.72183753 -0.003042 0.035164999999999995 -6.6e-05
17420 1.0497681 1.2470570100000002 -9.707917140000001 -0.000904 0.037284 0.001014
17440 1.05081777 1.2452617800000003 -9.711350640000001 -0.005167000000000001 0.039425 0.00205
17460 1.06084359 1.26367515 -9.72258309 -0.007295 0.037315 -0.001167
17480 1.05799869 1.26052614 -9.75386718 -0.006233 0.035185 -0.002225
17500 1.0645910100000002 1.27310256 -9.7029729 -0.0040950000000000005 0.03412 -0.004345
17520 1.06054929 1.23927768 -9.70282575 -0.007286 0.036262 -0.004370000000000001
17540 1.0509649200000002 1.24376085 -9.73231461 -0.005147 0.040503 -0.001156
17560 1.08719325 1.23837516 -9.70851555 -0.004076 0.044747 0.0020510000000000003
17580 1.04677605 1.19526021 -9.71839422 -0.009405 0.043709 -0.000122
17600 1.02117195 1.21876497 -9.75805605 -0.008329000000000001 0.045836 -0.000117
17620 1.0115973900000002 1.2552876 -9.739348380000001 -0.000842 0.051132 0.000997
17640 1.0340524800000002 1.2560331599999999 -9.70716177 -0.000842 0.049010000000000005 -0.001137
17660 1.03225725 1.2458601900000001 -9.69519357 -0.007233 0.044797 -0.007585
17680 1.04617764 1.2510987299999998 -9.75356307 -0.0083 0.04374 -0.00866
17700 1.0084483800000001 1.2807347400000002 -9.75042387 -0.004076 0.03732 -0.005417
17720 1.0493168400000001 1.2623213700000002 -9.7234758 -0.007271 0.037336 -0.006508
17740 1.04003658 1.2663630900000002 -9.703718460000001 -0.015816 0.039479 -0.002298
17760 1.04572638 1.22998761 -9.699980850000001 -0.009429 0.042627 0.004152
17780 1.0548594900000001 1.23987609 -9.748922940000002 -0.004124 0.045766 0.013799
17800 1.04707035 1.2397191300000001 -9.75760479 0.002254 0.049966 0.023453
17820 1.0464719400000002 1.2386694600000003 -9.71419554 0.009765 0.058467 0.022426
17840 1.0500624 1.24750827 -9.72213183 -0.003033 0.044722000000000005 0.0073989999999999985
17860 1.0464719400000002 1.2489993900000003 -9.721239120000002 -0.022275 0.019291 -0.009794
17880 1.08599643 1.2445162200000002 -9.71285157 -0.023366 0.000176 -0.023664
17900 1.04617764 1.23747264 -9.748922940000002 -0.014802 0.004416 -0.025746
17920 1.05964677 1.2494506500000002 -9.716147730000001 -0.008353 0.024595 -0.016113
17940 1.01623752 1.27744839 -9.73979964 0.00554 0.051093 0.005314
17960 0.99602892 1.2705617700000003 -9.71479395 0.00655 0.05316 0.020274
17980 0.9888480000000001 1.26157581 -9.73739619 -0.006296 0.043617 0.020196
18000 1.01429514 1.2985497000000001 -9.775871010000001 -0.015888 0.03411 0.008391
18020 1.02162321 1.32265287 -9.74848149 -0.01053 0.024564 -0.006514
18040 1.00740852 1.27594746 -9.69070059 -0.012663 0.009717 -0.021465
18060 1.05366267 1.22325795 -9.68890536 -0.014816 0.004403 -0.022542
18080 1.0497681 1.23134139 -9.74728467 0.002263 0.020267 -0.008556
18100 1.05156333 1.2126239099999998 -9.739642680000001 0.011908 0.04998 0.01177
18120 1.1150340300000001 1.19197386 -9.73425699 0.001254 0.059578999999999986 0.018092
18140 1.12281336 1.1802999600000001 -9.73111779 -0.016859 0.052236000000000005 0.005156
18160 1.13838183 1.30184586 -9.72528084 -0.016878 0.035243000000000003 -0.0076409999999999985
18180 1.0645910100000002 1.3527401400000003 -9.69010218 -0.017887 0.03742 -0.018333
18200 0.97163145 1.42324461 -9.70507224 -0.016763 0.052322 -0.016207
18220 0.9259757100000001 1.39150926 -9.6944382 0.007626000000000002 0.034067 -0.001059
18240 0.9455859000000001 1.12565826 -9.7061121 0.020318 0.025436 0.015064
18260 1.09946556 0.9930368700000001 -9.79488279 0.028729 0.010441 0.027961
18280 1.18793214 1.0816506000000001 -9.7954812 0.014998 0.03926 0.025692000000000003
18300 1.26367515 1.3070844000000001 -9.74219328 0.002302 0.056375 0.019172
18320 1.1588945400000001 1.4403042000000001 -9.68979807 0.003383 0.046835 0.006372999999999999
18340 0.9262700100000001 1.5230809799999998 -9.61345665 0.0076310000000000015 0.026644 -0.009595
18360 0.7857123300000001 1.31411817 -9.61196553 0.005478 0.028756 -0.003203
18380 0.78826293 1.1752085700000001 -9.799071660000001 0.0012109999999999998 0.034076 0.002101
18400 0.9592021800000001 1.07895285 -9.896524200000002 0.003301 0.026603 0.004262
18420 1.1802999600000001 1.1472108300000001 -9.77976558 0.009669 0.023368 0.008583
18440 1.29809844 1.24466337 -9.62273691 0.01384 0.007353 0.013974
18460 1.20274524 1.3512392100000001 -9.596995470000001 0.013725 -0.018213 0.014006
18480 0.9936352800000001 1.4379105600000002 -9.688002840000001 0.017921 -0.031024 0.017256
18500 0.86130819 1.46141532 -9.74997261 0.032111 0.037117 0.014063999999999998
18520 0.83167218 1.24226973 -9.77362452 0.047899 0.000795 0.025971
18540 0.9454387500000001 1.14153084 -9.74862864 0.08368300000000001 -0.11966 0.014625
18560 1.1220678 1.19422035 -9.72048375 0.075436 -0.113008 -0.043125
18580 1.1479662000000002 1.25723979 -9.68650191 -0.005013 0.048049 -0.023597
18600 1.1530477800000003 1.37848158 -9.7234758 -0.037746 0.157751 0.010216
18620 0.98285409 1.43776341 -9.680969070000002 -0.017619 0.128905 0.013599000000000002
18640 0.7994855700000001 1.3678573500000002 -9.677221650000002 -0.004984000000000001 0.08521000000000001 0.007334
18660 0.72718587 1.4167994400000001 -9.696233430000001 -0.005023 0.07244400000000001 0.003077
18680 0.7831715400000001 1.23897357 -9.74547963 0.003368 0.046822 0.009578
18700 0.9632439 1.16308341 -9.76883724 0.009702 0.030825 0.008574
18720 1.00920375 1.14811335 -9.78560253 0.004406 0.034061 0.003192
18740 1.1596401 1.2322341 -9.73275606 -0.006257 0.028797000000000007 -0.003285
18760 1.14407163 1.21322232 -9.652981140000001 -0.016964 0.021373 -0.002282
18780 1.0741655700000001 1.3012474500000002 -9.68860125 -0.014855000000000004 0.018162 -0.000127
18800 1.1771509500000001 1.2555917100000002 -9.76943565 -0.010563 0.027717 0.004164
18820 1.1602385100000001 1.2626254799999999 -9.743390100000001 -0.006301 0.02982 0.007395
18840 1.12341177 1.2717585900000001 -9.69398694 -0.003095 0.032996 0.00955
18860 1.07701047 1.23627582 -9.67692735 -0.002038 0.032984 0.011694
18880 1.03914387 1.2489993900000003 -9.71344998 -0.004133 0.037269 0.007401
18900 0.95890788 1.2816372600000001 -9.73291302 -0.003014 0.046862 0.00526
18920 0.7550266499999999 1.19226816 -9.82841337 0.002354 0.048995 -4.6e-05
18940 0.53244756 1.21606722 -9.601929900000002 0.001311 0.046898 -0.007528
18960 0.72060336 1.3512392100000001 -9.46945566 -0.001904 0.043713 -0.007547
18980 1.06967259 1.2802834800000003 -9.795775500000001 0.003412 0.041555 -0.005371
19000 0.84724065 1.2754962 -9.96193728 0.005521 0.041527 -1.5e-05
19020 0.8108651700000001 1.16457453 -9.89891784 0.0033590000000000004 0.04257 0.007445999999999999
19040 0.98959356 1.3013946 -9.67498497 0.000139 0.041503 0.01063
19060 1.09691496 1.33117776 -9.584870310000001 -0.003095 0.03724 0.013818
19080 1.04078214 1.24017039 -9.66420378 -0.0020280000000000003 0.036175 0.012758
19100 1.1156324400000002 1.2488522400000002 -9.736954740000002 -0.0020280000000000003 0.032992 0.009558
19120 1.17490446 1.19541717 -9.763147440000001 -0.000947 0.033001 0.00636
19140 1.11817323 1.12221495 -9.75416148 -0.003042 0.037287 0.0020670000000000003
19160 1.0370445300000004 1.1020063500000001 -9.707308920000001 -0.009424 0.039448 -0.000116
19180 1.00889964 1.13479137 -9.709113960000002 -0.008362 0.037318 -0.001174
19200 1.03659327 1.18418472 -9.7465293 -0.007271 0.04158 -0.002241
19220 0.9632439 1.22355225 -9.76060665 -0.00409 0.040491 0.0009880000000000002
19240 0.91519452 1.26532323 -9.759704130000001 -0.004118999999999999 0.035160000000000004 0.002063
19260 0.83780343 1.2796850700000002 -9.70282575 -0.00198 0.037279 0.003143
19280 0.81535815 1.2621742200000001 -9.68950377 -0.003033 0.043661 0.006332
19300 0.7863107400000001 1.2979512899999999 -9.780658290000002 -0.003009 0.047927 0.005259000000000001
19320 0.8180460900000001 1.26875673 -9.771230880000001 -0.00409 0.044735 0.005255
19340 0.8596601100000001 1.25259966 -9.73260891 -0.0041 0.040482 0.003124
19360 0.90756234 1.2039420600000001 -9.70746588 -0.005171 0.035177 -0.001149
19380 0.9662359500000001 1.2009500100000001 -9.70476813 -0.004109000000000001 0.035169 -7.4e-05
19400 1.01758149 1.2274468200000002 -9.74308599 -0.007291 0.039441 -0.000101
19420 1.0282155300000004 1.22251239 -9.73036242 -0.005171 0.038360000000000005 0.0020510000000000003
19440 1.0415375100000002 1.20858219 -9.728420040000001 -0.006233 0.039429 0.002042
19460 1.05440823 1.1901786300000001 -9.73650348 -0.007315 0.037298000000000005 0.003106
19480 1.0265674500000002 1.19331783 -9.75011976 -0.00731 0.038363 0.003104
19500 1.02461526 1.2190690800000001 -9.74668626 -0.005147 0.041564 -8.9e-05
19520 0.99408654 1.22775093 -9.751169430000001 -0.0073 0.036249 -0.001166
19540 0.9617527800000001 1.2338821800000002 -9.719434080000001 -0.008372 0.036249 -0.000105
19560 0.92987028 1.2284964900000002 -9.703875420000001 -0.006233 0.037307 -9.1e-05
19580 0.8975365200000001 1.1870296200000001 -9.731863350000001 -0.007276 0.042637 -0.000105
19600 0.89768367 1.21218246 -9.77092677 -0.005143 0.042629 -9.1e-05
19620 0.9261228600000001 1.22924205 -9.74803023 -0.00088 0.043671 0.002074
19640 0.93405915 1.24555608 -9.69234867 -0.000904 0.039406 0.003148
19660 0.9499219200000001 1.25184429 -9.71495091 -0.000918 0.037271 0.004219
19680 0.93001743 1.26547038 -9.727674480000001 -0.000918 0.03621 0.003152
19700 0.91698975 1.2448105200000001 -9.78110955 0.000144 0.03408 0.002094
19720 0.9457330500000001 1.2250531800000002 -9.7519248 0.000149 0.034084 0.001026
19740 0.95231556 1.2220611300000002 -9.739946790000001 0.000144 0.035141000000000006 0.003161
19760 0.9729754200000001 1.21278087 -9.72303435 -0.000928 0.034079000000000005 0.0031550000000000003
19780 1.02910824 1.21322232 -9.70716177 0.002254 0.031929 0.005316
19800 1.0264203 1.2169697400000001 -9.731412090000001 0.002263 0.03406 0.005313
19820 1.0090467900000002 1.21187835 -9.7519248 0.001201 0.03619 0.006371
19840 0.9894464100000001 1.21996179 -9.759556980000001 0.003354 0.03726 0.00318
19860 0.95456205 1.23703119 -9.72557514 0.00015800000000000002 0.037276 0.00209
19880 0.9307629900000001 1.2488522400000002 -9.739348380000001 -0.000918 0.03621 0.003152
19900 0.94453623 1.25409078 -9.743537250000001 -0.000904 0.037284 0.001014
19920 0.93630564 1.23418629 -9.75057102 0.001215 0.037263 0.004234
19940 0.93016458 1.2070910700000002 -9.755809560000001 0.001201 0.034068 0.004238
19960 0.94348656 1.24990191 -9.73231461 0.001196 0.034063 0.005306
19980 0.95067729 1.2855220200000002 -9.71823726 0.002263 0.03406 0.005313
20000 0.94827384 1.21936338 -9.7291656 0.001191 0.034059 0.006374
20020 0.94154418 1.2404745000000001 -9.74219328 0.002282 0.03726 0.004241
20040 0.9228267 1.2593293200000002 -9.74488122 0.002273 0.03619 0.005311
20060 0.9247788900000001 1.2458601900000001 -9.71734455 0.000129 0.034067 0.005298
20080 0.9306158400000001 1.25349237 -9.73291302 0.002268 0.036186 0.006379
20100 0.9629496000000001 1.24181847 -9.735757920000001 0.000149 0.038328 0.005293
20120 0.9786652200000001 1.2439178100000001 -9.7490799 0.000168 0.042589 0.005288
20140 1.00021779 1.2573869400000002 -9.72587925 -0.0008849999999999998 0.043667 0.003143
20160 0.97656588 1.2445162200000002 -9.7291656 -0.003038 0.039413 0.003133
20180 0.9529139700000001 1.20858219 -9.7234758 -0.003052 0.038339 0.0052710000000000005
20200 0.9412400700000001 1.27460349 -9.72557514 0.000139 0.03832 0.007429000000000002
20220 0.9286734600000001 1.24466337 -9.744135660000001 -0.003047 0.040466 0.006336
20240 0.9532180800000001 1.24990191 -9.740398050000001 -0.001961 0.042601 0.004205
20260 0.9515699999999999 1.2521484 -9.71763885 0.00016299999999999998 0.040463 0.004222
20280 0.9542677500000001 1.22879079 -9.70551369 0.003354 0.039382 0.005314
20300 0.94453623 1.20049875 -9.746235 0.00015800000000000002 0.04152 0.006357
20320 0.95276682 1.20379491 -9.73425699 -0.000904 0.042589 0.006348
20340 0.9511187400000001 1.2317926500000003 -9.72856719 -0.003047 0.039405 0.005268999999999999
20360 0.97027767 1.23059583 -9.719591040000001 -0.000913 0.038336 0.004217
20380 0.9503731800000002 1.2482538300000001 -9.732010500000001 -0.0008939999999999998 0.041536 0.003145
20400 0.9361486800000001 1.22115861 -9.723927060000001 -0.003052 0.037278 0.004204
20420 0.95890788 1.24690986 -9.73800441 0.000134 0.035132 0.005297
20440 0.96459768 1.2263971500000002 -9.728272890000001 0.000139 0.036198 0.005296
20460 0.94647861 1.22924205 -9.71899263 -0.00198 0.03834 0.00421
20480 0.94199544 1.2317926500000003 -9.7345611 -0.005167000000000001 0.039425 0.00205
20500 0.93001743 1.2223554300000001 -9.72528084 -0.003042 0.036226 0.001001
20520 0.93525597 1.21472325 -9.7579089 -0.00198 0.037279 0.003143
20540 0.9369040500000001 1.23119424 -9.739348380000001 -0.00198 0.037279 0.003143
20560 0.94932351 1.24122006 -9.73006812 -0.001985 0.037275 0.004211
20580 0.94812669 1.1846359800000001 -9.75461274 -0.003047 0.039405 0.005268999999999999
20600 0.9669913200000001 1.2323910599999999 -9.74234043 -0.003057 0.037274 0.005272
20620 0.97536906 1.26652005 -9.743537250000001 -0.001985 0.037275 0.004211
20640 0.9500788800000001 1.1906200800000002 -9.721239120000002 -0.000909 0.039401 0.004215999999999999
20660 0.99138879 1.2307429799999998 -9.736650630000002 0.00122 0.038329 0.004232
20680 0.9499219200000001 1.21038723 -9.74308599 0.000153 0.039393 0.005292
20700 0.9379537200000001 1.25200125 -9.724378320000001 -0.000909 0.040462 0.005283
20720 0.92987028 1.22670126 -9.72542799 0.000168 0.042589 0.005288
20740 0.9554645700000001 1.2220611300000002 -9.75416148 0.001244 0.04896 0.00956
20760 0.96773688 1.2253474800000002 -9.72078786 0.000177 0.050025 0.010619
20780 0.98899515 1.21801941 -9.7348554 -0.006248 0.039416 0.005247
20800 0.96429357 1.23119424 -9.736954740000002 -0.011592 0.024572 -0.00759
20820 0.96788403 1.1964668400000003 -9.71823726 -0.00842 0.010742 -0.015028
20840 0.95216841 1.21637133 -9.74862864 -0.002071 0.007490000000000002 -0.006433
20860 0.92836935 1.2283493400000003 -9.724829580000002 0.004368 0.034026999999999995 0.011737
20880 0.9689337 1.21517451 -9.727821630000001 0.004454 0.065933 0.024516
20900 0.9577110600000001 1.19795796 -9.73590507 -0.000851 0.069161 0.02127
20920 0.94393782 1.21921623 -9.73515951 -0.007281 0.044754 0.003096
20940 0.97192575 1.2240035100000002 -9.75207195 -0.009434 0.019281 -0.01825
20960 0.96025185 1.24122006 -9.72946971 -0.019041 0.011883 -0.024717
20980 0.95396364 1.22864364 -9.735453810000001 -0.01374 0.016079 -0.012935
21000 0.93779676 1.23837516 -9.7493742 0.0022440000000000003 0.04147 0.017054
21020 0.9466355700000001 1.2457130400000003 -9.73904427 0.01508 0.06798 0.036338
21040 0.95396364 1.23462774 -9.74264454 0.014042 0.072253 0.034189
21060 0.9512757000000001 1.25184429 -9.74848149 -0.00297 0.063876 0.012716
21080 0.9458802000000001 1.2307429799999998 -9.739642680000001 -0.024207 0.059796 -0.014133
21100 0.9369040500000001 1.2290949000000002 -9.7234758 -0.030556 0.05456 -0.031262
21120 0.93719835 1.2359815200000002 -9.735306660000001 -0.018882 0.054464 -0.017293
21140 0.9349518600000001 1.22699556 -9.73739619 -0.005157 0.053226 0.013783000000000002
21160 0.9503731800000002 1.23882642 -9.74234043 0.00642 0.042435 0.038446
21180 0.9228267 1.2479595300000004 -9.73096083 0.007497 0.044562 0.038451
21200 0.9104072400000001 1.24840098 -9.72377991 0.002268 0.053162 0.023449
21220 0.94199544 1.13134806 -9.74533248 -0.012563 0.054369000000000015 0.000911
21240 1.0238697 1.0867419900000002 -9.767934720000001 -0.023169 0.049157 -0.018385
21260 1.04512797 1.14032421 -9.75685923 -0.016791999999999998 0.034259 -0.027935
21280 1.0102534200000002 1.26351819 -9.724829580000002 -0.004085 0.013969999999999998 -0.026752
21300 0.9050215500000001 1.4349185100000001 -9.70103052 0.008626 0.0032340000000000003 -0.017034999999999998
21320 0.8243343 1.4060280600000001 -9.72243594 0.012874000000000002 0.013812 -0.002064
21340 0.8313680700000001 1.2189121200000002 -9.77721498 0.005406 0.029753 0.013887
21360 0.9577110600000001 1.08823311 -9.81404172 -0.0031 0.043602 0.021287
21380 1.0910780100000002 1.03510215 -9.78620094 -0.008409999999999999 0.047886 0.020176
21400 1.11472992 1.06698465 -9.7348554 -0.009477 0.03834 0.010567
21420 1.04257737 1.34315577 -9.664802190000001 -0.0073430000000000014 0.025601 -0.002221
21440 0.89768367 1.4900016600000001 -9.65866113 -0.004143 0.021346 -0.006466
21460 0.79859286 1.43760645 -9.6537267 -0.001995 0.024534 -0.006455
21480 0.7997896800000001 1.2732497100000002 -9.7866522 -0.000918 0.027722000000000004 -0.005383
21500 0.9285165000000001 1.09676781 -9.85056435 0.000153 0.030905 -0.003243
21520 1.07237034 0.97043463 -9.83814489 0.001235 0.03622 -0.001106
21540 1.22115861 1.10485125 -9.74143791 -0.000889 0.039419 -5.7e-05
21560 1.11144357 1.3189054500000001 -9.59219838 0.000168 0.038345 0.00102
21580 0.84184515 1.4055768 -9.61869519 0.003378 0.040465 0.00104
21600 0.7235954100000002 1.3259392199999998 -9.66899106 -0.0008849999999999998 0.039423 -0.001125
21620 0.76760307 1.20334365 -9.7784118 -0.003023 0.040487 0.000995
21640 0.9005285700000001 1.12910157 -9.780815250000002 -0.000904 0.042589 0.006348
21660 1.0264203 1.12969998 -9.78679935 -0.004109000000000001 0.042596 0.007393999999999999
21680 1.1135331000000002 1.17760221 -9.77377167 -0.008381999999999999 0.040484 0.006299
21700 1.11278754 1.28417805 -9.67018788 -0.001995 0.038327 0.0074150000000000015
21720 1.05964677 1.34270451 -9.67034484 0.002258 0.035116 0.0074480000000000015
21740 1.02611619 1.3097723400000003 -9.6941439 0.001191 0.03512 0.007441
21760 0.94468338 1.24196562 -9.70132482 -0.004118999999999999 0.038343 0.005263
21780 0.95905503 1.21936338 -9.7579089 -0.000909 0.03834 0.003149
21800 1.00590759 1.1946618 -9.765246780000002 0.0033590000000000004 0.037265 0.002112
21820 1.0036611 1.1975067000000001 -9.76164651 0.0033590000000000004 0.040448000000000005 0.005313
21840 1.0463247900000001 1.1946618 -9.736650630000002 0.003378 0.04577 0.006374
21860 1.0093509 1.21187835 -9.69519357 0.003407 0.053222000000000005 0.007432999999999999
21880 0.9330094800000001 1.21546881 -9.69054363 0.008741 0.055326 0.009604
21900 0.8791231500000001 1.2488522400000002 -9.70686747 0.003407 0.054283000000000005 0.0085
21920 0.8439444899999999 1.25454204 -9.72856719 -0.014749000000000003 0.040537 -0.001223
21940 0.8490358800000001 1.2470570100000002 -9.74982546 -0.022217 0.02677 -0.015145
21960 0.8937891 1.28567898 -9.75011976 -0.016891999999999997 0.020376 -0.019372
21980 0.92358207 1.24990191 -9.72168057 -0.010573 0.008611 -0.012904
22000 0.96204708 1.27190574 -9.739348380000001 -0.005325 0.0042710000000000005 0.002094
22020 0.9744763500000001 1.2573869400000002 -9.728115930000001 0.001086 0.020172 0.016005000000000002
22040 0.99468495 1.2087391500000002 -9.74308599 0.010779 0.048867 0.024582
22060 1.01518785 1.22579874 -9.77032836 0.02151 0.067983 0.029973000000000007
22080 1.0448238600000002 1.2666672 -9.73515951 0.024787 0.081833 0.026774
22100 1.0309034700000002 1.21218246 -9.72064071 0.017377 0.082971 0.01497
22120 1.01369673 1.2073853700000001 -9.73246176 0.005593 0.05114 -0.006436
22140 0.9725241600000001 1.24466337 -9.7695828 -0.010462 0.014014 -0.032138
22160 0.9499219200000001 1.2633710399999998 -9.73590507 -0.015854 -0.011483 -0.044961
22180 0.9334607400000001 1.2451146300000002 -9.71330283 -0.01807 -0.022158 -0.037486
22200 0.9096616800000001 1.2433194000000003 -9.72677196 -0.016036 -0.015889 -0.008637
22220 0.91010313 1.2524427 -9.74668626 -0.00432 0.009517 0.021322
22240 0.94183848 1.2608302500000002 -9.75745764 0.020275 0.049801 0.049216
22260 0.9123496200000001 1.26755991 -9.74308599 0.02249 0.077452 0.05881
22280 0.91519452 1.2910646700000001 -9.71105634 0.015137 0.091373 0.04699
22300 0.9618999300000001 1.26891369 -9.709113960000002 0.005632 0.08937 0.023426
22320 0.98225568 1.2742993800000002 -9.69354549 -0.006046 0.069303 -0.009745
22340 0.96563754 1.2344805900000002 -9.67647609 -0.011395 0.042784 -0.033249
22360 0.9457330500000001 1.0946782800000001 -9.747127710000001 -0.008242 0.025754000000000003 -0.039615
22380 1.01234295 1.04557923 -9.79473564 -0.005162 0.015026 -0.023556
22400 1.12401018 1.06218756 -9.760155390000001 -0.003095 0.021325 -0.0021850000000000003
22420 1.10455695 1.162485 -9.72258309 0.001153 0.040391 0.021321
22440 1.0057604400000002 1.2656175300000003 -9.70192323 0.001182 0.059515 0.034115
22460 0.9053158500000001 1.4027319 -9.71344998 -0.002019 0.059526 0.034093
22480 0.85606965 1.5043733099999999 -9.73815156 9.6e-05 0.043586 0.022377
22500 0.8253839700000001 1.5343134299999999 -9.78529842 0.002234 0.028729 0.006388
22520 0.850527 1.4632105499999999 -9.71479395 0.000129 0.021335 -0.007504
22540 0.86384898 1.33177617 -9.656120340000001 -0.003047 0.021368 -0.012866999999999998
22560 0.9036677700000001 1.15200792 -9.70821144 0.000168 0.027735000000000003 -0.009648
22580 1.00740852 0.99648018 -9.79024266 -0.001947 0.037309 -0.004334
22600 1.1741589000000001 0.7924517999999999 -9.80640954 -0.000904 0.04365 0.0074150000000000015
22620 1.24915635 0.87718077 -9.72542799 0.0033490000000000004 0.045744 0.012783
22640 1.16172963 1.08195471 -9.688002840000001 0.000139 0.044686 0.013831
22660 0.9533652300000001 1.4229405000000002 -9.75731049 -0.003042 0.043653 0.008468999999999999
22680 0.8104139100000001 1.59612624 -9.75685923 -0.0019760000000000003 0.039405 0.004209
22700 0.7450008300000001 1.62367272 -9.71988534 -0.001956 0.038361 -0.001131
22720 0.7319731500000001 1.5057172800000003 -9.764942670000002 -0.003018 0.037308 -0.003274
22740 0.8300241 1.3247424000000003 -9.77108373 -0.0030280000000000003 0.036239 -0.002204
22760 0.91894194 1.14586686 -9.74578374 -0.00198 0.037279 0.003143
22780 1.0389869100000002 1.0448238600000002 -9.73410984 -0.005191 0.039404 0.007391
22800 1.09602225 1.052613 -9.715549320000001 -0.004124 0.041522 0.009532
22820 1.07102637 1.07012385 -9.62768115 -0.000928 0.041506 0.010623
22840 1.04587353 1.12536396 -9.705366540000002 0.000129 0.03725 0.008499
22860 1.0008162 1.2666672 -9.79353882 0.000144 0.03408 0.002094
22880 1.01369673 1.31845419 -9.79233219 -0.001985 0.030909 -0.00219
22900 0.9886910400000001 1.28508057 -9.75207195 -0.00198 0.030913 -0.003258
22920 0.93600153 1.2726513 -9.755966520000001 -0.000913 0.033031 -0.001117
22940 0.9369040500000001 1.2219041700000002 -9.70491528 0.000149 0.037267 0.004226
22960 0.94214259 1.1837432700000001 -9.7115076 -0.000918 0.039393 0.006352
22980 0.94902921 1.17789651 -9.68979807 -0.000928 0.039384 0.008489
23000 0.9572598 1.1862840600000002 -9.70266879 -0.001995 0.039388 0.008481
23020 0.93091014 1.22430762 -9.76135221 -0.001985 0.037275 0.004211
23040 0.9487251000000001 1.2582796500000002 -9.75296466 -0.000918 0.03621 0.003152
23060 0.93255822 1.26920799 -9.75880161 -0.0008990000000000002 0.038349 0.001013
23080 0.9497747700000001 1.25409078 -9.72198468 -0.003023 0.041548 0.002062
23100 0.9623511900000001 1.20903345 -9.70431687 -0.005167000000000001 0.040486 0.003117
23120 0.9714843000000001 1.21682259 -9.71779581 -0.0041 0.039421 0.002057
23140 0.96459768 1.2195105300000002 -9.740241090000001 -0.000904 0.040467 0.004215
23160 0.98988786 1.21337928 -9.755515260000001 -0.001971 0.04047 0.004207
23180 0.98405091 1.20768948 -9.72976401 -0.005171 0.042604 0.006319
23200 0.9967744800000001 1.22819238 -9.73036242 -0.005162 0.041551 0.003115
23220 0.98839674 1.20304935 -9.73336428 -0.005176 0.036233 0.000986
23240 0.95651424 1.2055901400000002 -9.7519248 -0.006224 0.039437 -9.4e-05
23260 0.9532180800000001 1.2159200700000001 -9.73904427 -0.007286 0.042628 0.002031
23280 0.9391505400000001 1.22879079 -9.731412090000001 -0.008338 0.043706 -0.000114
23300 0.9530709300000001 1.22086431 -9.73066653 -0.005152 0.04156 0.0009789999999999998
23320 0.95695569 1.23523596 -9.695635020000001 -0.001961 0.040479 0.002071
23340 0.9648919800000001 1.20993597 -9.71659899 -0.001971 0.039409 0.00314
23360 0.94379067 1.22684841 -9.74324295 -0.003018 0.043674 0.003128
23380 0.9629496000000001 1.22460192 -9.76120506 -0.0040950000000000005 0.040486 0.002056
23400 0.94917636 1.22325795 -9.73844586 -0.003018 0.041552 0.000994
23420 0.98464932 1.2332837700000001 -9.74728467 -0.0030280000000000003 0.040483 0.002063
23440 0.960399 1.21966749 -9.731716200000001 -0.0008990000000000002 0.040471 0.003147
23460 0.9548661600000001 1.2250531800000002 -9.71495091 -0.0008939999999999998 0.039414 0.001011
23480 0.9711801900000001 1.2440649600000002 -9.77632227 -0.0019760000000000003 0.037283 0.002075
23500 0.95905503 1.2463114499999999 -9.731716200000001 -0.005167000000000001 0.037303 -8.4e-05
23520 0.9630967500000001 1.2397191300000001 -9.69249582 -0.007286 0.039445 -0.00117
23540 0.9601047 1.2407688000000001 -9.73096083 -0.007291 0.039441 -0.000101
23560 0.95501331 1.21383054 -9.74967831 -0.0040950000000000005 0.041547 0.003123
23580 0.96654006 1.23687423 -9.76300029 0.001235 0.044708 0.007429000000000002
23600 0.9660888000000001 1.21053438 -9.7519248 0.001215 0.041507 0.008501
23620 0.96594165 1.21472325 -9.71988534 -0.003071 0.029834 0.001009
23640 0.95666139 1.23538311 -9.70985952 -0.0062770000000000005 0.020292 -0.007547
23660 0.95965344 1.22251239 -9.715392360000001 -0.009468 0.020312 -0.009706
23680 0.9542677500000001 1.20963186 -9.76044969 -0.010525 0.028812 -0.003315
23700 0.98225568 1.2271525200000002 -9.74877579 -0.008357999999999999 0.04475 0.005225
23720 0.960399 1.2424168800000002 -9.73051938 -0.001932 0.057481 0.012732
23740 0.95816232 1.19706525 -9.71479395 0.007654999999999999 0.055312 0.013869
23760 0.9448305300000001 1.2308901300000001 -9.721082160000002 0.0076409999999999985 0.041506 0.0032049999999999995
23780 0.9497747700000001 1.24660575 -9.752817510000002 -0.003052 0.024546 -0.008598999999999999
23800 0.94603716 1.25229555 -9.70656336 -0.008391 0.016073 -0.016103
23820 0.9530709300000001 1.2091806 -9.7171974 -0.01051 0.022459 -0.012921
23840 0.96563754 1.2319398000000001 -9.71868852 -0.009472 0.030918 0.002031
23860 0.9848062800000001 1.24091595 -9.751473540000001 -0.006261999999999999 0.044708 0.013786
23880 0.99288972 1.25648442 -9.75416148 0.001182 0.046783 0.021313
23900 0.97656588 1.25394363 -9.7231815 0.005449 0.046768 0.021343
23920 0.9713273400000001 1.2478025700000002 -9.71000667 0.006534999999999999 0.043598000000000005 0.013877
23940 0.98719992 1.21038723 -9.71075223 0.002306 0.03622 -0.002167
23960 0.94962762 1.22115861 -9.727968780000001 -0.001952 0.027755 -0.012868
23980 0.9648919800000001 1.2081407400000002 -9.75446559 -0.003009 0.027768 -0.015012
24000 0.98974071 1.2219041700000002 -9.73829871 -0.003009 0.036256 -0.006476999999999999
24020 0.98210853 1.26307674 -9.747431820000001 -0.003052 0.035156 0.00207
24040 0.9705817800000001 1.3115773800000001 -9.70641621 0.001182 0.039356 0.013845
24060 0.9497747700000001 1.27848825 -9.68650191 0.004378 0.045706 0.021336
24080 0.9286734600000001 1.1921210100000001 -9.70117767 0.000129 0.048921 0.020234
24100 0.99004482 1.1557455300000001 -9.75057102 -0.00198 0.044706 0.010611
24120 1.00021779 1.16951877 -9.78261048 0.002311 0.040468 0.001033
24140 0.9813629700000001 1.20170538 -9.74219328 0.005512 0.036213 -0.003213
24160 0.9469298700000001 1.29974652 -9.731412090000001 0.000177 0.036232 -0.00325
24180 0.92148273 1.3522888800000001 -9.71509806 0.002302 0.041521 0.004236
24200 0.8930435400000001 1.3843185300000003 -9.71419554 0.002297 0.046822 0.010638
24220 0.92717253 1.2886710300000002 -9.72078786 0.003354 0.048931 0.014916
24240 0.97387794 1.1493101700000001 -9.73260891 0.002282 0.04787 0.01491
24260 1.04333274 1.1027519099999998 -9.76568823 0.00122 0.044695 0.010633
24280 1.0627859700000002 1.1150340300000001 -9.74129076 -0.000904 0.038345 0.002081
24300 1.0178856 1.19915478 -9.73979964 0.00015800000000000002 0.034093 -0.001111
24320 0.96654006 1.26996336 -9.71031078 0.001239 0.035163 -0.0032409999999999995
24340 0.9229836600000001 1.32923538 -9.72213183 -0.0008939999999999998 0.036231 -0.002189
24360 0.90756234 1.37594079 -9.751473540000001 -0.003057 0.035152 0.003138
24380 0.89050275 1.3180127400000001 -9.73874997 -0.000947 0.033001 0.00636
24400 0.90995598 1.2581325 -9.735453810000001 0.001177 0.034046 0.009579
24420 0.9349518600000001 1.21232961 -9.712106010000001 0.001187 0.037238 0.010643
24440 0.9617527800000001 1.18358631 -9.719591040000001 0.000134 0.037254 0.007431
24460 0.98540469 1.16801784 -9.7058178 -0.001995 0.034082999999999995 0.003147
24480 0.98076456 1.21292802 -9.7260264 -0.004104 0.036234 -7.5e-05
24500 0.97027767 1.22879079 -9.76254903 -0.001961 0.037296 -0.00113
24520 0.96159582 1.28852388 -9.764795520000002 0.000177 0.037293 -0.002183
24540 0.97342668 1.3102235999999998 -9.74578374 -0.0008990000000000002 0.038349 0.001013
24560 0.95695569 1.24750827 -9.73291302 -0.0019760000000000003 0.040466 0.005275
24580 0.9609974100000002 1.2202659 -9.73066653 -0.000918 0.040454 0.0074189999999999985
24600 0.9593591400000001 1.2407688000000001 -9.695487870000001 -0.003057 0.039396 0.007406
24620 0.93555027 1.21981464 -9.696086280000001 -0.003047 0.040466 0.006336
24640 0.92882061 1.2019996800000001 -9.72946971 0.000144 0.036202 0.004228
24660 0.9562101300000001 1.23627582 -9.75640797 -0.000923 0.035145 0.003153
24680 0.96744258 1.2513930300000002 -9.77018121 -0.001985 0.035153 0.002078
24700 0.94783239 1.23553026 -9.75057102 -0.004109000000000001 0.03623 0.000993
24720 0.9487251000000001 1.2347847 -9.7143525 -0.000909 0.036218 0.001015
24740 0.95905503 1.2009500100000001 -9.69099489 -0.00199 0.036209 0.004213000000000001
24760 0.9629496000000001 1.2331366200000002 -9.721386270000002 -0.003052 0.038339 0.0052710000000000005
24780 0.9695321100000001 1.2581325 -9.727517520000001 -0.001985 0.038336 0.005278
24800 0.9955776600000001 1.22101146 -9.74099646 0.00015800000000000002 0.039398 0.004224
24820 0.9993250800000001 1.2057471000000002 -9.73815156 -0.001966 0.040475 0.003139
24840 0.99258561 1.2100831200000002 -9.73275606 -0.005167000000000001 0.039425 0.00205
24860 0.97641873 1.2177153 -9.752366250000001 -0.0041 0.040482 0.003124
24880 0.95202126 1.2481066800000002 -9.73949553 -0.003023 0.04367 0.004196
24900 0.9686394 1.2240035100000002 -9.7490799 -0.003038 0.041535 0.005267
24920 0.9515699999999999 1.22520033 -9.72961686 -0.000918 0.038332 0.005286
24940 0.9337550400000001 1.2614286599999998 -9.74293884 0.00122 0.040451 0.006365999999999999
24960 0.95202126 1.24495767 -9.75372003 -0.000904 0.042589 0.006348
24980 0.9313614 1.23433344 -9.74607804 -0.001956 0.046849 0.007404000000000002
25000 0.96130152 1.24196562 -9.73396269 0.003373 0.043643 0.005309
25020 0.9629496000000001 1.2448105200000001 -9.72677196 0.0076209999999999984 0.040428 0.006411
25040 0.9713273400000001 1.22729967 -9.73246176 0.001196 0.03088 0.002105
25060 0.96130152 1.21113279 -9.73590507 -0.002052 0.01069 -0.007506
25080 0.96728562 1.22160987 -9.76044969 -0.002057 0.00432 -0.012838999999999998
25100 1.00066905 1.217421 -9.73949553 -0.006314999999999999 0.012831 -0.00647
25120 0.9484308 1.25274681 -9.72587925 -0.010544 0.036222 0.008426000000000001
25140 0.93645279 1.23298947 -9.700432110000001 -0.00941 0.05962000000000001 0.016949000000000002
25160 0.95965344 1.2307429799999998 -9.72542799 -0.001904 0.073421 0.022325
25180 0.95980059 1.20798378 -9.733207320000002 0.001307 0.070236 0.017011000000000002
25200 0.95666139 1.2397191300000001 -9.74982546 0.000221 0.052185 0.003139
25220 0.94379067 1.2325382100000002 -9.74174202 -0.005133 0.035211 -0.009695
25240 0.95591583 1.2436137 -9.7171974 -0.012601 0.02781 -0.017215
25260 0.9517171500000001 1.2481066800000002 -9.721082160000002 -0.013677000000000002 0.029927 -0.012953
25280 0.9693849600000001 1.2350790000000003 -9.711350640000001 -0.013687 0.038407 -0.002281
25300 0.9455859000000001 1.23777675 -9.74578374 -0.006253 0.043656 0.010583
25320 0.9580053600000001 1.22819238 -9.751473540000001 0.001187 0.042543 0.015977
25340 0.97791966 1.24122006 -9.73844586 0.001182 0.039356 0.013845
25360 0.9725241600000001 1.2249060300000003 -9.711949050000001 -0.005205 0.031964 0.003127
25380 0.96444072 1.1843416800000002 -9.7171974 -0.005176 0.026684 -0.008616
25400 0.9379537200000001 1.22041305 -9.74638215 -0.008348000000000001 0.027782 -0.013981
25420 0.9365999400000001 1.2481066800000002 -9.74607804 -0.009396 0.035230000000000004 -0.010793
25440 0.9262700100000001 1.23837516 -9.73874997 -0.007276 0.040515 -0.002239
25460 0.95142285 1.2428681400000001 -9.721239120000002 0.001239 0.047895 0.009561
25480 0.9397489500000001 1.27116018 -9.703571310000001 0.003368 0.053188 0.015979
25500 0.9234251100000002 1.26996336 -9.71779581 -0.0008990000000000002 0.051081 0.013815
25520 0.9381008700000001 1.1627793 -9.705366540000002 -0.004071 0.048996 0.00525
25540 0.97851807 1.08464265 -9.747578970000001 -0.008314 0.04691 -0.002255
25560 1.02162321 1.09033245 -9.74293884 -0.010443 0.041617 -0.008672
25580 1.0178856 1.16727228 -9.72901845 -0.012596 0.038424 -0.007615
25600 0.9448305300000001 1.2925655999999999 -9.76898439 -0.009405 0.039465 -0.004389
25620 0.92372922 1.3498952400000002 -9.77092677 -0.006233 0.041551 0.004176
25640 0.8873537400000001 1.3994357400000002 -9.74997261 -0.007334 0.039403 0.009512
25660 0.9110056500000001 1.3455494099999998 -9.74159487 -0.010534 0.039414 0.00949
25680 0.9391505400000001 1.2439178100000001 -9.73920123 -0.008386 0.042602 0.009501
25700 1.00231713 1.14197229 -9.72168057 -0.021107 0.05863400000000001 0.007254999999999998
25720 1.04228307 1.09138212 -9.71404839 -0.035947 0.079992 0.007123999999999998
25740 1.02611619 1.10245761 -9.71883567 -0.022088 0.078874 0.00829
25760 0.97342668 1.17385479 -9.71734455 -0.007243 0.060704 0.010554
25780 0.92642697 1.25319807 -9.75312162 0.008631 0.032946 0.011769
25800 0.8958884400000001 1.3364163 -9.74129076 0.016113 0.048848 0.024619
25820 0.9051687 1.3004920800000002 -9.731559240000001 0.002349 0.07233300000000001 0.024493
25840 0.9322639200000001 1.24466337 -9.72946971 -0.013582 0.086245 0.022227
25860 0.96219423 1.2012541200000002 -9.74114361 -0.011362 0.108596 0.025419
25880 0.9542677500000001 1.19571147 -9.737101890000002 -0.009146 0.130942 0.029679
25900 0.9657945 1.1966139900000001 -9.72992097 -0.019887 0.109695 0.02429
25920 0.9458802000000001 1.25887806 -9.72572229 -0.024202 0.10224 0.027474
25940 0.95651424 1.31397102 -9.74862864 -0.025216 0.11184 0.025318
25960 0.94034736 1.3218975000000002 -9.71928693 -0.027312 0.116126 0.021025
25980 0.93016458 1.26786402 -9.74967831 -0.040138 0.112966 0.023076
26000 0.96219423 1.2156257700000002 -9.76613949 -0.034871 0.09379 0.018864
26020 0.98569899 1.1966139900000001 -9.73949553 -0.02635 0.08632000000000001 0.01466
26040 0.98988786 1.16592831 -9.700275150000001 -0.021165 0.046912 0.008338
26060 1.00291554 1.1762582400000001 -9.70776018 -0.014916999999999996 0.008556999999999999 0.004158
26080 0.9830012400000001 1.22520033 -9.728115930000001 0.010625 0.003107 0.012889
26100 0.9741722400000001 1.24855794 -9.74324295 0.020328 0.024383 0.011861
26120 0.97088589 1.2347847 -9.736199370000001 0.00333 0.022385 -0.0064150000000000006
26140 0.9535123800000002 1.2213057600000001 -9.763294590000001 -0.014730000000000004 0.010845 -0.035368000000000004
26160 0.95695569 1.3130685 -9.74458692 -0.005128 0.004446 -0.041702
26180 0.97013052 1.29675447 -9.740545200000001 0.010808 -0.005219 -0.036237
26200 1.0220744700000002 1.19391624 -9.78110955 0.00655 0.005415 -0.027735000000000003
26220 1.02716586 1.15724646 -9.771829290000001 -0.000933 0.013916 -0.016048
26240 0.95905503 1.2629197800000003 -9.6767802 0.005459 0.030861000000000006 0.003203
26260 0.91385055 1.4055768 -9.643691070000001 0.011855 0.041445 0.014985
26280 0.8502327000000002 1.3900083300000001 -9.640699020000001 0.005464 0.041476 0.012804
26300 0.80996265 1.25753409 -9.6887484 0.00655 0.039367 0.006405
26320 0.83870595 1.1906200800000002 -9.80820477 0.011884 0.032982 4.1e-05
26340 0.9108585 1.20274524 -9.87032169 0.013994 0.022343 -0.005272
26360 1.0827002700000001 1.3001977800000002 -9.75326877 0.009722 0.020232 -0.006367
26380 1.116378 1.31845419 -9.65417796 0.010822 0.029807 -0.004235
26400 1.20214683 1.3084283700000001 -9.69429105 0.015061 0.028706 0.001137
26420 1.13419296 1.32998094 -9.79383312 0.006506999999999999 0.026596 0.003216
26440 1.29885381 1.2552876 -9.759409830000001 0.002249 0.032986 0.007451
26460 1.3392612000000002 1.2325382100000002 -9.73081368 0.009712 0.032956 0.008570999999999999
26480 1.2359815200000002 1.22998761 -9.71090919 0.008669 0.035102999999999995 0.005357
26500 1.2361286699999998 1.2693649500000002 -9.66958947 -0.006243 0.033054 -0.002222
26520 1.09691496 1.19975319 -9.675730530000001 -0.007286 0.041567 0.000964
26540 1.06099074 1.01623752 -9.62289387 0.002297 0.039395 0.00317
26560 1.0234184400000002 1.1964668400000003 -9.711949050000001 -0.001995 0.035144 0.004214
26580 1.01413818 1.56424374 -9.74877579 -0.009434 0.037318 -0.000114
26600 1.09183338 1.48326219 -9.67886973 -0.006219 0.040502 -9.5e-05
26620 1.08928278 1.28881818 -9.6568659 -0.004079999999999999 0.039438 -0.002215
26640 1.15065414 1.1599344 -9.70940826 -0.005162 0.036246 -0.002219
26660 1.07237034 1.27819395 -9.731716200000001 -0.005152 0.037316 -0.003288
26680 1.03689738 1.2855220200000002 -9.66749994 -0.007281 0.037327 -0.004372
26700 1.07132067 1.2889653300000001 -9.69354549 -0.005147 0.036259 -0.005424
26720 1.04617764 1.3332771 -9.736954740000002 -0.005138 0.03945 -0.004359
26740 1.0835929800000001 1.3757936400000002 -9.72677196 -0.010472 0.038408 -0.005463
26760 1.10320317 1.30438665 -9.72901845 -0.008348000000000001 0.037331 -0.004379
26780 1.15409745 1.2795379199999999 -9.759704130000001 -0.001947 0.03837 -0.0032670000000000004
26800 1.12266621 1.3124700900000001 -9.699980850000001 0.000182 0.039419 -0.001117
26820 1.11518118 1.33267869 -9.62543466 -0.005143 0.040507 -0.002224
26840 1.08210186 1.32175035 -9.67078629 -0.0040950000000000005 0.038364 -7.8e-05
26860 1.0389869100000002 1.2536395200000001 -9.743537250000001 -0.0008990000000000002 0.037288 -5.400000000000001e-05
26880 1.02761712 1.26187992 -9.752523210000001 -0.001961 0.038357 -6.3e-05
26900 1.0538098200000001 1.2524427 -9.70103052 -0.005147 0.040503 -0.001156
26920 1.0797082199999999 1.21337928 -9.72647766 -0.003018 0.03943 -0.00114
26940 1.11532833 1.3238496900000003 -9.75731049 -0.003038 0.037291000000000005 0.000999
26960 1.12700223 1.3647083400000002 -9.73275606 -0.001961 0.039418 0.001004
26980 1.14961428 1.23837516 -9.6796251 -0.003018 0.040491 -7.3e-05
27000 1.10934423 1.18418472 -9.719434080000001 -0.003023 0.039426 -7.2e-05
27020 1.09781748 1.2495978 -9.72303435 -0.005167000000000001 0.037303 -8.4e-05
27040 1.08524106 1.29345831 -9.677221650000002 -0.003042 0.037287 0.0020670000000000003
27060 1.0698295500000001 1.26187992 -9.71479395 -0.003047 0.035161000000000005 0.001002
27080 1.0809050400000002 1.27384812 -9.736199370000001 -0.005181 0.034107 -8e-05
27100 1.08494676 1.2891222900000001 -9.73605222 -0.003033 0.038356 0.000998
27120 1.06832862 1.27279845 -9.699676740000001 -0.001966 0.041536 0.0042060000000000005
27140 1.0761079500000001 1.28956374 -9.70851555 -0.000909 0.039401 0.004215999999999999
27160 1.06443405 1.2742993800000002 -9.68711013 -0.007291 0.039441 -0.000101
27180 1.03135473 1.2611245500000001 -9.71075223 -0.005152 0.042621 0.002046
27200 1.05335856 1.2916630800000002 -9.7408395 0.001244 0.042594 0.003159
27220 1.03015791 1.2543948900000002 -9.70416972 -0.003014 0.040495 -0.001141
27240 1.05201459 1.2651662700000001 -9.719591040000001 -0.0062 0.043702 -0.001168
27260 1.07356716 1.30333698 -9.72617355 -0.001956 0.041544 0.00207
27280 1.08014967 1.3070844000000001 -9.708662700000001 -0.000913 0.039397 0.0052840000000000005
27300 1.0743127199999998 1.28252997 -9.69818562 -0.004104 0.041539 0.005259000000000001
27320 1.05635061 1.2710032199999999 -9.7032672 -0.00199 0.038331 0.006346
27340 1.07521524 1.27415223 -9.73889712 0.001206 0.035133 0.004236
27360 1.06488531 1.2826869300000001 -9.743988510000001 0.00015800000000000002 0.036215 0.001023
27380 1.07521524 1.27744839 -9.70447383 -0.001956 0.039422000000000006 -6.4e-05
27400 1.06338438 1.2726513 -9.71794296 -0.003023 0.039426 -7.2e-05
27420 1.0806009300000001 1.2638223 -9.715843620000001 -0.0008990000000000002 0.037288 -5.400000000000001e-05
27440 1.05964677 1.28448216 -9.73949553 -0.003042 0.037287 0.0020670000000000003
27460 1.0666805400000001 1.2657646800000002 -9.72078786 -0.003038 0.039413 0.003133
27480 1.0720662300000001 1.2650191200000003 -9.708662700000001 -0.003047 0.038344 0.004202
27500 1.08195471 1.28178441 -9.70416972 0.000144 0.038324 0.006361
27520 1.0891356300000001 1.30184586 -9.715696470000001 -0.003047 0.039405 0.005268999999999999
27540 1.09872 1.2763987199999998 -9.70342416 -0.004104 0.040478 0.004192
27560 1.0773145800000001 1.27924362 -9.699980850000001 -0.000913 0.038336 0.004217
27580 1.07746173 1.2747506400000002 -9.71299872 -0.003038 0.041535 0.005267
27600 1.07521524 1.28657169 -9.7345611 -0.010467 0.047961 0.00307
27620 1.07715762 1.2886710300000002 -9.71704044 -0.008295 0.054354 0.000941
27640 1.02626334 1.2982455900000003 -9.677525760000002 0.002311 0.040468 0.001033
27660 1.03719168 1.2578382000000001 -9.70132482 0.005483 0.034066 0.001063
27680 1.06802451 1.34061498 -9.74114361 -0.007276 0.046881 0.004162
27700 1.06009803 1.32818571 -9.7348554 -0.011505 0.06178400000000001 0.010523
27720 1.1047041 1.27295541 -9.71060508 0.008669 0.043591000000000005 0.013891999999999998
27740 1.10260476 1.26621594 -9.70147197 0.009693 0.026572 0.006443000000000001
27760 1.03510215 1.26831528 -9.72707607 -0.009501 0.024526 0.002039
27780 1.0509649200000002 1.27864521 -9.73111779 -0.022236 0.039485 0.001931
27800 1.06158915 1.26681435 -9.71075223 -0.007276 0.047942 0.005229
27820 1.07910981 1.2936054600000002 -9.72018945 -0.00309 0.034061 0.009549
27840 1.07701047 1.3187583 -9.759252870000001 -0.01806 0.023474 0.006253
27860 1.0707222600000001 1.2916630800000002 -9.68546205 -0.01273 0.024512 0.008425
27880 1.07491113 1.28013633 -9.71524521 0.003287 0.028713 0.0096
27900 1.07057511 1.25259966 -9.72961686 -0.004152 0.030886 0.005273
27920 1.07506809 1.3073787000000001 -9.73889712 -0.007348 0.02878 0.002048
27940 1.0734200100000002 1.28776851 -9.71524521 0.006506999999999999 0.027657 0.004283
27960 1.08030663 1.25184429 -9.71404839 0.008636 0.026585 0.004299
27980 1.08898848 1.31397102 -9.70671051 0.003325 0.03193 0.004255
28000 1.06758306 1.2952535399999998 -9.70072641 0.0044210000000000005 0.037257 0.003188
28020 1.06368849 1.2810388499999998 -9.7146468 0.00977 0.039373000000000005 0.002154
28040 1.0503665100000001 1.2754962 -9.72183753 0.012994 0.042566 3.6e-05
28060 1.0571059800000002 1.27564335 -9.71674614 0.010889 0.047904 -0.0010539999999999998
28080 1.0806009300000001 1.30214016 -9.73515951 0.014075 0.043636 -0.002094
28100 1.0837499400000001 1.2966073200000001 -9.71090919 0.008722 0.040454 -0.001059
28120 1.11204198 1.3169630700000001 -9.739642680000001 0.005497 0.035139 -0.001075
28140 1.09183338 1.31471658 -9.691897410000001 -0.000923 0.034084 0.002086
28160 1.04362704 1.33133472 -9.66690153 0.000134 0.035132 0.005297
28180 1.01174454 1.2003516 -9.716294880000001 0.005469 0.038297000000000005 0.008535
28200 0.9636951600000001 1.16308341 -9.73081368 0.0065450000000000005 0.041485 0.009607
28220 0.95231556 1.38267045 -9.81074556 0.007612000000000002 0.041481 0.009614
28240 1.06323723 1.3768335 -9.71839422 0.00977 0.043617 0.006422
28260 1.1972124 1.20544299 -9.59819229 0.006583 0.044702 0.004262
28280 1.2386694600000003 1.18074141 -9.71299872 0.000182 0.041541 0.001016
28300 1.2397191300000001 1.25664138 -9.79398027 -0.003042 0.036226 0.001001
28320 1.1485646100000002 1.25708283 -9.715549320000001 -0.000933 0.035136 0.00529
28340 1.04243022 1.2231108000000002 -9.689346810000002 0.001206 0.038316 0.007437
28360 1.01563911 1.23822801 -9.75895857 -0.000957 0.037237 0.012764
28380 1.0681814699999999 1.3974933600000001 -9.70806429 -0.003124 0.035092 0.018093
28400 1.1407754700000001 1.4004854100000002 -9.63306684 0.001144 0.035078 0.018123
28420 1.11218913 1.2816372600000001 -9.69024933 0.00755 0.033998 0.016031999999999998
28440 1.06323723 1.35303444 -9.74069235 0.007587999999999998 0.036155 0.009621
28460 1.02147606 1.3570761599999999 -9.695487870000001 0.0033159999999999995 0.031921 0.006392
28480 0.98225568 1.281186 -9.67932099 0.011841 0.0287 0.005386999999999999
28500 0.9756731700000001 1.2843252 -9.73336428 0.019304 0.024425 0.00224
28520 1.03629897 1.33521948 -9.75326877 0.009746 0.030863 -0.00104
28540 1.06354134 1.34166465 -9.696988800000002 0.005531 0.041535 -0.002151
28560 1.04197896 1.3124700900000001 -9.691897410000001 0.006587999999999999 0.043645 0.002127
28580 1.02297699 1.35333855 -9.73336428 0.004435000000000001 0.041513 0.004251
28600 1.03584771 1.2769971300000003 -9.705366540000002 0.000139 0.03832 0.007429000000000002
28620 1.10051523 1.23462774 -9.72287739 0.000101 0.032981 0.010641
28640 1.07356716 1.1868824699999998 -9.72677196 0.003268 0.029757 0.01494
28660 1.11218913 1.2006557100000002 -9.74563659 -0.000971 0.03298 0.011701
28680 1.1349385200000002 1.28238282 -9.73605222 -0.004118999999999999 0.041526 0.008464
28700 1.09826874 1.2998936700000001 -9.68905251 -0.0094 0.05008 0.005211
28720 1.02446811 1.3045338 -9.740241090000001 -0.015715 0.06185 -0.002325
28740 1.0565075700000002 1.33432677 -9.75401433 -0.020983 0.071477 -0.007716
28760 1.05306426 1.26681435 -9.72168057 -0.012515 0.056534 -0.007637
28780 1.0717719300000002 1.23987609 -9.69893118 -0.007256999999999999 0.044776 -0.002245
28800 1.10140794 1.19781081 -9.70491528 -0.016859 0.055419 0.008357
28820 1.11008979 1.22280669 -9.73096083 -0.009386 0.058579999999999986 0.010542
28840 1.10829456 1.25184429 -9.716147730000001 -0.005128 0.053252 0.007373
28860 1.09707192 1.2590350200000002 -9.68860125 -0.020016 0.060774 0.004055
28880 1.09198053 1.25633727 -9.71344998 -0.028522 0.064012 0.000787
28900 1.06787736 1.2614286599999998 -9.711801900000001 -0.020088 0.044795 0.004075
28920 1.06892703 1.31606055 -9.724829580000002 -0.019079 0.030947 0.003032
28940 1.04602068 1.3109691599999997 -9.692642970000001 -0.017012 0.019209 0.006266
28960 0.9993250800000001 1.24167132 -9.70103052 -0.008544 0.00957 0.011678
28980 1.01489355 1.2862773900000002 -9.74458692 -0.006435 0.008481 0.015968
29000 1.02297699 1.33162902 -9.73605222 -0.001091 0.013775 0.019203
29020 1.0324044 1.3156092899999998 -9.69429105 0.001062 0.01909 0.020279
29040 1.0822490100000002 1.2819315599999999 -9.71449965 0.004306 0.024422 0.016022
29060 1.10080953 1.24167132 -9.75760479 0.00544 0.028722 0.005342
29080 1.11757482 1.2040990200000001 -9.72992097 0.005516 0.036217 -0.004281
29100 1.13015124 1.18613691 -9.69398694 0.005521 0.031978 -0.009616
29120 1.11712356 1.17970155 -9.71031078 0.0034020000000000005 0.033059 -0.011769
29140 1.09198053 1.23627582 -9.72287739 0.00555 0.035186 -0.012825
29160 1.0674261 1.26681435 -9.72587925 0.006631000000000001 0.039439 -0.011755
29180 1.04587353 1.25723979 -9.73111779 0.004459 0.037291000000000005 -0.005358
29200 1.04018373 1.25349237 -9.70940826 -0.003009 0.041561 -0.001142
29220 1.01040057 1.2650191200000003 -9.721082160000002 0.000187 0.047911 0.0063490000000000005
29240 1.0382413499999998 1.26052614 -9.75162069 0.011894 0.04254 0.007506
29260 1.1280519 1.26351819 -9.755809560000001 0.0076409999999999985 0.042567 0.004272
29280 1.09198053 1.27205289 -9.691593300000001 0.001268 0.044737 -4.8e-05
29300 0.9773212500000001 1.2240035100000002 -9.67317993 0.001292 0.047942 -0.002189
29320 0.95022603 1.21412484 -9.721386270000002 0.001297 0.05219 0.00101
29340 1.00920375 1.2695121 -9.80820477 0.000216 0.052180999999999984 0.004208
29360 1.11472992 1.24915635 -9.72512388 -0.000851 0.050063 0.002066
29380 1.21023027 1.20274524 -9.69039648 0.000225 0.050067 -6.3e-05
29400 1.2404745000000001 1.21292802 -9.71524521 -0.001894 0.049027 -0.004349
29420 1.22101146 1.19616273 -9.69818562 -0.007252 0.041597 -0.006513
29440 1.20544299 1.21397769 -9.72048375 -0.006229 0.033067 -0.005427
29460 1.2261028499999997 1.2573869400000002 -9.703718460000001 -0.004143 0.030895 0.003136
29480 1.162485 1.27025766 -9.671835960000001 -0.002071 0.028710000000000006 0.014904
29500 1.14272766 1.33237458 -9.707917140000001 -0.006348 0.03296 0.021278
29520 1.0880859600000001 1.34614782 -9.70342416 -0.012735 0.039362 0.02443
29540 0.98375661 1.3793841 -9.68905251 -0.012726 0.041492 0.024427
29560 0.9018725400000001 1.3768335 -9.73260891 -0.0042 0.036149 0.021289
29580 0.8993317500000001 1.34390133 -9.7291656 -0.005243 0.032991 0.01274
29600 0.96264549 1.2695121 -9.69010218 -0.002 0.037262 0.007416
29620 0.9873470700000001 1.27924362 -9.67034484 0.00444 0.039396 0.001049
29640 1.02132891 1.3046907600000002 -9.70971237 0.00445 0.038343 -0.002154
29660 1.03614201 1.30618188 -9.74308599 0.002354 0.045812 -0.003247
29680 1.1081474100000002 1.31681592 -9.73291302 0.005545 0.047914 0.001046
29700 1.10530251 1.26547038 -9.69773436 0.010856 0.041508 2.3e-05
29720 1.08629073 1.2195105300000002 -9.70776018 0.0065980000000000006 0.041531 -0.002144
29740 1.05799869 1.25873091 -9.74428281 0.002311 0.039407 -3.4e-05
29760 1.05141618 1.3498952400000002 -9.75401433 0.003378 0.040465 0.00104
29780 1.03419963 1.3212990900000001 -9.6972831 0.003368 0.041517 0.004243
29800 1.05111207 1.2488522400000002 -9.71823726 0.005478 0.040427 0.008532
29820 1.0741655700000001 1.2780468 -9.70312005 0.000125 0.035124 0.007432999999999999
29840 1.05725313 1.2332837700000001 -9.68606046 0.000105 0.030863 0.007439
29860 1.00501488 1.20634551 -9.712106010000001 0.002249 0.035108 0.009585
29880 0.97716429 1.22879079 -9.759252870000001 -0.002004 0.035136 0.00635
29900 1.05620346 1.2546891900000001 -9.72213183 -0.01051 0.040496 0.005215999999999999
29920 1.11338595 1.2546891900000001 -9.715392360000001 -0.003047 0.041527 0.007403
29940 1.20020445 1.2189121200000002 -9.7029729 0.003344 0.040435000000000006 0.008517
29960 1.25873091 1.19197386 -9.70955541 -0.000889 0.044724 0.005278
29980 1.24316244 1.2162241800000002 -9.7288713 -0.005123 0.047951 0.000971
30000 1.17640539 1.2650191200000003 -9.71854137 -0.00299 0.047944 0.000986
30020 1.13584104 1.30438665 -9.73215765 -0.001947 0.043675 0.0020670000000000003
30040 1.10410569 1.2436137 -9.711654750000001 -0.001971 0.038348 0.002074
30060 1.07086941 1.27295541 -9.728115930000001 -0.002 0.034079000000000005 0.004215
30080 1.04108625 1.28642454 -9.69398694 -0.002014 0.033005 0.006353
30100 1.0129413600000001 1.2772914300000002 -9.71479395 -0.002043 0.027675 0.007428
30120 0.98390376 1.32265287 -9.7203366 0.00221 0.025525 0.008529
30140 0.9587607300000001 1.3696525800000003 -9.6941439 0.005416 0.029762 0.01175
30160 0.95695569 1.32953949 -9.69354549 0.0033159999999999995 0.036165 0.010659
30180 0.96594165 1.31636466 -9.7231815 -0.00731 0.040485 0.0052380000000000005
30200 0.9918400500000001 1.28747421 -9.73260891 -0.007281 0.042632 0.000963
