time Ax Ay Az Gx Gy Gz
20 4.06674531 1.3338755100000002 -8.8120287 0.018237 0.07323500000000001 0.051308000000000006
40 3.9960936900000004 1.27220004 -8.87938416 0.019309 0.06793099999999999 0.044913
60 3.91480803 1.32894108 -8.91680931 0.022529 0.053083000000000005 0.025727
80 3.89026341 1.3823761500000002 -8.95079115 0.02151 0.045702 0.0075689999999999985
100 3.93546789 1.48027014 -9.01096569 0.018314 0.041473 0.002211
120 3.8565758700000004 1.35138636 -8.97578703 0.020424 0.028713 -0.005235
140 3.85149429 1.3723503300000002 -8.960512860000001 0.013893 0.003156 -0.002043
160 3.81227391 1.39629654 -8.88837012 0.005261999999999999 -0.014937 0.001124
180 3.7985006700000006 1.3939029000000003 -8.932672080000001 -0.001048 0.008509000000000001 0.004255
200 3.81961179 1.42473573 -9.02158992 -0.008409999999999999 0.039398 0.011641
220 3.8812774500000002 1.3584299400000002 -9.064253610000002 -0.015883 0.06064 0.033994
240 4.03530426 1.2536395200000001 -9.055718910000001 -0.026523 0.071313 0.038179000000000005
260 4.1556631500000005 1.2970487700000002 -8.9597673 -0.032943 0.07131799999999999 0.042407
280 4.20759729 1.4889519900000001 -8.82071055 -0.029786 0.05853600000000001 0.039241000000000005
300 4.145029110000001 1.5886510200000001 -8.78522778 -0.025528 0.052147000000000006 0.035006
320 4.102071120000001 1.55122587 -8.782088580000002 -0.021313 0.03617 0.030783
340 4.05507141 1.4917968900000003 -8.91666216 -0.019136 0.037262 0.022251
360 4.05701379 1.49359212 -8.98940331 -0.018017 0.046854 0.02011
380 3.99249342 1.4810157 -9.00661986 -0.011563 0.057489 0.019074
400 3.89550195 1.50781662 -8.96530995 0.000168 0.050016000000000005 0.012756
420 3.8031408000000004 1.3684557600000002 -8.93477142 0.003301 0.025542 0.003195
440 3.8706532200000003 1.21577292 -8.92968003 0.011812 0.008515 -0.008473999999999999
460 3.9899526300000003 1.11427866 -8.92953288 0.016059999999999998 -0.0053100000000000005 -0.018041
480 4.07528001 1.07641206 -8.93896029 0.014965 -0.022308 -0.028709
500 4.07377908 1.0865948400000003 -8.93686095 0.008559 -0.027595 -0.03302
520 4.03111539 1.0115973900000002 -8.9480934 0.007481999999999998 -0.026538 -0.029824
540 4.0101612300000005 1.0865948400000003 -8.85573225 0.005306 -0.025508000000000003 -0.019158
560 3.97737621 1.15619679 -8.8498953 0.003143 -0.034014 -0.021299
580 4.04039565 1.2356774099999999 -8.84331279 -0.0032770000000000004 -0.037192 -0.020271
600 4.11149853 1.26351819 -8.84690325 -0.0032770000000000004 -0.040375 -0.023472
620 4.17227148 1.2573869400000002 -8.85992112 -0.002182 -0.030804 -0.020272
640 4.25490111 1.21787226 -8.80738857 -0.008573 -0.010614 -0.002183
660 4.24217754 1.1064993300000001 -8.76532329 -0.010683 0.01594 0.019133
680 4.22691318 1.0991614500000002 -8.816668830000001 -0.014965 0.021247 0.027642
700 4.20041637 1.1094913800000001 -8.87160483 -0.018165 0.015953 0.022285
720 4.11389217 1.1511054 -8.85738033 -0.018108000000000003 0.018126 0.011601
740 4.00731633 1.1085986700000001 -8.92339182 -0.013769 0.025602 0.003076
760 4.0182446700000005 1.1349385200000002 -8.95647114 -0.009501 0.021343 -0.0011619999999999998
780 3.9615134400000005 1.15829613 -8.967399480000001 -0.004190999999999999 0.017059 -5.1e-05
800 3.9421975500000004 1.20933756 -8.98162398 -0.00632 0.014949 -0.003268
820 3.8859175800000005 1.29450798 -8.995995630000001 -0.008391 0.024561000000000003 -0.007568000000000002
840 3.8000016 1.48146696 -8.98506729 -0.010472 0.028859 -0.015065
860 3.66842007 1.60002081 -8.99329788 -0.009372 0.031007 -0.020401
880 3.6368416800000003 1.60286571 -9.00707112 -0.005075 0.03314 -0.024647
900 3.6797996700000004 1.57382811 -8.987156820000001 -0.002961 0.034176 -0.019292
920 3.7500000300000003 1.45003572 -9.048381030000002 0.007798999999999999 0.056501 -0.017109
940 3.7459583100000002 1.4632105499999999 -9.03416634 0.020841 0.122452 -0.0042840000000000005
960 3.70090098 1.5057172800000003 -8.98985457 0.04125 0.19147 0.034226
980 3.6938672100000005 1.48865769 -8.97084279 0.107362 0.288821 0.140317
1000 3.75478731 1.45123254 -8.984321730000001 0.262285 0.321483 0.362479
1020 3.74012136 1.3665035700000001 -9.01096569 0.5610689999999999 0.058645 0.56466
1040 3.79161405 1.33073631 -8.999438940000001 0.8330110000000001 0.298337 0.5940270000000001
1060 3.8577825 1.2957048 -8.99643708 0.946702 0.785261 0.472419
1080 3.9420504 1.2798420300000002 -8.98177113 1.120596 0.719928 0.409625
1100 3.93695901 1.2629197800000003 -8.93821473 1.083285 0.286352 0.444103
1120 3.91975227 1.21278087 -8.96665392 0.942512 -0.148963 0.470383
1140 3.9098736000000005 1.20768948 -9.19837593 0.879524 -0.253821 0.373937
1160 3.93427107 1.5476354099999998 -9.8968185 0.8696950000000001 -0.310332 0.12931800000000002
1180 3.92693319 1.81722402 -11.01110697 0.763809 -0.42808 -0.16930499999999998
1200 4.297260690000001 2.43259551 -11.471245020000001 0.42498 -0.205929 -0.285188
1220 4.49949384 2.24473401 -10.943594550000002 0.090992 -0.05214 -0.359288
1240 4.995565920000001 1.78144695 -9.31572315 -0.221512 -0.209061 -0.539663
1260 5.30885808 1.18777518 -8.1730053 -0.567032 -0.286239 -0.6530729999999999
1280 4.84348149 0.7512890400000001 -8.69481882 -0.673412 0.400657 -0.509418
1300 4.54230468 0.60219666 -8.487798390000002 0.231664 0.994223 0.25137600000000004
1320 4.4569773 0.17662905 -8.120914200000001 0.217025 -0.25456 0.600046
1340 4.02946731 -0.30357045 -7.69639626 -0.252188 -1.183018 0.09269
1360 3.18941739 -1.34674623 -7.55718255 -0.103591 -0.232092 -0.210866
1380 2.1483311400000003 -1.67681349 -6.370751340000001 -0.006945999999999999 0.359952 -0.232314
1400 2.64335355 -1.39015548 -5.5556973 -0.055094 0.834047 -0.202279
1420 3.29165721 -1.4069207700000002 -6.53405841 0.035225 0.7570140000000001 -0.197277
1440 3.1723578000000003 -1.66423707 -7.3344465 0.036798 0.259115 -0.095147
1460 3.0689211600000004 -1.7919240300000001 -6.8949585 0.082103 -0.212419 0.036097
1480 3.6736586100000004 -1.49164974 -7.71256314 0.040848 -0.256413 0.151233
1500 6.29022105 1.0741655700000001 -13.10778846 -0.121032 -0.121909 0.22150100000000006
1520 9.908198100000002 9.3673728 -15.36763968 -0.153961 -0.107872 0.203093
1540 5.138360280000001 -0.020208600000000004 -10.611437760000001 -0.053002 -0.254994 0.14416600000000002
1560 1.39285323 -8.20398528 -7.279510500000001 0.05347 -0.167603 0.042249
1580 1.1826936000000001 -4.0086603 -6.6515724 0.039773 0.22283000000000006 -0.081193
1600 3.441348 1.04512797 -6.9325308 0.057162 0.4659140000000001 -0.146544
1620 4.10027589 2.54246751 -8.195607540000001 0.189786 0.304585 -0.143275
1640 4.34815497 2.0610613800000004 -9.17920719 0.218378 0.031726 -0.130975
1660 4.08126411 0.72239859 -9.60716844 0.148332 -0.121439 -0.129131
1680 3.9600125100000003 0.27901602 -9.886792680000003 0.034933 -0.154211 -0.093562
1700 4.40848647 0.07409493 -9.77661657 -0.047383 -0.137097 -0.03968
1720 4.56640785 -0.01302768 -9.24432597 -0.102764 -0.0965 -0.02089
1740 4.33782504 -0.21420135 -8.642727720000002 -0.14715 -0.052466999999999986 -0.071463
1760 4.23648774 -0.56373165 -8.58240603 -0.088591 0.14446099999999998 -0.08519299999999999
1780 4.0169007 -0.8852544000000001 -8.99988039 0.06055 0.223318 0.045002
1800 4.3875225 -0.1158561 -9.2982123 0.08854 0.15565 0.159584
1820 4.16614023 0.49382559000000004 -9.26468172 -0.017891999999999998 0.192322 0.138497
1840 4.34695815 0.31614687 -8.802895589999999 -0.001568 0.191491 0.065973
1860 4.43557188 -0.20013381 -8.67087261 0.040135 0.138381 -0.008443
1880 4.201466040000001 -0.46118772 -8.6876379 -0.001582 0.06627999999999999 -0.056712
1900 3.8520927000000005 -0.36419625 -8.9455428 -0.069857 0.023021 -0.101999
1920 3.5810031600000003 -0.10104300000000001 -8.936419500000001 -0.098427 0.021209 -0.156675
1940 3.39299451 -0.20597076000000003 -8.674610220000002 -0.090767 0.056366 -0.164144
1960 3.21636546 -0.84289482 -8.53689744 -0.020537 0.105825 -0.072918
1980 3.79940319 -0.11511054 -9.14014377 0.017266 0.099849 0.05660800000000001
2000 5.194650060000001 0.9894464100000001 -9.887685390000001 -0.066227 0.102015 0.120116
2020 5.72663655 0.46343421000000007 -9.44221329 -0.098099 0.112856 0.100651
2040 4.77731304 -0.42047622 -8.58405411 -0.081942 0.120364 0.074049
2060 3.9158577000000006 -0.7385654700000001 -8.37239355 -0.052046 0.105427 0.053981
2080 3.38191902 -0.34488036 -8.5979745 -0.017012 0.061649 0.04894
2100 3.3078240900000004 -0.35611281 -8.60740191 0.010439 -0.001303 0.050281
2120 3.43805184 -0.54307179 -8.522525790000001 0.015615 -0.035414 0.051429
2140 3.7474592400000004 -0.5882762699999999 -8.52642036 -0.000403 -0.035371 0.054522
2160 4.22196894 -0.79154928 -8.7716115 -0.015262 -0.014031 0.058664
2180 5.05154178 0.00494424 -9.37665306 -0.018261000000000003 0.027539 0.055385
2200 5.64700878 0.8038314000000001 -9.46691487 -0.014898 0.054197 0.04576
2220 5.1421077 -0.03712104000000001 -8.8442055 -0.013773 0.054245 0.032949
2240 4.397999580000001 -0.6303415499999999 -8.267603130000001 -0.013812 0.037235 0.024425
2260 4.04159247 -0.42032907 -8.19754992 -0.003181 0.025492 0.02131
2280 4.05147114 -0.0013439700000000003 -8.62565832 0.011716 0.011613 0.01609
2300 4.271372100000001 0.21015963000000001 -9.08191161 0.02559 0.005203 0.008718
2320 4.352952060000001 0.07948062 -9.214837110000001 0.028868 0.010565 -0.003017
2340 4.339178820000002 -0.04550859 -8.95543128 0.02793 0.024477 -0.017996
2360 4.316419620000001 -0.060321690000000004 -8.76217428 0.025945 0.045836 -0.029788
2380 4.233642840000002 -0.06256818 -8.742122640000002 0.020697 0.059725 -0.035183
2400 4.18829121 -0.04190832 -8.92144944 0.019621 0.062903 -0.029854
2420 4.1962275 -0.01047708 -9.02832939 0.015272 0.054357 -0.020259
2440 4.1817087 -0.05463189 -8.94195234 0.010942 0.052195000000000005 -0.008536
2460 4.16194155 -0.08891784 -8.87474403 0.009856 0.056425 -3e-06
2480 4.16045043 -0.09684432000000001 -8.818915319999999 0.009865 0.060678 0.002128
2500 4.09458609 -0.0925083 -8.84121345 0.008799 0.059621 0.001053
2520 4.08860199 -0.11690577 -8.915612490000001 0.005569 0.054301 0.002106
2540 4.072278150000001 -0.1764819 -8.94974148 0.005497 0.044688 0.008527
2560 4.151317320000001 -0.16151184 -8.92998414 0.0054210000000000005 0.038254 0.019217
2580 4.19443227 -0.12873663 -8.865169470000001 0.003253 0.039293 0.027746
2600 4.25864853 -0.06780672000000001 -8.87175198 0.002182 0.041414 0.030941000000000007
2620 4.26987117 -0.05718249 -8.867857410000001 0.00111 0.038231 0.028801
2640 4.28065236 -0.04340925 -8.867259 -0.002071 0.038259 0.024506
2660 4.2790042800000005 -0.02006145 -8.8846227 -0.000981 0.038277 0.019172
2680 4.24980972 0.03876912000000001 -8.917260570000002 0.003268 0.031879000000000005 0.017074000000000002
2700 4.2234698700000015 0.0489519 -8.90183925 0.005358 0.020162 0.014967
2720 4.27541382 0.06466752 -8.93836188 0.007502 0.015919 0.008578
2740 4.29352308 0.027242370000000002 -8.955274320000001 0.00964 0.012733 0.004324000000000001
2760 4.30594254 0.00074556 -8.91441567 0.009664 0.014876 0.001117
2780 4.25864853 0.01601973 -8.8615692 0.009674 0.017006 0.001114
2800 4.223018610000001 0.01975734 -8.8382214 0.008612 0.020197 0.003239
2820 4.245768 -0.038170710000000004 -8.84944404 0.007554000000000002 0.024454 0.005363000000000001
2840 4.28603805 -0.05673123 -8.88657489 0.006462999999999999 0.024436000000000003 0.010696
2860 4.31268201 -0.05568156 -8.9108154 0.002196 0.024451 0.010666
2880 4.3322922 -0.05044302 -8.86950549 0.002215 0.02659 0.008527
2900 4.26987117 -0.055083150000000004 -8.82355545 0.000105 0.032985 0.009572
2920 4.29950718 -0.07035732 -8.789867910000002 -0.004133 0.040452 0.010602
2940 4.28603805 -0.10463346000000001 -8.820857700000001 -0.005186 0.044713 0.011657
2960 4.336785180000001 -0.15657741000000003 -8.82729306 -0.0041 0.050031 0.012726
2980 4.30983711 -0.16435674 -8.835827759999999 -0.004061 0.054309 0.008448
3000 4.31223075 -0.20058507 -8.83163889 0.000225 0.056433 0.006339
3020 4.31822466 -0.20627487000000003 -8.813971080000002 0.001297 0.051129 -5.600000000000001e-05
3040 4.29741765 -0.23516532 -8.80619175 0.00555 0.044735 -0.003223
3060 4.29576957 -0.23096664 -8.80828128 0.007689 0.039427 -0.009611
3080 4.26717342 -0.21794877000000001 -8.81411823 0.008754999999999999 0.031996 -0.017071
3100 4.26463263 -0.18695898 -8.83104048 0.010875 0.023488 -0.022387
3120 4.26747753 -0.18845991 -8.837024580000001 0.013008 0.02242 -0.023439
3140 4.24023516 -0.14385383999999998 -8.851994640000001 0.011922 0.021345 -0.02024
3160 4.195923390000001 -0.16690734 -8.81846406 0.011913 0.021337 -0.018104
3180 4.19427531 -0.13157172 -8.83178604 0.012975 0.023451 -0.014895
3200 4.20640047 -0.12888378 -8.868455820000001 0.011913 0.025581 -0.013836
3220 4.1992195500000005 -0.10119015 -8.88806601 0.00444 0.030908 -0.007486
3240 4.20625332 -0.10014048 -8.88940998 0.000149 0.033023000000000004 -4.1e-05
3260 4.22795304 -0.10597743000000001 -8.89509978 0.002258 0.035116 0.0074480000000000015
3280 4.25444985 -0.10044459 -8.88777171 0.002225 0.034026 0.013859
3300 4.25580363 -0.0782838 -8.89854309 -0.000995 0.029776 0.013841999999999998
3320 4.26582945 -0.07260381 -8.8903125 -0.002071 0.027649 0.013837
3340 4.26418137 -0.05149269000000001 -8.90722494 7.2e-05 0.02765 0.011716
3360 4.237684560000001 -0.05403348 -8.867259 0.002206 0.026582 0.010664
3380 4.188438360000001 -0.03967164 -8.848698480000001 0.001163 0.02979 0.008516
3400 4.17466512 -0.022602240000000003 -8.87489118 0.001182 0.031929 0.006377000000000001
3420 4.20640047 -0.01975734 -8.91815328 0.002273 0.030885000000000006 -2.4e-05
3440 4.219879410000001 -0.039367530000000005 -8.9944947 0.000168 0.03304 -0.004314
3460 4.20460524 -0.028439190000000003 -8.9424036 0.001239 0.033041 -0.005375
3480 4.1872415400000005 -0.01466595 -8.911717920000001 0.001259 0.034119 -0.008581
3500 4.16703294 -0.04041720000000001 -8.868308670000001 0.0023350000000000003 0.035185 -0.009643
3520 4.20775425 -0.04879494 -8.91920295 0.003378 0.030916000000000006 -0.008562
3540 4.24397277 -0.05852646 -8.94285486 0.001244 0.034106 -0.005376
3560 4.26223899 -0.06122421 -8.908274610000001 -0.0008849999999999998 0.039423 -0.001125
3580 4.25444985 -0.07334936999999998 -8.8439112 -0.004071 0.045813 0.002049
3600 4.24427688 -0.07648857 -8.84151756 -0.006195 0.050073 0.004164999999999999
3620 4.25475396 -0.10119015 -8.88732045 -0.007238 0.054342 0.003084
3640 4.251310650000001 -0.13546629000000002 -8.89509978 -0.007238 0.055403 0.004151
3660 4.25908998 -0.15373251000000002 -8.89555104 -0.009381 0.054340999999999993 0.0052060000000000006
3680 4.26717342 -0.20611791 -8.848551330000001 -0.008314 0.05752 0.008414
3700 4.25250747 -0.22244175000000002 -8.816668830000001 -0.006185 0.058569 0.010564
3720 4.25325303 -0.21360294000000002 -8.815315049999999 -0.004047 0.059627 0.010578
3740 4.29037407 -0.14744430000000003 -8.84450961 -0.0040420000000000005 0.05857 0.008442
3760 4.27465845 -0.1414602 -8.84570643 -0.004023 0.057526 0.0031030000000000003
3780 4.249211310000001 -0.10552617 -8.8587243 -0.001894 0.057515 0.004186
3800 4.19831703 -0.10583028000000001 -8.830589220000002 -0.001899 0.056449 0.004187
3820 4.19786577 -0.12469491 -8.83568061 -0.000842 0.053254 0.003131
3840 4.19697306 -0.14220576000000001 -8.87548959 0.002349 0.050051 0.002089
3860 4.19307849 -0.13965516000000006 -8.863962840000001 0.005555 0.046862 -0.002158
3880 4.20400683 -0.11824974 -8.880580980000001 0.005545 0.042609 -0.004289
3900 4.21134471 -0.09759969 -8.87908986 0.00765 0.03621 -0.004266
3920 4.22675622 -0.09086022 -8.90213355 0.008684 0.031932 -0.001048
3940 4.18694724 -0.07948062 -8.88342588 0.01186 0.026595 -0.001019
3960 4.18110048 -0.06840513000000001 -8.88268032 0.012932 0.025534 -0.003147
3980 4.185750420000001 -0.06795387 -8.8931574 0.008664 0.024488 -0.004244
4000 4.22256735 -0.04475322 -8.91037395 0.0065260000000000006 0.02343 -0.004257
4020 4.22735463 -0.060174540000000006 -8.9165052 0.004386999999999999 0.025556 -0.00107
4040 4.22451954 -0.051198389999999996 -8.91441567 0.004392 0.026621 -0.001072
4060 4.21433676 -0.032932170000000004 -8.88701634 0.0033200000000000005 0.025559 -0.001078
4080 4.20011226 -0.04685256 -8.87833449 0.002249 0.024498 -0.001084
4100 4.243374360000002 -0.052993620000000005 -8.899896870000001 0.002258 0.026628 -0.001087
4120 4.2716664 -0.04850064 -8.88701634 0.000134 0.030888 0.00103
4140 4.2906781800000005 -0.03951468 -8.90078958 -0.000933 0.033014 0.003156
4160 4.26388707 -0.051198389999999996 -8.84315583 -0.004138 0.033020999999999995 0.004202
4180 4.23753741 -0.07215255 -8.84121345 -0.005205 0.031964 0.003127
4200 4.2656823 -0.07215255 -8.87115357 -0.002 0.031957 0.002082
4220 4.30474572 -0.08471916 -8.89480548 -0.002004 0.033014 0.004217
4240 4.275256860000001 -0.09145863 -8.88612363 -0.004143 0.031956 0.004203
4260 4.29381738 -0.10583028000000001 -8.84076219 -0.006267 0.034094 0.004185
4280 4.2688215 -0.10208286000000001 -8.84690325 -0.003081 0.033009 0.006346
4300 4.287087720000001 -0.11106882000000001 -8.83163889 0.000101 0.03192 0.009574
4320 4.29202215 -0.12259557 -8.85828285 0.002249 0.032986 0.007451
4340 4.28319315 -0.09999333 -8.87280165 0.000115 0.030871 0.005302
4360 4.25789316 -0.09729558 -8.87204628 0.001206 0.035133 0.004236
4380 4.223764170000001 -0.08007903000000001 -8.864119800000001 0.00443 0.039387 0.0031850000000000003
4400 4.23334854 -0.08038314 -8.86067649 0.001249 0.040476 -4.3e-05
4420 4.24681767 -0.08846658 -8.861127750000001 0.0023350000000000003 0.042612 -0.002175
4440 4.21897689 -0.09849240000000001 -8.8587243 0.005536 0.0426 -0.002152
4460 4.22601066 -0.09805095000000001 -8.86890708 0.004459 0.041535 -0.00109
4480 4.224362580000001 -0.07574300999999999 -8.91425871 0.003392 0.044721 0.0021030000000000003
4500 4.220477820000001 -0.06436341000000001 -8.92683513 0.000192 0.044733 0.0020800000000000003
4520 4.16253996 -0.05134554 -8.86711185 -0.0008560000000000001 0.047936 0.001001
4540 4.15985202 -0.05852646 -8.8729488 -0.00298 0.051135 0.00205
4560 4.181855850000001 -0.06511878 -8.89540389 -0.004047 0.051139 0.002043
4580 4.19472657 -0.07768538999999999 -8.924441490000001 -0.005123 0.050073 0.003105
4600 4.20130908 -0.07484049000000001 -8.91097236 -0.003004 0.04687 0.003124
4620 4.20071067 -0.08277678 -8.88522111 0.000192 0.044733 0.0020800000000000003
4640 4.19307849 -0.09624591 -8.85663477 0.000182 0.044724 0.004217
4660 4.223018610000001 -0.07873506000000001 -8.87878575 0.001215 0.040446 0.007434
4680 4.21134471 -0.07619427 -8.85917556 0.001187 0.037238 0.010643
4700 4.226157810000001 -0.06452037000000001 -8.88986124 0.0033060000000000003 0.036157 0.012795
4720 4.22795304 -0.07050447000000001 -8.90049528 0.0033060000000000003 0.037218 0.013862
4740 4.24188324 -0.07724394 -8.86740615 0.00012 0.038303 0.011702
4760 4.23634059 -0.08517042 -8.876392110000001 0.000139 0.03832 0.007429000000000002
4780 4.221370530000001 -0.07275096 -8.87474403 -0.000918 0.039393 0.006352
4800 4.23260298 -0.08248248000000001 -8.88837012 0.00122 0.03939 0.005299
4820 4.24052946 -0.08098155 -8.857831590000002 0.001196 0.035124 0.006372999999999999
4840 4.23574218 -0.08203122 -8.84271438 -0.002009 0.037253 0.009552
4860 4.25160495 -0.07574300999999999 -8.85678192 -0.004148 0.039379 0.012739
4880 4.252203360000001 -0.05867361000000001 -8.86352139 -0.007363 0.044682 0.021256
4900 4.257147600000001 -0.05163984 -8.88612363 -0.013773 0.04894 0.027615
4920 4.2309549 -0.060321690000000004 -8.861127750000001 -0.016974 0.051073 0.029726
4940 4.219879410000001 -0.06706116000000001 -8.83867266 -0.015869 0.05746900000000001 0.027589
4960 4.20011226 -0.06930765000000003 -8.86037238 -0.014778 0.058548 0.023323
4980 4.2251179500000005 -0.08442486000000002 -8.91381726 -0.010515 0.050041 0.015886
5000 4.25071224 -0.09655002 -8.892107730000001 -0.000947 0.036184 0.009561
5020 4.27601223 -0.10628154000000001 -8.8587243 0.004339 0.020208 0.004277
5040 4.24367847 -0.08427771 -8.84091915 0.00644 0.006378 -0.0021
5060 4.2511635000000005 -0.07948062 -8.85947967 0.008544 -2.1e-05 -0.002077
5080 4.26088521 -0.07424208000000002 -8.91845739 0.010697 0.001049 -0.005268
5100 4.2227145 -0.08098155 -8.88806601 0.012798 -0.004293 -0.0031100000000000004
5120 4.18290552 -0.07065161999999998 -8.848100070000001 0.010659 -0.006412 -0.00419
5140 4.2032612700000005 -0.07424208000000002 -8.8846227 0.005545 0.03306 -0.013891
5160 4.18709439 -0.07229970000000002 -8.920095660000001 0.007871 0.06611399999999999 -0.023531
5180 4.20835266 -0.06720831000000001 -8.888664420000001 0.015368 0.07247999999999999 -0.023486
5200 4.25026098 -0.07050447000000001 -8.87728482 0.007808 0.05651000000000001 -0.019246
5220 4.28843169 -0.07858791000000001 -8.855879400000001 0.0012779999999999998 0.035197000000000006 -0.011787
5240 4.34606544 -0.09026181000000001 -8.81696313 -0.002023 0.024509 -4.6e-05
5260 4.3263081 -0.09145863 -8.82729306 -0.005224 0.034069 0.009534
5280 4.3283976299999996 -0.08217837 -8.83791729 -0.005167000000000001 0.046852 0.009518
5300 4.2890301 -0.08502327 -8.83178604 0.003455 0.055387 -0.001115
5320 4.247720190000001 -0.09040896000000001 -8.856487620000001 0.0142 0.06178400000000001 -0.01173
5340 4.22002656 -0.0782838 -8.85692907 0.01641 0.073515 -0.017071
5360 4.19816988 -0.09145863 -8.89465833 0.012114 0.07032200000000001 -0.013891999999999998
5380 4.26223899 -0.13113027000000002 -8.896453560000001 0.007775 0.059663 -0.008568000000000001
5400 4.19188167 -0.1414602 -8.89105806 0.002364 0.052186 0.001018
5420 4.066598160000001 -0.12080034 -8.840016630000001 -0.00409 0.045796 0.006322
5440 4.072582260000001 -0.10358379000000001 -8.9019864 -0.005176 0.047904 0.012721
5460 4.16209851 -0.05852646 -8.93941155 0.000144 0.04469 0.012762
5480 4.21627914 -0.05194395 -8.932220820000001 0.0044210000000000005 0.043623 0.009589
5500 4.20670458 -0.060772950000000006 -8.92563831 0.006555 0.037249 0.003203
5520 4.17721572 -0.07260381 -8.848100070000001 0.0065450000000000005 0.032997000000000005 0.001072
5540 4.13500329 -0.07125002999999999 -8.8120287 0.005478 0.033 0.001064
5560 4.176018900000001 -0.07529175 -8.86142205 0.004435000000000001 0.039391 0.002117
5580 4.2191240400000005 -0.063765 -8.915612490000001 0.003383 0.043652 0.003172
5600 4.25325303 -0.06990606 -8.936566650000001 0.005469 0.039358 0.009602
5620 4.237243110000001 -0.06675705 -8.90078958 0.001144 0.032956 0.015989
5640 4.20625332 -0.06421626 -8.88492681 -0.012793 0.021273 0.019111000000000003
5660 4.20400683 -0.06301944 -8.87938416 -0.015989 0.024472 0.021221
5680 4.293071820000001 -0.05673123 -8.86247172 -0.010573 0.041502 0.020169
5700 4.30474572 -0.07903917 -8.82789147 -0.00521 0.045753 0.018065
5720 4.31433009 -0.08308088999999999 -8.796156120000001 -0.002043 0.03298 0.012762
5740 4.2790042800000005 -0.10448631000000001 -8.796607380000001 0.001148 0.025533 0.007453
5760 4.258050120000001 -0.10269108 -8.84241027 -0.000952 0.032997000000000005 0.007429000000000002
5780 4.29007977 -0.09789399 -8.87789304 0.00012 0.03512 0.008502
5800 4.27391289 -0.11541465 -8.85424113 -0.004152 0.03513 0.00954
5820 4.312829160000001 -0.10747836000000001 -8.856183510000001 -0.004143 0.0362 0.00847
5840 4.28962851 -0.08232552 -8.794213740000002 -0.002 0.03514 0.005282
5860 4.2164361 -0.08172711 -8.81337267 0.00334 0.030881 -1.6e-05
5880 4.27570812 -0.06496182 -8.95302783 0.006531 0.026618 -0.002125
5900 4.31133804 -0.054190440000000006 -8.94090267 0.008684 0.025566 -0.00745
5920 4.29426864 -0.055230299999999996 -8.889262830000002 0.008693000000000001 0.029819 -0.005319
5940 4.23050364 -0.05957613 -8.832531600000001 0.007645 0.035145 -0.004265
5960 4.1695835400000005 -0.057633750000000004 -8.86905423 0.005521 0.038344 -0.003215
5980 4.17586194 -0.0606258 -8.91470997 0.003392 0.041538 -0.001098
6000 4.249515420000001 -0.05718249 -8.928336060000001 0.001244 0.041533 0.002092
6020 4.22660907 -0.0577809 -8.90288892 -0.0040950000000000005 0.042608 0.00419
6040 4.173174 -0.05912487 -8.87908986 -0.005147 0.048991 0.007379000000000002
6060 4.1655418200000005 -0.06047865000000001 -8.90348733 -0.002994 0.051123 0.005255
6080 4.15700712 -0.07724394 -8.892558990000001 -0.001918 0.055371 0.007393
6100 4.180207770000001 -0.07380063 -8.8903125 -0.000866 0.05005 0.0052710000000000005
6120 4.19786577 -0.10642868999999999 -8.852593050000001 0.001268 0.048981 0.004219
6140 4.24427688 -0.11106882000000001 -8.848100070000001 -0.0008609999999999999 0.047932 0.002069
6160 4.25475396 -0.09655002 -8.85528099 -0.000866 0.043684 -0.00113
6180 4.2514578 -0.12798126 -8.84271438 0.000192 0.04155 -0.00112
6200 4.273608780000001 -0.15208443 -8.876539260000001 0.001259 0.039424 -0.003246
6220 4.268968650000001 -0.16944813 -8.84719755 0.000197 0.038371 -0.005389
6240 4.247416080000001 -0.15358536 -8.84286153 0.000177 0.03411 -0.005384000000000001
6260 4.27840587 -0.12094749 -8.86321728 0.002302 0.031972 -0.005365999999999999
6280 4.285135530000001 -0.10164141000000002 -8.86067649 0.001215 0.026653 -0.006435
6300 4.28154507 -0.10612458 -8.840163780000001 -0.001985 0.028787 -0.004324000000000001
6320 4.275256860000001 -0.10448631000000001 -8.84300868 -0.005181 0.034107 -8e-05
6340 4.24128483 -0.07784234999999999 -8.84659914 -0.008376999999999999 0.038367 0.003097
6360 4.242923100000001 -0.07603731000000002 -8.85857715 -0.008381999999999999 0.041545 0.007365999999999998
6380 4.245768 -0.09774684000000002 -8.87040801 -0.006267 0.039399 0.00952
6400 4.25160495 -0.11391372000000001 -8.879835420000001 -0.005205 0.03833 0.009529
6420 4.22421543 -0.10448631000000001 -8.87758893 -0.004138 0.036204 0.007402
6440 4.2348396600000004 -0.07844076 -8.86740615 -0.004138 0.035143 0.006335
6460 4.25520522 -0.08337519 -8.85917556 -0.004162 0.033 0.009543
6480 4.24786734 -0.060174540000000006 -8.903938590000001 9.6e-05 0.030854000000000006 0.009575
6500 4.23739026 -0.06601149 -8.863962840000001 0.0022440000000000003 0.029799000000000006 0.005319
6520 4.24427688 -0.05837931 -8.876539260000001 0.002254 0.026624 -1.8e-05
6540 4.25774601 -0.06660990000000001 -8.8871733 0.002278 0.029828 -0.002159
6560 4.24681767 -0.07110288000000001 -8.89525674 0.004416 0.030886 -0.002145
6580 4.21897689 -0.06316659000000001 -8.90124084 0.00333 0.02769 -0.00108
6600 4.213738350000002 -0.06526593 -8.88821316 0.002278 0.029828 -0.002159
6620 4.1793052500000005 -0.04775508 -8.89196058 0.005488 0.031948000000000004 -0.002139
6640 4.19202882 -0.051041430000000006 -8.86172616 0.006559000000000001 0.035131 1e-06
6660 4.2090982200000004 -0.050148719999999994 -8.91291474 0.004435000000000001 0.03833 0.00105
6680 4.2131399400000005 -0.05568156 -8.92654083 -0.000913 0.038336 0.004217
6700 4.22017371 -0.0580752 -8.90961858 -0.003047 0.040466 0.006336
6720 4.204458090000001 -0.05568156 -8.873400060000002 -0.004085 0.046861 0.006321
6740 4.195923390000001 -0.05703534 -8.87534244 -0.001966 0.04578 0.008473
6760 4.21433676 -0.07380063 -8.86067649 -0.0019760000000000003 0.042588 0.0074090000000000015
6780 4.23184761 -0.11181438 -8.89196058 -0.001971 0.039409 0.00314
6800 4.27346163 -0.11840670000000002 -8.88492681 0.001239 0.039407 0.001026
6820 4.22765874 -0.14833701000000002 -8.86995675 0.002306 0.039403 0.001034
6840 4.26628071 -0.12349809 -8.834179680000002 0.003364 0.037269 0.001044
6860 4.27181355 -0.13457358 -8.84315583 0.001239 0.037285000000000006 -0.001107
6880 4.29426864 -0.11630736000000001 -8.8353765 0.003378 0.039404 -2.7e-05
6900 4.27465845 -0.09894366 -8.81351982 0.001249 0.041537 0.001024
6920 4.2369390000000005 -0.07529175 -8.84764881 -0.001956 0.040483 0.001003
6940 4.213738350000002 -0.10193571 -8.84376405 -0.001956 0.042605 0.003136
6960 4.24038231 -0.08846658 -8.88117939 -0.001966 0.042597 0.005273
6980 4.24756323 -0.09805095000000001 -8.87923701 -0.000909 0.041523 0.00635
7000 4.20715584 -0.08696565000000002 -8.860823640000001 -0.000913 0.039397 0.0052840000000000005
7020 4.18110048 -0.08053029000000002 -8.85378987 0.001196 0.036185 0.00744
7040 4.19307849 -0.07813665 -8.8669647 0.002254 0.034051 0.00745
7060 4.24023516 -0.07648857 -8.89899435 0.0022440000000000003 0.031921 0.0074519999999999986
7080 4.223764170000001 -0.06196977000000001 -8.908127460000001 0.002249 0.031925 0.006384
7100 4.21089345 -0.0580752 -8.88117939 0.00544 0.029783 0.006409000000000001
7120 4.1788638 -0.06811083000000001 -8.8698096 0.006502 0.028714 0.006418000000000001
7140 4.19233293 -0.06751241999999999 -8.90258481 0.0075590000000000015 0.025519 0.005361
7160 4.20475239 -0.06900354 -8.8871733 0.005435 0.028718 0.006409999999999999
7180 4.22392113 -0.0663156 -8.90229051 0.003282 0.024464 0.006401
7200 4.2212233800000005 -0.05283666000000001 -8.913366 0.006497 0.028710000000000006 0.007486
7220 4.21134471 -0.05268951 -8.911717920000001 0.00544 0.031905 0.008543
7240 4.211943120000002 -0.05643693 -8.8817778 0.005435 0.031901 0.009611
7260 4.21014789 -0.053592030000000006 -8.93087685 0.002263 0.035121 0.006379999999999999
7280 4.211795970000001 -0.051041430000000006 -8.89076376 -0.001985 0.040458 0.007412
7300 4.21792722 -0.054190440000000006 -8.901692100000002 -0.003038 0.044718 0.008467
7320 4.2032612700000005 -0.06196977000000001 -8.90662653 -0.0019760000000000003 0.04471 0.009543
7340 4.19831703 -0.05747679000000001 -8.89705197 -0.0008939999999999998 0.046841 0.00848
7360 4.24157913 -0.06421626 -8.89555104 0.001249 0.045781 0.005291
7380 4.23588933 -0.06406911000000001 -8.84496087 0.001244 0.044716000000000006 0.005293
7400 4.217780070000001 -0.07753824000000002 -8.85663477 0.004435000000000001 0.041513 0.004251
7420 4.26537819 -0.07229970000000002 -8.896453560000001 0.005512 0.041518 0.002122
7440 4.245768 -0.07439904 -8.904684150000001 0.006593000000000001 0.043649 0.001058
7460 4.225559400000001 -0.10178856 -8.85049371 0.007665000000000002 0.04365 -2e-06
7480 4.23394695 -0.11256975000000001 -8.836426170000001 0.007659999999999998 0.043645 0.001066
7500 4.21613199 -0.11166723 -8.828342730000001 0.0065980000000000006 0.043653 -1e-05
7520 4.22151768 -0.14115609 -8.86711185 0.005531 0.042596 -0.001084
7540 4.23588933 -0.13890960000000002 -8.8988472 0.005512 0.041518 0.002122
7560 4.20969663 -0.10628154000000001 -8.88777171 0.001263 0.044733 0.00102
7580 4.19802273 -0.09894366 -8.864414100000001 0.003383 0.046835 0.006372999999999999
7600 4.17451797 -0.08576883000000002 -8.85932271 0.000182 0.046846 0.006351
7620 4.1932256400000005 -0.07858791000000001 -8.87849145 -0.001947 0.04898 0.007401
7640 4.21209027 -0.08292393 -8.89465833 -0.004079999999999999 0.050048 0.008453
7660 4.229306820000001 -0.07394777999999999 -8.88851727 -0.005157 0.047921 0.008448
7680 4.218525629999999 -0.07304525999999999 -8.88612363 -0.000904 0.047894 0.011683
7700 4.203114120000001 -0.07768538999999999 -8.864718210000001 -0.000918 0.042576 0.009553
7720 4.21493517 -0.10568313 -8.87519529 -0.000952 0.035119 0.009562
7740 4.2171816600000005 -0.08471916 -8.87204628 0.0022440000000000003 0.03086 0.006385
7760 4.225412250000001 -0.08636724000000001 -8.90243766 0.0033159999999999995 0.029799000000000006 0.004258
7780 4.243374360000002 -0.08996751000000001 -8.86905423 0.0033350000000000003 0.030877 0.001052
7800 4.267624680000001 -0.08038314 -8.88686919 0.006531 0.027679 -0.001058
7820 4.24562085 -0.07469334000000001 -8.873400060000002 0.005445 0.024482 7.000000000000002e-06
7840 4.23843993 -0.07768538999999999 -8.87474403 0.00333 0.029812 0.001053
7860 4.1995138500000015 -0.09236115 -8.85513384 0.004411 0.033004 0.001057
7880 4.2224202 -0.06990606 -8.91291474 0.0012109999999999998 0.035137 0.003168
7900 4.229758080000002 -0.06751241999999999 -8.92654083 -0.001985 0.036214 0.003144
7920 4.2209192700000004 -0.060920100000000005 -8.911865070000001 -0.004124 0.038339 0.006331
7940 4.2131399400000005 -0.05988024 -8.88268032 -0.005195 0.039399 0.008459
7960 4.218074370000001 -0.06137136000000001 -8.89450137 -0.006257 0.041529 0.009517
7980 4.215386430000001 -0.060772950000000006 -8.91411156 -0.006248 0.041538 0.007381
8000 4.21089345 -0.046705409999999996 -8.916063750000001 -0.004085 0.0458 0.005254
8020 4.2270603300000005 -0.059428980000000006 -8.90662653 -0.0040950000000000005 0.043669 0.005257
8040 4.239783900000001 -0.06586434000000001 -8.8814835 -0.003023 0.042609 0.003129
8060 4.25580363 -0.08352234000000001 -8.83283571 -0.000904 0.040467 0.004215
8080 4.249368270000001 -0.09071307 -8.849149740000001 -0.001947 0.040492 -0.001134
8100 4.23603648 -0.09805095000000001 -8.83972233 0.001254 0.038359 -0.0032450000000000005
8120 4.2349966199999995 -0.10014048 -8.84630484 0.000192 0.038367 -0.004321
8140 4.24891701 -0.11152008000000001 -8.87160483 0.002321 0.036233 -0.005371
8160 4.24592496 -0.12573477 -8.8701039 0.002316 0.035168 -0.005370000000000001
8180 4.2511635000000005 -0.12753 -8.85708603 0.000177 0.035171 -0.0043170000000000005
8200 4.24367847 -0.11840670000000002 -8.852288940000001 0.000187 0.037301 -0.004319
8220 4.22780589 -0.11451213 -8.848698480000001 0.002321 0.039416 -0.002171
8240 4.211943120000002 -0.08007903000000001 -8.835974910000001 -0.001961 0.039418 0.001004
8260 4.22856126 -0.08562168 -8.8789329 0.000173 0.03835 -4.8e-05
8280 4.22945397 -0.0896634 -8.89000839 -0.0008990000000000002 0.036227 -0.001121
8300 4.20849981 -0.07394777999999999 -8.91021699 -0.0008939999999999998 0.034109 -0.004323
8320 4.19682591 -0.07559586 -8.88657489 -0.001942 0.035191 -0.007536
8340 4.180207770000001 -0.07813665 -8.88253317 0.003412 0.038372 -0.008570999999999999
8360 4.1893408800000005 -0.08382645000000001 -8.8874676 0.0044740000000000005 0.038364 -0.007495
8380 4.24172628 -0.08172711 -8.91875169 0.002349 0.037319 -0.010714
8400 4.22885556 -0.07918631999999999 -8.89944561 -0.001908 0.041587 -0.008612
8420 4.231700460000001 -0.07050447000000001 -8.88297462 -0.004037 0.046904 -0.004361
8440 4.26044376 -0.07184844 -8.84929689 -0.006195 0.04689 0.000965
8460 4.231396350000001 -0.07035732 -8.86352139 -0.009405 0.050075 0.006279
8480 4.239038340000001 -0.06271533 -8.86606218 -0.010486 0.051127 0.010543
8500 4.2388813800000005 -0.07708698000000001 -8.868308670000001 -0.006224 0.048986 0.009508
8520 4.23574218 -0.07753824000000002 -8.87459688 -0.000909 0.043645 0.008483
8540 4.21687755 -0.09774684000000002 -8.84645199 0.003364 0.040452 0.0042450000000000005
8560 4.21687755 -0.10552617 -8.864865360000001 0.007635999999999999 0.035136 -0.002128
8580 4.253105879999999 -0.0896634 -8.873095950000002 0.0076209999999999984 0.029818 -0.004258
8600 4.28214348 -0.07873506000000001 -8.861274900000002 0.005497 0.030895 -0.005342
8620 4.241127870000001 -0.09100737 -8.840016630000001 0.0033590000000000004 0.033020999999999995 -0.002155
8640 4.22885556 -0.09056592000000001 -8.84300868 0.000134 0.029827 -3.7e-05
8660 4.23739026 -0.08023599000000001 -8.88268032 -0.003071 0.030895 0.002075
8680 4.21568073 -0.0868185 -8.89121502 -0.0040950000000000005 0.040486 0.002056
8700 4.21553358 -0.06751241999999999 -8.8991415 0.00445 0.043648 0.00318
8720 4.155810300000001 -0.06930765000000003 -8.889262830000002 -0.003052 0.042583 0.009538
8740 4.1532597 -0.0580752 -8.93506572 -0.018094 0.025566 0.015864
8760 4.16614023 -0.053140770000000004 -8.91276759 -0.018098 0.027684 0.019066
8780 4.19562909 -0.038023560000000005 -8.89091091 -0.011611 0.045775 0.01802
8800 4.21209027 -0.04745097 -8.87728482 -0.008372 0.050042 0.013763999999999998
8820 4.23469251 -0.053140770000000004 -8.880129720000001 -0.004109000000000001 0.039413 0.004194
8840 4.247720190000001 -0.06361785 -8.88447555 0.000187 0.038362 -0.003253
8860 4.26777183 -0.07380063 -8.87235039 -0.0008699999999999999 0.037314 -0.006462999999999999
8880 4.2400782 -0.08023599000000001 -8.87789304 0.000187 0.035179 -0.006453
8900 4.23065079 -0.08712261 -8.864561250000001 -0.003014 0.038373 -0.003275
8920 4.23873423 -0.09026181000000001 -8.85139623 -0.000875 0.041553 -0.001128
8940 4.27331448 -0.08188407 -8.86321728 0.0023350000000000003 0.043673 -0.001108
8960 4.3345386900000005 -0.08442486000000002 -8.824595310000001 0.003383 0.039408 -0.0010949999999999998
8980 4.24562085 -0.08203122 -8.76891375 0.002292 0.035146 -2.9e-05
9000 4.25849157 -0.08981055 -8.88732045 0.001239 0.038346 -4e-05
9020 4.273167330000001 -0.06481466999999999 -8.96141538 -0.00299 0.045822 -0.001148
9040 4.27615938 -0.06990606 -8.860823640000001 -0.004065999999999999 0.044756 -8.6e-05
9060 4.2568434900000005 -0.08592579000000002 -8.825350680000001 -0.003014 0.043679 0.002059
9080 4.21792722 -0.07933347 -8.83807425 -0.0040950000000000005 0.042608 0.00419
9100 4.176617310000001 -0.07364366999999998 -8.88476985 -0.0019760000000000003 0.039405 0.004209
9120 4.23244602 -0.07289811 -8.89375581 -0.0019760000000000003 0.039405 0.004209
9140 4.24382562 -0.06601149 -8.907823350000001 -0.004076 0.045809 0.003117
9160 4.2284043 -0.05687838 -8.9281791 -0.004047 0.050078 0.000976
9180 4.20431094 -0.06406911000000001 -8.90932428 -0.007276 0.04582 0.003095
9200 4.16104884 -0.06990606 -8.87414562 -0.006224 0.043681 0.004173
9220 4.15655586 -0.06406911000000001 -8.85708603 -0.005157 0.042616 0.003114
9240 4.18095333 -0.058977720000000004 -8.8786386 0.000177 0.040476 0.001018
9260 4.21254153 -0.07499745000000001 -8.89136217 -0.00088 0.038366 -0.0032600000000000003
9280 4.245768 -0.06002739000000001 -8.876686410000001 -0.003009 0.037317 -0.00541
9300 4.23828297 -0.05718249 -8.904831300000001 -0.001947 0.039431 -0.0022010000000000003
9320 4.2349966199999995 -0.06361785 -8.88686919 -0.001966 0.036231 -0.001128
9340 4.21254153 -0.07543890000000002 -8.85483954 0.00016299999999999998 0.035158 -0.001112
9360 4.2270603300000005 -0.058977720000000004 -8.84944404 -0.001952 0.035182 -0.0054
9380 4.21268868 -0.05852646 -8.87399847 -0.004065999999999999 0.03839 -0.006487000000000001
9400 4.25355714 -0.06481466999999999 -8.84091915 -0.006224 0.039437 -9.4e-05
9420 4.28065236 -0.07320222000000003 -8.88372999 -0.0052 0.035151 0.00526
9440 4.249515420000001 -0.0782838 -8.85947967 -0.005205 0.033025 0.004194
9460 4.2167304 -0.07289811 -8.88193476 -0.00199 0.033026 0.001012
9480 4.203555570000001 -0.07679268 -8.87818734 -0.000923 0.033023000000000004 0.001019
9500 4.21044219 -0.0634707 -8.84840418 -0.003047 0.031978 -0.002199
9520 4.25250747 -0.062273880000000004 -8.83747584 -0.006253 0.033046 -8.6e-05
9540 4.25190906 -0.06361785 -8.84076219 -0.010506 0.035195 -0.001187
9560 4.32390465 -0.06795387 -8.90961858 -0.011573 0.041565 0.005207
9580 4.2776505 -0.06436341000000001 -8.892254880000001 -0.006209 0.045816 0.0031030000000000003
9600 4.21268868 -0.055083150000000004 -8.84719755 0.001239 0.040468 0.002093
9620 4.2050564999999995 -0.058977720000000004 -8.848100070000001 0.001235 0.039403 0.002095
9640 4.25071224 -0.07394777999999999 -8.85828285 -0.001956 0.041544 0.00207
9660 4.298310360000001 -0.06945480000000001 -8.922195 -0.008372 0.039432 0.003096
9680 4.330791270000001 -0.06466752 -8.876088000000001 -0.006229 0.039433 0.000974
9700 4.2284043 -0.05538726 -8.84091915 -0.001952 0.039427 -0.001132
9720 4.208794110000001 -0.04864779000000001 -8.84496087 0.002345 0.04262 -0.004311
9740 4.2224202 -0.05209110000000001 -8.85768444 0.002349 0.044746 -0.003246
9760 4.27197051 -0.050148719999999994 -8.873243100000002 -0.001937 0.041561 -0.002203
9780 4.25355714 -0.06601149 -8.85768444 0.000173 0.03835 -4.8e-05
9800 4.258050120000001 -0.07364366999999998 -8.87144787 -0.0041 0.039421 0.002057
9820 4.23739026 -0.08277678 -8.885672370000002 -0.006209 0.045816 0.0031030000000000003
9840 4.2171816600000005 -0.09984618 -8.900044020000001 -0.0008939999999999998 0.043658 0.005279
9860 4.145931630000001 -0.07035732 -8.87070231 0.002258 0.036177 0.008515
9880 4.17721572 -0.04864779000000001 -8.823996900000001 0.001172 0.03192 0.008513
9900 4.224362580000001 -0.04730382 -8.8293924 -0.003081 0.035131 0.008479
9920 4.23050364 -0.04475322 -8.92893447 -0.000928 0.044689 0.013822999999999998
9940 4.2330444300000005 -0.051198389999999996 -8.96935167 0.006531 0.042533 0.013878
9960 4.20580206 -0.05538726 -8.920546920000001 0.012898 0.033993 0.012865
9980 4.21058934 -0.07050447000000001 -8.85064086 0.011836 0.030818 0.008589
10000 4.239783900000001 -0.07963758 -8.809478100000002 0.011831 0.02763 0.006456999999999999
10020 4.252203360000001 -0.08382645000000001 -8.83747584 0.008631 0.025519 0.0043
10040 4.22256735 -0.07065161999999998 -8.88581952 0.005425 0.025526 0.005346
10060 4.23289728 -0.04041720000000001 -8.88372999 0.0043630000000000006 0.029778 0.008537999999999999
10080 4.27256892 -0.05074713 -8.89405011 0.004397 0.039357 0.010662
10100 4.299212880000001 -0.055534410000000006 -8.891813430000001 0.0012109999999999998 0.043625 0.011703
10120 4.26912561 -0.05673123 -8.856183510000001 -0.002004 0.043624 0.014885
10140 4.20954948 -0.06466752 -8.80215003 -0.003081 0.041497000000000006 0.01488
10160 4.1713787700000005 -0.07424208000000002 -8.83013796 -0.004124 0.043644 0.011666
10180 4.20340842 -0.06526593 -8.87789304 -0.000889 0.047907 0.008478
10200 4.26463263 -0.06392196 -8.95273353 0.005507 0.043636 0.005324000000000001
10220 4.221370530000001 -0.01241946 -8.87818734 0.005497 0.040444 0.004259000000000001
10240 4.20864696 0.015264360000000001 -8.84286153 0.004435000000000001 0.042574 0.005318
10260 4.20251571 -0.03307932 -8.832384450000001 0.0076209999999999984 0.04255 0.008544
10280 4.235438070000002 -0.06720831000000001 -8.86651344 0.007635999999999999 0.041502 0.004273
10300 4.30190082 -0.07320222000000003 -8.90932428 0.006569 0.040445 0.003199
10320 4.31148519 -0.08322804 -8.913366 0.0076409999999999985 0.040445 0.002138
10340 4.277052090000001 -0.06811083000000001 -8.873095950000002 0.007635999999999999 0.040441000000000005 0.003206
10360 4.2212233800000005 -0.07933347 -8.81696313 0.004425999999999999 0.038322 0.003186
10380 4.226157810000001 -0.09056592000000001 -8.82280008 0.0033490000000000004 0.036195 0.003182
10400 4.211943120000002 -0.06885639 -8.86336443 0.004416 0.038313 0.005323
10420 4.21058934 -0.06870924 -8.903634480000001 0.0065450000000000005 0.038302 0.006406
10440 4.23260298 -0.06122421 -8.901387990000002 0.00333 0.037239 0.008520999999999999
10460 4.247720190000001 -0.06452037000000001 -8.89734627 0.002249 0.036169 0.010652
10480 4.22107623 -0.0577809 -8.84450961 0.0033060000000000003 0.035095999999999995 0.011729
10500 4.20056352 -0.06421626 -8.86321728 0.001182 0.036173 0.010644
10520 4.21493517 -0.054190440000000006 -8.911865070000001 0.001191 0.037242 0.009575
10540 4.189939290000001 -0.05044302 -8.89929846 0.002239 0.035099 0.011721
10560 4.176018900000001 -0.06196977000000001 -8.87459688 0.002254 0.036173 0.009583
10580 4.209843780000001 -0.062273880000000004 -8.88132654 0.002278 0.038316 0.006376
10600 4.25040813 -0.06137136000000001 -8.875793700000001 0.0044210000000000005 0.039379 0.005322
10620 4.268674350000001 -0.06571719 -8.865169470000001 0.003368 0.042578 0.0053100000000000005
10640 4.25819727 -0.06137136000000001 -8.85348576 0.004425999999999999 0.038322 0.003186
10660 4.257598860000002 -0.07543890000000002 -8.8555851 0.0076019999999999985 0.037228 0.007483
10680 4.27376574 -0.06706116000000001 -8.87519529 0.005502 0.044693 0.007459
10700 4.29426864 -0.07110288000000001 -8.89375581 0.003368 0.0447 0.007444
10720 4.29801606 -0.06660990000000001 -8.83836855 0.007626000000000002 0.044677 0.00961
10740 4.26537819 -0.06107706 -8.84600073 0.00443 0.045753 0.009586
10760 4.24457118 -0.06137136000000001 -8.87833449 0.003373 0.046826 0.008509000000000001
10780 4.2227145 -0.05792805 -8.88851727 0.005512 0.042579 0.003189
10800 4.25385144 -0.0606258 -8.885672370000002 0.008703 0.040437 0.003214
10820 4.22287146 -0.06182262000000001 -8.8789329 0.004445 0.041522 0.002114
10840 4.1752635300000005 -0.08038314 -8.87713767 0.003368 0.038334 0.001043
10860 4.189635180000001 -0.06825798 -8.88507396 0.008707 0.036198 -0.002122
10880 4.20999093 -0.07559586 -8.87923701 0.007645 0.036206 -0.003198
10900 4.23155331 -0.06856209 -8.89150932 0.00445 0.038343 -0.002154
10920 4.220477820000001 -0.06256818 -8.91680931 0.002302 0.038338 0.001035
10940 4.22256735 -0.0577809 -8.86636629 0.000144 0.037263 0.005294
10960 4.20759729 -0.07409493 -8.82160326 -0.003066 0.037266 0.007408
10980 4.2224202 -0.07110288000000001 -8.86307013 -0.004138 0.038326 0.009536
11000 4.23184761 -0.07199559 -8.88253317 -0.005195 0.04046 0.009526
11020 4.255499520000001 -0.05852646 -8.89405011 -0.005214 0.040443 0.013799
11040 4.19218578 -0.07229970000000002 -8.8701039 -0.004172 0.038296 0.017013
11060 4.253105879999999 -0.0782838 -8.87100642 -0.00099 0.035085000000000005 0.018108000000000003
11080 4.26432852 -0.07603731000000002 -8.87594085 0.005401 0.029749 0.014955
11100 4.308944400000001 -0.05912487 -8.852445900000001 0.0054210000000000005 0.028705 0.009615
11120 4.268674350000001 -0.07394777999999999 -8.85633066 0.005449 0.030853 0.00534
11140 4.283644410000001 -0.08053029000000002 -8.85708603 0.005454 0.030857 0.0042710000000000005
11160 4.28933421 -0.10956789 -8.849002590000001 0.006516 0.028727 0.003213
11180 4.29771195 -0.11226564 -8.82983385 0.006516 0.026605 0.00108
11200 4.2776505 -0.10432935000000002 -8.84750166 0.008684 0.031932 -0.001048
11220 4.27974984 -0.09609875999999999 -8.87519529 0.005497 0.031956 -0.004275
11240 4.237684560000001 -0.07648857 -8.87594085 0.00122 0.031963 -0.002169
11260 4.255048260000001 -0.06107706 -8.89420707 0.000129 0.031945 0.003165
11280 4.24367847 -0.053592030000000006 -8.89330455 0.001196 0.035124 0.006372999999999999
11300 4.239038340000001 -0.05074713 -8.90334018 0.001196 0.037246 0.008506
11320 4.2079014 -0.04221243000000001 -8.90588097 0.000125 0.038307 0.010634
11340 4.1962275 -0.019011780000000002 -8.88851727 -0.000937 0.039376 0.010625
11360 4.1965218 -0.029488860000000002 -8.9193501 0.00012 0.038303 0.011702
11380 4.17616605 -0.04819653 -8.89016535 -0.000952 0.03618 0.010629
11400 4.19891544 -0.05658408 -8.88806601 0.001201 0.03619 0.006371
11420 4.21763292 -0.06151851 -8.89405011 0.003325 0.032991 0.005322
11440 4.258942830000001 -0.0634707 -8.91006984 0.004397 0.03193 0.003194
11460 4.21837848 -0.06541308000000001 -8.85424113 0.004411 0.031943 -1e-05
11480 4.19233293 -0.07349652000000001 -8.829088290000001 0.003364 0.034086 -0.002157
11500 4.243374360000002 -0.09714843000000001 -8.83432683 0.003378 0.040465 0.00104
11520 4.2749625600000005 -0.09655002 -8.873243100000002 0.00445 0.041526 0.001046
11540 4.28962851 -0.1212516 -8.90243766 0.002316 0.041534 0.001031
11560 4.29546546 -0.08576883000000002 -8.87040801 0.003383 0.04153 0.001039
11580 4.241127870000001 -0.08308088999999999 -8.81502075 0.000206 0.044745 -0.001124
11600 4.237684560000001 -0.09430353000000001 -8.82579213 0.00233 0.043668 -4e-05
11620 4.2330444300000005 -0.07559586 -8.880580980000001 0.002325 0.042603 -3.8e-05
11640 4.22945397 -0.06885639 -8.868004560000001 0.004454 0.040469 -0.001089
11660 4.21223742 -0.07289811 -8.87399847 0.002321 0.041538 -3.7e-05
11680 4.23588933 -0.08352234000000001 -8.87264469 0.001254 0.042603 0.001022
11700 4.237684560000001 -0.07978473 -8.87833449 0.002311 0.04259 0.003166
11720 4.19831703 -0.08128566000000001 -8.868308670000001 0.002311 0.04259 0.003166
11740 4.20206445 -0.08262963000000001 -8.86620933 -0.000889 0.042602 0.003144
11760 4.211943120000002 -0.09864936 -8.86216761 -0.0008990000000000002 0.043654000000000005 0.006347
11780 4.2330444300000005 -0.09774684000000002 -8.87280165 -0.0019760000000000003 0.041527 0.006342
11800 4.24052946 -0.08786817 -8.87548959 -0.003062 0.040453 0.009541
11820 4.2164361 -0.08517042 -8.845559280000002 0.000115 0.036176 0.010637
11840 4.2032612700000005 -0.09564750000000001 -8.84345994 0.001163 0.030851 0.009583
11860 4.21658325 -0.09669717 -8.868759930000001 0.001168 0.030855 0.008514
11880 4.22151768 -0.09040896000000001 -8.889115680000002 0.001163 0.027668 0.006382
11900 4.24621926 -0.09445068 -8.89959276 0.0033159999999999995 0.032982 0.007458
11920 4.23199476 -0.08427771 -8.84076219 0.004368 0.027661 0.005336
11940 4.24128483 -0.0836793 -8.852141790000001 0.003301 0.026603 0.004262
11960 4.2486129 -0.08023599000000001 -8.90752905 0.004386999999999999 0.0298 0.003197
11980 4.21029504 -0.06511878 -8.90677368 0.001196 0.031941000000000004 0.003172
12000 4.22032086 -0.06586434000000001 -8.88821316 0.000144 0.033019 0.001027
12020 4.21014789 -0.06765957 -8.88476985 0.000149 0.035145 0.002092
12040 4.22735463 -0.05583852 -8.891813430000001 0.001201 0.033007 0.003171
12060 4.23035649 -0.05538726 -8.89196058 0.000125 0.034063 0.006367
12080 4.22735463 -0.06107706 -8.9165052 0.000139 0.036198 0.005296
12100 4.219879410000001 -0.050295870000000006 -8.93462427 0.001215 0.038324 0.0053
12120 4.1971202100000005 -0.05044302 -8.91157077 0.002287 0.038325 0.00424
12140 4.18649598 -0.04984461 -8.90378163 0.00015800000000000002 0.039398 0.004224
12160 4.2110406 -0.04999176 -8.89689501 -0.0008990000000000002 0.040471 0.003147
12180 4.22856126 -0.05613282 -8.91141381 0.000182 0.042602 0.002083
12200 4.24442403 -0.06870924 -8.895698190000001 0.000187 0.043667 0.002082
12220 4.24801449 -0.07409493 -8.86261887 0.002316 0.041534 0.001031
12240 4.23215172 -0.07693983000000001 -8.86561092 0.002325 0.040481 -0.002172
12260 4.208794110000001 -0.08203122 -8.864119800000001 0.002325 0.041542 -0.001105
12280 4.205654910000001 -0.07679268 -8.86620933 0.001263 0.042611 -0.001114
12300 4.23424125 -0.10523187 -8.892558990000001 0.00233 0.042607 -0.001107
12320 4.24996668 -0.09550035000000001 -8.87789304 0.000187 0.042606 0.001015
12340 4.2511635000000005 -0.10432935000000002 -8.864561250000001 0.001254 0.042603 0.001022
12360 4.22765874 -0.09744273000000002 -8.851837680000001 -0.000875 0.044736 0.002073
12380 4.2351437700000005 -0.10313253 -8.85932271 -0.001947 0.042614 0.001
12400 4.235290920000001 -0.09595161 -8.85663477 -0.0019760000000000003 0.041527 0.006342
12420 4.22211609 -0.09624591 -8.87025105 -0.000933 0.037258 0.007423000000000002
12440 4.22331291 -0.08128566000000001 -8.864865360000001 0.000125 0.036185 0.0085
12460 4.20969663 -0.09700128 -8.85094497 0.000134 0.037254 0.007431
12480 4.220477820000001 -0.09026181000000001 -8.88072813 0.0033200000000000005 0.032986 0.00639
12500 4.219271190000001 -0.09415638000000001 -8.88986124 0.002254 0.031929 0.005316
12520 4.21254153 -0.08712261 -8.86771026 0.004386999999999999 0.031922000000000006 0.005331
12540 4.203859680000001 -0.08248248000000001 -8.887918860000001 0.0033350000000000003 0.032999 0.003186
12560 4.22466669 -0.08622009 -8.87953131 0.00334 0.035125 0.004251
12580 4.24083357 -0.07844076 -8.87429277 0.002273 0.034068 0.003177
12600 4.23260298 -0.06795387 -8.8871733 0.002278 0.034072000000000005 0.002109
12620 4.217780070000001 -0.060321690000000004 -8.89150932 0.001215 0.035141000000000006 0.0021
12640 4.21403265 -0.06511878 -8.87953131 0.003354 0.035138 0.001047
12660 4.20610617 -0.062273880000000004 -8.87938416 0.00443 0.036204 -1.5e-05
12680 4.220477820000001 -0.07035732 -8.91157077 0.00445 0.039404 -0.001088
12700 4.2311020500000005 -0.06331374000000001 -8.92654083 0.005536 0.0426 -0.002152
12720 4.21553358 -0.051198389999999996 -8.91097236 0.00556 0.045805 -0.004293
12740 4.193382600000001 -0.060174540000000006 -8.89765038 0.004488000000000001 0.044743 -0.004299
12760 4.218525629999999 -0.05343507 -8.913366 0.002364 0.047942 -0.00325
12780 4.21268868 -0.06930765000000003 -8.89136217 0.003421 0.046869 -0.002173
12800 4.22256735 -0.06646275 -8.89390296 0.002354 0.048995 -4.6e-05
12820 4.219575300000001 -0.07380063 -8.87833449 -0.000851 0.049002 0.000999
12840 4.21792722 -0.06900354 -8.86037238 -0.00298 0.047952 -0.00115
12860 4.20849981 -0.07978473 -8.87534244 0.000206 0.046867 0.00101
12880 4.22107623 -0.06765957 -8.90078958 0.002345 0.046864 -4.4e-05
12900 4.2400782 -0.07229970000000002 -8.87130072 0.002354 0.045812 -0.003247
12920 4.21882974 -0.07170129 -8.85708603 0.002349 0.044746 -0.003246
12940 4.22765874 -0.07020036 -8.873243100000002 -0.001923 0.042635 -0.004340999999999999
12960 4.21493517 -0.07663572 -8.88447555 -0.001947 0.039431 -0.0022010000000000003
12980 4.23215172 -0.08816247 -8.85797874 -0.00198 0.03834 0.00421
13000 4.22107623 -0.09131148000000001 -8.8498953 -0.0020280000000000003 0.032992 0.009558
13020 4.23858708 -0.09729558 -8.864865360000001 -0.003148 0.024461 0.012765
13040 4.2209192700000004 -0.10777265999999999 -8.87369436 -0.006334 0.026607 0.011672
13060 4.2138855 -0.10822392 -8.86935834 0.000105 0.035107 0.011706
13080 4.194128160000001 -0.13651596 -8.86052934 0.0076019999999999985 0.038289 0.00855
13100 4.2011619300000005 -0.10987200000000001 -8.86187331 0.004296 0.014865 0.008556999999999999
13120 4.205507760000001 -0.09460764 -8.87908986 -0.003215 -2e-06 0.003182
13140 4.214189610000001 -0.09968922 -8.89674786 0.002254 0.024502 -0.002152
13160 4.226157810000001 -0.09040896000000001 -8.90093673 0.006689 0.062832 -0.001102
13180 4.257147600000001 -0.09116433 -8.863962840000001 0.00344 0.055374 0.00209
13200 4.24232469 -0.07289811 -8.85843 -0.00309 0.029817000000000007 0.005281
13220 4.248318600000001 -0.06990606 -8.88641793 -0.008415 0.031966 0.005241
13240 4.21283583 -0.07903917 -8.88282747 -0.009439 0.044741 0.008423
13260 4.22735463 -0.06002739000000001 -8.904978450000002 -0.003042 0.044714 0.009535
13280 4.22466669 -0.05957613 -8.91006984 0.000101 0.032981 0.010641
13300 4.2450224400000005 -0.053739180000000004 -8.885368260000002 0.001139 0.022341 0.006389
13320 4.21627914 -0.05343507 -8.879835420000001 0.000144 0.031958 -4e-05
13340 4.20086763 -0.04745097 -8.90722494 0.00556 0.048988 -0.001092
13360 4.20594921 -0.05718249 -8.9307297 0.010899 0.051095 1.1e-05
13380 4.27855302 -0.05328792 -8.91860454 -0.01374 0.029872000000000006 0.000934
13400 4.22780589 -0.05957613 -8.80469082 -0.034033999999999995 0.01825 -0.005602
13420 4.18559346 -0.06675705 -8.86950549 -0.010395 0.055452 -0.005485
13440 4.26238614 -0.07320222000000003 -8.95393035 0.026079 0.108555 0.003248
13460 4.28633235 -0.09789399 -8.86935834 0.0796 0.15521 0.011039
13480 4.29007977 -0.15208443 -8.80318989 0.085862 0.126417 0.013256
13500 4.189488030000001 -0.12424365 -8.80978221 0.040881 0.087163 0.011924
13520 4.10266953 -0.09729558 -8.8817778 0.01841 0.068084 0.007519
13540 4.13754408 -0.08471916 -8.9970453 0.005555 0.054289 0.0053100000000000005
13560 4.22107623 -0.07424208000000002 -8.9165052 0.001153 0.025537 0.006385
13580 4.25490111 -0.08622009 -8.83477809 -0.023572 -0.012739 0.009466
13600 4.255499520000001 -0.08067743999999999 -8.80798698 -0.057807 -0.03923 0.003919
13620 4.2052036500000005 -0.08067743999999999 -8.84376405 -0.098487 -0.074225 -0.000593
13640 4.23469251 -0.07933347 -8.919654210000001 -0.113476 -0.093318 -0.008151
13660 4.29741765 -0.07409493 -8.91066825 0.080192 0.051867 0.013312
13680 4.22331291 -0.07035732 -8.74750833 0.084064 0.160675 -0.027392000000000003
13700 4.151317320000001 -0.09550035000000001 -8.813823930000002 0.036604000000000005 0.036241 -0.037179
13720 4.127067 -0.08397360000000001 -8.979828750000001 -0.001254 -0.059578999999999986 -0.018092
13740 4.147726860000001 -0.27707364 -8.87160483 -0.045818 0.006577 -0.006737999999999999
13760 4.2528017700000005 -0.14624748 -8.91516123 0.005818 0.101207 -0.006498
13780 4.4060830200000005 -0.05658408 -9.087003000000001 0.021577 0.062738 0.009684
13800 4.43812248 -0.055230299999999996 -9.273961980000001 -0.014898 0.021306 0.012687
13820 4.376299860000001 0.11211849 -9.15765462 -0.010606 0.017069 0.003109
13840 4.3060995 -0.05972328000000001 -8.525969100000001 0.0076019999999999985 0.030862 0.001082
13860 4.173919560000001 -0.18022932 -8.30577384 0.00555 0.05004 0.002111
13880 4.108055220000001 -0.11960352 -8.602163370000001 -0.009396 0.046901 0.000942
13900 4.15461348 -0.10912644 -8.93402586 -0.010501 0.033078 -0.004389
13920 4.21239438 -0.07978473 -8.93536983 -0.007324 0.029862 -0.002226
13940 4.1851422000000005 -0.11032326000000002 -8.633143350000001 -0.010448 0.051161 0.001998
13960 4.20699888 -0.14265702 -8.42133564 0.010923 0.065971 0.009606
13980 4.26747753 -0.26090676 -8.45261973 0.038675 0.073314 0.014063
14000 4.613858820000001 -0.27542556 -9.60687414 0.020448 0.055259 0.016094999999999998
14020 4.612662 0.8899043400000001 -10.087073640000002 0.011884 0.048897 0.016044
14040 3.5304129900000003 -0.10537902 -8.77639878 0.025816 0.062697 0.016123
14060 3.724857 -0.45594918 -8.37149103 0.027969 0.058463 0.0075980000000000015
14080 4.1646393 -0.22992678000000003 -8.34738786 0.013018 0.042587 -0.005305
14100 4.45024764 -0.04011309 -8.85064086 -0.0051140000000000005 0.038411 -0.010767
14120 4.54679766 -0.07469334000000001 -9.278160660000001 -0.02016 0.017145 -0.007640000000000002
14140 4.29546546 -0.07139718 -9.12517371 -0.044923000000000005 -0.017983000000000002 0.0071870000000000015
14160 4.08246093 -0.0836793 -8.684194589999999 -0.080264 -0.04026 0.014446
14180 4.07318067 -0.06811083000000001 -8.717568210000001 -0.07917300000000001 -0.032815 0.016581
14200 4.23155331 -0.05867361000000001 -8.92534401 0.05880700000000001 0.057204 0.029179000000000007
14220 4.30235208 -0.06990606 -8.96680107 0.043092 0.080858 -0.011553
14240 4.28214348 -0.15387966000000003 -8.821004850000001 0.035322000000000006 0.00104 -0.024324
14260 4.337982 -0.19833858000000001 -8.790770430000002 -0.003196 -0.013778 -0.01496
14280 4.40114859 -0.10612458 -8.91635805 -0.000736 0.06289700000000001 -0.010768000000000002
14300 4.28783328 -0.0663156 -8.889115680000002 0.026041 0.101094 0.004325
14320 4.1965218 -0.05867361000000001 -8.967556440000001 8.6e-05 0.038273 0.019180000000000003
14340 4.242923100000001 -0.036826740000000004 -9.12292722 -0.026734 0.005343 0.019034
14360 4.22601066 -0.06735546 -8.927737650000001 -0.003119 0.030853 0.012757
14380 4.26657501 -0.06406911000000001 -8.79376248 0.008736 0.051077 0.006405
14400 4.282889040000001 -0.06811083000000001 -8.75410065 0.005545 0.048975 0.002112
14420 4.248318600000001 -0.16136469000000003 -8.668322009999999 0.00233 0.040485 -0.00324
14440 4.233642840000002 -0.21854718 -8.681349690000001 0.0012109999999999998 0.033015 0.001034
14460 4.127969520000001 -0.10478061 -8.75469906 -0.004157 0.034065 0.009541
14480 4.025876850000001 -0.060321690000000004 -8.8498953 -0.008458 0.031928 0.014855000000000004
14500 4.072876560000001 -0.045204480000000005 -8.861274900000002 -0.006401 0.014876 0.014891
14520 4.117786740000001 -0.07903917 -8.69152266 -0.001052 0.012749 0.00959
14540 4.298908770000001 -0.35506314 -9.21663234 0.00221 0.021281 0.004261
14560 4.46910246 0.53259471 -9.689346810000002 9.6e-05 0.024488 0.003174
14580 3.83337522 -0.12005478000000001 -8.85947967 -0.000952 0.027692 0.002094
14600 4.05926028 -0.37032750000000003 -8.49903084 0.000134 0.030888 0.00103
14620 4.175714790000001 -0.19908414 -8.38960029 0.001182 0.028746 0.003176
14640 4.35609126 -0.06601149 -8.828793990000001 -0.000961 0.027684 0.004231
14660 4.44381228 -0.0606258 -9.34506486 -0.005186 0.031981 -0.001145
14680 4.29441579 -0.06885639 -9.13729887 -0.018978 0.037402 -0.012999
14700 4.22361702 -0.08622009 -8.63928441 -0.014557 0.05768300000000001 -0.026881
14720 4.16523771 -0.07469334000000001 -8.61099237 0.020716 0.086267 -0.012785
14740 4.25205621 -0.07648857 -8.87908986 0.04423 0.11487 0.006571
14760 4.35504159 -0.07380063 -9.007365420000001 0.015368 0.10431 0.008519
14780 4.37031576 -0.06990606 -8.916063750000001 -0.010429 0.055423 0.001993
14800 4.296966390000001 -0.06751241999999999 -8.83911411 -0.018036 0.025617 0.003046
14820 4.19068485 -0.06361785 -8.87249754 -0.017027 0.013891 0.004136
14840 4.11149853 -0.08157996 -8.9165052 -0.027801 -0.005263 0.008357999999999999
14860 4.10027589 -0.08576883000000002 -8.9335746 -0.03969 -0.032945 0.01472
14880 4.18738869 -0.09190989000000001 -8.87938416 0.039426 0.01149 0.022693
14900 4.2602868 -0.08831943 -8.860970790000001 0.02805 0.065962 -0.003093
14920 4.26403422 -0.08876088000000001 -8.87564655 0.028983 0.029765 -0.00945
14940 4.22211609 -0.08592579000000002 -8.8789329 0.005435 0.017047 -0.005325
14960 4.15266129 -0.10403505 -8.9019864 -0.01262 0.039464 -0.001207
14980 4.15086606 -0.07439904 -8.89465833 0.016281 0.056424 -0.0053
15000 4.16837691 -0.06885639 -8.90408574 0.015109 0.035114 -0.003144
15020 4.14098739 -0.10807677000000002 -8.84735451 -0.001913 0.041583 -0.007543999999999999
15040 4.1255660700000005 -0.32887044 -8.80768287 -0.0007599999999999999 0.062876 -0.005427
15060 4.259394090000002 -0.26853894 -8.95871763 0.006655 0.061742 0.005308
15080 4.43872089 0.019306080000000003 -9.123976890000002 -0.01152 0.056466 0.008393000000000001
15100 4.4045919 0.12484206 -9.09044631 -0.028556 0.053372 -0.002404
15120 4.124074950000001 -0.06646275 -8.76472488 -0.021987 0.080024 -0.013075
15140 3.95343 -0.15971661 -8.55112194 0.015372 0.106436 0.009585
15160 4.04354466 -0.04775508 -8.743613759999999 0.041924 0.100931 0.031142000000000006
15180 4.1733211500000005 -0.04909905 -8.88342588 0.019414 0.072269 0.02568
15200 4.22227305 -0.06466752 -8.836122060000001 -0.008376999999999999 0.040489 0.005231
15220 4.22421543 -0.26824464000000003 -8.8615692 -0.010558 0.023477 -0.001172
15240 4.42420209 0.23905008000000003 -9.43817157 -0.018041 0.017125 -0.0044210000000000005
15260 4.100118930000001 -0.02499588 -9.10945809 -0.033073000000000005 0.002238 0.001903
15280 3.92932683 -0.16002072 -8.58584934 -0.023615 -0.024449 0.007344
15300 4.09264371 -0.20387142 -8.66188665 0.045856 0.016799 0.021663
15320 4.268968650000001 -0.06795387 -8.80798698 0.016146999999999998 0.026597000000000003 -0.005261999999999999
15340 4.430333340000001 -0.07724394 -9.06170301 0.02251 0.012747 -0.010541
15360 4.41985626 -0.13651596 -8.99868357 -0.00509 0.043737 -0.010774
15380 4.255048260000001 -0.13501503 -8.7690609 -0.012366 0.083191 -0.01408
15400 4.11000741 -0.10597743000000001 -8.73268542 0.006813 0.075675 -0.016073
15420 4.05971154 -0.06182262000000001 -8.91006984 -0.0008179999999999999 0.054336 -0.001144
15440 4.15655586 -0.060920100000000005 -9.05048037 0.008736 0.06487000000000001 0.020274
15460 4.22107623 -0.11780829000000001 -8.89360866 0.027959 0.079674 0.031072
15480 4.18619187 -0.37795968 -8.735088870000002 0.012004 0.078712 0.019211
15500 4.3610355 -0.05433759 -9.01649853 0.009942 0.076661 0.001039
15520 4.39904925 0.18650772000000002 -9.241932330000001 0.017353 0.058547 -0.004227000000000001
15540 4.30205778 -0.02410317 -8.89375581 0.017271 0.036193 -0.008472
15560 4.0900931100000015 -0.20477394000000002 -8.447086890000001 -0.003086 0.024517 -0.001121
15580 4.1267727 -0.08741691000000001 -8.573567220000001 -0.011668 0.012833 -0.002234
15600 4.24756323 -0.07574300999999999 -8.867857410000001 -0.015984 0.006439 0.002017
15620 4.229306820000001 -0.06496182 -8.836573320000001 -0.02461 -0.008466 0.0073170000000000015
15640 4.203555570000001 -0.25506981 -8.832237300000001 -0.043823 -0.011591 0.006118
15660 4.47988365 0.23321313 -9.45643779 -0.006382 0.015954 0.011685
15680 4.21598484 0.03367773 -9.1911852 0.042814 0.051964 0.021597
15700 4.08470742 -0.18351567000000002 -8.58360285 0.010894 0.044725 -0.005322
15720 4.1356017000000005 -0.22333446 -8.574469740000001 0.005445 0.018116 -0.0063950000000000005
15740 4.1197291200000015 -0.08607293999999999 -8.67865194 -0.019112 0.020307 -0.00016
15760 4.164345 -0.12903093000000002 -9.011259990000001 -0.004052 0.053257000000000006 0.0052450000000000005
15780 4.32210942 -0.2881491300000001 -9.22966002 0.003392 0.054270000000000006 0.011705
15800 4.390367400000001 0.03023442 -9.098981010000001 -0.010563 0.036205 0.012698
15820 4.36896198 0.07619427 -8.93252493 -0.007391 0.024497 0.007395
15840 4.19262723 -0.09684432000000001 -8.69735961 0.006506999999999999 0.023413 1.5e-05
15860 4.0957829100000005 -0.34263387 -8.55126909 0.010803 0.027668 -0.002096
15880 4.261640580000001 -0.1038879 -8.82250578 0.0033490000000000004 0.027707 -0.005353
15900 4.383039330000002 -0.07005321 -9.02802528 0.000153 0.028783 -0.005377000000000001
15920 4.417011360000001 -0.08741691000000001 -8.792869770000001 0.003354 0.033016000000000004 -0.001087
15940 4.233495690000001 -0.24129657000000002 -8.561746170000001 0.001177 0.028741000000000006 0.004244
15960 4.20295716 -0.10148445 -8.71323219 0.001139 0.02128 0.005322
15980 4.20775425 -0.05957613 -8.939558700000001 -0.001009 0.021275 0.008511
16000 4.25580363 -0.054936000000000006 -8.91425871 -0.004133 0.037269 0.007401
16020 4.287087720000001 -0.30955455000000004 -8.87144787 -0.007276 0.044759 0.0020280000000000003
16040 4.511766150000001 0.21061089 -9.31542885 -0.021074 0.04381 -0.015158
16060 4.215386430000001 0.06825798 -9.04569309 -0.01239 0.067254 -0.024742
16080 4.01853897 -0.1790325 -8.67850479 0.045244 0.090416 -0.006209
16100 4.07677113 -0.15163317 -8.71712676 0.070801 0.105138 0.019588
16120 4.211197560000001 -0.04565574000000001 -8.82504657 0.016434 0.10748900000000003 0.011727
16140 4.3225606800000005 -0.04550859 -9.06050619 -0.008219 0.071398 0.000919
16160 4.24891701 -0.06840513000000001 -9.07772274 -0.015835 0.039462 0.001975
16180 4.18454379 -0.07514459999999999 -8.82923544 -0.021289 0.01391 0.003038
16200 4.115991510000001 -0.06452037000000001 -8.795704859999999 -0.043808 -0.008395 0.006114
16220 4.1611959899999995 -0.063765 -8.873400060000002 -0.072796 -0.037103 0.017699
16240 4.23454536 -0.06975891000000001 -8.95318479 -0.012975 -0.013902 0.024496
16260 4.277954610000001 -0.06975891000000001 -8.896296600000001 0.063165 0.071063 0.022783
16280 4.2776505 -0.07589016 -8.83178604 0.028045 0.053226 -0.014827000000000003
16300 4.23963675 -0.07125002999999999 -8.828342730000001 0.023552 0.002112 -0.015862
16320 4.21553358 -0.08801532 -8.87923701 -0.008434 0.014972999999999997 -0.007556
16340 4.199670810000001 -0.08741691000000001 -8.91021699 0.008803 0.060686 0.001052
16360 4.21867278 -0.08876088000000001 -8.87280165 0.01929 0.030779 0.011846
16380 4.21867278 -0.08696565000000002 -8.87414562 -0.000101 -0.014944 0.007495999999999998
16400 4.17975651 -0.13517199 -8.80693731 0.0021620000000000003 0.001079 -0.005327
16420 4.1125482 -0.46194309 -8.78403096 0.01197 0.042608 -0.009585
16440 4.32330624 -0.25297047 -9.02847654 0.010942 0.056439 -0.004268999999999999
16460 4.59469989 0.26344755000000003 -9.29731959 -0.007339 0.037276 0.008447
16480 4.45773267 0.12169305 -9.00961191 -0.022371 0.020267 0.012636
16500 4.03874757 -0.31314501 -8.41265379 -0.021294 0.024516 0.014775
16520 3.8977484400000004 -0.33514884 -8.37942732 -0.018046 0.028791000000000008 0.008383
16540 4.03381314 -0.04445892 -8.83298286 -0.024351 0.033143 -0.008758
16560 4.21583769 -0.05254236000000001 -9.06155586 0.000292 0.054371 -0.01075
16580 4.26987117 -0.06287229000000001 -8.78777838 0.051507 0.07435499999999999 0.00881
16600 4.20999093 -0.11570895 -8.5692312 0.054726 0.084971 0.015228
16620 4.41731547 -0.022003830000000002 -9.28563588 0.004478 0.051101 0.004239
16640 4.39126992 0.40565331 -9.602234010000002 -0.0008699999999999999 0.038375 -0.005396
16660 3.9775331700000005 -0.08831943 -8.777448450000001 0.016214 0.045755 -0.001014
16680 3.9948968700000003 -0.28860039000000004 -8.49618594 0.023634 0.041442 0.005453
16700 4.219879410000001 -0.08726976 -8.634791430000002 0.01186 0.028717000000000006 0.001114
16720 4.45024764 -0.01078119 -9.06126156 -0.005167000000000001 0.031998 -0.005418
16740 4.5054779400000005 -0.09504909 -9.19837593 -0.010395 0.050147 -0.010819
16760 4.3673139 -0.12843252 -8.82430101 -0.020069 0.037385 -0.007666
16780 4.243227210000001 -0.16794720000000002 -8.58869424 -0.034077 0.011846 -0.00239
16800 4.17841254 -0.07978473 -8.76697137 -0.059816 -0.012587 0.002803
16820 4.169730690000001 -0.0606258 -9.015448860000001 -0.098305 -0.027379 0.005758
16840 4.19068485 -0.06196977000000001 -9.040896 -0.036403 -0.008476000000000001 0.020053
16860 4.22660907 -0.07155414 -8.923843080000001 0.08447400000000001 0.064597 0.02294
16880 4.239783900000001 -0.06945480000000001 -8.796008970000003 0.038771 0.06385 -0.016903
16900 4.12811667 -0.13441662000000001 -8.79166314 0.029901 -0.009628 -0.015802
16920 4.01704785 -0.45759726 -8.87235039 -0.020213 0.011793 -0.001225
16940 4.343514840000001 -0.08772102000000001 -9.1015218 0.000451 0.102257 0.002009
16960 4.462225650000001 0.24339591000000002 -9.142841520000001 0.021687 0.092544 0.014988
16980 4.390367400000001 0.04715667 -8.96844915 -0.007434 0.020215 0.012741
17000 4.11584436 -0.20238030000000004 -8.649163080000001 -0.011683 0.008576 -0.003297
17020 4.08515868 -0.18831276000000002 -8.647220700000002 0.015272 0.055418 -0.019192
17040 4.14053613 -0.050295870000000006 -8.94689658 0.019673 0.085231 -0.0192
17060 4.220477820000001 -0.07139718 -9.01381059 0.007818 0.067128 -0.010714
17080 4.28005395 -0.14130323999999997 -8.84300868 -0.0041 0.030933 -0.006478
17100 4.242923100000001 -0.11436498 -8.65215513 -0.011549 0.030976 -0.010803
17120 4.15805679 -0.10837107 -8.70724809 -0.01461 0.057636 -0.015131
17140 4.065989940000001 -0.09968922 -8.835974910000001 0.009956 0.074552 -0.004299
17160 4.00193064 -0.08382645000000001 -8.92234215 0.062084 0.067871 0.022779
17180 4.09428198 -0.062273880000000004 -8.89824879 0.061032 0.076376 0.028102
17200 4.12452621 -0.062273880000000004 -8.637489180000001 -0.0008269999999999999 0.068121 0.014862
17220 4.21553358 -0.60159825 -8.9973396 -0.008367 0.045802 0.008429
17240 4.6158012 0.62180685 -9.7260264 -0.009573 0.018096 0.01166
17260 3.8889096300000006 -0.01107549 -9.07667307 -0.022596 -0.026617 0.0159
17280 3.92963094 -0.30880899 -8.562197430000001 -0.052703 -0.07765 0.016822999999999998
17300 4.03231221 -0.22228479 -8.49678435 -0.075126 -0.080772 0.017738999999999998
17320 4.2330444300000005 -0.05673123 -8.80215003 0.027551 -0.014056 0.027984
17340 4.39935336 -0.05912487 -9.27306927 0.064299 0.06263099999999999 -0.000699
17360 4.3783992000000005 -0.12185001000000001 -9.15960681 0.024768 0.027705 -0.023363
17380 4.27465845 -0.15282999000000003 -8.642727720000002 0.005358 -0.014851 -0.02024
17400 4.24157913 -0.13965516000000006 -8.60350734 -0.028642 0.028893 -0.007715
17420 4.24157913 -0.05149269000000001 -8.84496087 0.011062 0.092619 0.0053
17440 4.20670458 -0.05718249 -9.055120500000001 0.011865 0.04888 0.020316
17460 4.24217754 -0.060772950000000006 -8.99898768 -0.022462 0.010637 0.02333
17480 4.27391289 -0.09190989000000001 -8.7832854 -0.014922 0.021285 0.018028
17500 4.1796093600000015 -0.29742939 -8.721609930000001 0.0044020000000000005 0.04785 0.018129
17520 4.24667052 -0.23576373 -8.99360199 0.002383 0.075545 0.020216
17540 4.367019600000002 0.02454462 -9.30540303 -0.008270999999999999 0.073473 0.014803
17560 4.412675340000002 0.30476727000000003 -9.182954610000001 -0.004018 0.058592 0.003102
17580 4.15476063 -0.063765 -8.57282166 -0.000779 0.052249 -0.011823
17600 3.9504379500000004 -0.25566822 -8.2942569 -0.006032 0.058706 -0.023618
17620 4.08456027 -0.06271533 -8.69886054 0.023922 0.080955 -0.019165
17640 4.20759729 -0.050148719999999994 -9.03356793 0.071926 0.102003 0.003576
17660 4.30804188 -0.07409493 -8.915612490000001 0.062304999999999985 0.099897 0.005647999999999999
17680 4.269272760000001 -0.08935929000000001 -8.60515542 0.017444 0.07136 -0.01172
17700 4.28573394 -0.46522944000000005 -8.94689658 0.005675 0.054395000000000006 -0.021395
17720 4.5274817700000005 0.45011223 -9.647889750000001 0.009918 0.051176 -0.019224
17740 3.92693319 -0.10208286000000001 -9.0611046 -0.00088 0.028817 -0.012862
17760 4.01659659 -0.24788889 -8.63658666 -0.03846 -0.013706 -0.002388
17780 4.0892004 -0.18905832000000003 -8.592579 -0.06739400000000001 -0.03494 0.004915
17800 4.193824050000001 -0.05163984 -8.84450961 -0.074896 -0.034944 0.01234
17820 4.2511635000000005 -0.06331374000000001 -9.223666110000002 0.034197000000000005 0.043433 0.031162
17840 4.13515044 -0.08562168 -9.11649186 0.034528 0.092533 0.006532
17860 4.02842745 -0.08067743999999999 -8.789122350000001 0.016156 0.0213 -0.012733
17880 4.01779341 -0.07005321 -8.75963349 0.009525 -0.024505 -0.0073799999999999985
17900 4.0878466200000005 -0.05223825 -8.943904530000001 -0.010611 0.012819999999999998 -9.1e-05
17920 4.10700555 -0.06660990000000001 -9.02472912 0.017319 0.060639 0.005384000000000001
17940 4.15057176 -0.08067743999999999 -8.907676200000001 0.010741 0.030796 0.014991
17960 4.179903660000001 -0.11451213 -8.80244433 -0.013898 0.010633 0.016981
17980 4.14637308 -0.30686661000000004 -8.84376405 -0.016036 0.005331 0.0127
18000 4.221370530000001 -0.26989272000000003 -9.04823388 0.002182 0.014889 0.004268999999999999
18020 4.371806879999999 0.04565574000000001 -9.25585272 0.008727 0.040459 -0.002127
18040 4.43872089 0.30581694000000004 -9.13400271 0.002397 0.051155 -0.0075260000000000014
18060 4.20011226 -0.10867518 -8.66967579 0.003421 0.040503 -0.008574
18080 4.16868102 -0.35850645000000003 -8.368950240000002 0.0033200000000000005 0.02662 -1.1e-05
18100 4.23035649 -0.11900511 -8.621175150000001 -0.006348 0.020228 0.008476000000000001
18120 4.247720190000001 -0.07364366999999998 -8.91785898 -0.011726 0.019148 0.016985
18140 4.20670458 -0.12214431 -8.89705197 -0.011659 0.039366000000000005 0.022301
18160 4.1384466 -0.14490351 -8.69721246 -0.007319 0.054269000000000005 0.021244
18180 4.135896 -0.07065161999999998 -8.67984876 -0.006195 0.062805 0.016968
18200 4.26448548 -0.39143862 -9.09209439 -0.001913 0.062803 0.013793
18220 4.62208941 0.55204794 -9.731716200000001 -0.000913 0.043641 0.009552
18240 3.9463962300000004 -0.04371336 -9.00422622 -0.000918 0.038332 0.005286
18260 3.94055928 -0.27707364 -8.495136270000001 0.005545 0.045792 -0.001088
18280 4.14323388 -0.15552774 -8.61323886 0.00665 0.052188 -0.003225
18300 4.3285447800000005 -0.05433759 -8.86261887 0.008775 0.046867 -0.006408
18320 4.36716675 -0.06481466999999999 -9.134905230000001 0.008745999999999999 0.035171 -0.011734
18340 4.21299279 -0.13367106 -9.063949500000001 0.008717 0.030901 -0.009593
18360 4.1330511 -0.07215255 -8.845402320000002 0.001249 0.030927 -0.009645
18380 4.12273098 -0.07050447000000001 -8.77415229 -0.015754 0.040596 -0.015116999999999997
18400 4.22331291 -0.07529175 -8.85723318 -0.004975 0.068242 -0.011873
18420 4.268674350000001 -0.10657584 -8.89450137 0.032356 0.08826200000000001 0.010795
18440 4.220477820000001 -0.11166723 -8.87728482 0.048248 0.087048 0.034408999999999995
18460 4.179903660000001 -0.09415638000000001 -8.88686919 0.004411 0.061651 0.029862
18480 4.14098739 -0.07349652000000001 -8.967556440000001 -0.015955 0.029807 0.019078
18500 4.064498820000001 -0.06182262000000001 -8.98970742 -0.01917 0.021317 0.013726
18520 4.02049116 -0.05792805 -8.94569976 -0.020299 0.00535 0.011602
18540 4.03725645 -0.06586434000000001 -8.88627078 -0.04178 -0.025472 0.012559
18560 4.09279086 -0.09160578000000001 -8.91680931 -0.07072 -0.050955 0.016663
18580 4.056866640000001 -0.1070271 -8.90049528 0.006291 -0.002242 0.022479
18600 4.10161986 -0.08157996 -8.91006984 0.046206 0.075465 0.002362
18620 4.176018900000001 -0.0782838 -8.93761632 0.018376 0.038346 -0.014876
18640 4.21553358 -0.08427771 -8.920399770000001 0.00965 -0.005296 -0.015949
18660 4.2191240400000005 -0.0634707 -8.904978450000002 -0.016902 0.023551 -0.014035
18680 4.243227210000001 -0.07409493 -8.86037238 0.01642 0.084134 -0.008539
18700 4.26193488 -0.08083440000000001 -8.87444973 0.01941 0.053166 0.007545
18720 4.293071820000001 -0.06975891000000001 -8.873095950000002 -0.009563 0.015983 0.007390000000000002
18740 4.31313327 -0.07394777999999999 -8.8846227 -0.005277 0.011741 -0.00112
18760 4.177362870000001 -0.07275096 -8.85094497 0.010875 0.040464 -0.0053170000000000005
18780 4.09279086 -0.29637972 -8.82160326 0.0056170000000000005 0.059649 -0.003242
18800 4.22107623 -0.19310004 -9.02158992 -0.005133 0.04476 -9.3e-05
18820 4.364478810000001 0.08981055 -9.28833363 -0.004133 0.030903 0.001
18840 4.39935336 0.19938825000000002 -9.087150150000001 0.000129 0.033006 0.004231
18860 4.1556631500000005 -0.12439080000000001 -8.61039396 0.000125 0.033002 0.0053
18880 4.0314195 -0.24519114 -8.39768373 -0.000971 0.023431 0.0021
18900 4.08545298 -0.05927202000000001 -8.73014463 -0.000961 0.028745 0.005298
18920 4.104317610000002 -0.08487612 -8.97623829 -0.000923 0.036206 0.004220000000000001
18940 4.17466512 -0.1158561 -8.907980310000001 -0.0041 0.041543 0.004190999999999999
18960 4.168082610000002 -0.09295956000000001 -8.752599720000001 -0.005162 0.044734 0.006316
18980 4.249515420000001 -0.18531090000000003 -9.19986705 -0.005157 0.041555 0.002047
19000 4.2787001700000005 0.28680516 -9.48203208 0.0012109999999999998 0.031954 -3.2e-05
19020 3.9079214100000006 -0.14564907000000002 -8.85123927 0.003344 0.033008 0.001049
19040 4.01045553 -0.25416729000000005 -8.64781911 0.002292 0.036207 0.001038
19060 4.11704118 -0.14130323999999997 -8.642276460000001 0.002292 0.036207 0.001038
19080 4.219428150000001 -0.05463189 -8.94060837 0.001249 0.039415 -0.00111
19100 4.273167330000001 -0.06541308000000001 -9.16828866 0.001263 0.042611 -0.001114
19120 4.13515044 -0.09864936 -8.99884053 0.001249 0.040476 -4.3e-05
19140 4.144577850000001 -0.1013373 -8.743613759999999 0.000182 0.041541 0.001016
19160 4.15266129 -0.07589016 -8.826096240000002 -0.001956 0.041544 0.00207
19180 4.235290920000001 -0.05643693 -8.93491857 -0.001956 0.041544 0.00207
19200 4.234094100000001 -0.06795387 -8.97473736 0.000177 0.040476 0.001018
19220 4.22811 -0.07933347 -8.8817778 0.001249 0.040476 -4.3e-05
19240 4.23588933 -0.0868185 -8.84840418 0.000173 0.03835 -4.8e-05
19260 4.18095333 -0.07514459999999999 -8.90932428 0.001239 0.038346 -4e-05
19280 4.12751826 -0.07858791000000001 -8.95632399 -0.0008939999999999998 0.037292 -0.0011220000000000002
19300 4.12242687 -0.07005321 -8.92953288 -0.001966 0.038353 0.001005
19320 4.158802350000001 -0.06406911000000001 -8.90288892 -0.000909 0.037279 0.002082
19340 4.14861957 -0.06720831000000001 -8.924441490000001 -0.0019760000000000003 0.038344 0.0031420000000000003
19360 4.133502360000001 -0.07275096 -8.95318479 0.000144 0.036202 0.004228
19380 4.13814249 -0.062116920000000006 -8.93582109 -0.003066 0.036205 0.006342
19400 4.09428198 -0.06765957 -8.9108154 -0.00199 0.03727 0.005279
19420 4.12003323 -0.06706116000000001 -8.92578546 0.000149 0.038328 0.005293
19440 4.132158390000001 -0.0634707 -8.920252620000001 0.002273 0.03619 0.005311
19460 4.13485614 -0.06526593 -8.91635805 0.001206 0.036194 0.005303
19480 4.13021601 -0.07469334000000001 -8.928031950000001 0.001201 0.03619 0.006371
19500 4.135297590000001 -0.08532738000000001 -8.92489275 0.0012109999999999998 0.036198 0.004235
19520 4.13679852 -0.08322804 -8.907823350000001 0.00122 0.037268 0.003165
19540 4.16329533 -0.0779895 -8.92563831 0.0033490000000000004 0.036195 0.003182
19560 4.18035492 -0.07320222000000003 -8.90183925 0.00334 0.036187 0.005318
19580 4.16822976 -0.07139718 -8.91785898 0.0033490000000000004 0.038317 0.005315
19600 4.181855850000001 -0.07199559 -8.90602812 0.0033590000000000004 0.041509 0.006379999999999999
19620 4.1893408800000005 -0.07095573000000001 -8.9165052 0.002292 0.043634 0.008506
19640 4.188889620000001 -0.06795387 -8.89105806 -0.001956 0.050032 0.010604
19660 4.1576055300000005 -0.06765957 -8.90348733 -0.001947 0.052163 0.010602
19680 4.163589630000001 -0.07559586 -8.89959276 -0.000875 0.051102 0.008473999999999999
19700 4.160303280000001 -0.07320222000000003 -8.91635805 -0.003004 0.047931 0.00419
19720 4.176018900000001 -0.06316659000000001 -8.89959276 -0.002994 0.046879 0.000987
19740 4.16658168 -0.07050447000000001 -8.91470997 -0.006161 0.050103 -0.003312
19760 4.12781256 -0.06526593 -8.9162109 -0.006166 0.051159 -0.001177
19780 4.12661574 -0.06795387 -8.92563831 0.001311 0.056447 0.002073
19800 4.12347654 -0.05852646 -8.91785898 0.00988 0.064935 0.00319
19820 4.1387409 -0.06765957 -8.90887302 0.021634 0.070216 0.004334
19840 4.146078780000001 -0.06885639 -8.89091091 0.02373 0.06486900000000001 0.007559999999999998
19860 4.13455203 -0.06452037000000001 -8.90124084 0.006587999999999999 0.047889 0.006394
19880 4.13230554 -0.06811083000000001 -8.94195234 -0.00309 0.033 0.008482
19900 4.142037060000002 -0.06646275 -8.94599406 -0.008458 0.027684 0.010588
19920 4.14517626 -0.0663156 -8.92324467 -0.011692 0.018116 0.008440999999999999
19940 4.16494341 -0.07334936999999998 -8.908127460000001 -0.022414 0.005375 0.007314
19960 4.14712845 -0.06720831000000001 -8.91351315 -0.028863 -0.002072 0.010483
19980 4.140693090000001 -0.06825798 -8.91126666 0.016031999999999998 0.026495 0.020374
20000 4.13290395 -0.07589016 -8.92309752 0.0173 0.057439 0.006456999999999999
20020 4.12841097 -0.09864936 -8.908274610000001 0.011913 0.037252 -0.002101
20040 4.11733548 -0.12589173 -8.887918860000001 0.006502 0.018104 -0.004251
20060 4.11075297 -0.08382645000000001 -8.895855150000001 0.003373 0.034094 -0.004293
20080 4.14143865 -0.06990606 -8.908421760000001 0.014085 0.048949 0.001104
20100 4.160303280000001 -0.06780672000000001 -8.931779370000001 0.007617 0.037241 0.004278
20120 4.19862114 -0.06586434000000001 -8.94330612 -0.000957 0.026627 0.002096
20140 4.19786577 -0.07603731000000002 -8.89091091 0.001201 0.029824 -3e-05
20160 4.15146447 -0.09984618 -8.85483954 0.004469 0.042604 -0.00216
20180 4.1589495 -0.10298538000000002 -8.88851727 0.001263 0.044733 0.00102
20200 4.21658325 -0.08083440000000001 -9.04015044 -0.00199 0.036209 0.004213000000000001
20220 4.2629845500000005 -0.06151851 -9.06021189 0.00012 0.03512 0.008502
20240 4.29202215 -0.03367773 -8.98775523 0.00012 0.037242 0.010635
20260 4.23439821 -0.02245509 -8.84345994 -0.003095 0.034057 0.010617
20280 4.14053613 -0.08471916 -8.709190470000001 -0.004162 0.033 0.009543
20300 4.10955615 -0.08232552 -8.73598158 -0.002 0.037262 0.007416
20320 4.13230554 -0.08172711 -8.85917556 -0.00198 0.040462 0.006344
20340 4.14473481 -0.07454619 -8.916956460000002 0.000149 0.038328 0.005293
20360 4.12721415 -0.07753824000000002 -8.88282747 0.0033350000000000003 0.031938 0.002119
20380 4.15445652 -0.15163317 -8.929228770000002 0.0033159999999999995 0.025555 -1e-05
20400 4.2845371199999995 0.13142457 -9.20840175 0.00333 0.026629000000000003 -0.002147
20420 4.06165392 -0.04116276 -9.05302116 0.002278 0.03195 -2.5e-05
20440 4.0278192299999995 -0.11855385 -8.77594752 0.004416 0.034069 0.0010550000000000002
20460 4.074073380000001 -0.10628154000000001 -8.79136884 0.003368 0.038334 0.001043
20480 4.14921798 -0.06586434000000001 -8.88476985 -0.0008849999999999998 0.044728 0.004209
20500 4.24891701 -0.07574300999999999 -9.00288225 -0.002999 0.052179 0.007390000000000002
20520 4.2351437700000005 -0.09490194 -8.97308928 -0.003009 0.052171 0.009526
20540 4.1876928 -0.09894366 -8.81831691 -0.005123 0.053256 0.006305
20560 4.144577850000001 -0.06990606 -8.849002590000001 -0.0051140000000000005 0.051143 0.0020350000000000004
20580 4.18709439 -0.07005321 -8.92324467 -0.0051140000000000005 0.046899 -0.002232
20600 4.23753741 -0.07394777999999999 -8.912620440000001 -0.001923 0.041574 -0.005408
20620 4.209843780000001 -0.08622009 -8.89509978 -0.005123 0.040524 -0.006497
20640 4.19352975 -0.08232552 -8.86276602 0.00023 0.04795 -0.003265
20660 4.19503068 -0.07903917 -8.91770202 0.004536 0.057517999999999986 -0.002178
20680 4.14966924 -0.07110288000000001 -8.94644532 0.022735 0.07130299999999999 -0.002069
20700 4.1472756 -0.06586434000000001 -8.928336060000001 0.041967 0.081871 0.002325
20720 4.148178120000002 -0.06421626 -8.91666216 0.031193 0.061656 0.00548
20740 4.14981639 -0.07394777999999999 -8.90707779 0.008712000000000001 0.046812 0.007478
20760 4.1474227500000005 -0.07125002999999999 -8.927433540000001 0.000149 0.042572000000000006 0.00956
20780 4.131854280000001 -0.07559586 -8.93941155 -0.004157 0.036187 0.011675
20800 4.14173295 -0.06990606 -8.93941155 -0.012735 0.024507 0.009494
20820 4.142782620000001 -0.07424208000000002 -8.916063750000001 -0.018098 0.016013 0.007331
20840 4.159253610000001 -0.06960195000000002 -8.90229051 -0.023437 0.010722 0.003027
20860 4.1532597 -0.08517042 -8.90677368 -0.028767 0.008623 -0.000212
20880 4.12332939 -0.10942074000000002 -8.89809183 -0.038378 0.005465 -0.001343
20900 4.10102145 -0.1158561 -8.88940998 -0.004239 0.00959 0.003163
20920 4.09712688 -0.11271690000000001 -8.90662653 0.046144 0.061616 0.00238
20940 4.1356017000000005 -0.08831943 -8.94030426 0.018463 0.05646 -0.015967
20960 4.15281825 -0.07215255 -8.9338689 0.019333000000000003 0.018085 -0.01057
20980 4.1733211500000005 -0.060920100000000005 -8.936419500000001 -0.007353 0.021348 -0.004352
21000 4.17002499 -0.06646275 -8.896149450000001 0.005646 0.066041 -0.00325
21020 4.14488196 -0.08921214 -8.861127750000001 0.009865 0.060678 0.002128
21040 4.131854280000001 -0.11795544000000001 -8.848100070000001 -0.005191 0.034099000000000004 0.002056
21060 4.2191240400000005 -0.07963758 -8.96411313 -0.004148 0.026647000000000004 -6.3e-05
21080 4.29142374 -0.06047865000000001 -9.032067 0.008698000000000001 0.031945 -0.004253
21100 4.2728632200000005 -0.06122421 -9.01485045 0.008717 0.039389 -0.001058
21120 4.25071224 -0.01961019 -8.99988039 -0.002004 0.031952999999999995 0.00315
21140 4.16194155 -0.032785020000000005 -8.88657489 -0.007363 0.029828 0.00632
21160 4.109850450000001 -0.09805095000000001 -8.741072970000001 -0.009439 0.040497000000000005 0.004155
21180 4.1561046 -0.10508471999999999 -8.72340516 -0.013663 0.046916 0.000913
21200 4.17901095 -0.07993188000000001 -8.813971080000002 -0.014773 0.037332 0.000917
21220 4.17002499 -0.1329255 -8.873243100000002 -0.005191 0.042587 0.010591
21240 4.14488196 -0.08801532 -8.88940998 0.029079 0.07865599999999999 0.018262
21260 4.1384466 -0.08457201 -8.85797874 0.040943 0.111622 0.022576
21280 4.12811667 -0.07619427 -8.83073637 0.019582 0.096821 0.012831
21300 4.15775268 -0.07679268 -8.810380620000002 0.022687 0.063833 0.001145
21320 4.17302685 -0.28889469 -8.91037395 0.021505 0.038271 0.001169
21340 4.41925785 0.2573163 -9.4601754 0.0075689999999999985 0.027649 0.005359
21360 4.01944149 -0.02784078 -9.134453970000001 -0.018079 0.021335 0.008392
21380 3.9552252300000004 -0.17858124000000003 -8.64767196 -0.028714 0.024585 0.004041
21400 4.008513150000001 -0.15672456 -8.721011520000001 -0.034068 0.012915 -0.0034590000000000003
21420 4.142037060000002 -0.060920100000000005 -8.892411840000001 -0.053372 -0.014693 -0.0089
21440 4.29202215 -0.06646275 -9.111547620000001 -0.074791 -0.038033 -0.014361
21460 4.2610421700000005 -0.09550035000000001 -9.01200555 0.055578 0.02536 0.00356
21480 4.175714790000001 -0.07978473 -8.76652011 0.06233300000000001 0.093557 -0.007162000000000002
21500 4.15086606 -0.08217837 -8.772955470000001 0.020395 0.02126 -0.006294
21520 4.221370530000001 -0.07409493 -8.932819230000002 -0.006459 -0.012761 -2.9e-05
21540 4.255352370000001 -0.07275096 -8.97443325 -0.025375 0.055466 0.004025
21560 4.2430800600000005 -0.08322804 -8.91021699 0.034648000000000005 0.121287 0.008631999999999999
21580 4.24816164 -0.07933347 -8.796008970000003 0.017194 0.053101 0.025689
21600 4.107456810000001 -0.14519781 -8.768766600000001 -0.035331 -0.001049 0.02646
21620 4.10580873 -0.21180771 -8.94030426 -0.013869 0.019147 0.019107
21640 4.231396350000001 -0.07110288000000001 -9.12892113 0.009813 0.05850900000000001 0.011744
21660 4.37914476 -0.020208600000000004 -9.106760340000001 0.007726999999999999 0.064925 0.0074480000000000015
21680 4.364773110000001 0.06047865000000001 -9.027426870000001 -0.002985 0.046887 -0.001149
21700 4.14653004 -0.05254236000000001 -8.81966088 0.000211 0.043689 -0.003259
21720 3.9800739600000004 -0.13172868000000001 -8.71861788 0.001259 0.04579 0.0031550000000000003
21740 4.02138387 -0.060321690000000004 -8.85483954 -0.005162 0.048978 0.010583
21760 4.12976475 -0.06182262000000001 -8.944051680000001 -0.007334 0.044708 0.014847
21780 4.1516214300000005 -0.10028763 -8.85004245 -0.004124 0.045766 0.013799
21800 4.0978822500000005 -0.173637 -8.69871339 0.000182 0.05109 0.010618
21820 4.06554849 -0.13726152 -8.68389048 0.001254 0.05003 0.008490000000000001
21840 4.08141126 -0.09984618 -8.80992936 0.002302 0.042582 0.005303
21860 4.13620011 -0.09968922 -8.772661170000001 0.004445 0.041522 0.002114
21880 4.22631477 -0.50504823 -9.03237111 0.006579000000000001 0.039392 -5e-06
21900 4.5833202900000005 0.64890207 -9.811049670000001 0.004435000000000001 0.03833 0.00105
21920 3.9504379500000004 0.06780672000000001 -9.17202627 0.002287 0.038325 0.00424
21940 3.9475930500000005 -0.28051695 -8.53943823 0.00123 0.04152 0.005296
21960 4.14847242 -0.28829628 -8.52836274 0.000144 0.040446 0.008495
21980 4.22451954 -0.05673123 -8.637037920000001 -0.003057 0.040457 0.008473
22000 4.368667680000001 -0.03322647 -9.266035500000001 -0.004104 0.043661 0.007393
22020 4.32525843 -0.06691401 -9.27591417 -0.008357999999999999 0.042628 0.003092
22040 4.19113611 -0.08726976 -8.74960767 -0.014744 0.042663 -0.00015800000000000002
22060 4.146078780000001 -0.10193571 -8.638538850000002 -0.00508 0.057539 0.000959
22080 4.17781413 -0.07648857 -8.84750166 0.019534 0.079802 0.006444
22100 4.20804855 -0.12589173 -9.00661986 0.056927 0.099878 0.015225
22120 4.2749625600000005 -0.12393954 -8.94479724 0.048359 0.083963 0.006640000000000001
22140 4.2426288 -0.07663572 -8.82983385 0.024873 0.06705599999999999 -0.007390000000000002
22160 4.159253610000001 -0.09026181000000001 -8.8439112 0.018501 0.072409 -0.008509000000000001
22180 4.10865363 -0.06511878 -8.967703590000001 0.013109 0.06601 -0.002129
22200 4.06105551 -0.07035732 -8.960964120000002 0.0033490000000000004 0.035134 0.002115
22220 4.08305934 -0.07260381 -8.920851030000001 -0.019175 0.010703 0.004125
22240 4.180207770000001 -0.06765957 -8.89435422 -0.026609 0.015003 0.000863
22260 4.21598484 -0.07095573000000001 -8.88253317 -0.016931 0.024586 -0.006559000000000001
22280 4.2270603300000005 -0.07873506000000001 -8.887918860000001 0.00234 0.040494 -0.005377000000000001
22300 4.1851422000000005 -0.06975891000000001 -8.89734627 0.009832 0.043672 -0.007465
22320 4.181855850000001 -0.07095573000000001 -8.91276759 0.008717 0.030901 -0.009593
22340 4.16478645 -0.0691605 -8.89555104 -0.005195 0.021362 -0.009678
22360 4.20969663 -0.07035732 -8.89540389 -0.023351 0.021409 -0.0055320000000000005
22380 4.21867278 -0.06945480000000001 -8.893010250000001 -0.047999 0.0033590000000000004 0.000729
22400 4.22182179 -0.07679268 -8.90947143 -0.052406 -0.023274 0.005005
22420 4.21598484 -0.07095573000000001 -8.89734627 0.040584 0.029605000000000006 0.020542
22440 4.1965218 -0.08292393 -8.860078080000001 0.022754 0.07556399999999999 -0.002074
22460 4.1734683 -0.14205861 -8.835827759999999 0.016118 0.020205 -0.005254
22480 4.17496923 -0.20776599 -8.87070231 -0.006387 0.0010960000000000002 -0.002182
22500 4.287234870000002 -0.08382645000000001 -8.983870470000001 -0.010462 0.046905 0.000935
22520 4.352647950000001 -0.06795387 -9.12427119 0.0152 0.067025 0.008565999999999999
22540 4.3525008000000005 0.06945480000000001 -9.12068073 0.004272 0.020148 0.019232
22560 4.22780589 -0.04864779000000001 -8.88732045 -0.012898 -0.005345 0.01594
22580 4.131412830000001 -0.1935513 -8.58375 -0.005397 -0.00322 0.010649
22600 4.13814249 -0.12185001000000001 -8.67805353 0.005516 0.040461 -1.3e-05
22620 4.160303280000001 -0.062273880000000004 -8.883877140000001 0.007736 0.06069 0.001044
22640 4.15909665 -0.08816247 -8.928336060000001 0.004464 0.047905 0.004243
22660 4.1646393 -0.11226564 -8.84450961 -0.011721 0.019152 0.015916999999999997
22680 4.183651080000001 -0.09460764 -8.74900926 -0.020318 0.01276 0.023343
22700 4.22945397 -0.11226564 -8.85513384 -0.012774 0.032961000000000004 0.026574
22720 4.307139360000002 -0.05912487 -8.98686252 -0.006305 0.04467 0.0234
22740 4.25160495 -0.04955031 -8.99030583 -0.004152 0.039374 0.013807
22760 4.21239438 -0.05747679000000001 -8.857527480000002 0.0012109999999999998 0.034076 0.002101
22780 4.2171816600000005 -0.08232552 -8.742122640000002 0.0012779999999999998 0.041563 -0.005385
22800 4.234094100000001 -0.07873506000000001 -8.73389205 -0.0083 0.042679 -0.009727
22820 4.2152392800000005 -0.07499745000000001 -8.74032741 -0.012534 0.045907 -0.014033000000000002
22840 4.24052946 -0.23216346000000002 -8.79376248 -0.001837 0.06287100000000001 -0.003298
22860 4.45293558 0.11570895 -9.39281994 0.017381 0.081915 0.012835
22880 4.213591200000001 0.15014205 -9.33683427 0.040905 0.102038 0.021519
22900 4.01480136 -0.12529332 -8.62311753 0.026983 0.086125 0.017169999999999998
22920 4.124673360000001 -0.21195486000000002 -8.602908930000002 0.011951 0.05214 0.00429
22940 4.28543964 -0.05852646 -8.69991021 0.006587999999999999 0.041523 -7.000000000000002e-06
22960 4.36297788 -0.05044302 -9.03760965 0.002297 0.036212 -3e-05
22980 4.27570812 -0.08921214 -9.11948391 -0.016969 0.024552 0.001986
23000 4.1387409 -0.07454619 -8.84944404 -0.033054 0.004377000000000001 -0.000236
23020 4.15715427 -0.09834525 -8.746458660000002 -0.039522 -0.011576 -0.001329
23040 4.26463263 -0.07499745000000001 -8.86651344 -0.053473 -0.030698000000000007 -0.002471
23060 4.19562909 -0.05883057 -8.86037238 0.005291 -0.00324 0.00645
23080 4.13065746 -0.07380063 -8.96156253 0.050507 0.083968 0.00345
23100 4.1851422000000005 -0.05643693 -9.0724842 0.02163 0.053236 -0.011668
23120 4.2138855 -0.06840513000000001 -8.94629817 0.017108 0.002096 -0.006293
23140 4.21163901 -0.06361785 -8.851837680000001 -0.020218 0.01285 0.000911
23160 4.17241863 -0.07574300999999999 -8.82624339 0.006689 0.068138 0.004232
23180 4.11479469 -0.08801532 -8.87504814 0.016161000000000002 0.04783 0.01287
23200 4.20086763 -0.09160578000000001 -8.91501408 -0.008501 0.023402000000000003 0.015934
23220 4.247720190000001 -0.0865242 -8.920703880000001 -0.01164 0.029834 0.008426000000000001
23240 4.18694724 -0.08277678 -8.89000839 0.005516 0.041522 0.0010539999999999998
23260 4.11883641 -0.21345579 -8.85139623 0.007693000000000002 0.04898 -0.001077
23280 4.140693090000001 -0.16181595000000001 -8.9338689 0.001273 0.043681 -0.002184
23300 4.27810176 -0.053592030000000006 -9.092545650000002 0.002345 0.041559 -0.005378
23320 4.34695815 0.04086846000000001 -9.16618932 0.002388 0.050086 -0.006456999999999999
23340 4.264926930000001 -0.00777933 -8.960964120000002 -0.008270999999999999 0.04907 -0.009735
23360 4.10416065 -0.15418377 -8.617574880000001 -0.011505 0.039503 -0.011881
23380 4.096087020000001 -0.15538058999999999 -8.58584934 -0.003985 0.054377 -0.008643000000000001
23400 4.188889620000001 -0.06526593 -8.809330950000001 0.015353 0.092626 -1.1e-05
23420 4.2454737 -0.07603731000000002 -8.91291474 0.040982 0.110595 0.012963
23440 4.20086763 -0.14624748 -8.77924368 0.032389 0.097841 0.01292
23460 4.14921798 -0.08607293999999999 -8.73598158 0.006626000000000001 0.054289 0.00425
23480 4.15086606 -0.07050447000000001 -8.756935740000001 -0.003081 0.025582 -0.001123
23500 4.2224202 -0.31090833 -8.89809183 -0.008444 0.02027 -8.499999999999999e-05
23520 4.52972826 0.33784659 -9.59549454 -0.017012 0.011782 -0.001202
23540 4.08844503 0.09265545000000001 -9.283242240000002 -0.037422 -0.016918 0.0008289999999999999
23560 3.95238033 -0.19235448000000002 -8.54677611 -0.062099 -0.044542 0.003896
23580 4.07437749 -0.23246757 -8.62551117 -0.004459 -0.029864 0.012826
23600 4.2471217800000005 -0.06481466999999999 -8.756494290000001 0.049344 0.064788 0.005603
23620 4.35369762 -0.05927202000000001 -9.11828709 0.010995 0.057547 -0.014952000000000003
23640 4.27346163 -0.09071307 -9.10421955 0.019295 0.008502 -0.011627
23660 4.1594007600000005 -0.07619427 -8.781038910000001 -0.020203 0.018168 0.00304
23680 4.144577850000001 -0.06975891000000001 -8.726848470000002 -0.010506 0.052171 0.015883
23700 4.18470075 -0.06945480000000001 -8.9165052 -0.00532 0.033984 0.030898
23720 4.25040813 -0.07603731000000002 -8.99764371 -0.023495 0.025525 0.030782
23740 4.2490641600000005 -0.09684432000000001 -8.89899435 -0.019146 0.028765 0.015853
23760 4.211795970000001 -0.10792962 -8.83298286 0.006555 0.0277 -0.006399
23780 4.16299122 -0.11855385 -8.84764881 0.010894 0.034115 -0.015991
23800 4.09368357 -0.14759145 -8.889115680000002 0.004512 0.037338 -0.017108
23820 4.12242687 -0.12768696000000002 -8.932819230000002 0.004435000000000001 0.028781 -0.008551999999999999
23840 4.220477820000001 -0.08876088000000001 -9.01799946 0.00444 0.039396 0.001049
23860 4.321363860000002 -0.03652263 -9.12232881 -0.005147 0.052174 0.010579
23880 4.33408743 0.15133887000000001 -9.118885500000001 -0.011596 0.045788 0.014815
23900 4.168533870000001 -0.05239521 -8.804837970000001 -0.009468 0.043654000000000005 0.013765
23920 4.086198540000001 -0.22184334 -8.523124200000002 -0.004079999999999999 0.054291999999999986 0.012721
23940 4.159547910000001 -0.09550035000000001 -8.60620509 -0.004061 0.058553 0.012715
23960 4.229306820000001 -0.07065161999999998 -8.83762299 0.000221 0.06067300000000001 0.011674
23980 4.2284043 -0.09100737 -8.88447555 0.005555 0.05535 0.006377000000000001
24000 4.21089345 -0.07275096 -8.80828128 0.009808 0.044712 -0.001057
24020 4.18874247 -0.08981055 -8.72206119 0.012985 0.036191 -0.004229
24040 4.39067151 -0.06735546 -9.28713681 0.015109 0.034053 -0.004211
24060 4.367470860000001 0.27393444 -9.497002140000001 0.010856 0.036203 -0.005312
24080 3.9561277500000003 -0.10104300000000001 -8.6355468 0.007645 0.035145 -0.004265
24100 3.9902567400000004 -0.27781920000000004 -8.582553180000001 0.00445 0.035160000000000004 -0.005355
24120 4.18679028 -0.10537902 -8.78582619 0.004445 0.037278 -0.002153
24140 4.29711354 -0.04371336 -9.05990778 0.0033490000000000004 0.034073 0.001048
24160 4.343220540000001 -0.07050447000000001 -9.16513965 -0.000947 0.03194 0.005294
24180 4.19457942 -0.07858791000000001 -8.85408417 -0.003062 0.039392 0.008473999999999999
24200 4.131854280000001 -0.12109464000000002 -8.67176532 -0.006253 0.045778 0.012716
24220 4.19503068 -0.08607293999999999 -8.85079782 -0.008405 0.044707 0.015907
24240 4.2845371199999995 -0.07215255 -9.00752238 -0.007363 0.041499 0.018055
24260 4.2388813800000005 -0.11675862 -8.92638387 -0.005219 0.042561 0.017001
24280 4.17721572 -0.09370512 -8.8385157 -0.00521 0.040448000000000005 0.01273
24300 4.09997178 -0.08143281000000001 -8.852141790000001 0.000125 0.038307 0.010634
24320 4.0261809600000005 -0.06691401 -8.97877908 0.005454 0.032979 0.006405
24340 4.00985712 -0.05463189 -9.00511893 0.0076019999999999985 0.030862 0.001082
24360 4.09338927 -0.060321690000000004 -8.94151089 0.0076409999999999985 0.03514 -0.003196
24380 4.15176858 -0.057329639999999994 -8.891813430000001 0.007679000000000002 0.041541 -0.005340999999999999
24400 4.18080618 -0.04595004000000001 -8.91411156 0.00555 0.043674 -0.00429
24420 4.14907083 -0.050148719999999994 -8.90977554 0.005531 0.042596 -0.001084
24440 4.13634726 -0.057633750000000004 -8.93522268 0.002316 0.043656 0.003165
24460 4.15985202 -0.06795387 -8.92908162 0.00015800000000000002 0.039398 0.004224
24480 4.23648774 -0.07170129 -8.89450137 0.00123 0.04152 0.005296
24500 4.2486129 -0.060174540000000006 -8.892107730000001 0.00123 0.04152 0.005296
24520 4.24397277 -0.09624591 -8.89076376 0.001196 0.038307 0.009573
24540 4.268968650000001 -0.08592579000000002 -8.887614750000001 0.002254 0.036173 0.009583
24560 4.2929246700000006 -0.07035732 -8.90288892 0.003325 0.034052 0.006389
24580 4.30369605 -0.05883057 -8.85109212 0.001201 0.035129 0.005304
24600 4.29426864 -0.07469334000000001 -8.83791729 0.0012109999999999998 0.036198 0.004235
24620 4.26807594 -0.08712261 -8.83836855 0.00015800000000000002 0.038337 0.003157
24640 4.23275013 -0.08038314 -8.887918860000001 -0.000904 0.040467 0.004215
24660 4.185897570000002 -0.07543890000000002 -8.892706140000001 -0.003038 0.044718 0.008467
24680 4.1327568 -0.06615864 -8.88581952 -0.00198 0.041523 0.007411
24700 4.15236699 -0.06675705 -8.915612490000001 0.00015800000000000002 0.04152 0.006357
24720 4.15101321 -0.06511878 -8.922195 0.000168 0.044711 0.007421
24740 4.1561046 -0.06795387 -8.93850903 0.001239 0.044712 0.006361
24760 4.1436851400000005 -0.07484049000000001 -8.91141381 0.005478 0.035122 0.003198
24780 4.1213772 -0.08217837 -8.87744178 0.009722 0.032964 0.006435
24800 4.12482051 -0.08861373 -8.90288892 0.004469 0.043665 -0.001093
24820 4.17451797 -0.08098155 -8.90902017 0.003416 0.047926 -3.8e-05
24840 4.18230711 -0.07364366999999998 -8.928336060000001 0.004464 0.045783 0.002109
24860 4.18709439 -0.06137136000000001 -8.89540389 0.006564 0.040441000000000005 0.004267
24880 4.21014789 -0.05972328000000001 -8.90243766 0.006555 0.037249 0.003203
24900 4.20924537 -0.05703534 -8.891656470000001 0.007612000000000002 0.037237 0.005347
24920 4.20804855 -0.058232160000000005 -8.90378163 0.002282 0.03726 0.004241
24940 4.2312492 -0.07095573000000001 -8.904537 0.002258 0.035116 0.0074480000000000015
24960 4.2164361 -0.07724394 -8.879982570000001 0.000105 0.028741000000000006 0.005305
24980 4.2227145 -0.07619427 -8.884328400000001 -0.000952 0.029814 0.004228
25000 4.1851422000000005 -0.07918631999999999 -8.8789329 0.000134 0.033010000000000005 0.003163
25020 4.2081957 -0.07364366999999998 -8.891656470000001 0.002249 0.031925 0.006384
25040 4.20954948 -0.07784234999999999 -8.89450137 0.002239 0.031916 0.008520999999999999
25060 4.23469251 -0.07574300999999999 -8.89045965 0.000101 0.034042 0.011708
25080 4.22107623 -0.07978473 -8.88940998 0.002249 0.039352 0.013852
25100 4.20594921 -0.07170129 -8.904380040000001 0.0012109999999999998 0.045747 0.013837
25120 4.17272274 -0.06571719 -8.9108154 -0.000923 0.042572000000000006 0.010621
25140 4.12871508 -0.06990606 -8.89061661 -0.003057 0.041518 0.009539
25160 4.1655418200000005 -0.07005321 -8.91516123 -0.001932 0.046871 0.002063
25180 4.182003 -0.06765957 -8.90947143 0.002359 0.048999 -0.001115
25200 4.14937494 -0.062116920000000006 -8.87878575 -0.000808 0.052223 -0.005414
25220 4.14383229 -0.06825798 -8.88986124 -0.0050420000000000005 0.060756 -0.004386
25240 4.176018900000001 -0.11720988 -8.880433830000001 -0.003989 0.059678 -0.002241
25260 4.2171816600000005 -0.12274272000000001 -8.90633223 0.002378 0.051138 -0.003254
25280 4.226157810000001 -0.11465928000000002 -8.88821316 0.004464 0.043661 -2.5e-05
25300 4.20864696 -0.06452037000000001 -8.87594085 0.00554 0.043666 -0.002154
25320 4.190233590000001 -0.07155414 -8.87534244 0.006645999999999999 0.045818 -0.008558
25340 4.23648774 -0.07559586 -8.88253317 0.013047 0.040491 -0.013848
25360 4.25475396 -0.07380063 -8.879982570000001 0.0194 0.03406 -0.009522
25380 4.2426288 -0.07095573000000001 -8.89509978 0.022572 0.028718 -0.008425
25400 4.23394695 -0.06780672000000001 -8.912169180000001 0.005516 0.036217 -0.004281
25420 4.21823133 -0.07708698000000001 -8.892107730000001 -0.007286 0.041567 0.000964
25440 4.22811 -0.07813665 -8.91470997 -0.006243 0.040481 0.005246
25460 4.229758080000002 -0.06586434000000001 -8.87369436 -0.007348 0.038329 0.01165
25480 4.19697306 -0.060772950000000006 -8.91755487 -0.012683 0.042591 0.015880000000000002
25500 4.213287090000001 -0.06242103000000001 -8.87385132 -0.01163 0.034087 0.010557
25520 4.167935460000001 -0.07005321 -8.86216761 -0.014903 0.019180000000000003 0.011622
25540 4.159999170000001 -0.07215255 -8.89105806 -0.020218 0.028765 0.016913
25560 4.14832527 -0.13337676 -8.903938590000001 0.002282 0.061663 0.028779
25580 4.16045043 -0.09849240000000001 -8.93551698 0.048244 0.093409 0.041878
25600 4.125870180000001 -0.07948062 -8.951987970000001 0.039718 0.087082 0.033281
25620 4.1529654 -0.11152008000000001 -8.89540389 0.006587999999999999 0.055316 0.013862
25640 4.174223670000001 -0.11675862 -8.86247172 -0.004076 0.036259 -0.006484
25660 4.1788638 -0.08816247 -8.91860454 0.00443 0.020289 -0.016018
25680 4.1733211500000005 -0.09325386000000001 -8.920399770000001 -0.005229 -0.003071 -0.026738
25700 4.19293134 -0.10463346000000001 -8.91815328 -0.026633 -0.021093 -0.030069
25720 4.16239281 -0.11511054 -8.852288940000001 -0.050166 -0.024249 -0.019547
25740 4.19262723 -0.08471916 -8.8353765 -0.073657 -0.024184 -0.015438999999999996
25760 4.23813582 -0.05792805 -8.89495263 0.025672000000000004 0.026495 0.011896
25780 4.25879568 -0.06406911000000001 -8.90932428 0.055875 0.09565 0.007745
25800 4.26552534 -0.08607293999999999 -8.895698190000001 0.015128 0.037253 -0.005283
25820 4.34606544 -0.07394777999999999 -8.81097903 -0.002153 -0.014864 -0.010678
25840 4.3185189600000005 -0.08996751000000001 -8.78074461 -0.036153 0.021453 -0.005621
25860 4.301008110000001 -0.08532738000000001 -8.83432683 0.007875 0.088399 -0.002195
25880 4.32585684 -0.05658408 -8.93417301 0.020424 0.044628 0.010768000000000002
25900 4.25011383 -0.08397360000000001 -8.91830043 -0.010616 0.015999 0.004178
25920 4.2252651 -0.07065161999999998 -8.89390296 -0.006219 0.033075 -0.0075629999999999985
25940 4.17646035 -0.07334936999999998 -8.87953131 0.008846 0.055419 -0.013896
25960 4.14757971 -0.07065161999999998 -8.91470997 0.008923 0.074586 -0.011784
25980 4.13335521 -0.05747679000000001 -8.88507396 -0.000722 0.069276 -0.007571
26000 4.15490778 -0.05643693 -8.94300201 0.000268 0.05435 -0.005409000000000001
26020 4.15206288 -0.06151851 -9.06873678 -0.00188 0.054344 -0.002219
26040 4.21403265 -0.04221243000000001 -9.239381730000002 -0.007223999999999999 0.054355 -0.00012
26060 4.316419620000001 0.21704625 -9.20481129 -0.010434 0.045869 -0.006541
26080 4.22870841 0.00404172 -8.84300868 -0.005023 0.054407 -0.01506
26100 4.08260808 -0.31674527999999996 -8.506064610000001 0.012157 0.08415299999999999 -0.009637
26120 4.11075297 -0.32916474 -8.55141624 0.041011 0.104254 0.000153
26140 4.19218578 -0.1591182 -8.78223573 0.052746 0.112701 0.00877
26160 4.26448548 -0.17229302999999999 -8.845559280000002 0.036638 0.084016 0.003353
26180 4.22151768 -0.20776599 -8.741975490000002 0.020505 0.050005 -0.002057
26200 4.13230554 -0.07529175 -8.697958020000002 0.006559000000000001 0.031948000000000004 -0.0032
26220 4.12931349 -0.06825798 -8.724758940000001 -0.002023 0.026631 0.002088
26240 4.29801606 -0.09999333 -9.453141630000001 -0.020227 0.013902 0.0041140000000000005
26260 4.4060830200000005 0.54936 -9.62603307 -0.038508 -0.011626 0.010428
26280 3.8872615500000003 -0.08308088999999999 -8.7169698 -0.054674 -0.039301 0.018896
26300 4.028574600000001 -0.25372584000000004 -8.5319532 -0.075097 -0.070136 0.021998
26320 4.20685173 -0.20597076000000003 -8.57641212 0.029771 0.002989 0.025841000000000003
26340 4.307139360000002 -0.08712261 -8.940009960000001 0.049521 0.102081 0.0034200000000000003
26360 4.36956039 -0.2314179 -9.223666110000002 0.036465 0.033996 -0.008334999999999999
26380 4.19262723 -0.22708187999999999 -8.94539565 0.000966 -0.01813 0.004303
26400 4.0995205200000004 -0.17303859 -8.67520863 -0.039555 -0.002056 0.01575
26420 4.09712688 -0.08712261 -8.813823930000002 0.00975 0.055271 0.02243
26440 4.19188167 -0.07079877000000001 -8.9711469 0.013912 0.040308 0.031024
26460 4.22032086 -0.06691401 -8.96141538 -0.015998 0.024463 0.023358
26480 4.22691318 -0.06571719 -8.8931574 -0.004196 0.020238 0.004218
26500 4.24352151 -0.07139718 -8.85738033 0.015109 0.032992 -0.005278
26520 4.189635180000001 -0.08442486000000002 -8.86202046 0.013004 0.039391 -0.005301
26540 4.13649441 -0.16301277 -8.81951373 0.002306 0.033037000000000004 -0.005367
26560 4.1692794300000005 -0.20776599 -8.84570643 0.003383 0.037286 -0.003229
26580 4.3004097 -0.15237873000000005 -8.94659247 0.001263 0.045794 0.0020870000000000003
26600 4.417011360000001 -0.0375723 -9.134453970000001 -0.003023 0.040487 0.000995
26620 4.4261444700000006 0.12768696000000002 -9.10586763 0.002239 0.023428 -1.4e-05
26640 4.25609793 -0.03023442 -8.83941822 0.008631 0.017031 -0.004234
26660 4.13904501 -0.07933347 -8.642276460000001 0.011898 0.028751 -0.007431
26680 4.17451797 -0.12169305 -8.59168629 0.01088 0.037285000000000006 -0.009586
26700 4.284988380000001 -0.0782838 -8.71847073 0.0044740000000000005 0.036242 -0.009629
26720 4.255352370000001 -0.07963758 -8.810233470000002 -0.001952 0.028816 -0.011801
26740 4.17466512 -0.08053029000000002 -8.78089176 -0.008343000000000001 0.028847 -0.013982
26760 4.14323388 -0.05627997 -8.78493348 -0.001894 0.046905 -0.006483
26780 4.16568897 -0.05703534 -8.768462490000001 0.01199 0.063845 0.007479
26800 4.35355047 -0.39233133000000003 -9.18474984 0.035532 0.092474 0.020426
26820 4.59633816 0.5812425 -9.624532140000001 0.039776 0.090316 0.023663
26840 3.81706119 -0.09160578000000001 -8.79854976 0.025816 0.06375800000000001 0.01719
26860 3.96360297 -0.28725642 -8.67206943 0.010779 0.038257 0.013913
26880 4.16418804 -0.10088604 -8.720570069999999 -0.002038 0.035106 0.013828
26900 4.320912600000001 -0.04595004000000001 -8.89420707 -0.00952 0.029814 0.011646
26920 4.394409120000001 -0.09520605 -9.13804443 -0.024523 0.009648 0.006226
26940 4.18903677 -0.1505835 -8.94165804 -0.038465 -0.009466 0.002948
26960 4.07332782 -0.14864112000000002 -8.71607709 -0.05880700000000001 -0.024313 0.003893
26980 4.13739693 -0.08562168 -8.828195580000001 -0.08016799999999999 -0.03487 -0.001584
27000 4.24980972 -0.06331374000000001 -8.98251669 0.04057 0.015799 0.009877
27020 4.25564667 -0.06751241999999999 -8.9739918 0.0655 0.083967 -0.009264
27040 4.1851422000000005 -0.08741691000000001 -8.88342588 0.024754 0.029814 -0.018025
27060 4.12632144 -0.09385227000000002 -8.856036360000001 0.003172 -0.020196 -0.013839
27080 4.1611959899999995 -0.10208286000000001 -8.93791062 -0.023289 0.029952 -0.010883
27100 4.14293958 -0.08756406 -8.92264626 0.024993 0.090504 -0.010624
27120 4.193382600000001 -0.08996751000000001 -8.85828285 0.019438 0.048948 -0.003132
27140 4.24203039 -0.07514459999999999 -8.84300868 -0.013773 0.018171 -0.003324
27160 4.27271607 -0.06945480000000001 -8.90049528 -0.007295 0.032010000000000004 -0.006501000000000001
27180 4.24038231 -0.07454619 -8.93731221 0.0077129999999999985 0.050058 -0.004283
27200 4.20670458 -0.09026181000000001 -8.88103224 0.0034590000000000003 0.057513 -5e-05
27220 4.13709282 -0.16989939 -8.82759717 -0.005123 0.047951 0.000971
27240 4.15820394 -0.25956279 -8.86711185 -0.003014 0.043679 0.002059
27260 4.31956863 -0.063765 -9.01664568 -0.001942 0.048984 0.006333
27280 4.36252662 -0.05613282 -9.13565079 -0.00731 0.041546 0.006305
27300 4.310886780000001 0.055534410000000006 -9.13295304 -0.007353 0.028775 0.003116
27320 4.1586552 -0.0026977500000000005 -8.916956460000002 -0.00198 0.030913 -0.003258
27340 4.07512305 -0.08277678 -8.69017869 0.000211 0.042628 -0.004326
27360 4.084403310000001 -0.16540641000000003 -8.62835607 0.00023 0.043706 -0.007532
27380 4.15909665 -0.12888378 -8.736432839999999 0.001263 0.038367 -0.005381
27400 4.17706857 -0.13082616000000002 -8.85498669 0.00016299999999999998 0.034097 -0.002179
27420 4.11120423 -0.16765290000000002 -8.81351982 0.0012109999999999998 0.031954 -3.2e-05
27440 4.071081330000001 -0.09460764 -8.794665 0.002268 0.033003 0.0031780000000000003
27460 4.0838049000000005 -0.054484740000000004 -8.76561759 -0.002004 0.036197 0.007417
27480 4.15445652 -0.40610457000000005 -8.916063750000001 -0.003076 0.039379 0.011678
27500 4.541706270000001 0.48543804 -9.747883080000001 -0.003095 0.038301 0.014884
27520 4.0607514 0.11211849 -9.32276673 -0.000961 0.040416 0.017033
27540 3.9234898800000004 -0.16690734 -8.5493169 9.6e-05 0.039342 0.01811
27560 4.02468003 -0.23172201 -8.52866685 0.001172 0.039347 0.015981
27580 4.16478645 -0.07903917 -8.715478680000002 -0.002004 0.038319 0.009551
27600 4.32674955 -0.08067743999999999 -9.186849180000001 -0.005181 0.03729 0.003121
27620 4.3206183000000005 -0.23395869 -9.18953712 -0.009405 0.041587 -0.002255
27640 4.16299122 -0.1562733 -8.78433507 -0.009352 0.053305 -0.00227
27660 4.102218270000001 -0.08517042 -8.687039490000002 -0.002903 0.064997 -0.001172
27680 4.16299122 -0.060321690000000004 -8.88581952 0.012085 0.078784 0.001052
27700 4.227511590000001 -0.06301944 -9.027279720000001 0.038767 0.088249 0.008703
27720 4.25160495 -0.07020036 -8.94943737 0.043029000000000005 0.095656 0.017269999999999997
27740 4.22825715 -0.07334936999999998 -8.84255742 0.020568 0.085074 0.019263
27760 4.23065079 -0.07244685 -8.87744178 -0.001918 0.070225 0.022329
27780 4.17511638 -0.07199559 -8.98162398 -0.013711 0.063849 0.028664
27800 4.15251414 -0.09564750000000001 -8.9367138 -0.019112 0.047893 0.027579000000000003
27820 4.182003 -0.11286405000000001 -8.852445900000001 -0.027724 0.022391 0.019006
27840 4.190233590000001 -0.07559586 -8.86232457 -0.036388 -0.012708 0.012581
27860 4.20026922 -0.07155414 -8.880580980000001 -0.05354 -0.031818 0.011417
27880 4.165983270000001 -0.0811287 -8.9307297 -0.067476 -0.046684 0.011339
27900 4.17616605 -0.0663156 -8.935968240000001 0.043631 -0.0066170000000000005 0.018473
27920 4.1436851400000005 -0.06870924 -8.92249911 0.053616 0.049924 -0.010372
27940 4.138897860000001 -0.06122421 -8.91291474 0.018266 0.013845 -0.014845
27960 4.13125587 -0.06002739000000001 -8.91381726 -0.011774 -0.010603 -0.002205
27980 4.119886080000001 -0.060174540000000006 -8.91485712 -0.028709 0.037321 0.015775
28000 4.09743099 -0.06271533 -8.93342745 0.009808 0.07442 0.028815
28020 4.0978822500000005 -0.05747679000000001 -8.94450294 -6.7e-05 0.028587 0.04376
28040 4.09967748 -0.06301944 -8.93821473 -0.028992 0.004178 0.045726
28060 4.1118026400000005 -0.07065161999999998 -8.91830043 -0.020304 0.026566000000000003 0.034007
28080 4.17241863 -0.11436498 -8.912620440000001 -0.0008849999999999998 0.062765 0.022346
28100 4.16868102 -0.12065319 -8.90213355 0.009918 0.07664 0.006379999999999999
28120 4.20071067 -0.18007236000000001 -8.89734627 0.014195 0.053291 -0.019197
28140 4.23275013 -0.1562733 -8.85169053 0.023768 0.026707 -0.039392
28160 4.24980972 -0.08726976 -8.896149450000001 0.026926 0.013926 -0.042559
28180 4.2807995100000005 -0.08053029000000002 -9.01051443 0.025801 0.011756 -0.031882
28200 4.30789473 -0.01437165 -9.111106170000001 0.019362 0.013867 -0.021247
28220 4.28005395 -0.016618140000000003 -9.015154560000001 0.007693000000000002 0.036248 -0.013880000000000002
28240 4.15445652 -0.07648857 -8.75963349 0.003503 0.059673 -0.0075299999999999985
28260 4.109409 -0.14610033 -8.657844930000001 0.000268 0.059654999999999986 -7.5e-05
28280 4.12077879 -0.09595161 -8.73808092 -0.004118999999999999 0.04577 0.012731
28300 4.13110872 -0.07155414 -8.83568061 -0.007396 0.038286 0.022332
28320 4.2081957 -0.16121754000000002 -8.83881981 -0.01063 0.039328 0.030854000000000006
28340 4.26987117 -0.11016630000000001 -8.82160326 -0.013845 0.040388 0.035102999999999995
28360 4.29202215 -0.05598567000000001 -8.79959943 -0.011692 0.041458 0.031912
28380 4.25819727 -0.09909081000000002 -8.708886360000001 -0.009492 0.046816 0.022306
28400 4.3989021 -0.18007236000000001 -9.206606520000001 -0.005219 0.040439 0.014866999999999997
28420 4.44081042 0.265851 -9.48906585 0.000115 0.034054 0.008503
28440 4.0339602900000004 -0.10896948000000001 -8.785384740000001 0.003354 0.038321 0.004247
28460 4.02917301 -0.23261472000000002 -8.592127740000002 0.003383 0.04153 0.001039
28480 4.07557431 -0.06735546 -8.65545129 0.003392 0.04366 0.001036
28500 4.13335521 -0.031136940000000002 -9.038953620000001 0.003383 0.040469 -2.8000000000000006e-05
28520 4.16284407 -0.07978473 -9.26154252 0.001244 0.042594 0.003159
28540 4.03500996 -0.09265545000000001 -8.99030583 -0.005157 0.04686 0.007381
28560 4.00312746 -0.10597743000000001 -8.794213740000002 -0.007276 0.052186 0.009496
28580 4.04369181 -0.07948062 -8.88627078 -0.003014 0.046862 0.00526
28600 4.08305934 -0.08891784 -8.96306346 0.002282 0.030894 -0.00216
28620 4.163138370000001 -0.14654178 -8.94300201 0.00755 0.010656 -0.007437999999999998
28640 4.30295049 -0.17019369 -8.864718210000001 0.009631 -0.003191 -0.009543
28660 4.348753380000001 -0.14550192 -8.84121345 0.009587 -0.007473 -0.004196
28680 4.26388707 -0.09924777 -8.85319146 0.003229 0.009563 0.003215
28700 4.17018195 -0.08397360000000001 -8.891813430000001 -0.005171 0.043665 0.007384999999999998
28720 4.11329376 -0.08292393 -8.908127460000001 -0.006099 0.072439 0.0052060000000000006
28740 4.11104727 -0.07095573000000001 -8.92623672 0.002436 0.068165 0.000998
28760 4.18095333 -0.07364366999999998 -8.91351315 0.000235 0.046893 -0.0054
28780 4.2388813800000005 -0.06452037000000001 -8.88552522 0.001254 0.029871 -0.01178
28800 4.239038340000001 -0.060920100000000005 -8.89196058 0.005516 0.029851 -0.010682
28820 4.17092751 -0.060920100000000005 -8.90378163 0.003397 0.039421 -0.0043
28840 4.0892004 -0.07065161999999998 -8.89959276 0.001287 0.045815 -0.003254
28860 4.13724978 -0.07724394 -8.91845739 0.005598 0.051144 -0.007504
28880 4.14832527 -0.10822392 -8.943904530000001 0.01098 0.054351 -0.014948
28900 4.160597580000001 -0.11271690000000001 -8.91770202 0.0131 0.046904 -0.019197
28920 4.1529654 -0.09430353000000001 -8.91037395 0.009832 0.035184 -0.016
28940 4.14877653 -0.09011466 -8.91815328 0.00765 0.030905 -0.0096
28960 4.12482051 -0.08876088000000001 -8.9105211 0.006573999999999999 0.033022 -0.005338
28980 4.14667719 -0.07229970000000002 -8.920252620000001 0.0023350000000000003 0.04049 -0.004308
29000 4.1879871 -0.08023599000000001 -8.91351315 0.001254 0.041542 -4.4e-05
29020 4.17466512 -0.08636724000000001 -8.91037395 -0.0030280000000000003 0.041544 0.00313
29040 4.1851422000000005 -0.08248248000000001 -8.89061661 -0.005181 0.039412 0.005254
29060 4.1532597 -0.08502327 -8.91411156 -0.008372 0.040493 0.004163
29080 4.14084024 -0.09355797 -8.89749342 -0.007305 0.04155 0.005237
29100 4.2110406 -0.09999333 -8.884328400000001 -0.007291 0.043685 0.004166
29120 4.297859100000001 -0.07784234999999999 -8.84750166 -0.005171 0.039421 0.003118
29140 4.310886780000001 -0.07784234999999999 -8.82923544 -0.004124 0.033034 0.000997
29160 4.261483620000002 -0.07215255 -8.87144787 0.0012109999999999998 0.029832 -0.002166
29180 4.19996511 -0.07199559 -8.90917713 0.002297 0.031968 -0.004298
29200 4.12273098 -0.07873506000000001 -8.93417301 0.003407 0.039429 -0.006436
29220 4.0481847900000005 -0.08442486000000002 -8.97488451 0.005536 0.039417 -0.005353
29240 3.95866854 -0.09774684000000002 -8.939705850000001 0.0033880000000000004 0.03729 -0.004297
29260 4.05670968 -0.08891784 -8.9455428 0.002325 0.037298000000000005 -0.005372999999999999
29280 4.17197718 -0.07499745000000001 -8.96021856 0.000211 0.041567 -0.005393
29300 4.19472657 -0.07139718 -8.917103610000002 -0.001923 0.043696 -0.003274
29320 4.14907083 -0.07005321 -8.912620440000001 0.000177 0.041537 0.002084
29340 4.04099406 -0.05972328000000001 -8.90633223 -0.000918 0.041515 0.008486
29360 4.01764626 -0.06242103000000001 -8.928336060000001 -0.003033 0.048966 0.011667
29380 4.0698845100000005 -0.07784234999999999 -8.919948510000001 -0.009405 0.059624 0.015881
29400 4.1848479 -0.06870924 -8.93881314 -0.008338 0.060682000000000014 0.016956
29420 4.26253329 -0.07918631999999999 -8.924441490000001 -0.001971 0.052141 0.015943000000000002
29440 4.24038231 -0.08023599000000001 -8.89076376 0.006559000000000001 0.043619 0.008536
29460 4.22765874 -0.08471916 -8.85453543 0.009741 0.034042 0.003229
29480 4.24756323 -0.08397360000000001 -8.853044310000001 0.008698000000000001 0.031945 -0.004253
29500 4.252654620000001 -0.10642868999999999 -8.87280165 0.004435000000000001 0.033025 -0.0042840000000000005
29520 4.24980972 -0.10373094000000001 -8.86142205 0.001225 0.034089 -0.001103
29540 4.25490111 -0.08876088000000001 -8.89749342 -0.005195 0.038338 0.007392
29560 4.2131399400000005 -0.07603731000000002 -8.91485712 -0.0073430000000000014 0.043638 0.015916
29580 4.16568897 -0.07155414 -8.940009960000001 -0.011606 0.04684 0.018019
29600 4.12527177 -0.07215255 -8.92130229 -0.02437 0.055407000000000005 0.017919
29620 4.134404879999999 -0.07304525999999999 -8.919654210000001 -0.031819 0.05863300000000001 0.016794
29640 4.14024183 -0.07155414 -8.91470997 -0.029719 0.050108 0.015752000000000002
29660 4.176018900000001 -0.07858791000000001 -8.91097236 -0.025480000000000003 0.041579000000000005 0.013656
29680 4.1504148 -0.07603731000000002 -8.95333194 -0.022232 0.050099 0.011531
29700 4.1532597 -0.07155414 -8.931779370000001 -0.028642 0.042686 0.006155
29720 4.12213257 -0.06885639 -8.92489275 -0.039239 0.050214 -0.002475
29740 4.09563576 -0.07035732 -8.92339182 -0.048759 0.061991 -0.008966
29760 4.110154560000001 -0.07499745000000001 -8.92294056 -0.059361 0.068454 -0.017594
29780 4.1594007600000005 -0.08352234000000001 -8.94090267 -0.062437 0.090857 -0.022985
29800 4.2110406 -0.0928026 -8.927580690000001 -0.046395 0.099323 -0.022884
29820 4.22945397 -0.08352234000000001 -8.90183925 -0.017753 0.075736 -0.009835
29840 4.161794400000001 -0.0663156 -8.85064086 0.00016299999999999998 0.034097 -0.002179
29860 4.117933890000001 -0.053739180000000004 -8.89121502 0.011764 0.004229 -0.00206
