time Ax Ay Az Gx Gy Gz
20 -3.19271355 3.8407131000000003 8.81007651 0.288796 0.082412 -0.080341
40 -3.2332779 3.7567395 8.49678435 0.26776300000000003 0.010718 0.01788
60 -3.2894107200000002 3.2665043700000003 8.139327569999999 0.206583 -0.025472 0.063433
80 -3.4027260300000006 2.9692221300000003 8.167462650000001 0.196833 -0.051034 0.070875
100 -3.4715824200000003 3.07969254 8.048163240000001 0.182935 -0.080719 0.047315
120 -3.68773596 2.8367478900000003 8.07570972 0.129505 -0.134721 0.011759
140 -3.69701622 3.4940375100000005 8.161625700000002 0.08563899999999999 -0.168631 0.005087
160 -3.7205111700000004 4.1532597 8.35622667 0.042797 -0.155899 0.054978
180 -3.66348564 4.458478230000001 8.59616946 -0.031138 -0.18033 0.101495
200 -3.59178435 4.30429446 8.43750252 -0.06030700000000001 -0.203895 0.159005
220 -3.29285403 3.8666115000000003 7.98095493 -0.037989 -0.157366 0.225331
240 -3.25138716 3.3048320400000004 7.725885120000001 -0.181594 -0.017496 0.270082
260 -3.06487944 3.71003409 7.954762230000001 -0.278883 0.155496 0.249953
280 -3.10529664 4.1330511 8.19246834 -0.020062 0.060843 0.25295100000000004
300 -3.15139383 4.18619187 8.53943823 0.101021 0.043914 0.119222
320 -3.1302925200000002 4.367470860000001 8.78508063 -0.028036 0.005138 0.071368
340 -3.11501835 4.53451554 8.61608376 -0.142578 -0.009662 0.142158
360 -2.86549119 4.50862695 8.34619104 -0.105717 -0.038866000000000005 0.220433
380 -2.90665395 4.15057176 8.490044880000001 -0.062291999999999986 -0.076435 0.2539
400 -3.12730047 3.8112242400000005 8.467295490000001 -0.06543099999999999 -0.07743 0.238924
420 -3.11802021 3.60525348 8.216865810000002 -0.045959 -0.061343 0.195242
440 -2.9987109899999997 3.8676611700000003 8.061190920000001 0.020359 -0.03914 0.179654
460 -3.1759482599999997 4.2745113 8.685234450000001 0.039721 -0.004053 0.179744
480 -3.5151388199999998 4.4439594300000005 9.65043054 0.008902 0.020564 0.177361
500 -2.69634717 4.96472328 8.23841838 -0.013493000000000002 0.00898 0.163332
520 -2.19788145 5.57156007 7.74594657 -0.023152 -0.028173 0.138743
540 -2.28574962 4.8361436100000015 8.299495440000001 -0.013536 -0.054718 0.108934
560 -2.74978224 4.04579115 8.06612535 -0.007847 -0.007737999999999998 0.07686699999999999
580 -3.0867263100000004 3.79072134 7.68277017 -0.006626000000000001 0.059238 0.109905
600 -2.9964645 3.74311341 8.008491600000001 -0.026305 0.033419 0.189917
620 -2.91308931 3.9037325400000005 8.6011137 -0.051307000000000005 -0.063459 0.196276
640 -3.0666746700000003 3.7712583 8.58704616 -0.071837 -0.161231 0.155665
660 -3.1804314300000005 3.5718700500000002 8.27628498 -0.045911 -0.1239 0.121615
680 -3.2500431899999995 3.56394357 8.35666812 0.010719 -0.094313 0.132655
700 -3.2207014800000002 3.86166726 8.67520863 0.019163 -0.092301 0.155144
720 -3.19240944 4.17855969 8.71921629 -0.033022 -0.058086 0.168623
740 -3.1234059000000003 4.50832284 8.48346237 -0.084121 -0.033406 0.168234
760 -2.9530552500000002 4.615349940000001 8.28017955 -0.094469 0.007234999999999998 0.137131
780 -3.0190765500000003 4.18679028 8.291412 -0.08247 0.015916999999999997 0.086998
800 -2.9939237100000002 4.0462326000000015 8.225547660000002 -0.065222 0.006466 0.037992000000000005
820 -2.9111469300000006 4.40055018 7.90910649 -0.058644000000000016 0.006601 -0.001486
840 -2.7993325500000004 4.96577295 7.81569567 -0.047851 0.01304 -0.022784
860 -2.7439452900000005 4.62223656 8.21670885 -0.030776 0.008741 -0.027999999999999997
880 -2.5848270899999997 4.040846910000001 8.82145611 -0.021213 0.000185 -0.027922
900 -2.168991 3.87484209 8.725210200000001 -0.030848 -0.000872 -0.021579
920 -2.060168670000001 3.7702086300000004 8.37029421 -0.051147000000000005 0.0066 -0.007843000000000001
940 -2.24952129 3.9032812800000003 8.490044880000001 -0.066102 0.015124 0.00486
960 -2.42959365 4.10910489 8.69751657 -0.075656 0.025810000000000003 0.00478
980 -2.53662075 4.29053103 8.76157587 -0.079842 0.037568 -0.001674
1000 -2.48004648 4.4336295 8.60979555 -0.088272 0.051485 -0.011365
1020 -2.4656748299999998 4.48662312 8.515187910000002 -0.097825 0.056866 -0.01678
1040 -2.4288480900000002 4.603823190000001 8.489446470000003 -0.099921 0.060091 -0.022139
1060 -2.38274109 4.38902343 8.422385310000001 -0.08382200000000001 0.074974 -0.028455
1080 -2.3403815100000003 4.283046 8.41908915 -0.06775700000000001 0.08346100000000001 -0.033695
1100 -2.21419548 4.233799800000001 8.429723189999999 -0.064523 0.086663 -0.03795
1120 -2.08306521 4.2426288 8.489897730000001 -0.063451 0.087725 -0.037943
1140 -2.04969159 4.14712845 8.52716592 -0.056012 0.083429 -0.035749
1160 -2.0446002 4.07557431 8.51848407 -0.049625 0.082333 -0.033567
1180 -2.02678524 4.049381610000001 8.55007227 -0.041109 0.078042 -0.033502
1200 -2.0764827 4.10536728 8.5606965 -0.027273 0.072658 -0.031262
1220 -2.141591670000001 4.13424792 8.62746336 -0.017681 0.072616 -0.029059
1240 -2.20985946 4.07796795 8.641226790000001 -0.014481 0.074727 -0.026902
1260 -2.2796085600000007 3.9956424300000006 8.63225064 -0.012352 0.075777 -0.024752
1280 -2.28095253 3.9401080200000003 8.61593661 -0.014461000000000003 0.077927 -0.027975
1300 -2.2734675 3.9471417900000003 8.557253189999999 -0.015552000000000003 0.07260499999999999 -0.027975
1320 -2.27422287 3.9360663 8.55665478 -0.015591 0.06726599999999999 -0.024764
1340 -2.29307769 3.92169465 8.555909220000002 -0.014581 0.058723 -0.020473
1360 -2.36912481 3.91375836 8.572076100000002 -0.013582 0.052292999999999985 -0.011912
1380 -2.41432929 3.9142096200000003 8.59078377 -0.015768 0.046949 -0.005511
1400 -2.4719630400000003 3.9324758400000004 8.62222482 -0.01474 0.044789 0.000908
1420 -2.4960564 3.91107042 8.640029970000002 -0.01263 0.041577 0.003063
1440 -2.4739054200000004 3.8657089800000004 8.6443758 -0.011577 0.038378 0.003075
1460 -2.45908251 3.8755876500000004 8.606656350000002 -0.008405 0.033036 0.004172
1480 -2.46013218 3.9125615400000004 8.59707198 -0.002043 0.026614 0.006361
1500 -2.4656748299999998 3.9264819300000005 8.57626497 0.00866 0.029789 0.002159
1520 -2.46522357 3.95118351 8.582700330000002 0.001191 0.027693 -2.7e-05
1540 -2.48093919 3.9477402 8.58853728 -0.008381999999999999 0.033057 -0.001169
1560 -2.5253981100000003 3.92932683 8.592883109999999 -0.005195 0.031972 0.000991
1580 -2.5352767800000002 3.9122672400000003 8.59991688 -0.003066 0.033022 0.003141
1600 -2.5457538600000005 3.92963094 8.578207350000001 0.000153 0.039393 0.005292
1620 -2.5453026000000003 3.92887557 8.561000609999999 -0.0008939999999999998 0.040475 0.002078
1640 -2.5384257900000002 3.9191538599999998 8.57836431 -0.004071 0.041569 -0.002218
1660 -2.57195637 3.92453955 8.57611782 -0.007286 0.040506 -0.000103
1680 -2.54620512 3.9275316 8.594227080000001 -0.008362 0.037318 -0.001174
1700 -2.5373761200000002 3.90882393 8.61069807 -0.006233 0.037307 -9.1e-05
1720 -2.53587519 3.88786977 8.613837270000001 -0.006248 0.038355 0.00418
1740 -2.4667245 3.9535771500000005 8.61113952 -0.006253 0.038351 0.005248
1760 -2.4277984200000002 3.8865159900000004 8.561599020000001 -0.004128 0.038335 0.0074
1780 -2.40999327 3.8660130900000005 8.56339425 -0.004143 0.0362 0.00847
1800 -2.4224127300000005 3.8239478100000004 8.618183100000001 -0.002009 0.03407 0.006352
1820 -2.41942068 3.83981058 8.69032584 0.000139 0.036198 0.005296
1840 -2.4237567 3.84894369 8.65170387 0.002282 0.036199 0.003174
1860 -2.3713713000000007 3.8925099 8.597523240000001 0.005464 0.034049 0.005336
1880 -2.37586428 3.9086767800000004 8.59901436 0.005483 0.03831 0.00533
1900 -2.4182238600000003 3.8893608900000003 8.610845220000002 0.007617 0.039363 0.006412
1920 -2.4201662400000004 3.8914602300000003 8.597376090000001 0.004425999999999999 0.040444 0.00532
1940 -2.4411204 3.88741851 8.606656350000002 0.00334 0.038309 0.0074519999999999986
1960 -2.4688140300000003 3.8928042 8.578060200000001 0.002273 0.039373000000000005 0.008511
1980 -2.47435668 3.8737924200000005 8.59991688 0.001215 0.040446 0.007434
2000 -2.50249176 3.8775398400000003 8.58449556 0.001215 0.039385 0.006367
2020 -2.4932115 3.88486791 8.61069807 0.00016299999999999998 0.040463 0.004222
2040 -2.4869331000000003 3.9041838 8.62925859 0.001225 0.040455 0.005298
2060 -2.4662732400000005 3.88876248 8.602163370000001 -0.000904 0.041528 0.005282
2080 -2.47450383 3.8669058 8.58375 -0.001961 0.042601 0.004205
2100 -2.44022769 3.8648162700000004 8.64138375 -0.0030280000000000003 0.043666 0.005264
2120 -2.43903087 3.8898121500000005 8.632996200000001 -0.000904 0.042589 0.006348
2140 -2.42166717 3.89579625 8.60410575 0.00016299999999999998 0.042585000000000005 0.0063560000000000005
2160 -2.40534333 3.9052334700000007 8.60859873 0.001235 0.044708 0.007429000000000002
2180 -2.433193920000001 3.898494 8.60365449 0.00016299999999999998 0.042585000000000005 0.0063560000000000005
2200 -2.40909075 3.91076631 8.61473979 -0.00198 0.043645 0.009544
2220 -2.40370506 3.90208446 8.611737930000002 -0.000933 0.040441000000000005 0.010624
2240 -2.40968916 3.8856232800000003 8.611737930000002 -0.001995 0.041510000000000005 0.010615
2260 -2.42286399 3.8895080400000004 8.625216870000001 -0.000937 0.040437 0.011692
2280 -2.4170270400000002 3.8914602300000003 8.615181240000002 -0.002019 0.037245 0.011689
2300 -2.42406081 3.8883112200000003 8.587791720000002 0.00011 0.036172 0.011705
2320 -2.42301114 3.88816407 8.602908930000002 0.001196 0.036185 0.00744
2340 -2.4128283600000002 3.8856232800000003 8.622666270000002 0.0044020000000000005 0.038301 0.008527
2360 -2.43259551 3.88322964 8.61608376 0.017194 0.038247 0.010753
2380 -2.43903087 3.91031505 8.61922296 0.014037 0.040419 0.003251
2400 -2.44291563 3.9246867 8.6070978 0.000177 0.041537 0.002084
2420 -2.45055762 3.91107042 8.61878151 -0.001952 0.040488 -6.6e-05
2440 -2.43453789 3.9112175700000003 8.618183100000001 0.002292 0.038329 0.003172
2460 -2.46312423 3.9179570400000006 8.61488694 0.003354 0.041504 0.0074480000000000015
2480 -2.45609046 3.90942234 8.609197140000001 0.003368 0.043639 0.006377000000000001
2500 -2.4556392 3.9070287 8.589586950000001 -0.001966 0.042597 0.005273
2520 -2.45130318 3.8983468500000003 8.58584934 -0.005171 0.039421 0.003118
2540 -2.4623786700000005 3.9052334700000007 8.62880733 -0.0040950000000000005 0.040486 0.002056
2560 -2.4430725900000003 3.9034284300000004 8.60455701 -0.001966 0.039414 0.002072
2580 -2.46268278 3.8782854000000007 8.57925702 -0.003042 0.039409 0.004201
2600 -2.4718060800000003 3.9104720100000003 8.64602388 -0.004109000000000001 0.040474 0.005261
2620 -2.4318401400000003 3.9401080200000003 8.634948390000002 -0.0030280000000000003 0.041544 0.00313
2640 -2.42406081 3.90014208 8.563247100000002 -0.000904 0.040467 0.004215
2660 -2.37885633 3.89205864 8.566533450000001 -0.001961 0.040479 0.002071
2680 -2.4069914100000003 3.8708003700000004 8.658747450000002 -0.001947 0.043675 0.0020670000000000003
2700 -2.44472067 3.8802277800000002 8.640029970000002 -0.000889 0.042602 0.003144
2720 -2.42600319 3.88412235 8.57970828 -0.003033 0.041539 0.004198
2740 -2.39935923 3.92663889 8.575519410000002 0.000173 0.042594 0.004220000000000001
2760 -2.37974904 3.92887557 8.609942700000001 0.001249 0.043659 0.003157
2780 -2.41268121 3.91361121 8.61159078 0.002306 0.041525 0.003168
2800 -2.43064332 3.9053806200000003 8.595129600000002 0.000177 0.040476 0.001018
2820 -2.44022769 3.8913032700000003 8.60096655 -0.0008939999999999998 0.041536 0.003145
2840 -2.42076465 3.89909241 8.60350734 -0.0030280000000000003 0.041544 0.00313
2860 -2.42226558 3.89759148 8.601564960000001 -0.005162 0.04049 0.002049
2880 -2.41478055 3.90567492 8.636439509999999 -0.0040950000000000005 0.041547 0.003123
2900 -2.42406081 3.9101679000000003 8.633594610000001 -0.001971 0.04047 0.004207
2920 -2.42929935 3.88876248 8.598415950000001 -0.001966 0.040475 0.003139
2940 -2.44516212 3.89340261 8.61608376 -0.000904 0.040467 0.004215
2960 -2.45833695 3.9034284300000004 8.61113952 0.000173 0.041533 0.003153
2980 -2.44501497 3.90612618 8.595129600000002 0.00016299999999999998 0.040463 0.004222
3000 -2.4200190900000003 3.91361121 8.59453119 -0.0008990000000000002 0.040471 0.003147
3020 -2.40055605 3.9143567700000004 8.598572910000001 0.00016299999999999998 0.040463 0.004222
3040 -2.41732134 3.9188497500000006 8.62431435 -0.000904 0.039406 0.003148
3060 -2.412534060000001 3.9080685600000002 8.63658666 -0.0019760000000000003 0.039405 0.004209
3080 -2.43169299 3.94324722 8.59616946 -0.005171 0.040482 0.004185
3100 -2.41447644 3.91705452 8.58405411 -0.007329 0.039407 0.008444
3120 -2.4294465 3.8941481700000002 8.598572910000001 -0.01052 0.038365 0.005218
3140 -2.44472067 3.8965516200000003 8.594825490000002 -0.007315 0.037298000000000005 0.003106
3160 -2.4489095400000003 3.89759148 8.61593661 -0.004109000000000001 0.038352 0.003127
3180 -2.4351363000000004 3.9079214100000006 8.62057674 -0.0008990000000000002 0.040471 0.003147
3200 -2.4671659500000005 3.91270869 8.62087104 0.0044210000000000005 0.038318 0.004255
3220 -2.43917802 3.9134640600000004 8.60261463 0.0033590000000000004 0.039387 0.004246
3240 -2.43348822 3.9004363800000004 8.61398442 0.001215 0.039385 0.006367
3260 -2.43154584 3.9143567700000004 8.608147470000002 -0.00199 0.038331 0.006346
3280 -2.41567326 3.9013389000000003 8.57851146 -0.003066 0.037266 0.007408
3300 -2.42765127 3.92977809 8.61039396 -0.003066 0.037266 0.007408
3320 -2.43303696 3.9158577000000006 8.59917132 -0.004124 0.0394 0.007398
3340 -2.41298532 3.91735863 8.625059910000001 -0.00199 0.039392 0.007412999999999999
3360 -2.40669711 3.90179016 8.61323886 0.000149 0.038328 0.005293
3380 -2.43723564 3.8845736100000003 8.60350734 -0.000909 0.03834 0.003149
3400 -2.42495352 3.87603891 8.61967422 -0.000904 0.039406 0.003148
3420 -2.41956783 3.8669058 8.62476561 -0.001966 0.040475 0.003139
3440 -2.44336689 3.87948222 8.58748761 -0.0041 0.040482 0.003124
3460 -2.42870094 3.88906659 8.6070978 -0.008362 0.040501 0.002026
3480 -2.4043034700000003 3.9025357200000004 8.61548535 -0.01052 0.038365 0.005218
3500 -2.41642863 3.9092751900000002 8.617574880000001 0.002278 0.037255 0.005309
3520 -2.3932279800000003 3.90088764 8.60530257 -0.0008939999999999998 0.039414 0.001011
3540 -2.3902261200000003 3.8842695000000003 8.61653502 -0.001942 0.04474 0.002066
3560 -2.41837101 3.9005933400000004 8.6358411 -0.004085 0.043678 0.00312
3580 -2.43468504 3.89715003 8.61233634 -0.0008849999999999998 0.042606 0.002076
3600 -2.43453789 3.8785797000000004 8.59991688 0.001263 0.045794 0.0020870000000000003
3620 -2.45219589 3.9130128 8.60754906 -0.001942 0.045801 0.003132
3640 -2.4204703500000004 3.90747015 8.58375 -0.006233 0.041551 0.004176
3660 -2.40654996 3.9092751900000002 8.58569238 -0.008376999999999999 0.040489 0.005231
3680 -2.4209118000000007 3.9489370200000002 8.62012548 -0.005186 0.039408 0.006323
3700 -2.40938505 3.94534656 8.602163370000001 0.000153 0.040454 0.006359
3720 -2.4200190900000003 3.9143567700000004 8.613533160000001 0.00122 0.040451 0.006365999999999999
3740 -2.44516212 3.85073892 8.622371970000001 -0.000904 0.04365 0.0074150000000000015
3760 -2.44262133 3.9609150300000002 8.6620338 -0.0041 0.044726 0.007392
3780 -2.39486625 3.8627169300000004 8.6070978 -0.000909 0.041523 0.00635
3800 -2.41268121 3.8697507 8.57970828 -0.0008990000000000002 0.03941 0.0020800000000000003
3820 -2.4298977600000002 3.8907048600000005 8.60800032 -0.0019760000000000003 0.039405 0.004209
3840 -2.42151021 3.90103479 8.649908640000001 0.000134 0.037254 0.007431
3860 -2.428249680000001 3.89160738 8.59437423 0.000129 0.038311000000000005 0.009566
3880 -2.39172705 3.89400102 8.59991688 0.001196 0.039368 0.01064
3900 -2.397564 3.9071758500000002 8.6096484 0.00012 0.037242 0.010635
3920 -2.40340095 3.87603891 8.598415950000001 0.000129 0.038311000000000005 0.009566
3940 -2.41327962 3.8913032700000003 8.6270121 0.001191 0.038303 0.010641
3960 -2.42540478 3.87603891 8.61878151 -0.000942 0.03725 0.00956
3980 -2.4089436 3.87918792 8.61608376 0.000125 0.037246 0.009567
4000 -2.41672293 3.89639466 8.598415950000001 -0.000933 0.038319 0.008490000000000001
4020 -2.4209118000000007 3.89191149 8.637489180000001 -0.002 0.038323 0.008483
4040 -2.40834519 3.9007404900000004 8.63674362 0.000149 0.039389 0.00636
4060 -2.428249680000001 3.8847207600000004 8.613533160000001 0.001215 0.039385 0.006367
4080 -2.44336689 3.8826214200000004 8.59991688 0.002302 0.041521 0.004236
4100 -2.45175444 3.9067245900000005 8.61159078 0.002292 0.040451 0.005305
4120 -2.43334107 3.90208446 8.6156325 0.002306 0.042586 0.004234
4140 -2.4234624 3.8941481700000002 8.60740191 0.00445 0.04577 0.005314
4160 -2.39771115 3.8880169200000005 8.61967422 0.004464 0.046844 0.003176
4180 -2.41971498 3.91181598 8.621773560000001 0.006606999999999999 0.047906 0.002121
4200 -2.41537896 3.90971664 8.60231052 0.00556 0.052171 0.002108
4220 -2.4004089 3.8953449900000003 8.60695065 0.004488000000000001 0.053231 0.004236
4240 -2.40804108 3.8905577100000004 8.597523240000001 0.000264 0.05859 -7.3e-05
4260 -2.39696559 3.87484209 8.61218919 -0.003985 0.06074400000000001 -0.002242
4280 -2.3905302300000004 3.8914602300000003 8.60740191 -0.011433 0.062909 -0.004433
4300 -2.38409487 3.8941481700000002 8.61548535 -0.01461 0.065063 -0.007663
4320 -2.38154427 3.88876248 8.618928660000002 -0.01351 0.065089 -0.015133
4340 -2.39786811 3.91375836 8.61982137 -0.006018 0.065084 -0.020422
4360 -2.41133724 3.89385387 8.601564960000001 -0.006022 0.062958 -0.021487
4380 -2.40849234 3.91391532 8.63778348 -0.009257 0.05869600000000001 -0.0183
4400 -2.41567326 3.9130128 8.63658666 -0.023131 0.060862 -0.015194999999999997
4420 -2.39292387 3.8896650000000004 8.615338200000002 -0.02636 0.059786 -0.009875
4440 -2.40175287 3.90119175 8.61144363 -0.018949 0.054404 -0.002339
4460 -2.3802003000000003 3.9098736000000005 8.60051529 -0.023217 0.054419 -0.002368
4480 -2.37346083 3.90478221 8.60500827 -0.031781000000000004 0.048057 -0.00242
4500 -2.35265382 3.9210962400000002 8.60051529 -0.031781000000000004 0.049118 -0.001353
4520 -2.351457 3.91391532 8.61653502 -0.027551 0.042703 0.0008210000000000001
4540 -2.3772082500000002 3.91181598 8.602016220000001 -0.020103 0.039477 0.001945
4560 -2.3556556800000004 3.90402684 8.63000415 -0.011558 0.041578 0.002002
4580 -2.3135904000000003 3.94159914 8.664731549999999 -0.007305 0.038367 0.002036
4600 -2.39352228 3.9002892300000003 8.6389803 -0.008401 0.034101 0.004171
4620 -2.43363537 3.8829255300000005 8.59033251 -0.015902 0.029854 0.007328
4640 -2.4876786600000003 3.9070287 8.570123910000001 -0.016978999999999998 0.028788 0.00839
4660 -2.5026487200000003 3.9070287 8.55904842 -0.013802000000000002 0.024511 0.009486
4680 -2.5086328200000003 3.91600485 8.63165223 -0.009573 0.021279 0.014861
4700 -2.54366433 3.86391375 8.60245767 -0.009607 0.021249 0.022338
4720 -2.5316863200000004 3.9315733200000005 8.633898720000001 -0.007534999999999998 0.015881 0.030905
4740 -2.5147738800000004 3.90148605 8.569378350000001 -0.008636 0.012672 0.035175
4760 -2.5453026000000003 3.83517045 8.5752153 -0.009698 0.013741 0.035166
4780 -2.5676105400000004 3.85717428 8.629700040000001 -0.006502 0.011604 0.034123
4800 -2.5671592800000003 3.83293377 8.66757645 -0.008626 0.01162 0.031972
4820 -2.52809586 3.8001487500000004 8.63210349 -0.008602 0.012702 0.027697000000000003
4840 -2.4873745500000006 3.8067312600000003 8.57296881 -0.007502 0.018033 0.025562
4860 -2.48708025 3.82949046 8.570123910000001 -0.007481999999999998 0.023355 0.026623
4880 -2.5017462000000004 3.8637666 8.617878990000001 -0.00854 0.02549 0.026613
4900 -2.5008534900000003 3.87634302 8.630298450000002 -0.009583 0.028698 0.024465
4920 -2.50040223 3.8782854000000007 8.617280580000001 -0.004205 0.035083 0.02129
4940 -2.49306435 3.85104303 8.62880733 0.001172 0.036164 0.012781
4960 -2.5240541400000005 3.83981058 8.6184774 0.006564 0.040441000000000005 0.004267
4980 -2.52001242 3.7922124600000005 8.596473569999999 0.008741 0.043655 -0.002131
5000 -2.4812433000000005 3.8218484700000004 8.64332613 0.004497999999999999 0.043691 -0.007502
5020 -2.4748079400000003 3.8125682100000002 8.65994427 -0.000813 0.047975 -0.008612999999999999
5040 -2.4435140400000006 3.8172083400000005 8.65904175 -0.00508 0.050112 -0.006509
5060 -2.3986136700000005 3.8404089900000002 8.653057650000001 -0.005056000000000001 0.053316 -0.008648999999999999
5080 -2.3905302300000004 3.87708858 8.641226790000001 -0.000789 0.05224 -0.009686
5100 -2.3763057300000003 3.8865159900000004 8.65395036 0.00134 0.051167 -0.00967
5120 -2.3462184600000002 3.8754405000000003 8.643777390000002 -0.0008029999999999999 0.052227 -0.006481999999999999
5140 -2.35924614 3.86391375 8.64646533 -0.006161 0.050103 -0.003312
5160 -2.3722640100000003 3.8272439700000005 8.63464428 -0.009396 0.047962 0.002009
5180 -2.36029581 3.7988047800000007 8.66982294 -0.011525 0.050096 0.00306
5200 -2.34397197 3.80299365 8.66353473 -0.011525 0.049035 0.001993
5220 -2.32780509 3.80718252 8.68044717 -0.009381 0.047975 -0.001195
5240 -2.3423337 3.80254239 8.69227803 -0.0083 0.046923 -0.005459
5260 -2.32780509 3.8492478 8.66967579 -0.005071 0.045876 -0.012913
5280 -2.3397831 3.8630210400000005 8.653656060000001 -0.00186 0.047995 -0.012893
5300 -2.35176111 3.8740965300000005 8.6620338 0.010918 0.046868 -0.00853
5320 -2.36687832 3.85313256 8.63794044 0.0077129999999999985 0.043692 -0.010684
5340 -2.36029581 3.8838280500000004 8.647063740000002 -0.002956 0.047974 -0.006490999999999999
5360 -2.38110282 3.8850248700000005 8.645425470000001 -0.007233 0.051163 -0.001184
5380 -2.39457195 3.8728997100000004 8.63449713 -0.0051140000000000005 0.049021 -9.9e-05
5400 -2.3947191 3.8733411600000003 8.61054111 -0.0008269999999999999 0.052206 -0.001141
5420 -2.42839683 3.86242263 8.63778348 0.00024900000000000004 0.053272 -0.002203
5440 -2.43992358 3.8411643600000005 8.64167805 -0.0008269999999999999 0.049023 -0.004340999999999999
5460 -2.4170270400000002 3.82739112 8.637489180000001 -0.00298 0.044769 -0.004351
5480 -2.43348822 3.7949102100000003 8.629552890000001 0.000201 0.042619 -0.00219
5500 -2.4361859700000004 3.8124210600000006 8.649761490000001 0.006569 0.039384 0.002132
5520 -2.4509990700000004 3.82559589 8.655147180000002 0.012956 0.039349 0.005381
5540 -2.43843246 3.8160115200000004 8.64422865 0.018295 0.043578 0.008618
5560 -2.44920384 3.7969997400000004 8.67221658 0.017228 0.045704 0.010744
5580 -2.46043629 3.88307268 8.70335352 0.009746 0.044656 0.01283
5600 -2.4131324700000003 3.83681853 8.654401620000002 -0.001995 0.043632 0.012749
5620 -2.40669711 3.7943118000000005 8.570280870000001 -0.008395999999999999 0.041533 0.01057
5640 -2.38783248 3.83098158 8.62431435 -0.009453 0.040484 0.0073599999999999985
5660 -2.38259394 3.80658411 8.71502742 -0.001971 0.038348 0.002074
5680 -2.3947191 3.81930768 8.67715101 -0.0008939999999999998 0.037292 -0.0011220000000000002
5700 -2.35385064 3.8227509900000003 8.626864950000002 0.000177 0.036232 -0.00325
5720 -2.36149263 3.8091249000000005 8.64827037 -0.003018 0.037308 -0.003274
5740 -2.40774678 3.7800873000000004 8.66219076 -0.004085 0.040495 -8e-05
5760 -2.47615191 3.73248918 8.66068983 -0.003009 0.043683 0.000991
5780 -2.51806023 3.74880321 8.65574559 -0.001947 0.045797 0.004201
5800 -2.5400640600000006 3.77680095 8.6503599 -0.003033 0.043661 0.006332
5820 -2.5313822100000003 3.83353218 8.6184774 -0.0041140000000000005 0.042591 0.008462
5840 -2.50025508 3.8796293700000004 8.62835607 0.003344 0.042557 0.010651
5860 -2.4748079400000003 3.90911823 8.60515542 0.015088999999999997 0.041463 0.0075299999999999985
5880 -2.44755576 3.91211028 8.586290790000001 0.022567 0.044629 0.008646
5900 -2.41402518 3.9272373000000003 8.610845220000002 0.022572 0.043572 0.006511
5920 -2.39696559 3.8898121500000005 8.63614521 0.016171 0.043594 0.006466
5940 -2.35849077 3.8425083300000002 8.62641369 0.008688 0.039364 0.005351
5960 -2.36314071 3.8130194700000004 8.67431592 0.003354 0.038321 0.004247
5980 -2.36418057 3.7889163000000003 8.688834720000001 0.00334 0.036187 0.005318
6000 -2.35789236 3.7778408100000003 8.6529105 0.0044020000000000005 0.035118 0.005327
6020 -2.37092004 3.7684134 8.71218252 0.002249 0.034047 0.008518000000000001
6040 -2.36553435 3.80928186 8.710387290000002 0.00011 0.03405 0.009571
6060 -2.41103313 3.7961070300000004 8.657992080000001 0.000129 0.039372 0.010633
6080 -2.46432105 3.79056438 8.66727234 0.005497 0.045749 0.009594
6100 -2.51506818 3.79924623 8.62536402 0.01408 0.051067 0.004306
6120 -2.53034235 3.8032879500000005 8.626864950000002 0.014133 0.056419 -0.0021100000000000003
6140 -2.50818156 3.8022480900000004 8.58764457 0.012014 0.055378 -0.006396
6160 -2.4929172000000004 3.8363770800000006 8.61668217 0.009899 0.054342 -0.011751
6180 -2.49949971 3.8743908300000003 8.60740191 0.00987 0.045828 -0.013877
6200 -2.46462516 3.89998512 8.590038210000001 0.003455 0.045838 -0.010717
6220 -2.4321442500000003 3.8865159900000004 8.625216870000001 -0.009376 0.045857 -0.004397
6240 -2.3986136700000005 3.89998512 8.63658666 -0.024351 0.04057 -0.00129
6260 -2.3986136700000005 3.8749892400000006 8.649908640000001 -0.028609 0.040593 -0.003457
6280 -2.3751089100000002 3.8423611800000006 8.654705730000002 -0.021126 0.043763 -0.003408
6300 -2.38170123 3.8124210600000006 8.64392454 -0.014744 0.044785000000000005 0.0019760000000000003
6320 -2.41867512 3.8161684800000004 8.68389048 -0.019045 0.042648 0.00729
6340 -2.42420796 3.8017968300000002 8.670421350000002 -0.021184 0.046895 0.012611
6360 -2.4138780300000002 3.77455446 8.66263221 -0.021203 0.049 0.019017
6380 -2.46223152 3.82499748 8.68239936 -0.013745 0.044721 0.016937999999999998
6400 -2.4577385400000002 3.91690737 8.69855643 -0.006272 0.043639 0.014855000000000004
6420 -2.4557961600000002 3.83801535 8.583298740000002 0.004386999999999999 0.044654 0.018133
6440 -2.4313986900000004 3.8811303 8.5430385 0.010817 0.046779 0.013902
6460 -2.4294465 3.907323 8.60590098 0.02793 0.047819 0.005475
6480 -2.42286399 3.9510363600000002 8.60500827 0.033293 0.049948 0.0012369999999999998
6500 -2.43752994 3.9686943600000006 8.561147759999999 0.030088 0.047833 0.000149
6520 -2.4179197500000003 3.9707937 8.526116250000001 0.025806 0.045713 0.00119
6540 -2.3942678400000004 3.9630045600000003 8.65395036 0.030073000000000006 0.045698 0.00122
6560 -2.39546466 3.9070287 8.640029970000002 0.024734 0.04359 0.000117
6580 -2.35789236 3.8396634300000003 8.652312089999999 0.007659999999999998 0.044706 0.002133
6600 -2.38005315 3.77544717 8.61802614 -0.01263 0.042638 0.00413
6620 -2.4149277000000002 3.7381789800000003 8.632544939999999 -0.02436 0.043745 0.004047
6640 -2.41987194 3.70120509 8.634948390000002 -0.01794 0.0448 0.000886
6660 -2.4480070200000004 3.6706665600000004 8.66817486 -0.004037 0.046904 -0.004361
6680 -2.48902263 3.6673704000000003 8.70020451 0.0013310000000000002 0.047976 -0.010734
6700 -2.52989109 3.6797996700000004 8.66563407 0.002407 0.045859 -0.014997
6720 -2.55862458 3.73877739 8.653204800000001 -0.0008179999999999999 0.040543 -0.015013
6740 -2.54366433 3.8145204000000006 8.625059910000001 0.001283 0.038384 -0.009654
6760 -2.50908408 3.8471484600000005 8.60261463 0.002321 0.037294 -0.004304
6780 -2.5144697700000003 3.8555360100000002 8.59707198 -0.004157 0.036187 0.011675
6800 -2.50518951 3.89459943 8.58105225 -0.014922 0.035078 0.031897
6820 -2.4532455600000005 3.95118351 8.61159078 -0.022452 0.035049000000000004 0.045732
6840 -2.4002617500000003 3.9763265400000005 8.64827037 -0.022471 0.035032 0.050005
6860 -2.34307926 3.94070643 8.61218919 -0.009654 0.032878 0.044756
6880 -2.3305028400000003 3.9457978200000006 8.58315159 -0.004205 0.034022000000000004 0.020223
6900 -2.32122258 3.8986411500000004 8.59333437 -0.006253 0.034107 0.000981
6920 -2.34712098 3.81811086 8.692719480000001 -0.003023 0.029877 -0.009673
6940 -2.430192060000001 3.8119698 8.7516972 0.0033880000000000004 0.027741 -0.013899000000000002
6960 -2.49126912 3.8315799900000003 8.70005736 0.015157 0.034096 -0.014893
6980 -2.46491946 3.835474560000001 8.59453119 0.022649 0.039396 -0.014847
7000 -2.4709133700000003 3.82634145 8.558155710000001 0.020457 0.032986 -0.008445000000000001
7020 -2.4896210400000003 3.8393691300000006 8.611737930000002 0.008655 0.031907 0.005361
7040 -2.51372421 3.89519784 8.621773560000001 -0.004190999999999999 0.037218 0.020219
7060 -2.5240541400000005 3.92334273 8.58015954 -0.018127 0.031902 0.029743
7080 -2.5518949200000005 3.8784325500000003 8.57641212 -0.027753 0.024487 0.027549
7100 -2.53183347 3.8317271400000004 8.56623915 -0.023476 0.02342 0.024375
7120 -2.5204538700000003 3.7969997400000004 8.589891060000001 -0.008549 0.015931999999999998 0.019148
7140 -2.48423535 3.7847274300000002 8.621469450000001 0.008535 0.013763 0.013929
7160 -2.41882227 3.87319401 8.72595576 0.026667000000000003 0.010513 0.011923
7180 -2.31792642 3.82170132 8.66323062 0.051229 0.016814 0.013155000000000002
7200 -2.34083277 3.7134774 8.61862455 0.060787 0.017803 0.023903
7220 -2.39172705 3.7205111700000004 8.673864660000001 0.057591 0.022063 0.02708
7240 -2.4887283300000003 3.77260227 8.73268542 0.05757200000000001 0.020985 0.030285000000000006
7260 -2.4843824999999997 3.80299365 8.67371751 0.06184 0.02097 0.030315
7280 -2.43603882 3.85912647 8.56968246 0.06503099999999999 0.019889 0.031407
7300 -2.4508519200000007 3.8868201000000004 8.53929108 0.056501 0.018862 0.029212
7320 -2.47704462 3.9067245900000005 8.596473569999999 0.041574 0.01574 0.023771
7340 -2.48797296 3.9624061500000005 8.615181240000002 0.024519 0.012629 0.017247
7360 -2.430192060000001 3.92887557 8.590038210000001 0.004258 0.01377 0.016035
7380 -2.43064332 3.9143567700000004 8.606499390000002 -0.014965 0.01382 0.020174
7400 -2.4379812 3.80268954 8.628954479999999 -0.027772 0.012799 0.020086
7420 -2.44157166 3.74401593 8.63778348 -0.025624 0.013865 0.017963
7440 -2.3890293000000002 3.72710349 8.664878700000001 -0.012798 0.013841999999999998 0.012712
7460 -2.36193408 3.7145270700000004 8.64676944 -0.002086 0.017026 0.006372999999999999
7480 -2.3745105 3.7420637400000003 8.6996061 0.0032770000000000004 0.022338 0.005335
7500 -2.44635894 3.7368252 8.642129310000001 0.005416 0.024457 0.006416
7520 -2.44546623 3.7778408100000003 8.61189489 0.008626 0.027637 0.007502
7540 -2.46851973 3.79056438 8.612934749999999 0.010788 0.031899000000000004 0.005376
7560 -2.44022769 3.8796293700000004 8.584201259999999 0.011894 0.036174 0.001105
7580 -2.43169299 3.9674975400000005 8.61488694 0.00655 0.038306 0.005338
7600 -2.4062458500000004 4.02378732 8.59273596 0.013994 0.037197 0.009664
7620 -2.38034745 4.114941840000001 8.57940417 0.011879 0.036161 0.0043100000000000005
7640 -2.34786654 4.13709282 8.571026430000002 0.00554 0.043666 -0.002154
7660 -2.29143942 4.088297880000001 8.56608219 0.006640999999999999 0.046875 -0.006423000000000001
7680 -2.31763212 4.05955458 8.59917132 0.009832 0.043672 -0.007465
7700 -2.348769060000001 4.0083660000000005 8.65200798 0.0077129999999999985 0.044753 -0.009617
7720 -2.36747673 3.9371159700000002 8.6734134 0.002388 0.045842 -0.010724
7740 -2.33903754 3.9339669600000002 8.653351950000001 -0.001884 0.044791 -0.010753
7760 -2.29802193 3.9264819300000005 8.63210349 -0.007233 0.044797 -0.007585
7780 -2.2841015400000004 3.88187586 8.6213223 -0.009367 0.046926 -0.0054670000000000005
7800 -2.2686802200000002 3.8728997100000004 8.64796626 -0.010439 0.046926 -0.004406
7820 -2.27272194 3.91735863 8.66068983 -0.009362 0.047992 -0.005468
7840 -2.2938330600000008 3.95148762 8.66368188 -0.012563 0.049064 -0.004424
7860 -2.2758709500000003 3.96046377 8.67805353 -0.011501 0.047995 -0.004415
7880 -2.31508152 3.9041838 8.626109580000001 -0.016816 0.050153 -0.006591
7900 -2.33140536 3.9481914600000003 8.65994427 -0.021069 0.05018 -0.009825
7920 -2.2978747800000003 3.95328285 8.61338601 -0.025322 0.051269 -0.011993
7940 -2.31718086 3.9333685500000004 8.60261463 -0.02958 0.053414 -0.012026
7960 -2.30580126 3.9062733300000003 8.59243185 -0.031699 0.057679 -0.010978
7980 -2.29443147 3.9201937200000003 8.60545953 -0.031708999999999994 0.059792 -0.006706999999999999
8000 -2.3077534500000003 3.9510363600000002 8.645719770000001 -0.032785 0.059787 -0.004579
8020 -2.31029424 3.9658494600000003 8.61593661 -0.034924000000000004 0.05873 -0.004592000000000001
8040 -2.30340762 3.96780165 8.613533160000001 -0.036005 0.054477 -0.005662
8060 -2.32182099 3.9682431 8.627757660000002 -0.029608 0.052328 -0.006683
8080 -2.31328629 3.95761887 8.60485131 -0.025341 0.051252 -0.00772
8100 -2.30864616 3.9627102600000006 8.606057940000001 -0.023226 0.049105 -0.005566
8120 -2.2902327900000006 3.93472233 8.56488537 -0.013653 0.046924 -0.001224
8140 -2.3084990100000002 3.9188497500000006 8.56863279 -0.010486 0.044761 0.004142
8160 -2.32720668 3.9318774300000006 8.6127876 -0.006219 0.045807 0.005239
8180 -2.32062417 3.94833861 8.65964016 -0.006243 0.041542 0.006312
8200 -2.31194232 3.9597182100000006 8.65380321 -0.010496 0.042631 0.004145
8220 -2.3297572800000004 3.91600485 8.64033408 -0.016883000000000002 0.042666 0.0008960000000000002
8240 -2.3312484 3.92887557 8.650811160000002 -0.020045 0.043772000000000005 -0.006605
8260 -2.33110125 3.8859175800000005 8.637489180000001 -0.018973 0.042712 -0.008733
8280 -2.34382482 3.8943051300000002 8.6443758 -0.007238 0.042671 -0.008651
8300 -2.3363397900000002 3.9005933400000004 8.626256730000001 -0.002975 0.039469 -0.010754
8320 -2.33798787 3.94564086 8.6070978 0.004497999999999999 0.043691 -0.007502
8340 -2.351457 3.9311220600000003 8.60904999 0.018319 0.0436 0.0032770000000000004
8360 -2.36029581 3.91196313 8.60051529 0.024682 0.042482 0.0108
8380 -2.38005315 3.8962475100000002 8.61878151 0.022524 0.04459 0.01826
8400 -2.4081882300000004 3.88082619 8.60231052 0.016113 0.042482 0.018218
8420 -2.39950638 3.8471484600000005 8.59572801 0.005454 0.037223 0.010673
8440 -2.40190983 3.8875656600000004 8.645572620000001 -0.003052 0.034095 0.001003
8460 -2.3992120800000003 3.8713987800000003 8.647515 -0.005162 0.034124 -0.004353
8480 -2.36687832 3.88187586 8.62850322 -0.001952 0.03306 -0.007534000000000002
8500 -2.29548114 3.9032812800000003 8.632544939999999 -0.000889 0.030930000000000006 -0.008592
8520 -2.23665057 3.9189969000000002 8.66009142 -0.001942 0.03413 -0.008603
8540 -2.2579088400000003 3.8943051300000002 8.67431592 -0.001932 0.036261 -0.008606
8560 -2.3107455000000003 3.8529854100000005 8.66877327 -0.0062 0.036275 -0.008636
8580 -2.38349646 3.8137650300000003 8.69467167 -0.01151 0.037376 -0.012947
8600 -2.44127736 3.82289814 8.729546220000001 -0.015768 0.040583 -0.011913
8620 -2.46552768 3.7223064000000003 8.621773560000001 -0.013634 0.039514 -0.012965
8640 -2.49800859 3.73548123 8.565787890000001 -0.010458 0.038421 -0.008668
8660 -2.5143226199999997 3.7878764400000002 8.624912759999999 -0.004037 0.041599 -0.009696
8680 -2.50069653 3.82963761 8.64526851 0.00665 0.044761 -0.010693
8700 -2.4489095400000003 3.9041838 8.60365449 0.014128 0.044744 -0.012777
8720 -2.3782579200000002 3.9724417800000005 8.6042529 0.016257 0.045793 -0.010627
8740 -2.33289648 3.9910023000000003 8.61218919 0.017309 0.045777 -0.0074150000000000015
8760 -2.32182099 3.95432271 8.633143350000001 0.0205 0.045757 -0.005257
8780 -2.3128448400000003 3.91660326 8.64526851 0.023706 0.047872000000000005 -0.004169
8800 -2.3137375500000004 3.89041056 8.66188665 0.022639 0.047876 -0.004176
8820 -2.30400603 3.88082619 8.62356879 0.0173 0.046829 -0.004212
8840 -2.28230631 3.8889096300000006 8.66982294 0.00554 0.045788 -2e-05
8860 -2.28843756 3.8953449900000003 8.684636040000001 -0.004104 0.039417 0.003125
8880 -2.3088031200000003 3.8880169200000005 8.673266250000001 -0.013735 0.037303 0.007334
8900 -2.31763212 3.86855388 8.66293632 -0.021213 0.036259 0.008351
8920 -2.34293211 3.8321784 8.64093249 -0.021213 0.036259 0.008351
8940 -2.35924614 3.79235961 8.673109290000001 -0.012678 0.03623 0.008411
8960 -2.42465922 3.78248094 8.65066401 -0.006261999999999999 0.03622 0.005251
8980 -2.3972697000000003 3.7925165700000005 8.658747450000002 -0.00731 0.038363 0.003104
9000 -2.398309560000001 3.79235961 8.64512136 0.000153 0.040454 0.006359
9020 -2.3900789700000002 3.7857771 8.6415309 0.01619 0.040428 -0.001007
9040 -2.41732134 3.7773993600000004 8.6443758 0.015152 0.04258 -0.00529
9060 -2.40669711 3.79820637 8.643473279999998 0.00877 0.045802 -0.006407
9080 -2.39261976 3.8321784 8.653057650000001 0.009817 0.043659 -0.00426
9100 -2.35984455 3.89010645 8.67611115 0.009803 0.044708 1.1e-05
9120 -2.34397197 3.91839849 8.649015930000001 0.009817 0.050025 0.002141
9140 -2.34801369 3.96465264 8.601260850000001 0.0034020000000000005 0.050035 0.005301
9160 -2.35205541 3.9808195200000003 8.63105382 -0.004076 0.045809 0.003117
9180 -2.38050441 3.96989118 8.61309171 -0.000866 0.045806 0.001003
9200 -2.4201662400000004 3.9633086700000004 8.599318470000002 0.006626000000000001 0.046862 -0.003218
9220 -2.41358373 3.91361121 8.59662072 0.009822 0.045786 -0.003195
9240 -2.416271670000001 3.86496342 8.609344290000001 0.008741 0.042594 -0.003198
9260 -2.42136306 3.83382648 8.66398599 0.005531 0.043657 -1.7e-05
9280 -2.42465922 3.8208086100000003 8.649015930000001 0.000177 0.042598 0.003151
9300 -2.40474492 3.8037392100000003 8.66982294 -0.003023 0.04367 0.004196
9320 -2.412534060000001 3.7988047800000007 8.673266250000001 -0.003018 0.043674 0.003128
9340 -2.3872340700000003 3.8706532200000003 8.731341450000002 0.000177 0.043659 0.004218
9360 -2.3632878600000002 3.81990609 8.657992080000001 0.003368 0.042578 0.0053100000000000005
9380 -2.31583689 3.81990609 8.58509397 0.005483 0.039371 0.006397
9400 -2.30804775 3.8471484600000005 8.64302202 0.008688 0.040425 0.006418000000000001
9420 -2.3213697300000002 3.87948222 8.69197392 0.008703 0.042559 0.005347
9440 -2.33289648 3.88741851 8.6734134 0.003364 0.042574 0.006378
9460 -2.32885476 3.90402684 8.597523240000001 -0.0019760000000000003 0.042588 0.0074090000000000015
9480 -2.3812499700000003 3.89474658 8.636439509999999 -0.0041140000000000005 0.04153 0.007396
9500 -2.39142294 3.86855388 8.648711819999999 -0.003038 0.041535 0.005267
9520 -2.40055605 3.8684067300000002 8.621469450000001 -0.001947 0.042614 0.001
9540 -2.4177726 3.8648162700000004 8.609197140000001 -0.000866 0.043684 -0.00113
9560 -2.4388739100000008 3.84745257 8.60276178 -0.001942 0.042618 -6.8e-05
9580 -2.4219614700000003 3.8676611700000003 8.61323886 -0.005157 0.041555 0.002047
9600 -2.44740861 3.89610036 8.60036814 -0.007305 0.039428 0.0031030000000000003
9620 -2.40774678 3.90433095 8.63538984 -0.007295 0.041559 0.0031
9640 -2.3845461300000004 3.86706276 8.65410732 -0.00409 0.042613 0.003121
9660 -2.4029496900000002 3.86001918 8.64033408 -0.0041 0.040482 0.003124
9680 -2.39352228 3.83427774 8.59721913 -0.001966 0.042597 0.005273
9700 -2.3770611 3.85702713 8.63150508 0.001244 0.043655 0.004226
9720 -2.37017448 3.85283826 8.6529105 0.003378 0.042587 0.003174
9740 -2.37196971 3.8839752 8.637489180000001 0.004454 0.043652 0.002112
9760 -2.34487449 3.8983468500000003 8.63090667 0.00445 0.041526 0.001046
9780 -2.36463183 3.8928042 8.63509554 0.00444 0.041518 0.003182
9800 -2.380651560000001 3.88786977 8.6529105 0.005507 0.041514 0.00319
9820 -2.38259394 3.9070287 8.618928660000002 0.005512 0.041518 0.002122
9840 -2.3743633500000003 3.8886153300000004 8.618183100000001 0.008707 0.042564 0.004279
9860 -2.3553515700000003 3.9025357200000004 8.61488694 0.007645 0.043633 0.00427
9880 -2.38514454 3.8817287100000004 8.629405740000001 0.008703 0.042559 0.005347
9900 -2.37780666 3.8895080400000004 8.6443758 0.006569 0.043628 0.006399
9920 -2.40445062 3.89983797 8.641226790000001 0.000149 0.039389 0.00636
9940 -2.40863949 3.86825958 8.62761051 -0.01374 0.036238 0.007334999999999999
9960 -2.4029496900000002 3.8471484600000005 8.61414138 -0.012673 0.037295 0.008409
9980 -2.39082453 3.8598720300000005 8.625216870000001 -0.007334 0.03622 0.006312
10000 -2.39337513 3.8889096300000006 8.6273064 -0.004109000000000001 0.038352 0.003127
10020 -2.39696559 3.8737924200000005 8.633594610000001 -0.000909 0.037279 0.002082
10040 -2.4224127300000005 3.86017614 8.612934749999999 0.011922 0.041504 3e-05
10060 -2.38170123 3.8692994400000003 8.62880733 0.004469 0.041543 -0.0032270000000000003
10080 -2.36717262 3.86511057 8.636292359999999 -0.006176 0.045846 -0.004375
10100 -2.36717262 3.84011469 8.629552890000001 -0.010477 0.042648 -0.000128
10120 -2.37211686 3.85283826 8.625059910000001 -0.006229 0.042616 0.004175
10140 -2.4002617500000003 3.8453532300000006 8.63614521 -0.000866 0.047928 0.003137
10160 -2.4200190900000003 3.86421786 8.66413314 0.000211 0.051116 0.004209
10180 -2.40474492 3.8823271200000002 8.61697647 -0.005143 0.045812 0.0031100000000000004
10200 -2.428249680000001 3.89639466 8.6355468 -0.006205 0.04582 0.002034
10220 -2.4204703500000004 3.9092751900000002 8.62761051 -0.006209 0.044755 0.002036
10240 -2.4117885 3.93695901 8.613837270000001 -0.008353 0.041571 0.000957
10260 -2.38678281 3.91855545 8.557851600000001 -0.011568 0.039447 0.0020050000000000003
10280 -2.3902261200000003 3.9221459100000007 8.59018536 -0.010506 0.0405 0.004148
10300 -2.39606307 3.92977809 8.63569395 -0.006243 0.041542 0.006312
10320 -2.36762388 3.8877128100000005 8.642129310000001 -0.004124 0.040461 0.008465
10340 -2.3662799100000003 3.85762554 8.643777390000002 -0.005186 0.040469 0.007389
10360 -2.41987194 3.86646435 8.67071565 -0.003038 0.042596 0.006334
10380 -2.37541302 3.89505069 8.66368188 -0.004109000000000001 0.042596 0.007393999999999999
10400 -2.35385064 3.8302360200000005 8.5982688 -0.00198 0.042584 0.008477
10420 -2.33813502 3.8657089800000004 8.589891060000001 -0.00199 0.041514 0.009547
10440 -2.37780666 3.83293377 8.68434174 -0.00198 0.041523 0.007411
10460 -2.42495352 3.83397363 8.664731549999999 0.00016299999999999998 0.041524 0.005289
10480 -2.36463183 3.85957773 8.58300444 -0.000909 0.041523 0.00635
10500 -2.36897766 3.8844264600000002 8.58030669 -0.000913 0.040458 0.006351
10520 -2.398309560000001 3.90148605 8.627757660000002 -0.004124 0.038339 0.006331
10540 -2.38184838 3.91391532 8.615338200000002 -0.005181 0.040473 0.006321
10560 -2.39906493 3.9046350600000013 8.59152933 -0.004118999999999999 0.041526 0.008464
10580 -2.3962200300000003 3.87469494 8.610246810000001 -0.005205 0.03833 0.009529
10600 -2.3942678400000004 3.8630210400000005 8.633898720000001 -0.004138 0.039387 0.010603
10620 -2.4120828 3.8523870000000002 8.63943156 -0.005205 0.039391 0.010595
10640 -2.3992120800000003 3.8444507100000003 8.63239779 -0.004128 0.038335 0.0074
10660 -2.4131324700000003 3.8428124400000003 8.664584399999999 -0.000933 0.03938 0.009557
10680 -2.40280254 3.8534366700000002 8.652312089999999 0.000144 0.038324 0.006361
10700 -2.36897766 3.84789402 8.60485131 0.000144 0.040446 0.008495
10720 -2.3879796300000002 3.8799334800000005 8.638686000000002 -0.000937 0.038315 0.009558
10740 -2.4069914100000003 3.85613442 8.641079640000001 0.000144 0.040446 0.008495
10760 -2.39112864 3.87723573 8.62761051 0.001201 0.039373000000000005 0.009572
10780 -2.39486625 3.88786977 8.61548535 0.002268 0.039369 0.009579
10800 -2.4043034700000003 3.8907048600000005 8.63883315 0.00012 0.039364 0.012769
10820 -2.3695760700000004 3.8733411600000003 8.629857000000001 0.000115 0.038298 0.01277
10840 -2.3802003000000003 3.87094752 8.626864950000002 -0.000957 0.036176 0.011697
10860 -2.39636718 3.87274275 8.64407169 -0.004152 0.037252 0.011674
10880 -2.40863949 3.88008063 8.622371970000001 -0.000928 0.040445 0.009556
10900 -2.38948056 3.8615201100000003 8.63524269 0.001215 0.039385 0.006367
10920 -2.4035481 3.8796293700000004 8.629857000000001 0.003364 0.042574 0.006378
10940 -2.3944248 3.84520608 8.61159078 0.004435000000000001 0.042574 0.005318
10960 -2.40758982 3.87154593 8.627757660000002 0.002297 0.040456 0.004237
10980 -2.39576877 3.86211852 8.63778348 0.002302 0.042582 0.005303
11000 -2.38558599 3.84729561 8.61309171 0.002316 0.043656 0.003165
11020 -2.3733136800000008 3.8544863400000002 8.637636330000001 0.002321 0.04366 0.002097
11040 -2.39562162 3.8405659500000002 8.654254470000001 0.007654999999999999 0.045763 0.004268
11060 -2.3842420200000003 3.86001918 8.6301513 0.016199 0.04362 5.7e-05
11080 -2.3792977800000004 3.87020196 8.65275354 0.009798 0.042581 -0.0010539999999999998
11100 -2.3623853400000003 3.86855388 8.6443758 0.00023 0.050072000000000005 -0.001131
11120 -2.38170123 3.8675042100000003 8.64602388 -0.0008560000000000001 0.045814 -0.001133
11140 -2.37646269 3.85822395 8.62910163 -0.0008460000000000001 0.044762 -0.004336
11160 -2.39502321 3.86316819 8.62012548 -0.005099 0.046912 -0.005437
11180 -2.38034745 3.8812774500000002 8.62925859 -0.009381 0.04267 -0.006529999999999999
11200 -2.38469328 3.8823271200000002 8.6301513 -0.014735 0.040549 -0.0044280000000000005
11220 -2.3872340700000003 3.86077455 8.647063740000002 -0.016878 0.040548 -0.002306
11240 -2.36702547 3.88741851 8.62551117 -0.013687 0.039468 -0.001214
11260 -2.39112864 3.86511057 8.63404587 -0.009434 0.038379 0.000953
11280 -2.37316653 3.86256978 8.62820892 -0.009434 0.03944 0.00202
11300 -2.36702547 3.8749892400000006 8.633447460000001 -0.012639 0.039447 0.003066
11320 -2.3635821600000004 3.8926570500000004 8.65110546 -0.014773 0.039454 0.0030510000000000003
11340 -2.3462184600000002 3.90643029 8.65545129 -0.01263 0.038394 -0.00013700000000000002
11360 -2.3695760700000004 3.8935497600000004 8.65021275 -0.004071 0.040508 -0.003285
11380 -2.39801526 3.8487965400000004 8.6446701 -0.000875 0.039431 -0.003261
11400 -2.38574295 3.9395096100000004 8.674610220000002 0.000192 0.039428 -0.003254
11420 -2.38199553 3.8484924300000003 8.596473569999999 -0.0030280000000000003 0.040483 0.002063
11440 -2.38199553 3.87933507 8.58748761 -0.006243 0.038359 0.003112
11460 -2.3882837400000003 3.8833767900000002 8.63105382 -0.010525 0.038361 0.006287
11480 -2.3932279800000003 3.9128656500000005 8.658590490000002 -0.009458 0.037297 0.005227000000000001
11500 -2.39307102 3.90612618 8.61833025 -0.008386 0.037297 0.0041670000000000006
11520 -2.3716656 3.8932554600000002 8.5979745 -0.006243 0.038359 0.003112
11540 -2.3745105 3.8812774500000002 8.61548535 -0.005171 0.038360000000000005 0.0020510000000000003
11560 -2.3703216300000003 3.8567328300000003 8.61833025 -0.007305 0.040489 0.00417
11580 -2.3875381800000004 3.87424368 8.60785317 -0.005171 0.039421 0.003118
11600 -2.39247261 3.85433919 8.65110546 -0.000909 0.037279 0.002082
11620 -2.3870869200000002 3.8628640800000005 8.662337910000002 0.001235 0.039403 0.002095
11640 -2.39172705 3.84805098 8.65140957 0.005512 0.041518 0.002122
11660 -2.42106876 3.84685416 8.63538984 0.008712000000000001 0.042568 0.003211
11680 -2.38978467 3.8592736199999997 8.64526851 0.006587999999999999 0.044706 0.003193
11700 -2.39112864 3.85149429 8.637489180000001 0.005512 0.042579 0.003189
11720 -2.38170123 3.8221525800000005 8.621175150000001 -0.001961 0.042601 0.004205
11740 -2.37840507 3.8470013100000005 8.63689077 0.000173 0.043655 0.005286
11760 -2.3833395 3.8609217 8.65066401 0.00015800000000000002 0.040459 0.00529
11780 -2.39082453 3.8751462 8.6270121 -0.001966 0.040475 0.003139
11800 -2.3981624100000003 3.8896650000000004 8.61833025 -0.0008849999999999998 0.042606 0.002076
11820 -2.3763057300000003 3.8555360100000002 8.64796626 -0.00088 0.041549 -5.9e-05
11840 -2.3685264 3.88876248 8.67535578 0.000182 0.041541 0.001016
11860 -2.37151845 3.8723013000000006 8.649163080000001 -0.001937 0.042622 -0.001136
11880 -2.39651433 3.85403508 8.643630240000002 -0.0008609999999999999 0.044749 -0.001132
11900 -2.40954201 3.86915229 8.64392454 0.005531 0.045779 0.002116
11920 -2.4101404200000003 3.8396634300000003 8.641982160000001 0.010875 0.044708 -0.00105
11940 -2.37346083 3.8491006500000005 8.64317898 0.00023 0.045828 -0.005398
11960 -2.36553435 3.8293335 8.657246520000001 -0.00829 0.049053 -0.005462
11980 -2.36463183 3.83681853 8.64841752 -0.008329000000000001 0.043714 -0.002251
12000 -2.3593932900000008 3.84341085 8.66623248 -0.002994 0.042635 -0.00328
12020 -2.37196971 3.8420570700000005 8.63434017 0.001283 0.046872 -0.001119
12040 -2.3713713000000007 3.8586752100000004 8.62715925 0.00233 0.043668 -4e-05
12060 -2.36104137 3.8598720300000005 8.63464428 -0.001947 0.042614 0.001
12080 -2.35295793 3.8913032700000003 8.64332613 -0.003009 0.041561 -0.001142
12100 -2.38498758 3.8865159900000004 8.64526851 -0.001937 0.042622 -0.001136
12120 -2.37989619 3.86885799 8.644974209999999 -0.0030280000000000003 0.040483 0.002063
12140 -2.38274109 3.8868201000000004 8.630298450000002 -0.007319 0.039415 0.006308
12160 -2.36778084 3.89639466 8.626256730000001 -0.006257 0.038346 0.006316
12180 -2.38094586 3.84984621 8.6443758 -0.003052 0.0394 0.006338
12200 -2.3962200300000003 3.86001918 8.631348120000002 -0.001985 0.038336 0.005278
12220 -2.3616397800000004 3.86525772 8.62222482 -0.000913 0.038336 0.004217
12240 -2.37915063 3.8408602500000004 8.657844930000001 -0.000913 0.039397 0.0052840000000000005
12260 -2.3942678400000004 3.8972971800000002 8.672814990000001 0.003344 0.039374 0.00745
12280 -2.3635821600000004 3.9152592900000003 8.665182810000001 0.005493 0.039379 0.004261
12300 -2.37301938 3.8440092600000004 8.593481520000001 0.005488 0.038314 0.004262
12320 -2.3918742 3.83413059 8.590489470000001 0.00122 0.03939 0.005299
12340 -2.4041465100000003 3.8261943 8.65170387 -0.006257 0.039407 0.007383
12360 -2.40954201 3.8285879400000002 8.65140957 -0.008395999999999999 0.039411 0.008437
12380 -2.3881365900000002 3.8440092600000004 8.61338601 -0.008391 0.039415 0.007368
12400 -2.38484043 3.8609217 8.593628670000001 -0.001966 0.038353 0.001005
12420 -2.37989619 3.8833767900000002 8.638686000000002 0.0076409999999999985 0.037262 -0.001063
12440 -2.39412069 3.8959532100000005 8.63225064 0.009794 0.039394 -0.003187
12460 -2.39651433 3.87349812 8.645866920000001 0.003373 0.04046 0.002108
12480 -2.41327962 3.85164144 8.629552890000001 -0.005181 0.041534 0.007388
12500 -2.40878664 3.83293377 8.617574880000001 -0.010515 0.042614 0.008418
12520 -2.3936694300000005 3.82949046 8.64676944 -0.00731 0.042607 0.007372
12540 -2.3785522200000004 3.83128569 8.6677236 -0.0019760000000000003 0.040466 0.005275
12560 -2.3879796300000002 3.84101721 8.65635381 0.00444 0.041518 0.003182
12580 -2.4340866300000004 3.84625575 8.644974209999999 0.006573999999999999 0.039388 0.001064
12600 -2.40160572 3.8466972000000004 8.649163080000001 0.004445 0.040461 0.001047
12620 -2.38469328 3.8230452900000005 8.64796626 0.000177 0.041537 0.002084
12640 -2.3792977800000004 3.84625575 8.674757370000002 -0.003023 0.04367 0.004196
12660 -2.3394888000000007 3.88038474 8.64317898 -0.001952 0.043671 0.003135
12680 -2.3724209700000003 3.87603891 8.62222482 0.000182 0.042602 0.002083
12700 -2.3891862600000002 3.86795547 8.6327019 0.0033880000000000004 0.042595 0.001037
12720 -2.42615034 3.8703491100000003 8.647367850000002 0.002302 0.039399 0.002102
12740 -2.38438917 3.8414586600000002 8.666673930000002 -0.000904 0.040467 0.004215
12760 -2.31328629 3.80808504 8.672510879999999 0.002302 0.04046 0.003169
12780 -2.351457 3.79625418 8.672510879999999 0.002316 0.041534 0.001031
12800 -2.38139712 3.83592582 8.642727720000002 0.002316 0.042595 0.002098
12820 -2.39801526 3.861216 8.65140957 0.010851 0.045748 0.005358
12840 -2.40909075 3.8839752 8.62431435 0.010875 0.044708 -0.00105
12860 -2.3770611 3.8787366600000004 8.629405740000001 0.003421 0.045808 -0.003239
12880 -2.3673295800000003 3.83233536 8.634791430000002 -0.006157 0.047985 -0.006514
12900 -2.3999576400000002 3.8302360200000005 8.65769778 -0.007271 0.042641000000000005 -0.001174
12920 -2.4002617500000003 3.8529854100000005 8.625059910000001 -0.001942 0.043679 0.000999
12940 -2.39486625 3.85029747 8.6301513 -0.0008699999999999999 0.044741 0.001005
12960 -2.3852916900000003 3.88277838 8.65380321 0.001263 0.04155 -0.002181
12980 -2.38214268 3.8637666 8.64796626 0.003397 0.039421 -0.0043
13000 -2.3659758 3.8645121600000003 8.65559844 0.002325 0.041542 -0.001105
13020 -2.38034745 3.85119018 8.66023857 -0.005167000000000001 0.040486 0.003117
13040 -2.3733136800000008 3.85283826 8.633594610000001 -0.011592 0.039426 0.007345999999999998
13060 -2.37376494 3.8381723100000005 8.645425470000001 -0.011616 0.037283 0.010553
13080 -2.3863413600000003 3.86556183 8.63179938 -0.010534 0.040475 0.010557
13100 -2.3593932900000008 3.8390650200000005 8.657844930000001 -0.001995 0.039388 0.008481
13120 -2.38857804 3.86047044 8.67431592 0.003344 0.037252 0.0053170000000000005
13140 -2.37046878 3.85762554 8.648564669999999 0.0033590000000000004 0.038326 0.003179
13160 -2.398309560000001 3.83891787 8.62326468 0.001235 0.038342 0.0010279999999999998
13180 -2.43379233 3.8547806400000004 8.65904175 -0.000904 0.037284 0.001014
13200 -2.4291522000000003 3.9210962400000002 8.67071565 -0.001985 0.036214 0.003144
13220 -2.39337513 3.87903096 8.590038210000001 -0.004133 0.037269 0.007401
13240 -2.36553435 3.87424368 8.58509397 -0.004138 0.036204 0.007402
13260 -2.38139712 3.83562171 8.65964016 -0.004138 0.037265 0.008468999999999999
13280 -2.43124173 3.8125682100000002 8.66413314 -0.003062 0.038331 0.007406999999999999
13300 -2.4039993600000003 3.8044847700000006 8.60845158 -0.002014 0.036188 0.009554
13320 -2.36253249 3.8381723100000005 8.62282323 -0.003057 0.039396 0.007406
13340 -2.36687832 3.8743908300000003 8.67700386 -0.004138 0.036204 0.007402
13360 -2.37869937 3.86585613 8.666830890000002 -0.004133 0.036208 0.006334
13380 -2.38678281 3.8622656699999998 8.62835607 -0.003052 0.038339 0.0052710000000000005
13400 -2.41552611 3.8799334800000005 8.62356879 -0.000923 0.037267 0.005287
13420 -2.42839683 3.85403508 8.639882819999999 -0.000913 0.038336 0.004217
13440 -2.4011544600000003 3.8285879400000002 8.61937992 0.002287 0.038325 0.00424
13460 -2.4081882300000004 3.82409496 8.65050705 0.002278 0.038316 0.006376
13480 -2.39741685 3.83083443 8.663387580000002 -0.000928 0.038323 0.007422
13500 -2.41432929 3.86001918 8.63913726 -0.000937 0.039376 0.010625
13520 -2.39801526 3.85223985 8.62222482 0.000134 0.039376 0.009564
13540 -2.36193408 3.8378682000000004 8.633300310000001 -0.000942 0.038311000000000005 0.010627
13560 -2.36972322 3.8426554800000003 8.633300310000001 0.000129 0.040433 0.0117
13580 -2.37211686 3.85193574 8.670274200000001 0.000144 0.039385 0.007428
13600 -2.38888215 3.83442489 8.65934586 0.001201 0.038312 0.008505
13620 -2.37750255 3.84864939 8.66263221 -0.000923 0.039389 0.007421
13640 -2.39098149 3.86017614 8.66967579 -0.000937 0.038315 0.009558
13660 -2.37915063 3.8484924300000003 8.638686000000002 0.000134 0.038315 0.008498
13680 -2.38678281 3.8487965400000004 8.630298450000002 0.003344 0.039374 0.00745
13700 -2.39307102 3.84729561 8.62072389 0.0012109999999999998 0.039381 0.007436
13720 -2.4128283600000002 3.84819813 8.6443758 -0.00199 0.040453 0.00848
13740 -2.3861844000000003 3.8728997100000004 8.62461846 -0.000928 0.039384 0.008489
13760 -2.39711274 3.8615201100000003 8.63074971 0.00015800000000000002 0.040459 0.00529
13780 -2.38648851 3.8396634300000003 8.63194653 0.000168 0.041528 0.004221
13800 -2.39337513 3.843558 8.66278917 0.006534999999999999 0.040415 0.010676
13820 -2.38289805 3.8660130900000005 8.64317898 0.005488 0.040436 0.006396
13840 -2.36778084 3.8491006500000005 8.643473279999998 0.00123 0.042581 0.006363000000000001
13860 -2.36642706 3.8384666100000002 8.653656060000001 -0.003023 0.045792 0.00633
13880 -2.3571468 3.85882236 8.64662229 -0.0008990000000000002 0.043654000000000005 0.006347
13900 -2.36178693 3.8586752100000004 8.65559844 0.000187 0.044728 0.003149
13920 -2.37465765 3.861216 8.654401620000002 0.000197 0.045798 0.002079
13940 -2.39337513 3.8895080400000004 8.66398599 -0.001952 0.041549 0.001001
13960 -2.39636718 3.85029747 8.65574559 -0.005171 0.039421 0.003118
13980 -2.3902261200000003 3.8751462 8.609197140000001 -0.003038 0.040474 0.0042
14000 -2.38409487 3.8606175900000004 8.632544939999999 -0.000904 0.041528 0.005282
14020 -2.37675699 3.85792965 8.64167805 -0.000918 0.040454 0.0074189999999999985
14040 -2.37046878 3.84310674 8.64811341 -0.000904 0.042589 0.006348
14060 -2.37900348 3.8470013100000005 8.63883315 -0.003038 0.041535 0.005267
14080 -2.36972322 3.8375739 8.64422865 -0.003033 0.0426 0.005265
14100 -2.3571468 3.86181441 8.65739367 -0.000889 0.041541 0.002077
14120 -2.3343974100000002 3.8743908300000003 8.654254470000001 -0.0030280000000000003 0.040483 0.002063
14140 -2.34801369 3.86706276 8.663387580000002 -0.0008939999999999998 0.041536 0.003145
14160 -2.35549872 3.8513373300000002 8.66263221 0.002302 0.039399 0.002102
14180 -2.397564 3.8743908300000003 8.678200680000002 0.001239 0.040468 0.002093
14200 -2.368673550000001 3.86047044 8.629857000000001 -0.001952 0.04261 0.002068
14220 -2.36373912 3.83322807 8.61458283 -0.003018 0.040491 -7.3e-05
14240 -2.380651560000001 3.85762554 8.616829319999999 -0.003023 0.040487 0.000995
14260 -2.3845461300000004 3.86525772 8.676856710000001 -0.005143 0.042629 -9.1e-05
14280 -2.38349646 3.8922057899999998 8.645866920000001 -0.003023 0.040487 0.000995
14300 -2.36508309 3.86885799 8.60410575 -0.006219 0.041563 0.000972
14320 -2.3532522300000003 3.87050607 8.632849049999999 -0.005157 0.040494 0.00098
14340 -2.36343501 3.86166726 8.645572620000001 -0.006214 0.041568 -9.7e-05
14360 -2.3812499700000003 3.8466972000000004 8.65844334 -0.006219 0.041563 0.000972
14380 -2.36687832 3.83592582 8.633447460000001 -0.004065999999999999 0.042634 -0.002219
14400 -2.36687832 3.83382648 8.637037920000001 -0.001937 0.041561 -0.002203
14420 -2.37376494 3.87050607 8.65530414 -0.001937 0.041561 -0.002203
14440 -2.3781009600000003 3.8660130900000005 8.65110546 -0.001932 0.041566000000000006 -0.003271
14460 -2.36508309 3.8733411600000003 8.64827037 -0.001937 0.042622 -0.001136
14480 -2.36912481 3.87094752 8.642727720000002 -0.004076 0.042625 -8.3e-05
14500 -2.36508309 3.8285879400000002 8.63569395 -0.000875 0.041553 -0.001128
14520 -2.38663566 3.8724484500000003 8.632544939999999 -0.001947 0.042614 0.001
14540 -2.3751089100000002 3.8757446100000004 8.655147180000002 -0.001952 0.041549 0.001001
14560 -2.38244679 3.86706276 8.63689077 -0.005157 0.041555 0.002047
14580 -2.3981624100000003 3.8886153300000004 8.63658666 -0.00409 0.041552 0.002055
14600 -2.36343501 3.87634302 8.64767196 -0.004076 0.042625 -8.3e-05
14620 -2.36941911 3.86197137 8.64961434 -0.00299 0.0437 -0.003282
14640 -2.35789236 3.8627169300000004 8.65755063 0.00445 0.040465 -2.1e-05
14660 -2.3755601700000004 3.86675865 8.63105382 0.01087 0.041521 -0.003182
14680 -2.37750255 3.86585613 8.64062838 0.006622 0.042614 -0.006418000000000001
14700 -2.3516139600000003 3.8499933600000005 8.66428029 -0.001889 0.04797 -0.006484
14720 -2.3575980600000004 3.86331534 8.65964016 -0.004057 0.043704 -0.0032890000000000003
14740 -2.3724209700000003 3.8336793300000003 8.649908640000001 -0.004057 0.044765 -0.002222
14760 -2.36508309 3.8299319100000004 8.63194653 -0.001913 0.047949 -0.001143
14780 -2.37017448 3.8242519200000005 8.66009142 -0.001932 0.044749 -7.099999999999999e-05
14800 -2.38379076 3.8495421 8.63778348 -0.001937 0.042622 -0.001136
14820 -2.35221237 3.85283826 8.627757660000002 -0.001923 0.042635 -0.004340999999999999
14840 -2.36508309 3.86720991 8.64287487 0.001273 0.041559 -0.0043170000000000005
14860 -2.38034745 3.8495421 8.645719770000001 -0.00088 0.040488 -0.001126
14880 -2.36807514 3.8597248800000004 8.65021275 -0.004085 0.042617 0.002053
14900 -2.3667311700000004 3.85822395 8.633898720000001 -0.001956 0.043666 0.004203
14920 -2.37106719 3.85762554 8.65050705 0.000177 0.04472 0.005285
14940 -2.3713713000000007 3.8330809200000004 8.642276460000001 0.00444 0.04364 0.005316
14960 -2.39261976 3.85733124 8.677759230000001 0.007654999999999999 0.043641 0.002134
14980 -2.3770611 3.8495421 8.63569395 0.008731000000000001 0.043646 5e-06
15000 -2.37046878 3.8470013100000005 8.66368188 0.009798 0.043642 1.3e-05
15020 -2.39801526 3.8049360300000004 8.673109290000001 0.006583 0.041519 0.001061
15040 -2.38948056 3.8907048600000005 8.694220410000002 0.005507 0.042575 0.004257
15060 -2.36314071 3.8513373300000002 8.655147180000002 0.00123 0.042581 0.006363000000000001
15080 -2.33604549 3.8440092600000004 8.620419779999999 0.002302 0.042582 0.005303
15100 -2.36642706 3.82829364 8.65934586 0.002311 0.043651 0.004233
15120 -2.39966334 3.8305303200000003 8.684194589999999 0.001235 0.041525 0.004228
15140 -2.39666148 3.8375739 8.640029970000002 0.000173 0.041533 0.003153
15160 -2.37182256 3.8549376 8.60845158 0.001239 0.040468 0.002093
15180 -2.3596974 3.86421786 8.622371970000001 0.002306 0.041525 0.003168
15200 -2.37915063 3.86646435 8.64617103 0.002297 0.039395 0.00317
15220 -2.3792977800000004 3.8526911100000003 8.626707990000002 0.000177 0.041537 0.002084
15240 -2.38514454 3.8357688600000004 8.65619685 -0.001971 0.041531 0.005274
15260 -2.40863949 3.8395162800000002 8.649310230000001 0.000177 0.042598 0.003151
15280 -2.39741685 3.8148147000000003 8.659493009999998 0.000173 0.041533 0.003153
15300 -2.40310665 3.82349655 8.66248506 0.00123 0.04152 0.005296
15320 -2.3900789700000002 3.85583031 8.69496597 0.00015800000000000002 0.040459 0.00529
15340 -2.3861844000000003 3.82949046 8.64317898 0.00444 0.041518 0.003182
15360 -2.3635821600000004 3.82829364 8.63928441 0.006579000000000001 0.043636 0.004263
15380 -2.3572939500000003 3.82439907 8.62820892 0.004459 0.044718 0.0021100000000000003
15400 -2.37974904 3.83442489 8.657099370000001 0.003383 0.042591 0.002105
15420 -2.38349646 3.8404089900000002 8.65170387 0.003378 0.042587 0.003174
15440 -2.36388627 3.87154593 8.64646533 0.003378 0.042587 0.003174
15460 -2.4032538000000008 3.87170289 8.65650096 0.002302 0.041521 0.004236
15480 -2.4007032 3.86166726 8.65485288 0.004435000000000001 0.041513 0.004251
15500 -2.4062458500000004 3.8513373300000002 8.649761490000001 0.004445 0.041522 0.002114
15520 -2.41373088 3.8534366700000002 8.61878151 0.005516 0.043644 0.003187
15540 -2.40774678 3.8663073900000002 8.63225064 0.014037 0.042541 0.005385
15560 -2.39576877 3.8549376 8.65410732 0.015128 0.043619 0.001118
15580 -2.40235128 3.84864939 8.62641369 0.00556 0.046866000000000005 -0.003226
15600 -2.3845461300000004 3.8426554800000003 8.654705730000002 -0.000837 0.046892 -0.004339
15620 -2.3944248 3.8438523000000004 8.647515 0.001254 0.041542 -4.4e-05
15640 -2.3740592400000002 3.8565758700000004 8.638381890000002 0.006606999999999999 0.047906 0.002121
15660 -2.38962771 3.8396634300000003 8.64167805 0.007669 0.048959 0.004264
15680 -2.36807514 3.8408602500000004 8.6327019 0.00233 0.04579 0.002094
15700 -2.38558599 3.8360729700000005 8.641982160000001 -0.001952 0.041549 0.001001
15720 -2.3640334200000006 3.8440092600000004 8.647367850000002 -0.006224 0.040498 0.000973
15740 -2.3881365900000002 3.84325389 8.64452295 -0.006224 0.040498 0.000973
15760 -2.37885633 3.85073892 8.631200970000002 -0.005162 0.04049 0.002049
15780 -2.3879796300000002 3.8547806400000004 8.63734203 -0.0040950000000000005 0.040486 0.002056
15800 -2.39352228 3.85628157 8.648711819999999 -0.003023 0.042609 0.003129
15820 -2.4092379 3.86032329 8.625059910000001 -0.0041 0.040482 0.003124
15840 -2.41028757 3.85613442 8.6270121 -0.001966 0.039414 0.002072
15860 -2.39711274 3.8877128100000005 8.633898720000001 -0.0008849999999999998 0.041545 0.001009
15880 -2.4029496900000002 3.8684067300000002 8.64392454 -0.001961 0.04154 0.003138
15900 -2.40010479 3.86465931 8.61458283 -0.0052 0.037273 0.007393
15920 -2.40564744 3.8369754900000004 8.6270121 -0.003066 0.037266 0.007408
15940 -2.41478055 3.92932683 8.684194589999999 0.002292 0.040451 0.005305
15960 -2.37017448 3.90103479 8.626864950000002 0.000153 0.039393 0.005292
15980 -2.35819647 3.8544863400000002 8.598415950000001 -0.003038 0.040474 0.0042
16000 -2.37945474 3.8299319100000004 8.59991688 -0.0040950000000000005 0.040486 0.002056
16020 -2.41298532 3.85164144 8.6964669 -0.00198 0.03834 0.00421
16040 -2.4191165700000004 3.85418223 8.63509554 -0.003042 0.039409 0.004201
16060 -2.41193565 3.8580768000000005 8.59721913 -0.003038 0.039413 0.003133
16080 -2.37750255 3.8953449900000003 8.6042529 -0.000904 0.039406 0.003148
16100 -2.36553435 3.89715003 8.619075810000002 -0.000909 0.03834 0.003149
16120 -2.38978467 3.8660130900000005 8.61159078 -0.001971 0.04047 0.004207
16140 -2.41148439 3.8615201100000003 8.59707198 -0.003042 0.039409 0.004201
16160 -2.41942068 3.85104303 8.61802614 -0.003052 0.0394 0.006338
16180 -2.3999576400000002 3.8640609000000006 8.641079640000001 -0.0019760000000000003 0.040466 0.005275
16200 -2.38768533 3.8544863400000002 8.63179938 0.002287 0.039386 0.005307
16220 -2.4029496900000002 3.86346249 8.647367850000002 0.000153 0.039393 0.005292
16240 -2.4041465100000003 3.8673570600000002 8.67371751 -0.000918 0.038332 0.005286
16260 -2.39337513 3.85283826 8.63000415 -0.0019760000000000003 0.040466 0.005275
16280 -2.40863949 3.84430356 8.593628670000001 0.000168 0.039406 0.0020870000000000003
16300 -2.4020569800000002 3.8737924200000005 8.633143350000001 0.001239 0.039407 0.001026
16320 -2.39382639 3.86825958 8.6301513 0.001235 0.039403 0.002095
16340 -2.39801526 3.861216 8.64676944 0.002297 0.040456 0.004237
16360 -2.397564 3.8782854000000007 8.6127876 -0.000909 0.03834 0.003149
16380 -2.38978467 3.89041056 8.61997833 -0.0041 0.041543 0.004190999999999999
16400 -2.4182238600000003 3.8495421 8.62925859 -0.005167000000000001 0.041547 0.004184
16420 -2.3944248 3.8491006500000005 8.6270121 -0.004104 0.038356 0.002059
16440 -2.3882837400000003 3.8725956000000004 8.632996200000001 -0.004104 0.040478 0.004192
16460 -2.37869937 3.86885799 8.632849049999999 0.000149 0.036206 0.003159
16480 -2.36897766 3.87214434 8.647367850000002 0.00123 0.039398 0.003163
16500 -2.39082453 3.85313256 8.652459240000002 0.00015800000000000002 0.039398 0.004224
16520 -2.41552611 3.8559774600000005 8.638686000000002 -0.004109000000000001 0.040474 0.005261
16540 -2.40160572 3.8666115000000003 8.610246810000001 0.00016299999999999998 0.040463 0.004222
16560 -2.4043034700000003 3.8559774600000005 8.64811341 0.010846 0.0415 0.002159
16580 -2.39741685 3.8420570700000005 8.65260639 0.001249 0.040476 -4.3e-05
16600 -2.40175287 3.8630210400000005 8.641982160000001 -0.009415 0.043701 0.002015
16620 -2.40968916 3.8812774500000002 8.63538984 -0.011573 0.038382 0.002006
16640 -2.41238691 3.89759148 8.61488694 -0.005167000000000001 0.039425 0.00205
16660 -2.4111900900000003 3.88606473 8.633447460000001 -0.003009 0.045805 0.003125
16680 -2.39232546 3.8737924200000005 8.62925859 -0.0030280000000000003 0.040483 0.002063
16700 -2.37646269 3.8487965400000004 8.63179938 -0.006233 0.038368 0.000976
16720 -2.38574295 3.8636194500000003 8.64392454 -0.004104 0.038356 0.002059
16740 -2.43363537 3.83322807 8.64676944 -0.004109000000000001 0.037291000000000005 0.00206
16760 -2.3656815 3.8615201100000003 8.647367850000002 -0.006253 0.03729 0.004181
16780 -2.36268945 3.8549376 8.648564669999999 -0.006272 0.037273 0.008454000000000001
16800 -2.40564744 3.8577825 8.633143350000001 -0.006257 0.039407 0.007383
16820 -2.39771115 3.8426554800000003 8.633898720000001 -0.005191 0.039404 0.007391
16840 -2.39651433 3.8293335 8.6184774 -0.002 0.037262 0.007416
16860 -2.3755601700000004 3.86256978 8.62835607 -0.000918 0.038332 0.005286
16880 -2.38079871 3.83622012 8.65844334 0.000149 0.038328 0.005293
16900 -2.38214268 3.8597248800000004 8.64602388 -0.000928 0.037262 0.006355
16920 -2.37017448 3.8648162700000004 8.6156325 0.001201 0.037251 0.007437999999999998
16940 -2.42226558 3.85223985 8.64078534 0.001201 0.038312 0.008505
16960 -2.4159773700000002 3.9187026 8.71218252 0.0012109999999999998 0.039381 0.007436
16980 -2.38469328 3.8574783900000003 8.62866018 0.001201 0.037251 0.007437999999999998
17000 -2.37182256 3.83427774 8.563090140000002 0.000139 0.037259 0.006363000000000001
17020 -2.39966334 3.83203125 8.61593661 0.001201 0.038312 0.008505
17040 -2.42600319 3.85313256 8.69122836 0.000134 0.038315 0.008498
17060 -2.4206175 3.8464029 8.641982160000001 -0.000933 0.037258 0.007423000000000002
17080 -2.3635821600000004 3.86316819 8.60261463 -0.000923 0.039389 0.007421
17100 -2.36553435 3.87393957 8.64422865 -0.001995 0.038327 0.0074150000000000015
17120 -2.35819647 3.86256978 8.649467190000001 -0.002 0.038323 0.008483
17140 -2.37376494 3.85583031 8.62311753 -0.000918 0.039393 0.006352
17160 -2.38603725 3.85433919 8.61802614 0.002282 0.039382 0.006375
17180 -2.38948056 3.82664556 8.64422865 0.002292 0.040451 0.005305
17200 -2.38993182 3.8327768100000004 8.655902549999999 0.0033590000000000004 0.039387 0.004246
17220 -2.3902261200000003 3.8317271400000004 8.665035660000001 0.0044210000000000005 0.04044 0.006388
17240 -2.39935923 3.8555360100000002 8.64691659 0.00334 0.037248 0.006385
17260 -2.40340095 3.8491006500000005 8.653057650000001 0.000134 0.038315 0.008498
17280 -2.38214268 3.8606175900000004 8.626864950000002 -0.000928 0.039384 0.008489
17300 -2.39786811 3.8458044900000004 8.63509554 0.000149 0.039389 0.00636
17320 -2.39606307 3.8441564100000005 8.6327019 0.000149 0.04045 0.007427
17340 -2.3736177900000004 3.8302360200000005 8.689276170000001 0.000144 0.040446 0.008495
17360 -2.38184838 3.84819813 8.65500003 0.000153 0.041515 0.007425
17380 -2.38379076 3.85613442 8.65215513 0.001225 0.040455 0.005298
17400 -2.38768533 3.84894369 8.650811160000002 0.001225 0.039394 0.004231
17420 -2.3770611 3.87319401 8.6443758 -0.00198 0.03834 0.00421
17440 -2.35984455 3.8475997200000003 8.641825200000001 -0.001961 0.04154 0.003138
17460 -2.3779538100000006 3.84520608 8.649908640000001 -0.0008609999999999999 0.044749 -0.001132
17480 -2.3685264 3.8552319 8.65170387 -0.000851 0.043697 -0.004335
17500 -2.36178693 3.8615201100000003 8.64242361 0.002325 0.042603 -3.8e-05
17520 -2.38498758 3.8535838200000003 8.649310230000001 0.009808 0.044712 -0.001057
17540 -2.3586477300000004 3.8416156200000002 8.65200798 0.0012779999999999998 0.044746 -0.0021850000000000003
17560 -2.38139712 3.8384666100000002 8.64287487 -0.004028 0.049034 -0.004364
17580 -2.37840507 3.83622012 8.658590490000002 -0.007252 0.04478 -0.0033130000000000004
17600 -2.36343501 3.82589019 8.65200798 -0.00297 0.045839 -0.0054210000000000005
17620 -2.37465765 3.8640609000000006 8.65574559 -0.001899 0.047961 -0.004348
17640 -2.35849077 3.85119018 8.653508910000001 -0.005118999999999999 0.043712 -0.004365
17660 -2.37286242 3.8520927000000005 8.63674362 -0.004076 0.040503 -0.002217
17680 -2.35085859 3.8663073900000002 8.63808759 0.000192 0.040489 -0.002187
17700 -2.36792799 3.8725956000000004 8.64961434 0.001244 0.041533 0.002092
17720 -2.3635821600000004 3.8606175900000004 8.64512136 0.000173 0.041533 0.003153
17740 -2.38783248 3.8459516400000004 8.643777390000002 -0.0008990000000000002 0.040471 0.003147
17760 -2.38648851 3.85193574 8.64033408 0.001235 0.040464 0.003161
17780 -2.3770611 3.86915229 8.65994427 0.002316 0.043656 0.003165
17800 -2.34801369 3.87349812 8.63689077 0.008731000000000001 0.043646 5e-06
17820 -2.37077289 3.85164144 8.627757660000002 0.006603 0.043658 -0.001078
17840 -2.35954044 3.8799334800000005 8.63794044 0.004464 0.041539 -0.002158
17860 -2.36717262 3.8965516200000003 8.664584399999999 0.004459 0.041535 -0.00109
17880 -2.35071144 3.8956491000000004 8.650958310000002 0.000182 0.041541 0.001016
17900 -2.36253249 3.83981058 8.65485288 -0.001947 0.042614 0.001
17920 -2.38050441 3.8598720300000005 8.65260639 -0.007291 0.041563 0.002032
17940 -2.3682222900000003 3.9035853900000004 8.686136970000002 -0.007305 0.039428 0.0031030000000000003
17960 -2.34697383 3.8272439700000005 8.62641369 -0.006233 0.04049 0.003109
17980 -2.36508309 3.85702713 8.62746336 -0.007291 0.039441 -0.000101
18000 -2.36388627 3.86616024 8.641226790000001 -0.006219 0.039441 -0.0011619999999999998
18020 -2.3951703600000003 3.8535838200000003 8.653057650000001 -0.008362 0.038379 -0.000108
18040 -2.38783248 3.8585280600000003 8.60695065 -0.008362 0.03944 0.000959
18060 -2.37376494 3.8387707200000003 8.621469450000001 -0.008357999999999999 0.039445 -0.000109
18080 -2.37989619 3.8426554800000003 8.62746336 -0.006214 0.039446 -0.00223
18100 -2.39786811 3.8429595900000004 8.64841752 -0.006219 0.039441 -0.0011619999999999998
18120 -2.38558599 3.82589019 8.64287487 -0.003014 0.041556 -7.4e-05
18140 -2.4022041300000003 3.8285879400000002 8.627757660000002 -0.0008990000000000002 0.040471 0.003147
18160 -2.3870869200000002 3.8453532300000006 8.65170387 -0.001952 0.04261 0.002068
18180 -2.38110282 3.82918635 8.64691659 -0.0030280000000000003 0.041544 0.00313
18200 -2.38094586 3.8414586600000002 8.672962140000001 -0.0008990000000000002 0.041532 0.004213000000000001
18220 -2.3571468 3.8390650200000005 8.64646533 -0.0008990000000000002 0.040471 0.003147
18240 -2.3751089100000002 3.86181441 8.629857000000001 0.001244 0.041533 0.002092
18260 -2.3611885200000002 3.85583031 8.633898720000001 0.001254 0.042603 0.001022
18280 -2.33708535 3.87783414 8.66188665 0.001239 0.040468 0.002093
18300 -2.3703216300000003 3.89041056 8.653656060000001 0.002311 0.041529 0.002099
18320 -2.3812499700000003 3.88786977 8.621175150000001 0.00445 0.040465 -2.1e-05
18340 -2.3992120800000003 3.86391375 8.64287487 0.003392 0.042599 -3.1e-05
18360 -2.4002617500000003 3.86032329 8.63090667 0.005512 0.042579 0.003189
18380 -2.4043034700000003 3.86675865 8.64512136 0.012985 0.041496 0.001106
18400 -2.41298532 3.8564287200000003 8.61878151 0.00233 0.042607 -0.001107
18420 -2.40145857 3.8592736199999997 8.632849049999999 -0.004047 0.047956 -0.001158
18440 -2.3822996400000003 3.8833767900000002 8.615181240000002 -0.006195 0.044768 -0.001169
18460 -2.3920213500000003 3.86181441 8.64452295 -0.003009 0.043683 0.000991
18480 -2.36537739 3.8393691300000006 8.64781911 0.001259 0.04579 0.0031550000000000003
18500 -2.3695760700000004 3.84026184 8.665182810000001 -0.00088 0.044732 0.003141
18520 -2.368673550000001 3.8191605300000004 8.65395036 -0.001956 0.040483 0.001003
18540 -2.38274109 3.81990609 8.663083470000002 0.001263 0.04155 -0.002181
18560 -2.36508309 3.8484924300000003 8.6762583 0.001254 0.040481 -0.001111
18580 -2.40758982 3.8444507100000003 8.66547711 0.000168 0.038345 0.00102
18600 -2.3695760700000004 3.82589019 8.6500656 -0.003042 0.039409 0.004201
18620 -2.38094586 3.83861376 8.65215513 -0.000913 0.039397 0.0052840000000000005
18640 -2.37481461 3.8459516400000004 8.65545129 -0.001985 0.041519 0.008479
18660 -2.39606307 3.8630210400000005 8.65170387 -0.004138 0.038326 0.009536
18680 -2.39546466 3.8565758700000004 8.65155672 -0.000923 0.04045 0.008487
18700 -2.38993182 3.83442489 8.63374176 -0.000909 0.039401 0.004215999999999999
18720 -2.38962771 3.84819813 8.66697804 0.001244 0.041533 0.002092
18740 -2.38783248 3.8420570700000005 8.65619685 0.007626000000000002 0.03725 0.002142
18760 -2.3779538100000006 3.84310674 8.64961434 0.004425999999999999 0.039383 0.004253
18780 -2.39292387 3.8330809200000004 8.65769778 0.001206 0.037255 0.006370000000000001
18800 -2.39232546 3.89610036 8.70065577 0.001225 0.039394 0.004231
18820 -2.36373912 3.87304686 8.64392454 0.00015800000000000002 0.039398 0.004224
18840 -2.36987037 3.84565734 8.620419779999999 0.000168 0.040467 0.003154
18860 -2.37615858 3.8564287200000003 8.653351950000001 0.00122 0.03939 0.005299
18880 -2.40474492 3.8393691300000006 8.68448889 0.00015800000000000002 0.040459 0.00529
18900 -2.40055605 3.8227509900000003 8.642727720000002 0.002287 0.039386 0.005307
18920 -2.3770611 3.83248251 8.61204204 0.003364 0.041513 0.005311
18940 -2.40579459 3.85717428 8.617427730000001 0.002306 0.041525 0.003168
18960 -2.3763057300000003 3.8425083300000002 8.658296190000002 0.002321 0.042599 0.00103
18980 -2.39741685 3.8555360100000002 8.630298450000002 0.001239 0.040468 0.002093
19000 -2.39606307 3.8387707200000003 8.64258057 0.000177 0.041537 0.002084
19020 -2.40370506 3.83652423 8.64048123 0.003368 0.041517 0.004243
19040 -2.38498758 3.8330809200000004 8.633898720000001 0.002292 0.040451 0.005305
19060 -2.41358373 3.82918635 8.63374176 0.002292 0.03939 0.004238
19080 -2.39412069 3.86436501 8.670117240000002 -0.000913 0.040458 0.006351
19100 -2.40564744 3.84984621 8.65140957 -0.001966 0.040475 0.003139
19120 -2.39935923 3.83592582 8.66757645 0.000168 0.040467 0.003154
19140 -2.39142294 3.83098158 8.61473979 0.001239 0.040468 0.002093
19160 -2.35879488 3.8267927100000003 8.665329960000001 0.002292 0.040451 0.005305
19180 -2.39606307 3.82170132 8.643473279999998 0.001235 0.041525 0.004228
19200 -2.3845461300000004 3.8423611800000006 8.64048123 0.001239 0.041529 0.00316
19220 -2.4043034700000003 3.8459516400000004 8.669518830000001 0.002306 0.041525 0.003168
19240 -2.36807514 3.85733124 8.661435390000001 0.002311 0.041529 0.002099
19260 -2.368673550000001 3.85613442 8.652459240000002 0.001239 0.041529 0.00316
19280 -2.3842420200000003 3.83861376 8.6443758 0.002297 0.040456 0.004237
19300 -2.39038308 3.83622012 8.63179938 0.000173 0.041533 0.003153
19320 -2.3742162 3.8425083300000002 8.637185070000001 0.000168 0.041528 0.004221
19340 -2.37481461 3.8416156200000002 8.657099370000001 0.002287 0.041508 0.00744
19360 -2.3781009600000003 3.8663073900000002 8.657844930000001 0.009774 0.04256 0.004287
19380 -2.37885633 3.8565758700000004 8.65155672 0.00554 0.043666 -0.002154
19400 -2.38094586 3.85014051 8.629405740000001 -0.004047 0.045834 -0.003292
19420 -2.4002617500000003 3.83203125 8.626256730000001 -0.001942 0.040496 -0.002202
19440 -2.39457195 3.8261943 8.658149040000001 0.001254 0.042603 0.001022
19460 -2.37481461 3.8411643600000005 8.65559844 0.004464 0.045783 0.002109
19480 -2.37077289 3.84819813 8.647220700000002 0.000197 0.045798 0.002079
19500 -2.37750255 3.8711044800000005 8.6529105 -0.00409 0.041552 0.002055
19520 -2.3812499700000003 3.85733124 8.63239779 -0.006229 0.040494 0.002041
19540 -2.38558599 3.8648162700000004 8.64167805 -0.0040950000000000005 0.040486 0.002056
19560 -2.4041465100000003 3.85029747 8.661435390000001 -0.004104 0.038356 0.002059
19580 -2.3905302300000004 3.84026184 8.633143350000001 -0.0030280000000000003 0.039422000000000006 0.000997
19600 -2.4039993600000003 3.84774687 8.64781911 -0.005167000000000001 0.040486 0.003117
19620 -2.38289805 3.8534366700000002 8.64078534 -0.0041 0.041543 0.004190999999999999
19640 -2.39741685 3.86616024 8.65500003 -0.0041 0.041543 0.004190999999999999
19660 -2.3861844000000003 3.8636194500000003 8.66248506 -0.0030280000000000003 0.040483 0.002063
19680 -2.3858901 3.83981058 8.638538850000002 -0.0030280000000000003 0.040483 0.002063
19700 -2.34846495 3.83622012 8.65755063 -0.0008939999999999998 0.040475 0.002078
19720 -2.39307102 3.86181441 8.65410732 -0.000913 0.038336 0.004217
19740 -2.37196971 3.86465931 8.65050705 -0.003038 0.041535 0.005267
19760 -2.38170123 3.8393691300000006 8.62866018 -0.003038 0.040474 0.0042
19780 -2.40954201 3.8520927000000005 8.67595419 -0.000909 0.03834 0.003149
19800 -2.41432929 3.9291796800000003 8.703049410000002 -0.000913 0.037275 0.003151
19820 -2.3760114300000006 3.83981058 8.60515542 -0.003047 0.038344 0.004202
19840 -2.37840507 3.84505893 8.61398442 -0.002004 0.036197 0.007417
19860 -2.3900789700000002 3.83891787 8.665035660000001 -0.003066 0.037266 0.007408
19880 -2.42690571 3.8395162800000002 8.67520863 -0.005195 0.038338 0.007392
19900 -2.3921783100000003 3.8318841000000003 8.613690120000001 -0.004133 0.037269 0.007401
19920 -2.3599917 3.84774687 8.592127740000002 -0.00199 0.038331 0.006346
19940 -2.37690414 3.87948222 8.633594610000001 0.000144 0.038324 0.006361
19960 -2.35071144 3.86211852 8.649467190000001 0.000144 0.037263 0.005294
19980 -2.3556556800000004 3.84011469 8.63105382 0.001215 0.038324 0.0053
20000 -2.38139712 3.85164144 8.637636330000001 -0.001995 0.038327 0.0074150000000000015
20020 -2.3936694300000005 3.8417627700000003 8.65664811 -0.00199 0.040453 0.00848
20040 -2.38393791 3.843558 8.6415309 -0.004138 0.038326 0.009536
20060 -2.4069914100000003 3.85613442 8.63943156 -0.002004 0.036197 0.007417
20080 -2.4039993600000003 3.8835239400000003 8.65619685 -0.002019 0.035123 0.009555
20100 -2.39261976 3.8552319 8.64422865 -0.000933 0.038319 0.008490000000000001
20120 -2.4161245200000003 3.8565758700000004 8.62371594 0.001191 0.036181 0.008508
20140 -2.3830452 3.8227509900000003 8.62371594 -0.000937 0.037254 0.008491
20160 -2.3760114300000006 3.8393691300000006 8.641079640000001 0.000129 0.036189 0.0074319999999999985
20180 -2.4104347200000005 3.8428124400000003 8.647367850000002 0.000144 0.039385 0.007428
20200 -2.3743633500000003 3.84745257 8.655147180000002 0.00015800000000000002 0.040459 0.00529
20220 -2.4032538000000008 3.8269398600000004 8.64302202 0.002297 0.040456 0.004237
20240 -2.37840507 3.83741694 8.64033408 0.00443 0.040448000000000005 0.004252000000000001
20260 -2.37780666 3.83921217 8.672814990000001 0.003364 0.040452 0.0042450000000000005
20280 -2.38364361 3.85104303 8.63374176 0.0012109999999999998 0.039381 0.007436
20300 -2.3830452 3.85403508 8.6500656 0.001206 0.038316 0.007437
20320 -2.37481461 3.85283826 8.648564669999999 0.001206 0.036194 0.005303
20340 -2.39876082 3.85223985 8.64512136 0.002302 0.039399 0.002102
20360 -2.38139712 3.8441564100000005 8.66697804 0.005502 0.039388 0.002124
20380 -2.37465765 3.84190992 8.633300310000001 0.016146999999999998 0.037207 0.005406
20400 -2.3773554000000003 3.8440092600000004 8.65021275 0.0215 0.036144 0.000104
20420 -2.3682222900000003 3.85882236 8.65978731 0.01297 0.039362 0.002177
20440 -2.3742162 3.84819813 8.65200798 0.007654999999999999 0.04258 0.001067
20460 -2.37046878 3.8290392 8.66877327 0.0076409999999999985 0.039384 0.001071
20480 -2.37211686 3.86496342 8.63943156 0.004454 0.043652 0.002112
20500 -2.35774521 3.8495421 8.65155672 0.001259 0.043668 0.001021
20520 -2.39531751 3.83248251 8.63973567 -0.005157 0.042616 0.003114
20540 -2.38409487 3.86137296 8.63105382 -0.005162 0.041551 0.003115
20560 -2.37182256 3.86047044 8.659493009999998 -0.001956 0.042605 0.003136
20580 -2.38948056 3.8330809200000004 8.653351950000001 0.003383 0.044713 0.004239
20600 -2.3861844000000003 3.86331534 8.624167200000002 0.003364 0.041513 0.005311
20620 -2.38214268 3.84430356 8.65635381 -0.003042 0.041531 0.006335
20640 -2.35909899 3.84221403 8.65934586 -0.00731 0.040485 0.0052380000000000005
20660 -2.37316653 3.84939495 8.655902549999999 -0.005181 0.039412 0.005254
20680 -2.3599917 3.84190992 8.65664811 -0.001961 0.04154 0.003138
20700 -2.3712143400000003 3.85014051 8.64332613 -0.001971 0.04047 0.004207
20720 -2.34966177 3.83397363 8.62282323 0.001225 0.040455 0.005298
20740 -2.33619264 3.84565734 8.64691659 0.000149 0.039389 0.00636
20760 -2.3659758 3.8535838200000003 8.643630240000002 0.003364 0.041513 0.005311
20780 -2.3406856200000004 3.87094752 8.658590490000002 -0.0019760000000000003 0.042588 0.0074090000000000015
20800 -2.36044296 3.86256978 8.654401620000002 -0.005181 0.041534 0.007388
20820 -2.41028757 3.8146675500000002 8.67236373 -0.005167000000000001 0.041547 0.004184
20840 -2.41268121 3.8944522800000003 8.6762583 -0.0040950000000000005 0.041547 0.003123
20860 -2.3695760700000004 3.8330809200000004 8.60754906 -0.001947 0.042614 0.001
20880 -2.37001752 3.85313256 8.61144363 -0.000875 0.041553 -0.001128
20900 -2.3556556800000004 3.8805318900000003 8.65454877 -0.001937 0.043683 -7e-05
20920 -2.36941911 3.8785797000000004 8.66398599 -0.004079999999999999 0.040499 -0.001149
20940 -2.3424808500000003 3.86810262 8.656049700000002 -0.005157 0.039433 -8.7e-05
20960 -2.33708535 3.9019373100000005 8.61997833 -0.006219 0.040502 -9.5e-05
20980 -2.3403815100000003 3.88202301 8.643630240000002 -0.0008849999999999998 0.041545 0.001009
21000 -2.35205541 3.83681853 8.643473279999998 0.00233 0.043668 -4e-05
21020 -2.3875381800000004 3.84325389 8.626109580000001 0.004464 0.043661 -2.5e-05
21040 -2.3724209700000003 3.8802277800000002 8.62206786 0.000206 0.043684 -0.002191
21060 -2.3822996400000003 3.84984621 8.633447460000001 -0.001923 0.043696 -0.003274
21080 -2.3662799100000003 3.87933507 8.613533160000001 -0.005128 0.042642 -0.003295
21100 -2.37481461 3.8895080400000004 8.655902549999999 -0.002999 0.04263 -0.002212
21120 -2.3695760700000004 3.86331534 8.6674293 -0.003014 0.040495 -0.001141
21140 -2.34996588 3.8657089800000004 8.6503599 -0.003018 0.03943 -0.00114
21160 -2.3447273400000004 3.8119698 8.63958852 -0.003018 0.040491 -7.3e-05
21180 -2.34697383 3.8676611700000003 8.65978731 -0.0008849999999999998 0.040484 -5.8e-05
21200 -2.3682222900000003 3.86855388 8.657992080000001 -0.001942 0.042618 -6.8e-05
21220 -2.35444905 3.8700548100000014 8.6358411 -0.003009 0.041561 -0.001142
21240 -2.37391209 3.90478221 8.62835607 -0.003009 0.041561 -0.001142
21260 -2.36762388 3.90433095 8.63524269 0.0033590000000000004 0.039387 0.004246
21280 -2.3743633500000003 3.89385387 8.6355468 0.008707 0.039381 0.001079
21300 -2.3962200300000003 3.8775398400000003 8.63404587 0.001273 0.04262 -0.00325
21320 -2.37391209 3.88067904 8.63614521 -0.004052 0.044769 -0.00329
21340 -2.36657421 3.8766373200000004 8.649163080000001 -0.004065999999999999 0.042634 -0.002219
21360 -2.3736177900000004 3.8811303 8.63538984 -0.0008609999999999999 0.044749 -0.001132
21380 -2.36987037 3.8706532200000003 8.6500656 0.002345 0.047925 0.001023
21400 -2.3755601700000004 3.86166726 8.641226790000001 0.001254 0.043664 0.002089
21420 -2.3454729000000003 3.83517045 8.66802771 -0.005152 0.040499 -8.8e-05
21440 -2.35625409 3.83337522 8.65066401 -0.004071 0.040508 -0.003285
21460 -2.35909899 3.8598720300000005 8.643473279999998 -0.003004 0.041565 -0.002211
21480 -2.36104137 3.86496342 8.64796626 -0.003004 0.042626 -0.001144
21500 -2.36778084 3.89550195 8.638538850000002 -0.003023 0.040487 0.000995
21520 -2.35984455 3.89205864 8.64078534 -0.0030280000000000003 0.041544 0.00313
21540 -2.3622381900000002 3.87603891 8.66188665 -0.003038 0.040474 0.0042
21560 -2.36657421 3.8586752100000004 8.65200798 -0.0019760000000000003 0.040466 0.005275
21580 -2.37675699 3.8751462 8.650958310000002 -0.005171 0.040482 0.004185
21600 -2.3802003000000003 3.86421786 8.63689077 -0.001947 0.043675 0.0020670000000000003
21620 -2.37974904 3.86915229 8.63538984 -0.001942 0.043679 0.000999
21640 -2.38034745 3.86137296 8.653351950000001 0.003392 0.041538 -0.001098
21660 -2.37541302 3.8711044800000005 8.648868779999999 0.005526 0.041531 -0.001083
21680 -2.35444905 3.86810262 8.649761490000001 0.007679000000000002 0.044724 -0.00214
21700 -2.37346083 3.8414586600000002 8.648564669999999 0.003397 0.042604 -0.001099
21720 -2.41103313 3.84729561 8.66877327 -0.003033 0.039417 0.002065
21740 -2.38154427 3.8872615500000003 8.65934586 -0.007319 0.038354 0.005241
21760 -2.3574509100000003 3.84774687 8.62581528 -0.008376999999999999 0.04155 0.006298
21780 -2.36941911 3.8622656699999998 8.61144363 -0.004104 0.040478 0.004192
21800 -2.34652257 3.8538879300000004 8.6879322 -0.0008939999999999998 0.040475 0.002078
21820 -2.40190983 3.8254487400000006 8.666830890000002 0.001254 0.041542 -4.4e-05
21840 -2.3745105 3.84221403 8.62790481 0.001235 0.038342 0.0010279999999999998
21860 -2.35954044 3.84341085 8.61204204 -0.001956 0.040483 0.001003
21880 -2.34801369 3.8598720300000005 8.656049700000002 -0.001961 0.040479 0.002071
21900 -2.3309541 3.85882236 8.664878700000001 0.000173 0.040472 0.002086
21920 -2.37675699 3.86137296 8.656795259999999 0.003364 0.039391 0.0031780000000000003
21940 -2.3861844000000003 3.84774687 8.622666270000002 0.00122 0.03939 0.005299
21960 -2.3905302300000004 3.8508958800000004 8.63090667 0.001235 0.042586 0.005295
21980 -2.36253249 3.82918635 8.63404587 0.00123 0.04152 0.005296
22000 -2.36762388 3.8630210400000005 8.65170387 0.001225 0.040455 0.005298
22020 -2.39337513 3.8826214200000004 8.66727234 0.002292 0.040451 0.005305
22040 -2.40774678 3.8725956000000004 8.64093249 0.001235 0.040464 0.003161
22060 -2.3831923500000003 3.83741694 8.629405740000001 0.002306 0.041525 0.003168
22080 -2.38214268 3.82005324 8.63658666 0.002297 0.040456 0.004237
22100 -2.35609713 3.8218484700000004 8.67371751 -0.000904 0.040467 0.004215
22120 -2.37391209 3.8438523000000004 8.669224530000001 -0.000889 0.042602 0.003144
22140 -2.37690414 3.8466972000000004 8.65170387 0.005502 0.041510000000000005 0.004258
22160 -2.3785522200000004 3.88606473 8.65500003 0.015109 0.04148 0.003257
22180 -2.39277672 3.85882236 8.65485288 0.007665000000000002 0.04365 -2e-06
22200 -2.38154427 3.84894369 8.64048123 -0.00298 0.046891 -0.002217
22220 -2.38259394 3.8708003700000004 8.61338601 -0.007291 0.039441 -0.000101
22240 -2.39457195 3.86675865 8.63509554 -0.00409 0.040491 0.0009880000000000002
22260 -2.38154427 3.8586752100000004 8.65844334 0.002321 0.044721 0.003164
22280 -2.39591592 3.8426554800000003 8.63943156 0.001259 0.044729000000000005 0.002088
22300 -2.397564 3.8414586600000002 8.657992080000001 0.000177 0.041537 0.002084
22320 -2.40385221 3.82320225 8.64317898 0.000177 0.042598 0.003151
22340 -2.40729552 3.8284407900000006 8.65485288 0.000173 0.042594 0.004220000000000001
22360 -2.38783248 3.8491006500000005 8.62761051 -0.001956 0.042605 0.003136
22380 -2.38094586 3.8609217 8.64617103 -0.0019760000000000003 0.038344 0.0031420000000000003
22400 -2.3879796300000002 3.86032329 8.65380321 0.000173 0.041533 0.003153
22420 -2.3622381900000002 3.8703491100000003 8.64407169 0.003368 0.040456 0.003176
22440 -2.3667311700000004 3.8529854100000005 8.65066401 0.0033590000000000004 0.039387 0.004246
22460 -2.38005315 3.84625575 8.669371680000001 -0.000909 0.039401 0.004215999999999999
22480 -2.39382639 3.8441564100000005 8.62356879 -0.0040950000000000005 0.041547 0.003123
22500 -2.39112864 3.8538879300000004 8.64512136 -0.003033 0.040478 0.003132
22520 -2.3683792500000003 3.8347290000000003 8.609197140000001 0.000173 0.041533 0.003153
22540 -2.37915063 3.8733411600000003 8.649908640000001 0.003364 0.040452 0.0042450000000000005
22560 -2.40055605 3.87170289 8.654254470000001 0.001239 0.041529 0.00316
22580 -2.3643375300000002 3.85044462 8.647063740000002 0.000177 0.041537 0.002084
22600 -2.3944248 3.82365351 8.637037920000001 -0.003018 0.041552 0.000994
22620 -2.4002617500000003 3.8787366600000004 8.696918160000001 -0.001966 0.039414 0.002072
22640 -2.38005315 3.8977484400000004 8.632996200000001 -0.001966 0.039414 0.002072
22660 -2.3643375300000002 3.85912647 8.594227080000001 -0.000904 0.040467 0.004215
22680 -2.34202959 3.8458044900000004 8.603811450000002 -0.000904 0.039406 0.003148
22700 -2.4111900900000003 3.8360729700000005 8.67925035 0.002302 0.04046 0.003169
22720 -2.3992120800000003 3.8297847600000003 8.67266784 0.00016299999999999998 0.039402 0.0031550000000000003
22740 -2.3831923500000003 3.86197137 8.58525093 -0.0008990000000000002 0.040471 0.003147
22760 -2.37960189 3.86511057 8.61309171 -0.003038 0.041535 0.005267
22780 -2.35176111 3.88082619 8.660836980000001 -0.005181 0.040473 0.006321
22800 -2.3656815 3.87484209 8.64512136 0.00016299999999999998 0.039402 0.0031550000000000003
22820 -2.39261976 3.85328952 8.64662229 0.004445 0.040461 0.001047
22840 -2.40534333 3.83622012 8.626864950000002 0.006579000000000001 0.039392 -5e-06
22860 -2.38199553 3.83098158 8.631348120000002 0.00444 0.039396 0.001049
22880 -2.37092004 3.8315799900000003 8.626109580000001 0.00016299999999999998 0.039402 0.0031550000000000003
22900 -2.37465765 3.84190992 8.62835607 -0.005171 0.042604 0.006319
22920 -2.39681844 3.8838280500000004 8.63794044 -0.007315 0.041542 0.007373
22940 -2.3822996400000003 3.87424368 8.64242361 -0.006248 0.040477 0.006314
22960 -2.3833395 3.8495421 8.63045541 -0.0008990000000000002 0.040471 0.003147
22980 -2.36178693 3.8417627700000003 8.626109580000001 0.002306 0.039403 0.001034
23000 -2.37151845 3.84221403 8.641079640000001 0.004459 0.040474 -0.002157
23020 -2.37900348 3.86496342 8.638381890000002 0.001244 0.039411 -4.2e-05
23040 -2.39562162 3.87304686 8.62835607 -0.0008990000000000002 0.040471 0.003147
23060 -2.37271527 3.88816407 8.62925859 -0.0030280000000000003 0.041544 0.00313
23080 -2.36268945 3.86646435 8.6503599 -0.004109000000000001 0.040474 0.005261
23100 -2.38199553 3.8529854100000005 8.638538850000002 -0.004109000000000001 0.041535 0.006327
23120 -2.40968916 3.8466972000000004 8.63524269 -0.003052 0.0394 0.006338
23140 -2.4062458500000004 3.86047044 8.626109580000001 -0.001985 0.039397 0.006345
23160 -2.38514454 3.8553790500000003 8.645572620000001 0.00015800000000000002 0.039398 0.004224
23180 -2.3605901100000004 3.86720991 8.65530414 -0.0008990000000000002 0.040471 0.003147
23200 -2.36642706 3.86825958 8.63943156 0.002292 0.040451 0.005305
23220 -2.39696559 3.8823271200000002 8.61952707 0.010822 0.039356 0.005365999999999999
23240 -2.40999327 3.8555360100000002 8.625216870000001 0.003383 0.040469 -2.8000000000000006e-05
23260 -2.40474492 3.83831946 8.62402005 -0.001928 0.044753 -0.001139
23280 -2.35594998 3.8384666100000002 8.64482706 -0.00409 0.040491 0.0009880000000000002
23300 -2.35370349 3.82664556 8.654705730000002 -0.005176 0.041538 0.00632
23320 -2.36343501 3.8549376 8.65664811 0.000168 0.04365 0.006355
23340 -2.39591592 3.86465931 8.618928660000002 0.000173 0.043655 0.005286
23360 -2.39950638 3.91196313 8.63674362 -0.001961 0.04154 0.003138
23380 -2.37900348 3.89639466 8.62761051 -0.004104 0.039417 0.003125
23400 -2.3724209700000003 3.84685416 8.64646533 -0.003047 0.038344 0.004202
23420 -2.37151845 3.8592736199999997 8.64078534 -0.003047 0.038344 0.004202
23440 -2.39486625 3.8663073900000002 8.633594610000001 -0.004128 0.038335 0.0074
23460 -2.4055002900000004 3.85912647 8.6355468 -0.0052 0.039395 0.009527
23480 -2.3893334100000003 3.8568799800000004 8.63449713 -0.004118999999999999 0.041526 0.008464
23500 -2.39337513 3.8728997100000004 8.6389803 0.000139 0.039381 0.008496
23520 -2.38244679 3.86077455 8.633143350000001 0.000144 0.039385 0.007428
23540 -2.3656815 3.89175453 8.62431435 -0.000923 0.04045 0.008487
23560 -2.37765951 3.87319401 8.637489180000001 -0.000937 0.036193 0.007425
23580 -2.38498758 3.85029747 8.62282323 0.001196 0.036185 0.00744
23600 -2.3932279800000003 3.8526911100000003 8.62326468 0.001201 0.038312 0.008505
23620 -2.38379076 3.84490197 8.64512136 0.002263 0.038304000000000005 0.009581
23640 -2.38139712 3.8567328300000003 8.6591889 0.001196 0.038307 0.009573
23660 -2.38110282 3.8444507100000003 8.62910163 0.000129 0.038311000000000005 0.009566
23680 -2.3890293000000002 3.8242519200000005 8.653204800000001 0.001196 0.038307 0.009573
23700 -2.41552611 3.9133169100000003 8.693474850000001 0.000125 0.038307 0.010634
23720 -2.3724209700000003 3.8845736100000003 8.653656060000001 -0.002004 0.038319 0.009551
23740 -2.3596974 3.8261943 8.58913569 -0.002 0.038323 0.008483
23760 -2.38379076 3.8455003800000003 8.642727720000002 0.000139 0.037259 0.006363000000000001
23780 -2.4089436 3.8426554800000003 8.696761200000001 0.000139 0.037259 0.006363000000000001
23800 -2.3992120800000003 3.8491006500000005 8.624912759999999 0.000139 0.03832 0.007429000000000002
23820 -2.3540076 3.8673570600000002 8.613690120000001 -0.000923 0.038328 0.006354
23840 -2.36149263 3.88098315 8.63913726 0.001225 0.040455 0.005298
23860 -2.3601388500000002 3.8761860599999998 8.66099394 0.002287 0.039386 0.005307
23880 -2.37945474 3.87170289 8.63778348 0.002292 0.041512 0.006372
23900 -2.39067738 3.84939495 8.62342164 0.004425999999999999 0.041505 0.006387
23920 -2.40175287 3.8317271400000004 8.64093249 0.004416 0.040435000000000006 0.007456999999999998
23940 -2.38857804 3.8470013100000005 8.65978731 0.00122 0.03939 0.005299
23960 -2.3812499700000003 3.8446076700000003 8.63464428 0.000149 0.039389 0.00636
23980 -2.35879488 3.86017614 8.642276460000001 -0.000923 0.04045 0.008487
24000 -2.38678281 3.88038474 8.67176532 -0.000918 0.039393 0.006352
24020 -2.40938505 3.8606175900000004 8.610845220000002 -0.001971 0.04047 0.004207
24040 -2.3632878600000002 3.83726979 8.634948390000002 -0.00198 0.039401 0.005277
24060 -2.36941911 3.8637666 8.653057650000001 0.00123 0.039398 0.003163
24080 -2.36298375 3.86646435 8.6591889 0.003368 0.040456 0.003176
24100 -2.375256060000001 3.86032329 8.638234740000001 0.000168 0.040467 0.003154
24120 -2.3712143400000003 3.87603891 8.64422865 -0.003033 0.041539 0.004198
24140 -2.35295793 3.8817287100000004 8.629552890000001 -0.001956 0.041544 0.00207
24160 -2.3635821600000004 3.87125163 8.641825200000001 -0.001928 0.044753 -0.001139
24180 -2.3755601700000004 3.87154593 8.653656060000001 -0.001932 0.042627 -0.002205
24200 -2.3742162 3.87020196 8.65545129 0.001235 0.040464 0.003161
24220 -2.3921783100000003 3.87903096 8.641982160000001 0.006593000000000001 0.041527 -0.001075
24240 -2.35221237 3.8583809100000006 8.627757660000002 0.003416 0.044743 -0.0032380000000000004
24260 -2.36044296 3.8684067300000002 8.659493009999998 -0.002966 0.047965 -0.004355
24280 -2.3622381900000002 3.8564287200000003 8.66382903 -0.007252 0.04478 -0.0033130000000000004
24300 -2.35490031 3.8568799800000004 8.656795259999999 -0.004052 0.044769 -0.00329
24320 -2.35385064 3.8393691300000006 8.608893029999999 -0.001899 0.047961 -0.004348
24340 -2.36314071 3.8417627700000003 8.66188665 -0.001923 0.042635 -0.004340999999999999
24360 -2.36972322 3.84520608 8.653057650000001 -0.003009 0.041561 -0.001142
24380 -2.35819647 3.8487965400000004 8.656049700000002 -0.000875 0.041553 -0.001128
24400 -2.3572939500000003 3.86989785 8.65155672 -0.0008849999999999998 0.040484 -5.8e-05
24420 -2.35205541 3.86137296 8.65994427 -0.004085 0.041556 0.000986
24440 -2.3652302400000003 3.88517202 8.665329960000001 -0.007281 0.041571 -0.000104
24460 -2.36073726 3.8559774600000005 8.64242361 -0.006214 0.042629 0.00097
24480 -2.3760114300000006 3.8609217 8.646318180000002 -0.004085 0.043678 0.00312
24500 -2.38648851 3.8740965300000005 8.638686000000002 -0.00088 0.04261 0.001007
24520 -2.37301938 3.87185004 8.6591889 0.000192 0.04155 -0.00112
24540 -2.3683792500000003 3.8708003700000004 8.634791430000002 0.000192 0.04155 -0.00112
24560 -2.34353052 3.8556831600000003 8.648564669999999 0.000187 0.040484 -0.001119
24580 -2.3436776700000004 3.86885799 8.63210349 -0.000889 0.04048 0.00101
24600 -2.36477898 3.86256978 8.62746336 0.001244 0.040472 0.001025
24620 -2.3369382 3.8757446100000004 8.6588946 -0.000889 0.041541 0.002077
24640 -2.33798787 3.89639466 8.65530414 -0.0008939999999999998 0.041536 0.003145
24660 -2.35444905 3.86556183 8.66068983 -0.001966 0.040475 0.003139
24680 -2.3722640100000003 3.84490197 8.64617103 -0.0008990000000000002 0.040471 0.003147
24700 -2.39636718 3.87649017 8.66398599 -0.001961 0.04154 0.003138
24720 -2.3575980600000004 3.86646435 8.65994427 -0.0008990000000000002 0.038349 0.001013
24740 -2.3616397800000004 3.8327768100000004 8.599318470000002 0.003378 0.041526 0.002107
24760 -2.3743633500000003 3.88606473 8.62790481 0.002316 0.040473 -3.6e-05
24780 -2.38484043 3.87453798 8.678357640000002 0.00015800000000000002 0.038337 0.003157
24800 -2.37974904 3.86541468 8.64392454 0.004425999999999999 0.038322 0.003186
24820 -2.37151845 3.8694564000000002 8.57970828 0.010793 0.036148 0.008575
24840 -2.34906336 3.8666115000000003 8.62461846 0.016099000000000002 0.036103 0.015021
24860 -2.35370349 3.8622656699999998 8.6327019 0.024619 0.037122 0.019352
24880 -2.34771939 3.86181441 8.644974209999999 0.032083 0.034969 0.018339
24900 -2.35984455 3.8555360100000002 8.641226790000001 0.035322000000000006 0.037114 0.01195
24920 -2.37660984 3.84819813 8.64392454 0.043876 0.036041 0.006670000000000001
24940 -2.38199553 3.85164144 8.67161817 0.050291 0.03497 0.002443
24960 -2.3921783100000003 3.84221403 8.650811160000002 0.055621 0.031764 0.000348
24980 -2.37286242 3.8299319100000004 8.6734134 0.051353 0.031779 0.00031800000000000003
25000 -2.37646269 3.84565734 8.638381890000002 0.034303 0.035039 -0.000874
25020 -2.35505727 3.8585280600000003 8.61233634 0.024701 0.036133 0.000126
25040 -2.37301938 3.86465931 8.64646533 0.019371 0.038278 0.001154
25060 -2.38409487 3.8675042100000003 8.66009142 0.01297 0.03724 4.3e-05
25080 -2.38738122 3.8697507 8.64602388 0.008717 0.037267 -0.003192
25100 -2.38034745 3.84984621 8.63524269 0.016184999999999998 0.038302 -0.002072
25120 -2.3781009600000003 3.87393957 8.62910163 0.035413 0.0425 -0.003012
25140 -2.37869937 3.8796293700000004 8.65275354 0.037542 0.042489 -0.001929
25160 -2.39457195 3.87349812 8.64317898 0.026868 0.045705 0.002266
25180 -2.40459777 3.8724484500000003 8.65140957 0.024701 0.041438 0.005461
25200 -2.38843089 3.8895080400000004 8.65695222 0.026791 0.038209 0.011889
25220 -2.368673550000001 3.8583809100000006 8.63464428 0.026825 0.046727 0.012946
25240 -2.3516139600000003 3.8520927000000005 8.645866920000001 0.025772000000000003 0.049927 0.012935
25260 -2.3523595200000003 3.85149429 8.649163080000001 0.022586 0.052073 0.011841
25280 -2.3656815 3.81870927 8.642129310000001 0.015133 0.04999 0.006451
25300 -2.35475316 3.81212676 8.627757660000002 0.0034020000000000005 0.047913 0.003167
25320 -2.37586428 3.80464173 8.65619685 -0.006166 0.050098 -0.0022440000000000003
25340 -2.36972322 3.8285879400000002 8.64796626 -0.006176 0.046907 -0.003308
25360 -2.3540076 3.83038317 8.62326468 -0.008338 0.039462 -0.004382
25380 -2.36747673 3.8941481700000002 8.625962430000001 -0.012615 0.039468 -0.002275
25400 -2.3276579400000004 3.94355133 8.65380321 -0.0073 0.038371 0.000968
25420 -2.348769060000001 3.93726312 8.67415896 0.001235 0.037281 -3.9e-05
25440 -2.3632878600000002 3.8981898900000003 8.629552890000001 0.009813 0.03835 -0.008526
25460 -2.36343501 3.87738288 8.64062838 0.019429 0.040451 -0.00953
25480 -2.34502164 3.9383127900000003 8.615181240000002 0.023711000000000003 0.042571 -0.010571
25500 -2.33784072 3.9451994100000003 8.6327019 0.020515 0.04577 -0.008461
25520 -2.34083277 3.9210962400000002 8.61577965 0.028987 0.042501 0.002284
25540 -2.34397197 3.96421119 8.62925859 0.026868 0.05101 0.0076
25560 -2.3466697200000004 3.9866564700000002 8.60874588 0.031136 0.053117 0.009763
25580 -2.38962771 3.96689913 8.63449713 0.031068 0.042447000000000006 0.01405
25600 -2.41088598 3.8962475100000002 8.634948390000002 0.003416 0.056414 0.008497
25620 -2.397564 3.92767875 8.633300310000001 0.017185 0.041422 0.01609
25640 -2.3716656 3.9243924000000003 8.57940417 -0.012687 0.037282 0.011614
25660 -2.37496176 3.9152592900000003 8.54288154 -0.028566 0.055486 0.001866
25680 -2.38184838 3.89115612 8.59527675 0.022457 0.02225 0.010811
25700 -2.38978467 3.8838280500000004 8.649467190000001 -0.022232 0.032062 -0.006606
25720 -2.42286399 3.92887557 8.648564669999999 -0.017859 0.050178 -0.011939
25740 -2.4025082400000004 3.9627102600000006 8.61623091 0.027738 0.014757 0.01513
25760 -2.33320059 3.9917478600000003 8.56608219 -0.030723 0.044862 -0.0034770000000000005
25780 -2.3204770200000002 4.05462015 8.60336019 -0.01585 0.04051 0.006247
25800 -2.32497 4.07796795 8.60096655 0.01496 0.025433 0.020368
25820 -2.3474152800000003 4.07377908 8.5723704 -0.018964 0.058635 0.0051340000000000005
25840 -2.33858628 4.04234784 8.57296881 0.004359 0.038262 0.018141
25860 -2.30595822 4.0300657200000005 8.565336630000001 0.00755 0.031876 0.013899000000000002
25880 -2.3017595400000004 3.99219912 8.578060200000001 -0.014668 0.071378 0.011557
25900 -2.351457 3.9348694800000006 8.58405411 0.004344 0.031883 0.014944999999999996
25920 -2.35520442 3.92289147 8.59616946 -0.012587 0.046921 -0.001216
25940 -2.37615858 3.9489370200000002 8.629552890000001 -0.033929 0.048052 0.0007700000000000001
25960 -2.3346917100000004 3.8856232800000003 8.58300444 -0.06817899999999999 0.022609 -0.000505
25980 -2.37840507 3.9112175700000003 8.597817540000001 -0.090429 0.041922 -0.01564
26000 -2.4328898100000007 3.8972971800000002 8.63210349 -0.091443 0.043033 -0.026331
26020 -2.46866688 3.8550847500000005 8.59662072 -0.076411 0.053677 -0.036922
26040 -2.4730029000000004 3.94055928 8.585996490000001 -0.057141 0.068523 -0.036806
26060 -2.4551977500000004 3.9549211200000003 8.593177410000001 -0.034722 0.068458 -0.039854
26080 -2.34592416 4.00686507 8.54842419 -0.027307 0.06201900000000001 -0.034453
26100 -2.36762388 4.15341666 8.632996200000001 -0.01881 0.063016 -0.024781
26120 -2.36178693 3.98561661 8.52701877 -0.002927 0.050121 -0.010767
26140 -2.27451717 4.20011226 8.54318565 0.0033590000000000004 0.036204 0.001045
26160 -2.37675699 4.17167307 8.593177410000001 0.010788 0.031899000000000004 0.005376
26180 -2.32406748 3.7712583 8.45995761 0.019338 0.034004 0.004364
26200 -2.2659922800000003 4.25968839 8.594079930000001 0.022524 0.028675 0.002257
26220 -2.40086016 4.065244379999999 8.71936344 0.012916999999999998 0.028705 0.003258
26240 -2.2418891100000002 3.67530669 8.478822240000001 -0.00199 0.035148 0.003146
26260 -2.30715504 4.24427688 8.55665478 -0.00409 0.036247 -0.00328
26280 -2.47405257 3.88577043 8.73822807 0.001307 0.041588 -0.011795
26300 -2.31119676 3.6895311900000003 8.497677060000001 0.0024170000000000003 0.043745 -0.019267
26320 -2.44202292 4.18664313 8.534650950000001 0.001369 0.049071 -0.018213
26340 -2.46312423 3.83726979 8.737031250000001 0.006670000000000001 0.043717 -0.016033000000000002
26360 -2.34996588 3.8724484500000003 8.55516366 0.011946 0.038343 -0.008511
26380 -2.49516369 4.255048260000001 8.50755573 0.00976 0.038303 0.0032240000000000003
26400 -2.36193408 3.9172016700000003 8.67700386 0.004354 0.036136 0.017075999999999997
26420 -2.3947191 4.004618580000001 8.55935253 0.006468000000000001 0.03505 0.020296
26440 -2.43498915 4.257598860000002 8.508909509999999 0.012855000000000002 0.031832 0.020345
26460 -2.3104413900000003 4.06404756 8.648711819999999 0.005368 0.032902 0.025633
26480 -2.3568525 4.0635963 8.658747450000002 -0.011697 0.039332 0.030846
26500 -2.38139712 3.9306806100000005 8.6503599 -0.022371 0.039365 0.03184
26520 -2.39142294 3.8508958800000004 8.69167962 -0.024514 0.036181 0.030761
26540 -2.3722640100000003 3.8597248800000004 8.643777390000002 -0.027671 0.042597 0.027526
26560 -2.41927353 3.8898121500000005 8.64602388 -0.032977 0.043702 0.022146
26580 -2.40804108 3.91241439 8.55531081 -0.032977 0.040519 0.018946
26600 -2.4022041300000003 3.8761860599999998 8.486454420000001 -0.028705 0.036264 0.01364
26620 -2.368673550000001 3.92334273 8.466844230000001 -0.022294 0.033067 0.008348000000000001
26640 -2.37765951 3.91855545 8.57342007 -0.014811 0.030932 0.003062
26660 -2.3870869200000002 3.9098736000000005 8.637489180000001 -0.005219 0.029829 0.004198
26680 -2.31792642 3.8812774500000002 8.658590490000002 -0.000957 0.029810000000000007 0.005296
26700 -2.3164353 3.87319401 8.608893029999999 9.1e-05 0.029789 0.009576
26720 -2.34652257 3.8529854100000005 8.63943156 -0.005243 0.030869 0.010606
26740 -2.38244679 3.88067904 8.67221658 -0.004162 0.034061 0.01061
26760 -2.40010479 3.8492478 8.66547711 -0.006291 0.035133 0.010593
26780 -2.42765127 3.8420570700000005 8.657246520000001 -0.007353 0.035141000000000006 0.009518
26800 -2.4007032 3.88067904 8.62431435 -0.0052 0.037273 0.007393
26820 -2.42735697 3.8865159900000004 8.60874588 -0.002 0.038323 0.008483
26840 -2.4459174900000002 3.89385387 8.56518948 0.005473 0.039362 0.008534
26860 -2.44291563 3.8926570500000004 8.55021942 0.0065450000000000005 0.038302 0.006406
26880 -2.4281025300000003 3.92169465 8.56428696 0.005483 0.036188 0.003197
26900 -2.410591680000001 3.89010645 8.55680193 0.005497 0.034078 -0.002142
26920 -2.37481461 3.90687174 8.58210192 0.009765 0.03088 -0.005312
26940 -2.4141821400000003 3.9275316 8.59123503 0.010851 0.033016000000000004 -0.007444
26960 -2.4313986900000004 3.9434041800000004 8.622519120000002 0.009784 0.031958 -0.008518000000000001
26980 -2.44157166 3.91076631 8.633143350000001 0.005493 0.030891 -0.004274
27000 -2.42465922 3.8802277800000002 8.63569395 0.000144 0.03408 0.002094
27020 -2.41028757 3.86541468 8.65739367 -0.003062 0.036209 0.005273
27040 -2.40235128 3.89385387 8.64407169 -0.009463 0.038353 0.007362
27060 -2.4209118000000007 3.9357621899999997 8.62746336 -0.008434 0.037254 0.014847999999999997
27080 -2.4267487500000002 3.94055928 8.5979745 -0.000971 0.036163 0.014902
27100 -2.4180669 3.9380086800000003 8.55665478 -0.002023 0.03618 0.01169
27120 -2.40744267 3.93905835 8.56728882 -0.00198 0.043645 0.009544
27140 -2.42226558 3.9547739700000006 8.60829462 -0.000913 0.043641 0.009552
27160 -2.36747673 3.91675041 8.613533160000001 0.002282 0.040443 0.007442
27180 -2.3466697200000004 3.9155535900000005 8.62206786 0.000173 0.043655 0.005286
27200 -2.2870935900000005 3.87154593 8.658747450000002 -0.001952 0.041549 0.001001
27220 -2.274968430000001 3.8567328300000003 8.697663720000001 -0.006233 0.039429 0.002042
27240 -2.29517703 3.82664556 8.704844640000001 -0.011568 0.038386 0.000938
27260 -2.34891621 3.8154131100000006 8.73478476 -0.0062380000000000005 0.039424 0.003111
27280 -2.33020854 3.8146675500000002 8.697663720000001 -0.00731 0.039424 0.004171
27300 -2.35699965 3.8218484700000004 8.66038572 -0.009444 0.039431 0.004156
27320 -2.38558599 3.83592582 8.63958852 -0.009439 0.040497000000000005 0.004155
27340 -2.4055002900000004 3.8755876500000004 8.61473979 -0.006214 0.042629 0.00097
27360 -2.42301114 3.9082255200000002 8.59917132 -0.005143 0.042629 -9.1e-05
27380 -2.45159748 3.93936246 8.57956113 -0.007252 0.04478 -0.0033130000000000004
27400 -2.4581898000000004 3.96899847 8.57865861 -0.007248 0.044784 -0.004381
27420 -2.42301114 3.95462682 8.57925702 -0.004047 0.044773 -0.004359
27440 -2.4043034700000003 3.92783571 8.61069807 -0.001913 0.044766 -0.004344
27460 -2.3662799100000003 3.9044781 8.619075810000002 -0.0008460000000000001 0.045823 -0.003269
27480 -2.34996588 3.8883112200000003 8.62461846 -0.000842 0.045827 -0.004337
27500 -2.33274933 3.8751462 8.647367850000002 -0.004047 0.043712 -0.005425
27520 -2.3173280099999998 3.8711044800000005 8.66099394 -0.004057 0.043704 -0.0032890000000000003
27540 -2.29098816 3.8959532100000005 8.6876379 -0.005128 0.041581 -0.004362
27560 -2.2975706700000007 3.8694564000000002 8.67999591 -0.001928 0.04157 -0.00434
27580 -2.3305028400000003 3.8492478 8.649908640000001 -0.002994 0.043696 -0.002213
27600 -2.3414311800000007 3.90612618 8.654705730000002 -0.0008560000000000001 0.043692 -0.0032670000000000004
27620 -2.3656815 3.8703491100000003 8.612493299999999 -0.001937 0.042622 -0.001136
27640 -2.3770611 3.85628157 8.57133054 -0.003018 0.041552 0.000994
27660 -2.37586428 3.8787366600000004 8.59692483 -0.003018 0.040491 -7.3e-05
27680 -2.397564 3.8706532200000003 8.649761490000001 -0.003023 0.039426 -7.2e-05
27700 -2.37974904 3.9104720100000003 8.633898720000001 0.000192 0.042611 -5.3e-05
27720 -2.35924614 3.93980391 8.6070978 0.001244 0.040472 0.001025
27740 -2.33425026 3.91270869 8.63179938 0.001244 0.040472 0.001025
27760 -2.33155251 3.8965516200000003 8.66038572 -0.003018 0.041552 0.000994
27780 -2.3456200500000004 3.8779812900000006 8.64781911 -0.005167000000000001 0.041547 0.004184
27800 -2.3281092 3.89340261 8.62806177 -0.0062380000000000005 0.040485 0.004177
27820 -2.32182099 3.8899593 8.658296190000002 -0.006233 0.039429 0.002042
27840 -2.30161239 3.88322964 8.648868779999999 -0.002999 0.043691 -0.001145
27860 -2.3155327800000003 3.89715003 8.67895605 -0.002999 0.041569 -0.003279
27880 -2.33604549 3.9019373100000005 8.670274200000001 -0.001937 0.041561 -0.002203
27900 -2.35190826 3.87274275 8.64422865 -0.0008699999999999999 0.040497000000000005 -0.0032630000000000003
27920 -2.36657421 3.84310674 8.625216870000001 -0.000866 0.040501 -0.004331000000000001
27940 -2.3534091900000003 3.84729561 8.63165223 -0.000866 0.041562 -0.003264
27960 -2.38857804 3.8627169300000004 8.662337910000002 0.006579000000000001 0.041514 0.002129
27980 -2.38888215 3.86915229 8.63509554 0.011918000000000002 0.042561 0.002165
28000 -2.37376494 3.8823271200000002 8.621175150000001 0.009817 0.046842 -0.00106
28020 -2.38154427 3.89998512 8.633594610000001 0.002369 0.051129 -0.001117
28040 -2.36314071 3.91571055 8.649761490000001 0.0012779999999999998 0.046868 -5.1e-05
28060 -2.3652302400000003 3.89400102 8.6039586 0.004464 0.044722000000000005 0.001042
28080 -2.36253249 3.87424368 8.636292359999999 0.003416 0.048987 0.001029
28100 -2.36657421 3.87903096 8.61862455 0.001263 0.045794 0.0020870000000000003
28120 -2.37271527 3.8366713800000003 8.62641369 -0.005147 0.042625 0.000978
28140 -2.37840507 3.85283826 8.649015930000001 -0.006209 0.040511 -0.002232
28160 -2.35580283 3.85418223 8.64676944 -0.007252 0.042658 -0.005446
28180 -2.38139712 3.83622012 8.62910163 -0.00619 0.040528 -0.006505
28200 -2.397564 3.84190992 8.61608376 -0.006195 0.041585 -0.004369
28220 -2.37900348 3.86421786 8.64422865 -0.004057 0.042643 -0.0043560000000000005
28240 -2.3635821600000004 3.86077455 8.64796626 -0.005143 0.042629 -9.1e-05
28260 -2.3713713000000007 3.86915229 8.653204800000001 -0.00409 0.041552 0.002055
28280 -2.36314071 3.87903096 8.63689077 -0.001966 0.041536 0.0042060000000000005
28300 -2.35774521 3.87933507 8.606499390000002 0.000177 0.042598 0.003151
28320 -2.36448468 3.89191149 8.63150508 0.003364 0.041513 0.005311
28340 -2.37586428 3.8839752 8.65066401 0.008698000000000001 0.041494 0.0053490000000000005
28360 -2.35609713 3.8844264600000002 8.66563407 0.015085 0.040398 0.007531
28380 -2.3483178000000002 3.86316819 8.64258057 0.012956 0.041471 0.007515000000000002
28400 -2.3346917100000004 3.8446076700000003 8.655147180000002 0.012941 0.039336 0.008586
28420 -2.34353052 3.8423611800000006 8.63524269 0.006559000000000001 0.042558 0.007469
28440 -2.3599917 3.8404089900000002 8.66637963 0.003368 0.041517 0.004243
28460 -2.35699965 3.8491006500000005 8.65485288 -0.001966 0.040475 0.003139
28480 -2.38484043 3.8267927100000003 8.64287487 -0.006233 0.039429 0.002042
28500 -2.41327962 3.8597248800000004 8.665781220000001 -0.007295 0.038376 -0.0001
28520 -2.4141821400000003 3.8962475100000002 8.65215513 -0.006233 0.037307 -9.1e-05
28540 -2.40385221 3.85044462 8.619075810000002 -0.005157 0.040494 0.00098
28560 -2.37869937 3.8594207700000003 8.611737930000002 -0.0041 0.039421 0.002057
28580 -2.40145857 3.8471484600000005 8.64332613 -0.00409 0.03943 -7.900000000000001e-05
28600 -2.38543884 3.8761860599999998 8.653204800000001 -0.0008849999999999998 0.040484 -5.8e-05
28620 -2.37750255 3.88038474 8.621616600000001 -0.000889 0.041541 0.002077
28640 -2.35520442 3.9013389000000003 8.61428853 0.003373 0.041521 0.003175
28660 -2.34891621 3.93965676 8.645425470000001 0.005512 0.04364 0.004255
28680 -2.3321509200000006 3.9101679000000003 8.647220700000002 0.00977 0.042556 0.005355
28700 -2.34966177 3.89459943 8.63913726 0.012975 0.04361 0.005376
28720 -2.35011303 3.85822395 8.62371594 0.012980000000000002 0.044675 0.005375
28740 -2.3611885200000002 3.8420570700000005 8.64033408 0.0076409999999999985 0.044689 0.006405
28760 -2.36193408 3.81092994 8.65140957 0.002302 0.041521 0.004236
28780 -2.3466697200000004 3.79625418 8.640186930000002 -0.001971 0.039409 0.00314
28800 -2.38079871 3.81436344 8.66263221 -0.005167000000000001 0.040486 0.003117
28820 -2.40474492 3.8091249000000005 8.65215513 -0.008376999999999999 0.038367 0.003097
28840 -2.40474492 3.8191605300000004 8.6355468 -0.005176 0.038355 0.003119
28860 -2.41298532 3.83861376 8.62371594 -0.003042 0.036226 0.001001
28880 -2.43917802 3.83921217 8.62656084 -0.001961 0.039418 0.001004
28900 -2.4322914 3.85014051 8.62910163 0.006569 0.040445 0.003199
28920 -2.41358373 3.8719971900000005 8.62835607 0.012994 0.041505 -0.001031
28940 -2.38558599 3.8962475100000002 8.63674362 0.004493 0.045809 -0.0043
28960 -2.3724209700000003 3.9125615400000004 8.617574880000001 -0.001899 0.049022 -0.003281
28980 -2.3511627 3.94145199 8.64811341 -0.00088 0.04261 0.001007
29000 -2.37376494 3.95118351 8.6415309 0.002321 0.04366 0.002097
29020 -2.37092004 3.9212433900000003 8.62192071 0.00234 0.047921 0.002091
29040 -2.37017448 3.8782854000000007 8.62910163 -0.001947 0.044736 0.003134
29060 -2.34697383 3.8556831600000003 8.65500003 -0.005152 0.04156 0.0009789999999999998
29080 -2.34652257 3.85014051 8.657099370000001 -0.007286 0.040506 -0.000103
29100 -2.35370349 3.8437051500000003 8.65485288 -0.005152 0.040499 -8.8e-05
29120 -2.37690414 3.83592582 8.65186083 -0.005152 0.039438 -0.001155
29140 -2.37106719 3.83382648 8.65664811 -0.005157 0.040494 0.00098
29160 -2.3881365900000002 3.7986478200000002 8.645572620000001 -0.005162 0.04049 0.002049
29180 -2.3936694300000005 3.8272439700000005 8.64048123 -0.00409 0.040491 0.0009880000000000002
29200 -2.43004491 3.82320225 8.64617103 -0.003033 0.040478 0.003132
29220 -2.4234624 3.84520608 8.636439509999999 -0.0030280000000000003 0.041544 0.00313
29240 -2.4209118000000007 3.8706532200000003 8.6327019 -0.006224 0.04262 0.003107
29260 -2.40564744 3.8943051300000002 8.649908640000001 -0.0008990000000000002 0.041532 0.004213000000000001
29280 -2.38214268 3.9306806100000005 8.601260850000001 0.002297 0.040456 0.004237
29300 -2.336791050000001 3.9365175600000004 8.62192071 0.002292 0.040451 0.005305
29320 -2.35625409 3.95716761 8.6327019 0.000134 0.037254 0.007431
29340 -2.3564012400000003 3.9218418000000006 8.62761051 -0.003062 0.038331 0.007406999999999999
29360 -2.3457672 3.8766373200000004 8.63194653 -0.003047 0.039405 0.005268999999999999
29380 -2.3782579200000002 3.8657089800000004 8.658590490000002 -0.003057 0.037274 0.005272
29400 -2.37077289 3.8357688600000004 8.63943156 -0.003062 0.038331 0.007406999999999999
29420 -2.39307102 3.80718252 8.65186083 -0.003047 0.039405 0.005268999999999999
29440 -2.41732134 3.7914669 8.65619685 -0.001995 0.037266 0.006348
29460 -2.39771115 3.9041838 8.694367560000002 -0.002 0.037262 0.007416
29480 -2.38993182 3.8420570700000005 8.617427730000001 -0.002 0.037262 0.007416
29500 -2.38110282 3.8306872800000002 8.581356360000001 -0.003062 0.03727 0.00634
29520 -2.38648851 3.8684067300000002 8.63794044 -0.000937 0.037254 0.008491
29540 -2.41073883 3.88247427 8.669224530000001 0.000139 0.03832 0.007429000000000002
29560 -2.39681844 3.87888381 8.61323886 0.001191 0.036181 0.008508
29580 -2.35190826 3.9098736000000005 8.58015954 0.002263 0.038304000000000005 0.009581
29600 -2.36702547 3.90687174 8.60785317 -0.002019 0.037245 0.011689
29620 -2.3688207 3.90402684 8.633300310000001 -0.002004 0.038319 0.009551
29640 -2.39531751 3.88606473 8.62206786 -0.000928 0.038323 0.007422
29660 -2.4146334 3.8499933600000005 8.62746336 0.001215 0.039385 0.006367
29680 -2.4221086200000004 3.85792965 8.61982137 0.001206 0.038316 0.007437
29700 -2.39966334 3.8357688600000004 8.63973567 0.00334 0.03937 0.008519
29720 -2.37496176 3.83397363 8.64811341 0.005478 0.039366000000000005 0.007465
29740 -2.37840507 3.8414586600000002 8.656795259999999 0.004406 0.039366000000000005 0.008526
29760 -2.3900789700000002 3.8393691300000006 8.657246520000001 0.002268 0.036186 0.006379
29780 -2.39247261 3.83891787 8.64676944 0.001191 0.037242 0.009575
29800 -2.3712143400000003 3.8267927100000003 8.63060256 -0.000918 0.039393 0.006352
29820 -2.37570732 3.84984621 8.638686000000002 -0.001966 0.041536 0.0042060000000000005
29840 -2.3872340700000003 3.8666115000000003 8.64961434 -0.000913 0.040458 0.006351
29860 -2.39307102 3.8713987800000003 8.629700040000001 0.009741 0.040408 0.00963
29880 -2.39502321 3.8883112200000003 8.641982160000001 0.007626000000000002 0.039372 0.004275999999999999
29900 -2.4059515500000006 3.8737924200000005 8.637185070000001 0.004445 0.044705 0.005315
29920 -2.40190983 3.8817287100000004 8.63210349 0.002316 0.043656 0.003165
29940 -2.410591680000001 3.86541468 8.653351950000001 0.001254 0.042603 0.001022
29960 -2.37840507 3.8609217 8.61937992 0.00555 0.045796 -0.002156
29980 -2.40010479 3.83831946 8.626864950000002 0.001259 0.043668 0.001021
30000 -2.38438917 3.843558 8.62206786 -0.0030280000000000003 0.040483 0.002063
30020 -2.37346083 3.85957773 8.629857000000001 -0.005167000000000001 0.040486 0.003117
30040 -2.3830452 3.8675042100000003 8.629405740000001 -0.001966 0.041536 0.0042060000000000005
30060 -2.3833395 3.85283826 8.621018190000001 0.00015800000000000002 0.04152 0.006357
30080 -2.37900348 3.85164144 8.62057674 0.000144 0.039385 0.007428
30100 -2.36582865 3.8444507100000003 8.63045541 -0.003047 0.040466 0.006336
30120 -2.3822996400000003 3.8564287200000003 8.6503599 -0.004109000000000001 0.041535 0.006327
30140 -2.37151845 3.86465931 8.62820892 -0.003042 0.04047 0.005268
30160 -2.380651560000001 3.8628640800000005 8.643473279999998 -0.001961 0.042601 0.004205
30180 -2.3725681200000004 3.86211852 8.633300310000001 -0.0008849999999999998 0.042606 0.002076
