time Ax Ay Az Gx Gy Gz
20 -7.1717378400000005 1.47398193 7.600895909999999 -0.159957 -0.345046 0.112556
40 -6.79137471 1.7404313400000002 7.3054089 0.009576 -0.145305 0.09853
60 -6.7762575 1.47203955 7.12713177 0.078377 -0.032613 0.095661
80 -6.92400591 1.53670707 7.0344763200000004 0.08012000000000001 0.10167 0.079478
100 -6.8214619800000005 1.3078299600000003 7.03596744 0.123212 0.145393 0.030585
120 -6.77775843 0.9532180800000001 6.8813422200000005 0.143401 0.068858 -0.027929
140 -6.33408156 0.9172938600000001 6.14098152 0.09357 0.105384 -0.061438
160 -6.149663370000001 0.53678358 7.0760805300000005 0.133331 0.119295 -0.11138499999999997
180 -5.90372667 0.82194066 8.690629950000002 0.112898 0.054499 -0.140287
200 -5.1343185600000005 1.46216088 9.32351229 0.090355 0.02899 -0.13507
220 -4.512070260000001 1.87739856 9.154809720000001 0.069463 0.14086600000000002 -0.122541
240 -4.29007977 1.9115275500000002 9.182954610000001 0.059881 0.170625 -0.097009
260 -3.99219912 1.9676603700000002 9.27905337 0.042619 0.167331 -0.057601
280 -3.72710349 2.28814326 8.81502075 0.026765 0.22163 -0.036417000000000005
300 -3.85463349 2.37915063 8.18049033 0.024679 0.25245 -0.016174
320 -4.68391203 2.4219614700000003 8.25473241 0.005389 0.243952 -0.005616
340 -4.86264042 2.21359707 8.3435031 0.032094 0.249194 -0.007573000000000002
360 -4.76099901 1.8928100700000001 8.08917885 0.072621 0.266015 0.012985
380 -4.95963189 1.72441161 8.078996069999999 0.089877 0.302196 0.007718000000000002
400 -5.06142045 1.6143924600000004 8.36909739 0.116448 0.289281 0.017534
420 -5.04929529 1.12910157 8.29260882 0.082069 0.247808 0.029098
440 -5.27233545 0.89978301 8.06942151 0.055292 0.21597800000000006 0.020406
460 -5.46064821 0.69784416 7.879019220000001 0.0426 0.22673 0.006416
480 -5.63697315 0.5674692600000001 7.753578750000001 0.009043 0.126681 0.013788
500 -5.84639703 0.51118929 7.81884468 -0.042444 0.07144099999999999 0.019908
520 -5.74460847 0.7810722000000001 8.09276931 -0.07071000000000001 -0.027604000000000004 0.037997
540 -5.83217253 0.8301712500000001 8.18917218 -0.065577 -0.072364 0.038091
560 -5.725292580000001 1.03584771 7.9695753300000005 -0.035432 -0.021297 0.028622
580 -5.667962940000001 1.21861782 7.84009314 -0.015797 0.05435 0.008366
600 -5.880673170000001 1.49164974 7.70986539 -0.007113 0.06081900000000001 -0.018287
620 -6.04293057 1.84372083 7.50554271 0.0 -0.022281 -0.022404
640 -6.21837261 1.9842785100000002 7.3170828000000006 0.025772000000000003 0.003243 -0.034007
660 -6.22615194 1.8465559200000001 7.1816165100000005 0.049718 0.078914 -0.063847
680 -6.076912409999999 1.8546393600000002 7.172336250000001 0.071448 0.14390999999999998 -0.086211
700 -5.74894449 1.6578017100000002 7.532637930000001 0.070439 0.162002 -0.0809
720 -5.87797542 1.6151380200000003 8.04367026 0.04348 0.113033 -0.066071
740 -5.8525282800000005 1.5646950000000002 8.13872916 0.024979 0.056539 -0.041559
760 -5.579202060000001 1.57531923 7.84533168 0.000431 0.0598 -0.036393
780 -5.38655328 1.32998094 7.596550080000001 -0.010208 0.071534 -0.031141
800 -5.370386399999999 1.1787990300000002 7.747584840000001 -0.0059700000000000005 0.065127 -0.031104000000000007
820 -5.509590300000001 1.27444653 8.19246834 -0.009122 0.063059 -0.043942
840 -5.590571850000001 1.51035741 8.21866104 -0.005855 0.075839 -0.046072
860 -5.5561485600000005 1.56139884 8.01778167 0.008909 0.059719000000000015 -0.023515
880 -5.42636226 1.3214560499999999 7.79668389 0.036849 0.118156 -0.009508
900 -5.556894120000001 1.3771376100000001 7.56421632 0.051914 0.155354 -0.000905
920 -5.6458119600000005 1.44958446 7.469471340000001 0.059358 0.159551 0.008756
940 -5.867194230000001 1.55960361 7.744298490000001 0.034537 0.110579 0.022532
960 -6.0068592 1.69687494 7.768391850000001 0.017366999999999997 0.097817 0.032043
980 -5.78262222 1.44524844 7.757316360000001 0.008789 0.103113 0.046931
1000 -5.64356547 1.6001679600000003 7.78111542 -0.010462 0.106321 0.060679
1020 -5.522912280000001 1.1693716200000002 7.929010980000001 -0.041507 0.107396 0.08503
1040 -5.583243780000001 1.08823311 8.08139952 -0.058668 0.125412 0.123343
1060 -5.75343747 1.25858376 8.19845244 -0.066011 0.163745 0.133925
1080 -5.776490969999999 1.46634975 8.012533320000001 -0.046803 0.156255 0.125523
1100 -5.76721071 1.44644526 7.787109330000002 -0.023332 0.158295 0.127821
1120 -5.67994095 1.3769904600000002 7.54625421 0.0024170000000000003 0.186981 0.124759
1140 -5.83815663 1.5263771400000001 7.55868348 0.007995 0.244473 0.127929
1160 -5.9405436 1.67920713 7.673489910000001 -0.001616 0.231766 0.117196
1180 -6.008507280000001 1.6546625100000003 7.62529338 -0.027537 0.105315 0.060561
1200 -6.08095413 1.4615624699999998 7.54940322 -0.007276 0.058552 0.015897
1220 -6.296803560000001 1.3070844000000001 7.594303590000001 0.020419 0.005365999999999999 -0.027638
1240 -6.30698634 1.33521948 7.5889179 0.038824 0.036311 -0.056391
1260 -5.93231301 1.4888048400000002 7.462427760000001 0.033595 0.049155 -0.067126
1280 -5.83007319 1.29376242 7.8538663799999995 0.032423 0.023601 -0.069238
1300 -5.85133146 1.35258318 8.04531834 0.027925 -0.0307 -0.072405
1320 -5.931714600000001 1.4584134600000003 7.796389590000001 0.022524 -0.044534 -0.07135599999999999
1340 -5.76152091 1.4070777300000001 7.520208660000001 0.020357 -0.046678 -0.066028
1360 -5.72543973 1.6566048900000003 7.27427196 0.013863999999999998 -0.057347 -0.056445
1380 -5.606591580000001 1.7435705400000001 7.43998248 0.000995 -0.052057000000000006 -0.036246
1400 -5.6772432 1.91197881 7.535924280000001 -0.012879 -0.026549 -0.00967
1420 -5.77453878 1.7702145 7.66870263 -0.0214 0.0032020000000000004 0.016937999999999998
1440 -6.05999997 1.88981802 7.63517205 -0.028877 0.017013 0.032891000000000004
1460 -6.09023439 1.88503074 7.577538300000001 -0.033169 0.015944999999999997 0.037136
1480 -6.09038154 1.81168137 7.4643799500000005 -0.029944 0.018078 0.033951
1500 -6.1022124 1.68324885 7.427406060000001 -0.018132 0.029776 0.028677
1520 -6.118075170000001 1.68219918 7.509280320000001 -0.006281 0.047874 0.021259
1540 -6.122421 1.5507746100000002 7.4522547900000005 -0.000866 0.056416 0.011672
1560 -6.15789396 1.37115351 7.47500418 0.002345 0.051108 0.004224
1580 -6.1531066800000005 1.27744839 7.59670704 0.005555 0.041556 -0.007492
1600 -6.108343649999999 1.2424168800000002 7.667505810000001 0.007703 0.037318 -0.014949
1620 -5.973024510000001 1.32564492 7.662561570000001 0.013041999999999998 0.037303 -0.01598
1640 -5.832623790000001 1.3554280800000003 7.63083603 0.009808 0.036224 -0.009592
1660 -5.78381904 1.3959924300000002 7.67140038 0.003373 0.038338 -2.6e-05
1680 -5.80806936 1.45901187 7.73516538 -0.0008939999999999998 0.042597 0.004212
1700 -5.78441745 1.56918798 7.78351887 -0.009477 0.033035 0.005233
1720 -5.76480726 1.64911986 7.7447399400000005 -0.006305 0.027694 0.00633
1740 -5.7868208999999995 1.6919307000000001 7.69744593 -0.000933 0.030892000000000006 0.001022
1760 -5.861062980000001 1.74641544 7.6811319000000005 0.00016299999999999998 0.035158 -0.001112
1780 -5.9501279700000005 1.6368475500000002 7.59834531 0.002325 0.043664 0.001029
1800 -6.007457610000001 1.5965775000000002 7.587868230000001 -0.001913 0.054315 0.005258
1820 -6.03484713 1.53924786 7.556731290000001 -0.008319 0.056455 0.008415
1840 -6.099514650000001 1.52413065 7.57829367 -0.015844999999999998 0.044759 0.009446
1860 -6.09233373 1.5829612199999998 7.533687600000001 -0.018012 0.037309 0.00944
1880 -6.041586600000001 1.49928192 7.530244290000001 -0.012659 0.038369 0.006272
1900 -5.98306014 1.45242936 7.548206400000001 -0.003018 0.045796 0.005261
1920 -5.94488943 1.4919440400000001 7.63008066 0.007698 0.052167999999999985 0.0010550000000000002
1940 -5.83531173 1.49688828 7.661668860000002 0.019486 0.060661 -0.002078
1960 -5.80837347 1.49614272 7.70881572 0.023811 0.069186 -0.006332
1980 -5.859120600000001 1.5789195000000003 7.73995266 0.01952 0.064935 -0.005288
2000 -5.8844107800000005 1.68998832 7.641009 0.008813 0.05857200000000001 -0.003218
2020 -5.886804420000001 1.64732463 7.575144659999999 -0.002985 0.049009 0.000985
2040 -5.87258973 1.60525935 7.62529338 -0.013692 0.04689 0.007321999999999999
2060 -5.8941423 1.5501762000000001 7.666161840000001 -0.024404 0.041584 0.011527
2080 -5.89040469 1.43072964 7.6814262 -0.026552 0.041579000000000005 0.014716
2100 -5.87304099 1.3632172200000001 7.68486951 -0.026566000000000003 0.037322 0.013653
2120 -5.876778600000001 1.3642668900000001 7.68771441 -0.022342 0.030903 0.016896
2140 -5.88696138 1.50078285 7.68082779 -0.018089 0.031936 0.021197
2160 -5.946684660000001 1.56544056 7.592214060000001 -0.014888 0.038291000000000006 0.027621
2180 -5.97227895 1.57442652 7.5459599100000005 -0.011692 0.036153 0.026578
2200 -5.989044240000001 1.6214262300000002 7.49775357 0.001086 0.023355 0.019206
2220 -6.00011973 1.65810582 7.53308919 0.005358 0.011674 0.006431999999999999
2240 -6.02646939 1.72172367 7.5496975200000005 0.011865 0.014928 -0.013822999999999998
2260 -6.004916820000001 1.68714342 7.566011550000001 0.015075 0.005376 -0.025539
2280 -5.9954796 1.6208278200000001 7.58382651 0.020433 0.00644 -0.029776
2300 -5.9737798799999995 1.48131981 7.576047180000001 0.019429 0.022414 -0.027667
2320 -6.01149933 1.37384145 7.64595324 0.019472 0.037307 -0.022344
2340 -6.03934011 1.33822134 7.61077458 0.009837 0.033066000000000005 -0.019202
2360 -6.07272354 1.35018954 7.58667141 0.004425999999999999 0.027712 -0.007481999999999998
2380 -6.026165280000001 1.49419053 7.56721818 -0.001937 0.050049 0.006332
2400 -5.9896426499999995 1.5263771400000001 7.59326373 -0.006161 0.066018 0.012691
2420 -5.93755155 1.67650938 7.625891790000001 -0.007262 0.059626 0.01376
2440 -5.835910139999999 1.64447973 7.5857787000000005 -0.007256999999999999 0.056447 0.009491
2460 -5.817653730000001 1.47952458 7.64879814 -0.010343 0.074597 0.0019690000000000003
2480 -5.838313590000001 1.59568479 7.73097651 -0.009257 0.083099 0.0062380000000000005
2500 -5.843993580000001 1.6251736500000002 7.720048170000001 -0.009362 0.074517 0.021204
2520 -5.8188505500000005 1.6193367 7.641009 -0.014730000000000004 0.07344500000000001 0.027577
2540 -5.772743550000001 1.5061685400000002 7.63727139 -0.011592 0.05428 0.022282
2560 -5.8910031 1.4952402 7.7350182300000005 0.000139 0.040442 0.009563
2580 -5.90447223 1.49224815 7.673489910000001 0.002292 0.035146 -2.9e-05
2600 -5.85597159 1.48730391 7.6413131100000005 -0.0030280000000000003 0.035177999999999994 -0.003271
2620 -5.78531997 1.5114070800000001 7.64235297 -0.009477 0.024547 -0.003302
2640 -5.7902544 1.5187449600000003 7.663611240000001 -0.008473 0.011756 -0.002211
2660 -5.76211932 1.42698222 7.6510348200000005 -0.002076 0.015974000000000002 0.00317
2680 -5.97227895 1.5135064200000001 7.687410300000001 0.00222 0.019167 -9e-06
2700 -6.16447647 1.50078285 7.650593370000001 0.005425 0.013855 -0.006389
2720 -6.183341100000001 1.51006311 7.52305356 0.004392 0.020255 -0.007473
2740 -6.056105400000001 1.7199186300000002 7.46617518 0.002278 0.030889 -0.001092
2760 -5.913605340000001 1.7732163600000002 7.551051300000001 0.0033590000000000004 0.038326 0.003179
2780 -5.9737798799999995 1.64493099 7.58277684 -0.0008939999999999998 0.03517 -0.003256
2800 -6.102359550000001 1.5672456000000001 7.5061411200000006 -0.00198 0.026669 -0.0075260000000000014
2820 -6.11254233 1.43476155 7.466773590000001 0.000197 0.035188 -0.008589
2840 -6.044725800000001 1.3687500600000002 7.543409310000001 0.005598 0.053266 -0.005370000000000001
2860 -6.00431841 1.49224815 7.651486080000001 0.009875 0.058565 -0.002143
2880 -5.9318617499999995 1.58236281 7.6690067399999995 0.007731999999999998 0.057502 -0.001088
2900 -5.839353450000001 1.53969912 7.638016950000001 0.00345 0.057505 0.0020870000000000003
2920 -5.84369928 1.52667144 7.716153600000001 -0.0008560000000000001 0.055363 0.008468999999999999
2940 -5.860915830000001 1.51095582 7.68965679 -0.008357999999999999 0.046872 0.007359
2960 -5.8624069500000004 1.5483809699999997 7.69205043 -0.009444 0.034126 -0.001178
2980 -5.7868208999999995 1.6040625300000002 7.65882396 0.00016299999999999998 0.031975 -0.004313
3000 -5.77798209 1.5660389700000001 7.67753163 0.006636 0.053237 0.001046
3020 -5.8508802 1.5066198 7.73246763 0.002393 0.06388300000000001 0.006344
3040 -5.88156588 1.5160472100000002 7.711062210000001 -0.014792 0.046864 0.014792
3060 -5.895339120000001 1.5117111900000002 7.657774290000001 -0.022356 0.036195 0.025435
3080 -5.917342950000001 1.49778099 7.59625578 -0.024567 0.022341 0.028642
3100 -5.9839528500000005 1.5143991300000001 7.59236121 -0.020333 0.011686 0.025480000000000003
3120 -6.040389780000001 1.59074055 7.57425195 -0.008564 0.009553 0.015951
3140 -6.014942639999999 1.57472082 7.5040417800000005 0.008645 0.021288 -0.003172
3160 -5.96374425 1.51290801 7.494761520000001 0.023701 0.036197 -0.014836000000000004
3180 -5.94114201 1.4741388900000003 7.6631599800000005 0.024782 0.036206 -0.018033
3200 -5.98500252 1.5444864 7.68666474 0.009822 0.031993 -0.017064
3220 -5.9736229199999995 1.5393950100000002 7.590860280000001 0.00233 0.027753 -0.016043
3240 -5.95087353 1.44449307 7.522308000000001 -0.001966 0.028804000000000007 -0.008596
3260 -6.060147120000001 1.5220313100000002 7.56077301 -0.008391 0.031988 -0.0001
3280 -6.0950216699999995 1.49718258 7.53068574 -0.009439 0.041558 0.005222
3300 -6.049817190000001 1.4895504000000002 7.58757393 -0.010501 0.042627 0.005213000000000001
3320 -5.920335000000001 1.53535329 7.64280423 -0.008357999999999999 0.04475 0.005225
3340 -5.837263920000001 1.60166889 7.704332550000001 -0.005162 0.043673 0.005249
3360 -5.73532821 1.5798122100000003 7.734262860000001 -0.001956 0.045788 0.006337
3380 -5.777383680000001 1.61828703 7.7170561200000005 -0.001956 0.045788 0.006337
3400 -5.86689993 1.62097497 7.66136475 0.00015800000000000002 0.036215 0.001023
3420 -5.89743846 1.5934383 7.62663735 0.002287 0.031958999999999994 -0.002161
3440 -5.89399515 1.5798122100000003 7.66884978 0.006573999999999999 0.033022 -0.005338
3460 -5.8944464100000005 1.53655011 7.6550765400000005 0.003373 0.034094 -0.004293
3480 -5.92183593 1.53969912 7.65612621 -0.005167000000000001 0.038364 0.000983
3500 -5.89952799 1.49433768 7.63727139 -0.012678 0.035169 0.007344
3520 -5.923484010000001 1.4596102800000001 7.60807683 -0.018041 0.031979 0.010515
3540 -5.9561120700000005 1.46634975 7.592508360000001 -0.02127 0.030903 0.015835
3560 -5.97542796 1.4635048499999999 7.628432580000001 -0.01485 0.035142 0.015875
3580 -5.99323311 1.5636453300000002 7.586818560000001 -0.009487 0.035149 0.009503
3600 -5.94893115 1.5672456000000001 7.5627252 -0.00199 0.035148 0.003146
3620 -5.93365698 1.5991281 7.6261959 0.006583 0.040458 -6e-06
3640 -5.889207870000001 1.5399934199999998 7.650593370000001 0.009822 0.044725 -0.004262
3660 -5.9004305100000005 1.5732297000000002 7.65478224 0.011956 0.039412 -0.009581
3680 -5.92198308 1.55960361 7.619005169999999 0.010851 0.030894 -0.009578
3700 -5.94369261 1.5124567500000001 7.60269114 0.005521 0.040466 -0.001082
3720 -5.96015379 1.5308701200000001 7.60702716 0.004497999999999999 0.055362 0.004233
3740 -5.9314203 1.4831150400000002 7.5935580300000005 0.006612000000000001 0.04791 0.001053
3760 -5.98246173 1.4751787500000002 7.6392137700000005 0.012999 0.038326 -0.005299
3780 -5.932764270000001 1.4956914600000002 7.668408330000001 0.0184 0.047916 -0.010615
3800 -5.84459199 1.47039147 7.65568476 0.020568 0.049 -0.017011000000000002
3820 -5.85223398 1.46006154 7.742052 0.015252000000000003 0.05434 -0.015986
3840 -5.8962416399999995 1.4952402 7.71211188 0.011004 0.063921 -0.010687
3860 -5.86689993 1.5871500900000002 7.647150060000001 0.00246 0.067126 -0.00541
3880 -5.81270949 1.5069141000000001 7.636074570000001 -0.008242 0.073499 0.008394
3900 -5.8682439 1.52443476 7.68771441 -0.027542 0.069237 0.025356
3920 -6.00551523 1.5488322300000001 7.67439243 -0.049013 0.051155 0.03698
3940 -5.9300665200000005 1.6094482200000002 7.632180000000001 -0.052329 0.034088 0.045524
3960 -5.85223398 1.62307431 7.64265708 -0.043789 0.033001 0.043449
3980 -5.86031742 1.62022941 7.70208606 -0.040632 0.021281 0.04135
4000 -5.84114868 1.61873829 7.70627493 -0.039661 0.005277 0.046718
4020 -5.851184310000001 1.5124567500000001 7.68876408 -0.027988 -0.009674 0.04575
4040 -5.87123595 1.4711370300000002 7.665259320000001 -0.004502 -0.034146 0.018172
4060 -5.879770649999999 1.4911984800000002 7.6580784 0.026547 -0.047949 -0.020049
4080 -5.93695314 1.61738451 7.63263126 0.053415 -0.031952999999999995 -0.047656
4100 -6.05670381 1.59748002 7.5458127600000005 0.068552 -0.002118 -0.062544
4120 -6.16148442 1.52218827 7.413338520000001 0.068677 0.019213 -0.068979
4140 -6.235579350000001 1.4605127999999998 7.416928980000001 0.074102 0.039434 -0.068967
4160 -6.17960349 1.4545287000000002 7.46842167 0.07206900000000001 0.064996 -0.06581000000000001
4180 -6.108196500000001 1.4456898900000001 7.46258472 0.051813 0.07144500000000001 -0.06275499999999999
4200 -6.15789396 1.3723503300000002 7.498204830000001 0.021946 0.091713 -0.043761
4220 -6.2563863600000005 1.39689495 7.537425209999999 -0.018676 0.113002 -0.004548
4240 -6.16642866 1.5058644300000001 7.560478710000001 -0.058275 0.126822 0.036818
4260 -5.8969872 1.5521185800000001 7.65313416 -0.084071 0.111887 0.06443099999999999
4280 -5.66886546 1.54792971 7.7866580700000005 -0.096984 0.104407 0.081442
4300 -5.5588365 1.5808618800000003 7.8576138 -0.08746799999999999 0.08732100000000001 0.08366699999999999
4320 -5.52530592 1.5759274500000002 7.85940903 -0.07257100000000001 0.07238 0.07738099999999999
4340 -5.48040555 1.6426844999999999 7.900120530000001 -0.05873 0.053208000000000005 0.064683
4360 -5.4805527000000005 1.7449243200000002 7.89533325 -0.036374 0.03505 0.05738500000000001
4380 -5.49776925 1.7986635000000002 7.861057110000001 -0.01619 -0.006476000000000001 0.035147000000000005
4400 -5.514985800000001 1.7847431100000002 7.778868930000001 0.011582 -0.026702 0.007593000000000002
4420 -5.64072057 1.7112367800000001 7.719744060000001 0.040469 -0.047951 -0.031702999999999995
4440 -5.833673460000001 1.59104466 7.678581300000001 0.066165 -0.065996 -0.06995599999999999
4460 -6.021976410000001 1.4730892199999999 7.558977780000001 0.081245 -0.060616 -0.096563
4480 -6.1691166000000015 1.31261724 7.43025096 0.086732 -0.0414 -0.111504
4500 -6.28243191 1.17490446 7.400909250000001 0.083623 -0.015844 -0.106218
4520 -6.277193370000001 1.21936338 7.445966580000001 0.06871100000000001 0.008633 -0.087125
4540 -6.2673147 1.28343249 7.393875480000001 0.044154 0.028861 -0.06275399999999999
4560 -6.31387296 1.28747421 7.407197460000001 0.008875 0.038469 -0.037375
4580 -6.3758427300000005 1.30259142 7.35809841 -0.024303 0.050162 -0.00237
4600 -6.4018882800000005 1.39689495 7.40031084 -0.04464 0.069271 0.031646
4620 -6.27914556 1.56005487 7.46751915 -0.055299 0.089476 0.049706
4640 -6.050866860000001 1.6717220999999998 7.56497169 -0.05741900000000001 0.107533 0.064623
4660 -5.79714102 1.81512468 7.67977812 -0.056357 0.111769 0.069966
4680 -5.617068659999999 1.85808267 7.805071440000001 -0.049999 0.097915 0.065755
4700 -5.47397019 1.8326355300000001 7.886504250000001 -0.041454000000000005 0.08622300000000001 0.051943
4720 -5.44597245 1.80015462 7.96014792 -0.027585 0.067077 0.032836000000000004
4740 -5.52800367 1.67157495 7.926617340000001 -0.012687 0.042587 0.016947999999999998
4760 -5.6339811 1.50362775 7.84204533 0.006573999999999999 0.043632 0.005331
4780 -5.67110214 1.4263838100000001 7.73052525 0.018357 0.043634 -0.005268999999999999
4800 -5.72873589 1.31441247 7.69744593 0.017271 0.030888 -0.013806
4820 -5.82423624 1.37953125 7.74968418 0.010812 0.022372 -0.009567
4840 -5.8853133 1.43372169 7.71555519 0.007587999999999998 0.020239 -0.006382
4860 -5.95970253 1.44644526 7.69235454 0.009707 0.014913999999999997 -0.008497
4880 -5.98306014 1.56619593 7.63517205 0.012951 0.019185 -0.013821
4900 -6.017934690000001 1.6742727000000002 7.58712267 0.015118 0.026635 -0.013815
4920 -6.02826462 1.6896842100000002 7.5829338 0.014094999999999996 0.04047 -0.009567
4940 -6.01613946 1.6245752400000002 7.506739530000001 0.010894 0.043664 -0.006389
4960 -6.033954420000001 1.50557013 7.5137733 0.007665000000000002 0.039406 -0.00427
4980 -6.06868182 1.5223354199999999 7.61077458 0.0065980000000000006 0.04047 -0.00321
5000 -6.032757600000001 1.48027014 7.61047047 0.001259 0.041546 -0.001113
5020 -5.96584359 1.3980917700000002 7.54491024 -0.003004 0.045809 0.002057
5040 -5.990093910000001 1.28522772 7.56796374 -0.012635 0.044756 0.007331999999999998
5060 -5.997726090000001 1.33941816 7.5538962 -0.014802 0.042612 0.012661
5080 -5.926927320000001 1.36934847 7.59894372 -0.012668 0.043665 0.013742
5100 -5.8207929300000005 1.40961852 7.669448190000001 -0.01051 0.047923 0.012684
5120 -5.82963174 1.4561767799999998 7.75582524 -0.008391 0.045781 0.01377
5140 -5.859120600000001 1.49793795 7.723040220000001 -0.007329 0.043651 0.012712
5160 -5.87513052 1.59777432 7.6526829 -0.005181 0.040473 0.006321
5180 -5.85387225 1.6278615900000002 7.64296119 -0.000937 0.029827 0.001023
5200 -5.84624007 1.6507679400000002 7.65792144 0.004406 0.026634 -0.004275999999999999
5220 -5.85133146 1.68953706 7.692648840000001 0.004459 0.033047 -0.009625
5240 -5.85387225 1.59433101 7.66884978 -0.001956 0.031995 -0.007532
5260 -5.88964932 1.48595994 7.618259610000001 -0.004124 0.030912 -0.001137
5280 -5.93725725 1.4419522800000002 7.6374185400000005 -0.005195 0.035155 0.004192
5300 -5.94474228 1.4462883000000002 7.59879657 -0.007315 0.035176 0.000972
5320 -5.95072638 1.42593255 7.61646438 -0.00199 0.033026 0.001012
5340 -5.96554929 1.47952458 7.61092173 -0.003057 0.031969 -6.2e-05
5360 -5.9917419899999995 1.53250839 7.61915232 0.000187 0.043667 0.002082
5380 -5.998775760000001 1.5916430700000002 7.57949049 0.000201 0.045802 0.001011
5400 -5.917342950000001 1.6018160399999999 7.59999339 -0.003052 0.036217 0.003137
5420 -5.845641659999999 1.5892494300000002 7.666161840000001 -0.005181 0.039412 0.005254
5440 -5.84250246 1.62861696 7.703881290000001 -0.003023 0.045792 0.00633
5460 -5.84819226 1.5209914500000001 7.66870263 -0.0041140000000000005 0.043652 0.009529
5480 -5.87931939 1.49988033 7.685320770000001 -0.004128 0.042579 0.011667
5500 -5.91899103 1.50781662 7.66466091 -0.0041140000000000005 0.045774 0.011663
5520 -5.93201871 1.5018227100000001 7.65478224 -0.003042 0.046836 0.011669
5540 -5.86195569 1.5051188700000002 7.619750730000001 -0.000923 0.038328 0.006354
5560 -5.8884525 1.50482457 7.68292713 0.002273 0.034068 0.003177
5580 -5.929173810000001 1.5190392600000002 7.662718530000001 0.003383 0.042591 0.002105
5600 -5.9318617499999995 1.51963767 7.633671120000001 0.003392 0.046843 0.004237
5620 -5.9029713 1.50990615 7.62828543 0.002302 0.04046 0.003169
5640 -5.92497513 1.5057172800000003 7.64296119 0.000139 0.035137 0.004229
5660 -5.918539770000001 1.5575140800000002 7.646698800000001 0.00333 0.034056 0.005321
5680 -5.89952799 1.4681449800000002 7.64220582 0.006559000000000001 0.037253 0.002135
5700 -5.90507064 1.4888048400000002 7.6640625 0.013004 0.040452 -0.004234
5720 -5.930517780000001 1.53610866 7.654183830000001 0.015161 0.041527 -0.008493
5740 -5.9242295700000005 1.48491027 7.620054840000001 0.01198 0.04686 -0.007454
5760 -5.91030918 1.4507812800000002 7.624547820000001 -0.001942 0.038374 -0.004336
5780 -5.86689993 1.4917968900000003 7.669448190000001 -0.006248 0.039416 0.005247
5800 -5.90461938 1.4895504000000002 7.65447813 -0.011563 0.043696 0.005204
5820 -5.9065715700000005 1.52547462 7.69474818 -0.013716 0.03732 0.003061
5840 -5.905217790000001 1.4964370200000001 7.64624754 -0.010539 0.033043 0.004157
5860 -5.894887860000001 1.47832776 7.628589540000001 -0.010544 0.033039 0.005225
5880 -5.93126334 1.48850073 7.65358542 -0.009434 0.043684 0.006287
5900 -5.94114201 1.5179895900000002 7.646698800000001 -0.010534 0.03517 0.005222
5920 -5.88127158 1.49583861 7.679483820000001 -0.012702 0.02772 0.005217
5940 -5.83142697 1.5229338300000004 7.67528514 -0.010549 0.030913 0.0041600000000000005
5960 -5.842953720000001 1.6164918 7.66196316 -0.006281 0.030898 0.004189
5980 -5.88636297 1.59224148 7.59954213 -0.004143 0.029834 0.002069
6000 -5.9183926200000005 1.4762284200000002 7.63307271 -0.000937 0.033010000000000005 0.004224
6020 -5.92527924 1.6649924400000002 7.68247587 0.000168 0.04365 0.006355
6040 -5.916744540000001 1.61424531 7.607782530000001 0.001239 0.046834 0.008494
6060 -5.86644867 1.6096051800000002 7.63831125 0.00015800000000000002 0.040459 0.00529
6080 -5.92198308 1.53895356 7.654183830000001 0.003373 0.038338 -2.6e-05
6100 -5.95042227 1.5359517 7.640410590000001 0.007665000000000002 0.041528 -0.002136
6120 -5.9501279700000005 1.4988306599999999 7.62304689 0.012009 0.05855700000000001 -0.002128
6140 -5.934412350000001 1.44509148 7.5857787000000005 0.010961 0.067066 0.002127
6160 -5.95536651 1.4491332000000003 7.619750730000001 0.005608 0.064945 0.004229
6180 -5.9604579 1.4925424500000002 7.632032850000001 0.000259 0.060707 0.003129
6200 -5.9174901 1.47009717 7.607929680000001 -0.004065999999999999 0.047939 0.003115
6220 -5.87558178 1.49688828 7.6591182600000005 -0.009444 0.03837 0.00309
6240 -5.88516615 1.52487621 7.689362490000001 -0.009448 0.039427 0.005225
6260 -5.867194230000001 1.5178424400000001 7.70717745 -0.014792 0.040498 0.008391
6280 -5.82528591 1.54359369 7.68726315 -0.018055 0.026661 0.008385
6300 -5.7869680500000005 1.51499754 7.69819149 -0.010635 0.019165 0.011652
6320 -5.75882316 1.4862640500000002 7.73232048 -0.003095 0.035118 0.011684
6340 -5.77199799 1.46261214 7.733968560000001 -0.003071 0.033017000000000005 0.004209
6360 -5.82827796 1.41516117 7.6990940100000005 -0.000985 0.018113 -3e-05
6380 -5.893249590000001 1.44778923 7.66107045 0.000105 0.024497 0.001038
6400 -5.96299869 1.55675871 7.60688001 0.007635999999999999 0.038319 0.001072
6420 -5.95970253 1.60271856 7.544007720000001 0.011942 0.043643 -0.002109
6440 -5.995332449999999 1.5792138 7.55299368 0.003412 0.042616 -0.004304
6460 -5.99308596 1.62606636 7.547156730000001 0.000216 0.043693 -0.004327
6480 -6.032306340000001 1.70465427 7.59326373 0.004493 0.044747 -0.005367
6500 -6.014795490000001 1.5644007 7.54641117 0.006655 0.051132 -0.00536
6520 -6.0158353500000015 1.4284831500000004 7.52065992 0.005593 0.053262 -0.004302
6540 -6.026165280000001 1.44090261 7.656881580000001 0.00024 0.051141000000000006 -0.0022
6560 -5.9619490200000005 1.49433768 7.63083603 -0.000866 0.046867 0.00207
6580 -5.905217790000001 1.46694816 7.65987363 -0.001952 0.044732 0.004202
6600 -5.83007319 1.4638089600000002 7.6580784 -0.001952 0.043671 0.003135
6620 -5.87812257 1.4861070900000002 7.70373414 -0.005171 0.039421 0.003118
6640 -5.84728974 1.5203930399999999 7.71630075 -0.012663 0.038364 0.00734
6660 -5.76001998 1.52726985 7.72887717 -0.016964 0.034106 0.01052
6680 -5.751642240000001 1.52862363 7.7185472399999995 -0.019136 0.027713 0.012649
6700 -5.79474738 1.51454628 7.706422080000001 -0.011654 0.029822 0.011631
6720 -5.8303773 1.54194561 7.728278760000001 -0.00521 0.036204 0.008463
6740 -5.84384643 1.5563172600000001 7.69175613 0.001235 0.040464 0.003161
6760 -5.90222574 1.5606532800000001 7.67738448 0.005502 0.031961 -0.005344
6780 -5.93710029 1.5416415 7.610323320000001 0.006564 0.029831 -0.006402
6800 -5.98455126 1.5117111900000002 7.602985439999999 0.005526 0.036226 -0.006417
6820 -5.984855370000001 1.5375997800000003 7.58262969 0.005516 0.035156 -0.005348
6840 -5.992487550000001 1.57996917 7.5654131399999995 0.0065980000000000006 0.043653 -1e-05
6860 -5.96778597 1.62950967 7.59161565 0.007684000000000002 0.051094 0.003193
6880 -5.9823145800000015 1.55376666 7.604339220000001 0.003407 0.045795 -3.5e-05
6900 -5.97842001 1.49778099 7.569160560000001 0.001239 0.037285000000000006 -0.001107
6920 -5.9737798799999995 1.4730892199999999 7.60463352 -0.005167000000000001 0.041547 0.004184
6940 -5.942338830000001 1.4853615300000003 7.651790190000001 -0.004076 0.04687 0.004184
6960 -5.901176070000001 1.51425198 7.7047740000000005 -0.004118999999999999 0.037282 0.004196
6980 -5.848937820000001 1.48565583 7.70792301 -0.008409999999999999 0.034093 0.006307
7000 -5.8189977 1.47907332 7.670203560000001 -0.008395999999999999 0.039411 0.008437
7020 -5.8627110600000005 1.46769372 7.664808060000001 -0.007305 0.044733 0.008437
7040 -5.9025298500000005 1.49928192 7.68277017 -0.001971 0.044714 0.008475
7060 -5.888756610000001 1.46290644 7.644756419999999 0.00015800000000000002 0.042581 0.007423999999999998
7080 -5.901627330000001 1.52218827 7.695650700000001 -0.003038 0.043657 0.0074
7100 -5.9240824199999995 1.57397526 7.669301040000001 -0.004118999999999999 0.040465 0.007397
7120 -5.9029713 1.58909247 7.615267560000001 -0.007334 0.039403 0.009512
7140 -5.87572893 1.5500290500000002 7.62424371 -0.007339 0.039398 0.01058
7160 -5.92303275 1.5699335399999998 7.669752300000001 -0.008409999999999999 0.038337 0.010574
7180 -5.92513209 1.58894532 7.64909244 -0.008425 0.033019 0.008445000000000001
7200 -5.88186999 1.52862363 7.63727139 -0.006272 0.036212 0.007387
7220 -5.87812257 1.4611112100000003 7.652839860000001 -0.00198 0.037279 0.003143
7240 -5.927378580000001 1.46410326 7.64115615 0.003344 0.034069 0.002116
7260 -5.952217500000001 1.47098988 7.624842120000001 0.0033590000000000004 0.035143 -2.2e-05
7280 -5.891444550000001 1.4507812800000002 7.641911520000001 0.001225 0.038333 0.003164
7300 -5.91794136 1.52218827 7.645501980000001 0.002311 0.043651 0.004233
7320 -5.930517780000001 1.5644007 7.638164100000001 0.005536 0.047905 0.003182
7340 -5.9442910200000005 1.59418386 7.64280423 0.00555 0.045796 -0.002156
7360 -5.904766530000001 1.56529341 7.63352397 0.004469 0.044726 -2.6e-05
7380 -5.920335000000001 1.48206537 7.6510348200000005 0.006645999999999999 0.056428 0.002111
7400 -5.926927320000001 1.4582663100000002 7.65313416 0.010932 0.060674 0.002135
7420 -5.91659739 1.4651529300000001 7.632327150000001 0.010923 0.053239 -0.003197
7440 -5.946537510000001 1.5173911800000002 7.626343050000001 0.0012779999999999998 0.043685 -0.003252
7460 -5.94084771 1.5682854600000002 7.63651602 -0.006219 0.039441 -0.0011619999999999998
7480 -5.90940666 1.5780169800000001 7.63008066 -0.0073 0.033066000000000005 -0.004366
7500 -5.85971901 1.54269117 7.650593370000001 -0.000942 0.027701 -4.2e-05
7520 -5.85357795 1.4995860300000001 7.65672462 0.00122 0.040451 0.006365999999999999
7540 -5.8278267 1.4585704199999998 7.719292800000001 -0.0041140000000000005 0.045774 0.011663
7560 -5.857766820000001 1.4563239300000002 7.732173330000001 -0.01374 0.042604 0.013736000000000002
7580 -5.80806936 1.4688905399999999 7.70656923 -0.022342 0.030903 0.016896
7600 -5.81944896 1.45213506 7.65612621 -0.021323 0.022368 0.01905
7620 -5.89773276 1.5283195200000002 7.69205043 -0.015974000000000002 0.024485 0.018017
7640 -5.93949393 1.55287395 7.66061919 -0.010611 0.025552 0.012712
7660 -5.930969040000001 1.58355963 7.648199730000001 -0.000961 0.028745 0.005298
7680 -5.931714600000001 1.6531615800000001 7.57693989 0.010851 0.031955000000000004 -0.008511
7700 -6.0056623799999995 1.6090067700000001 7.566766920000001 0.016222999999999998 0.024543 -0.024487
7720 -6.0116464800000005 1.6393883400000002 7.578440820000001 0.010918 0.024587 -0.030934
7740 -5.945036580000001 1.5067669500000003 7.54505739 0.007751000000000002 0.043726 -0.01923
7760 -5.975271 1.4244414300000001 7.652388600000001 0.002383 0.053264 -0.002188
7780 -6.00341589 1.4615624699999998 7.685772030000001 -0.005133 0.061736 0.016977000000000003
7800 -5.992938810000001 1.46096406 7.581138570000001 -0.013716 0.063845 0.029733
7820 -5.96434266 1.47952458 7.537278060000001 -0.023342 0.05643 0.027538
7840 -5.9923404 1.5067669500000003 7.5717013500000006 -0.015874 0.052160000000000005 0.023323
7860 -5.966442 1.5402975300000001 7.622595629999999 -0.001956 0.050032 0.010604
7880 -5.908513950000001 1.5443392500000002 7.6746867299999995 0.009808 0.041529 -0.004258
7900 -5.8645062900000005 1.5998736599999999 7.70208606 0.020515 0.034099000000000004 -0.020197
7920 -5.7782862 1.6256151 7.7770737 0.026916 0.025588 -0.028687
7940 -5.645213550000001 1.6597440900000002 7.756119540000001 0.025864 0.031971 -0.025498
7960 -5.616774360000001 1.6807080600000002 7.710316649999999 0.011985 0.045804 -0.009589
7980 -5.75972568 1.52532747 7.7766322500000005 -0.011573 0.045809 0.009474
8000 -5.869891979999999 1.39285323 7.7350182300000005 -0.023399 0.042586 0.026488
8020 -5.94264294 1.3016889 7.6513389300000005 -0.034096 0.041537 0.031755
8040 -6.02228052 1.25664138 7.61930928 -0.034068 0.043684 0.02748
8060 -6.083946180000001 1.28956374 7.51841343 -0.024437 0.03731 0.014737
8080 -6.03515124 1.327293 7.4616822 -0.010544 0.026673 -0.001176
8100 -6.01913151 1.5501762000000001 7.601945580000001 0.011966 0.036238 -0.014918
8120 -5.9639012099999995 1.67786316 7.62469497 0.030155 0.042587 -0.02014
8140 -5.90911236 1.7458170300000002 7.709571090000001 0.029093 0.042595 -0.021216
8160 -5.79474738 1.89820557 7.69220739 0.016247 0.039419 -0.014892
8180 -5.792805 1.7588447100000002 7.6651121700000004 0.000168 0.03304 -0.004314
8200 -5.84130564 1.61469657 7.75162656 -0.013773 0.022415 0.000943
8220 -5.93037063 1.4633577 7.67992527 -0.02128 0.022407 0.009437
8240 -5.9737798799999995 1.32803856 7.512880590000001 -0.026628 0.026657 0.016871
8260 -6.011352179999999 1.3212990900000001 7.556731290000001 -0.022356 0.028768 0.017967
8280 -5.990545170000001 1.37758887 7.6034367000000005 -0.008453 0.029810000000000007 0.011653
8300 -5.954915250000001 1.38686913 7.583679360000001 0.005449 0.029792000000000006 0.004273
8320 -5.87752416 1.48565583 7.622448480000001 0.008688 0.030876 -0.003184
8340 -5.833065240000001 1.55795553 7.69819149 0.011918000000000002 0.034073 -0.006370000000000001
8360 -5.80806936 1.5660389700000001 7.7306724 0.014042 0.032996 -0.005285
8380 -5.81196393 1.60166889 7.76869596 0.014056 0.036192 -0.005289
8400 -5.86884231 1.6428316500000002 7.67124342 0.010875 0.038342 -0.007451
8420 -5.9062674600000005 1.6188854400000001 7.590418830000001 0.005555 0.046862 -0.002158
8440 -5.953865580000001 1.5555618900000003 7.5658644 -0.000813 0.05858500000000001 0.002056
8460 -5.95671048 1.46709531 7.5537392400000005 -0.005075 0.061787 0.004158
8480 -6.014344230000001 1.40183919 7.57334943 -0.008276 0.067103 0.00947
8500 -6.03140382 1.3600682099999999 7.59685419 -0.011477 0.074541 0.016916
8520 -6.032904750000001 1.3418117999999999 7.58936916 -0.014668 0.081988 0.022225
8540 -5.970483720000001 1.47533571 7.63682013 -0.018969 0.076668 0.024338
8560 -5.8880012399999995 1.5760746 7.658971110000001 -0.026518 0.060707 0.026443
8580 -5.860915830000001 1.59028929 7.694149770000001 -0.026585 0.04261 0.023261
8600 -5.83217253 1.6078099500000003 7.70612778 -0.018079 0.027701 0.014793
8620 -5.79654261 1.60032492 7.72258896 0.001153 0.022354 0.003184
8640 -5.737869 1.65136635 7.78740363 0.009736 0.023428 -0.006371
8660 -5.707477620000001 1.6208278200000001 7.77123675 0.009736 0.021306 -0.008505
8680 -5.7471492600000005 1.5825099599999999 7.80327621 0.0032770000000000004 0.004301 -0.012801
8700 -5.79115692 1.53266535 7.746240870000001 0.00321 -0.010613 -0.012783
8720 -5.801486850000001 1.4762284200000002 7.674539580000001 0.004301 -0.003168 -0.010648
8740 -5.872884030000001 1.38881151 7.653281310000001 0.004354 0.011733 -0.007462000000000002
8760 -5.96763882 1.437165 7.65403668 0.001187 0.023445 -0.003226
8780 -6.010596810000001 1.5028723800000001 7.61811246 -0.001995 0.033022 0.0020800000000000003
8800 -6.02646939 1.4956914600000002 7.56736533 -0.001995 0.036205 0.005281
8820 -6.082298100000001 1.49150259 7.50030417 0.000168 0.041528 0.004221
8840 -6.167625480000001 1.45362618 7.454344320000001 0.005531 0.04684 0.003183
8860 -6.149359260000001 1.46634975 7.490278350000001 0.007684000000000002 0.050033 0.0021260000000000003
8880 -6.041135340000001 1.5328125000000001 7.565118840000001 0.009827 0.051095 0.001071
8900 -5.98514967 1.6259192100000002 7.612569810000001 0.01198 0.054287 1.4e-05
8920 -6.000875100000001 1.5792138 7.601641470000001 0.009865 0.054312 -0.004274
8940 -5.971082129999999 1.5615558 7.58398347 0.006640999999999999 0.05218 -0.001089
8960 -5.89743846 1.4937392700000003 7.58637711 -0.0008460000000000001 0.056433 0.0073989999999999985
8980 -5.86735119 1.4572166400000002 7.66556343 -0.008324 0.057511 0.01055
9000 -5.86599741 1.4721867000000002 7.74908577 -0.014759 0.051138 0.011582
9020 -5.7651113700000005 1.4296799699999998 7.75178352 -0.018012 0.043675 0.015842
9040 -5.78441745 1.41635799 7.750881000000001 -0.01695 0.042606 0.01585
9060 -5.7929521500000005 1.42308765 7.69235454 -0.009453 0.044728 0.011627
9080 -5.84145279 1.4876080200000001 7.721990550000001 -0.005191 0.039404 0.007391
9100 -5.81256234 1.5971759099999998 7.72394274 -0.000909 0.03834 0.003149
9120 -5.82064578 1.5759274500000002 7.71211188 0.001225 0.03515 -3.6e-05
9140 -5.80462605 1.55780838 7.72454115 0.002287 0.034081 -2.8000000000000006e-05
9160 -5.83815663 1.5880428 7.715702340000001 0.002282 0.030894 -0.00216
9180 -5.801938110000001 1.57083606 7.669448190000001 0.002297 0.034089999999999995 -0.002164
9200 -5.851478610000001 1.5453889200000002 7.63591761 0.002302 0.035155 -0.002165
9220 -5.9062674600000005 1.55646441 7.67633481 -0.000904 0.037284 0.001014
9240 -5.98755312 1.55152017 7.60733127 -0.001952 0.04261 0.002068
9260 -5.980813650000001 1.5405918300000003 7.568709300000001 -0.006209 0.043694 0.000969
9280 -6.004759860000001 1.4900016600000001 7.585621740000001 -0.004104 0.039417 0.003125
9300 -6.03859455 1.4890991400000002 7.57829367 -0.00088 0.044732 0.003141
9320 -6.01733628 1.4895504000000002 7.59850227 0.003421 0.052174 0.0031620000000000003
9340 -5.93501076 1.50557013 7.61855391 0.00234 0.047921 0.002091
9360 -5.93350983 1.52458191 7.632032850000001 0.002316 0.041534 0.001031
9380 -5.929016850000001 1.52607303 7.62215418 0.00123 0.036215 -3.8e-05
9400 -5.91270282 1.5079637700000004 7.656577470000001 0.000149 0.033023000000000004 -4.1e-05
9420 -5.874836220000001 1.5778698300000003 7.67140038 -0.000933 0.031952999999999995 0.002089
9440 -5.851478610000001 1.56424374 7.65927522 -0.004128 0.031969 0.000998
9460 -5.808226320000001 1.53535329 7.690559310000001 -0.005214 0.029833 0.00313
9480 -5.8335165 1.49419053 7.69953546 -0.005214 0.034077 0.007397
9500 -5.86525185 1.4624551799999999 7.685163810000001 -0.006261999999999999 0.041525 0.010585
9520 -5.8799178 1.45587267 7.658519850000001 -0.005176 0.042599 0.007387
9540 -5.88860946 1.44465003 7.625891790000001 -0.006253 0.038351 0.005248
9560 -5.90356971 1.4419522800000002 7.653732570000001 -0.00731 0.039424 0.004171
9580 -5.952825720000001 1.4898545100000002 7.641607410000001 -0.004085 0.042617 0.002053
9600 -5.93994519 1.5375997800000003 7.6092736499999996 -0.0008849999999999998 0.040484 -5.8e-05
9620 -5.95057923 1.61319564 7.6148163 0.002321 0.041538 -3.7e-05
9640 -5.929016850000001 1.59927525 7.61811246 0.001254 0.041542 -4.4e-05
9660 -5.93994519 1.6064561700000002 7.602838290000001 -0.001952 0.039427 -0.001132
9680 -5.943094200000001 1.58834691 7.651643040000001 -0.001956 0.038361 -0.001131
9700 -5.9025298500000005 1.5756233400000001 7.650593370000001 0.000173 0.037289 -0.001115
9720 -5.90985792 1.48595994 7.636368870000001 0.001254 0.038359 -0.0032450000000000005
9740 -5.88336111 1.4635048499999999 7.652388600000001 0.001235 0.03622 -0.001106
9760 -5.917195800000001 1.4726379600000001 7.67124342 -0.0008939999999999998 0.037292 -0.0011220000000000002
9780 -5.929016850000001 1.47637557 7.653281310000001 -0.001966 0.039414 0.002072
9800 -5.877082710000001 1.52607303 7.65088767 0.000173 0.040472 0.002086
9820 -5.85836523 1.49090418 7.67124342 -0.0019760000000000003 0.037283 0.002075
9840 -5.88291966 1.52023608 7.6534382700000005 -0.0041140000000000005 0.036225 0.002061
9860 -5.860758870000001 1.50826788 7.675442100000001 -0.003052 0.036217 0.003137
9880 -5.83860789 1.5425440200000002 7.6950522900000005 -0.000909 0.03834 0.003149
9900 -5.861062980000001 1.54508481 7.6700466 -0.001985 0.036214 0.003144
9920 -5.9065715700000005 1.53655011 7.65583191 -0.004128 0.033030000000000004 0.002065
9940 -5.91929514 1.5143991300000001 7.623645300000001 -0.004118999999999999 0.036221 0.003129
9960 -5.928575400000001 1.5232281300000001 7.620054840000001 -0.000913 0.037275 0.003151
9980 -5.92213023 1.52487621 7.629482250000001 -0.003057 0.036213 0.004205
10000 -5.9064146100000015 1.5094647 7.64834688 -0.00198 0.03834 0.00421
10020 -5.8963887900000005 1.48969755 7.63981218 0.000168 0.041528 0.004221
10040 -5.897585610000001 1.49164974 7.6534382700000005 0.001239 0.041529 0.00316
10060 -5.93396109 1.5106615200000002 7.65298701 -0.0019760000000000003 0.038344 0.0031420000000000003
10080 -5.90701302 1.5320669400000002 7.669752300000001 -0.003042 0.036226 0.001001
10100 -5.884714890000001 1.52413065 7.63457364 -0.000904 0.039406 0.003148
10120 -5.906865870000001 1.53341091 7.6261959 0.000187 0.041545 -5.2e-05
10140 -5.9288697 1.54792971 7.6552335000000005 -0.001956 0.039422000000000006 -6.4e-05
10160 -5.897585610000001 1.55242269 7.666161840000001 -0.0008990000000000002 0.03941 0.0020800000000000003
10180 -5.90207859 1.54359369 7.6413131100000005 -0.0008849999999999998 0.040484 -5.8e-05
10200 -5.882615550000001 1.4976338400000002 7.65298701 0.000177 0.038354 -0.001116
10220 -5.90372667 1.48700961 7.678581300000001 0.00016299999999999998 0.038341 0.002088
10240 -5.8944464100000005 1.49464179 7.66136475 -0.000904 0.040467 0.004215
10260 -5.90312826 1.4917968900000003 7.64370675 -0.0019760000000000003 0.040466 0.005275
10280 -5.914949310000001 1.5178424400000001 7.67709018 -0.004124 0.037278 0.005265
10300 -5.89309263 1.5399934199999998 7.65478224 -0.007319 0.036232 0.003107
10320 -5.9025298500000005 1.5521185800000001 7.65119178 -0.004118999999999999 0.038343 0.005263
10340 -5.87603304 1.53984627 7.64579628 -0.0019760000000000003 0.038344 0.0031420000000000003
10360 -5.8853133 1.5338621700000001 7.667800110000001 -0.003047 0.040466 0.006336
10380 -5.867802449999999 1.5141048300000002 7.6651121700000004 -0.0008990000000000002 0.043654000000000005 0.006347
10400 -5.8799178 1.5114070800000001 7.68950964 -0.000904 0.041528 0.005282
10420 -5.878573830000001 1.4835663000000001 7.65403668 -0.000909 0.040462 0.005283
10440 -5.90925951 1.49478894 7.66301283 -0.000904 0.040467 0.004215
10460 -5.9124085200000005 1.53161568 7.6495437 -0.004118999999999999 0.038343 0.005263
10480 -5.892641370000001 1.52173701 7.636368870000001 -0.0008990000000000002 0.042593 0.00528
10500 -5.89010058 1.53460773 7.66076634 -0.0030280000000000003 0.040483 0.002063
10520 -5.91689169 1.5393950100000002 7.67304846 0.00122 0.036207 0.002099
10540 -5.913605340000001 1.5467328900000001 7.64909244 0.002306 0.041525 0.003168
10560 -5.878573830000001 1.53670707 7.647444360000001 0.001259 0.04579 0.0031550000000000003
10580 -5.87663145 1.53520614 7.66870263 0.001239 0.039407 0.001026
10600 -5.90177448 1.50841503 7.66855548 -0.002 0.031957 0.002082
10620 -5.898036870000001 1.4904529199999998 7.65478224 -0.0008990000000000002 0.03941 0.0020800000000000003
10640 -5.91300693 1.4865583500000001 7.655979060000001 -0.003018 0.043674 0.003128
10660 -5.9138996399999995 1.50002748 7.630679070000001 -0.0041140000000000005 0.037286 0.003128
10680 -5.897134350000001 1.51485039 7.6513389300000005 -0.004124 0.034095 0.002064
10700 -5.8880012399999995 1.5337150200000003 7.64864118 0.000168 0.038345 0.00102
10720 -5.8763273400000005 1.5274268100000001 7.657774290000001 0.000187 0.042606 0.001015
10740 -5.870637540000001 1.5275739600000002 7.67439243 0.000173 0.039411 0.001019
10760 -5.89160151 1.5230809799999998 7.689205530000001 0.00123 0.037276 0.001029
10780 -5.87304099 1.5018227100000001 7.64325549 -0.001966 0.039414 0.002072
10800 -5.873335290000001 1.51095582 7.64834688 -0.004104 0.040478 0.004192
10820 -5.90057766 1.5308701200000001 7.69969242 -0.006257 0.038346 0.006316
10840 -5.93381394 1.5359517 7.661668860000002 -0.006257 0.040468 0.00845
10860 -5.91061329 1.5429952800000002 7.6261959 -0.0041140000000000005 0.04153 0.007396
10880 -5.88995343 1.5141048300000002 7.65463509 0.000173 0.042594 0.004220000000000001
10900 -5.904325080000001 1.5001844400000002 7.666161840000001 0.000177 0.043659 0.004218
10920 -5.91270282 1.48865769 7.67140038 0.000168 0.04365 0.006355
10940 -5.899086540000001 1.50526602 7.64624754 -0.001966 0.042597 0.005273
10960 -5.860013310000001 1.51305516 7.62783417 -0.001985 0.040458 0.007412
10980 -5.90461938 1.5167927700000001 7.6513389300000005 -0.004109000000000001 0.041535 0.006327
11000 -5.892641370000001 1.53670707 7.683525540000001 -0.001971 0.042592000000000005 0.006340999999999999
11020 -5.886657270000001 1.5135064200000001 7.653732570000001 -0.001966 0.043658 0.00634
11040 -5.88905091 1.55152017 7.650593370000001 0.001244 0.042594 0.003159
11060 -5.9004305100000005 1.57083606 7.67753163 0.000173 0.039411 0.001019
11080 -5.895643230000001 1.5190392600000002 7.663464090000001 0.002302 0.042582 0.005303
11100 -5.885764560000001 1.49628987 7.635770460000001 0.005521 0.050015 0.00852
11120 -5.905521899999999 1.4735404799999998 7.657479990000001 0.001268 0.052164 0.00742
11140 -5.907915540000001 1.48057425 7.648199730000001 -0.0008990000000000002 0.043654000000000005 0.006347
11160 -5.90985792 1.49269941 7.679630970000001 -0.003042 0.04047 0.005268
11180 -5.89010058 1.5200889300000002 7.649239590000001 -0.005171 0.041543 0.005252000000000001
11200 -5.9257305 1.51619436 7.66556343 -0.001942 0.045801 0.003132
11220 -5.91899103 1.5274268100000001 7.64265708 -0.0008939999999999998 0.039414 0.001011
11240 -5.89010058 1.5314685300000002 7.65882396 -0.001961 0.039418 0.001004
11260 -5.8805260200000005 1.5328125000000001 7.67484369 0.000182 0.042602 0.002083
11280 -5.88141873 1.5220313100000002 7.676040510000001 0.001249 0.041537 0.001024
11300 -5.89474071 1.54194561 7.675883550000001 0.000168 0.038345 0.00102
11320 -5.88336111 1.5413472000000001 7.69654341 0.002311 0.040468 0.001033
11340 -5.8802219099999995 1.50093 7.644001050000001 -0.0008939999999999998 0.040475 0.002078
11360 -5.905217790000001 1.4368608900000002 7.655979060000001 -0.007305 0.038367 0.002036
11380 -5.924376720000001 1.4745803400000002 7.676187660000001 -0.012663 0.035181 0.004139
11400 -5.931714600000001 1.5443392500000002 7.64804277 -0.007324 0.035167000000000004 0.003108
11420 -5.920639110000001 1.55780838 7.64265708 -0.003057 0.033030000000000004 0.001005
11440 -5.86555596 1.5399934199999998 7.622752590000001 -0.000909 0.035157 -5.1e-05
11460 -5.907464280000001 1.5582596400000002 7.64220582 0.000187 0.039423 -0.002186
11480 -5.904923490000001 1.53730548 7.623949410000001 0.001249 0.040476 -4.3e-05
11500 -5.889502169999999 1.5064628400000002 7.678130040000001 0.001235 0.039403 0.002095
11520 -5.855373180000001 1.4810157 7.6438539 -0.001985 0.039397 0.006345
11540 -5.9040209699999995 1.49284656 7.65119178 -0.005214 0.036199 0.009531
11560 -5.92587765 1.5111029699999998 7.655380650000001 -0.01162 0.037278 0.011622
11580 -5.89833117 1.53355806 7.6134723300000005 -0.00953 0.032989 0.016983
11600 -5.879770649999999 1.5462816300000002 7.639665030000001 0.00112 0.025507 0.013862
11620 -5.89788972 1.58894532 7.65867681 0.010764 0.022329 0.001115
11640 -5.90716998 1.55032335 7.63187589 0.018333 0.028758 -0.014864
11660 -5.89818402 1.51050456 7.633828080000002 0.019462 0.029871 -0.027676
11680 -5.90776839 1.5405918300000003 7.63397523 0.010927 0.036267 -0.021335
11700 -5.90461938 1.5058644300000001 7.650289260000001 0.002445 0.06393 -0.005406
11720 -5.88096747 1.4952402 7.6772373300000005 -0.011462 0.068188 0.00731
11740 -5.899233690000001 1.50482457 7.657479990000001 -0.026489 0.061793 0.0211
11760 -5.91509646 1.50466761 7.656430320000001 -0.043631 0.05754500000000001 0.032736
11780 -5.92303275 1.51006311 7.661521710000001 -0.047927 0.059656 0.041249
11800 -5.90701302 1.49733954 7.63517205 -0.038316 0.05644800000000001 0.03598
11820 -5.93246016 1.4693418 7.63457364 -0.015926 0.041503 0.024405
11840 -5.957014590000001 1.49778099 7.6651121700000004 0.015109 0.039358 0.001123
11860 -5.983207290000001 1.51590006 7.58532744 0.033317 0.030871 -0.023308
11880 -5.99473404 1.44824049 7.59670704 0.035441 0.02555 -0.026491000000000004
11900 -5.96838438 1.555866 7.641607410000001 0.037599 0.03193 -0.025416
11920 -5.8363613999999995 1.63565073 7.674539580000001 0.034394 0.029815 -0.026504000000000003
11940 -5.67230877 1.67441985 7.717948830000001 0.013008 0.026664 -0.019171
11960 -5.573061000000001 1.75135968 7.768391850000001 -0.008409999999999999 0.024544 -0.003295
11980 -5.65164891 1.6229271600000001 7.835011560000001 -0.018026 0.031991000000000006 0.007311
12000 -5.796993870000001 1.56349818 7.8260256 -0.014778 0.044755 0.009453
12020 -5.7987891000000005 1.49778099 7.65224145 -0.008324 0.052206 0.005215999999999999
12040 -5.87423781 1.4323679100000002 7.624547820000001 -0.007238 0.058586 0.007352
12060 -6.004759860000001 1.33073631 7.571858310000001 -0.005099 0.0554 0.003098
12080 -6.16972482 1.24167132 7.5428109 -0.004057 0.047948000000000005 0.000978
12100 -6.2123787 1.30723155 7.47919305 -0.004085 0.042617 0.002053
12120 -6.1025067 1.3992885900000003 7.505238600000001 -0.005176 0.039416 0.004186
12140 -5.995636560000001 1.53610866 7.6179555 -0.005205 0.036208 0.007395
12160 -5.93365698 1.59538068 7.62918795 -0.010587 0.029818 0.011638
12180 -5.92722162 1.57203288 7.610029020000001 -0.007396 0.027676 0.011663
12200 -5.926927320000001 1.7580893400000002 7.71421122 -0.005253 0.02025 0.002074
12220 -5.7769324200000005 1.83413646 7.71241599 -0.000995 0.0128 -0.003228
12240 -5.66526519 1.6396924500000003 7.69609215 0.002249 0.027681 0.002117
12260 -5.76331614 1.43372169 7.70612778 0.002297 0.042578 0.006371
12280 -5.86180854 1.41949719 7.73710776 0.002321 0.046843 0.005297
12300 -5.785015860000001 1.43476155 7.7505866999999995 -0.003062 0.03727 0.00634
12320 -5.75298621 1.4688905399999999 7.75162656 -0.011582 0.041556 0.0073430000000000014
12340 -5.8486337100000005 1.47967173 7.7047740000000005 -0.006209 0.048999 0.006303
12360 -5.965098030000001 1.48581279 7.606732860000001 -0.0008849999999999998 0.042606 0.002076
12380 -6.018238800000001 1.55376666 7.53876918 0.001268 0.042615 -0.002182
12400 -6.024674160000001 1.61798292 7.53323634 0.007698 0.048985 -0.002145
12420 -6.07541148 1.55706282 7.58846664 0.008754999999999999 0.047911 -0.001068
12440 -6.06672963 1.5187449600000003 7.556731290000001 0.006606999999999999 0.043662 -0.002146
12460 -6.01718913 1.5024211200000002 7.547902290000001 0.00445 0.038343 -0.002154
12480 -6.01958277 1.5340093200000002 7.61047047 0.002311 0.035163 -0.004302
12500 -5.9083668000000005 1.6190325900000002 7.623949410000001 0.000182 0.039419 -0.001117
12520 -5.775892560000001 1.47233385 7.65463509 -0.0040950000000000005 0.040486 0.002056
12540 -5.78037573 1.4771309400000001 7.77363039 -0.008391 0.038354 0.006302
12560 -5.85103716 1.4888048400000002 7.75821888 -0.010525 0.038361 0.006287
12580 -5.819743260000001 1.47967173 7.704332550000001 -0.011592 0.038365 0.006279
12600 -5.7523878 1.4892561 7.709571090000001 -0.007329 0.036224 0.005243
12620 -5.81810499 1.4974866900000001 7.671841830000001 -0.005171 0.038360000000000005 0.0020510000000000003
12640 -5.902824150000001 1.47039147 7.677688590000002 -0.001961 0.039418 0.001004
12660 -5.89399515 1.4974866900000001 7.661521710000001 0.002306 0.038342 -3.3e-05
12680 -5.85402921 1.4825166300000001 7.62783417 0.002302 0.034094 -0.003232
12700 -5.916744540000001 1.48431186 7.666308990000001 0.00122 0.029841000000000006 -0.004303
12720 -5.92153182 1.50557013 7.6435596000000015 -0.000928 0.028774 -0.00218
12740 -5.940700560000001 1.5447905100000001 7.587269820000001 0.000139 0.030893 -3.9e-05
12760 -5.945183730000001 1.60121763 7.60508478 -0.000923 0.035145 0.003153
12780 -5.911054740000001 1.61065485 7.660167930000001 -0.001985 0.036214 0.003144
12800 -5.88395952 1.58909247 7.651790190000001 -0.000928 0.033018 0.002088
12820 -5.891444550000001 1.55601315 7.66436661 0.0012109999999999998 0.037259 0.005302
12840 -5.88141873 1.53011475 7.647444360000001 0.000168 0.046833 0.009555
12860 -5.9041681200000005 1.51425198 7.63517205 -0.000889 0.048968 0.009545
12880 -5.8823212499999995 1.51215264 7.640410590000001 -0.00198 0.041523 0.007411
12900 -5.88366522 1.4906000700000002 7.660020780000001 -0.003042 0.041531 0.006335
12920 -5.910456330000001 1.49538735 7.659569520000001 0.000197 0.046859 0.003146
12940 -5.93246016 1.4862640500000002 7.66436661 0.001273 0.046864 0.001017
12960 -5.9376987 1.5271227 7.64834688 -0.001947 0.041553 -6.7e-05
12980 -5.908661100000001 1.53520614 7.63187589 -0.000875 0.044736 0.002073
13000 -5.9065715700000005 1.53341091 7.614070740000001 -0.000875 0.043675 0.001006
13020 -5.93560917 1.54179846 7.626038940000001 -0.001952 0.041549 0.001001
13040 -5.89833117 1.53056601 7.648199730000001 0.001244 0.041533 0.002092
13060 -5.88860946 1.49868351 7.671998790000001 0.003368 0.040456 0.003176
13080 -5.904923490000001 1.53011475 7.67140038 0.00015800000000000002 0.039398 0.004224
13100 -5.86599741 1.49658417 7.628736689999999 -0.002004 0.031952999999999995 0.00315
13120 -5.858816490000001 1.4995860300000001 7.66436661 -0.0041670000000000006 0.023446 0.001009
13140 -5.8910031 1.51125993 7.70807016 -0.008425 0.026653 0.002043
13160 -5.888305350000001 1.53685422 7.68726315 -0.008405 0.033036 0.004172
13180 -5.84624007 1.5147032400000002 7.64564913 -0.000913 0.040458 0.006351
13200 -5.8466913300000005 1.5117111900000002 7.674539580000001 0.004445 0.048949 0.009582
13220 -5.889806280000001 1.5370013700000003 7.6811319000000005 0.005526 0.047897 0.005318
13240 -5.87244258 1.52846667 7.6830742800000005 0.000168 0.041528 0.004221
13260 -5.847741 1.5013812600000003 7.673646870000001 -0.005205 0.035147000000000005 0.006328
13280 -5.89878243 1.4810157 7.651486080000001 -0.008405 0.039402 0.010573
13300 -5.95462095 1.49269941 7.640861850000001 -0.013721 0.048987 0.015865
13320 -5.94369261 1.5214329000000002 7.63053192 -0.016969 0.037284 0.014788999999999997
13340 -5.932617120000001 1.5491265300000001 7.625891790000001 -0.01275 0.024495 0.012698
13360 -5.92722162 1.57442652 7.66496502 -0.004138 0.038326 0.009536
13380 -5.945487840000001 1.573524 7.63756569 0.009822 0.052152 0.003206
13400 -5.92049196 1.5521185800000001 7.604035110000001 0.020563 0.062788 -0.002073
13420 -5.89204296 1.53520614 7.618710870000001 0.028088 0.076606 -0.00097
13440 -5.8736394 1.49793795 7.62469497 0.024859 0.071287 8.2e-05
13460 -5.874836220000001 1.42488288 7.649239590000001 0.016286000000000002 0.061734 -0.001034
13480 -5.893848 1.38761469 7.679483820000001 0.00556 0.048988 -0.001092
13500 -5.895790379999999 1.4153083200000003 7.71869439 -0.006224 0.041559 0.00204
13520 -5.898929580000001 1.5197848200000001 7.70253732 -0.014754 0.046898 0.006246
13540 -5.87034324 1.6229271600000001 7.650142110000001 -0.011644 0.02983 0.009494
13560 -5.847741 1.6401437100000003 7.63667298 -0.006382 0.005344 0.001017
13580 -5.841904050000001 1.6458237 7.6392137700000005 -0.010501 0.043688 0.00628
13600 -5.8845677400000005 1.57113036 7.681279050000001 -0.002023 0.032997000000000005 0.008489
13620 -5.93470665 1.54747845 7.6513389300000005 0.006468000000000001 0.02444 0.009628
13640 -5.889207870000001 1.4480933400000002 7.6293351000000005 -0.001038 0.013822 0.007453
13660 -5.89010058 1.3668076800000002 7.642058670000001 0.0032630000000000003 0.01702 0.003206
13680 -5.926927320000001 1.3274401500000002 7.71241599 0.004411 0.030882 -0.001077
13700 -5.873335290000001 1.3817777400000002 7.73097651 0.001201 0.027702 -0.002164
13720 -5.809864590000001 1.3793841 7.69384566 -0.008395999999999999 0.029861 -0.001165
13740 -5.832918090000001 1.5232281300000001 7.67064501 -0.013721 0.035194 0.001996
13760 -5.904325080000001 1.63489536 7.6133153700000005 -0.01374 0.035177 0.006268
13780 -5.908513950000001 1.6643842199999999 7.683221430000001 -0.013759 0.029855 0.005207
13800 -5.82798366 1.6627459500000001 7.65313416 -0.013745 0.036233 0.008403
13820 -5.893249590000001 1.6214262300000002 7.640861850000001 -0.011573 0.044748 0.008408
13840 -5.940994860000001 1.6170902100000002 7.599247830000001 -0.005171 0.044726 0.008452
13860 -5.913752489999999 1.5405918300000003 7.58188413 0.005507 0.044697 0.006391
13880 -5.87154006 1.46275929 7.47710352 0.010904 0.055344 0.00321
13900 -6.17556177 1.4111194500000002 7.701929100000001 0.008846 0.069212 -2.7e-05
13920 -6.08529996 1.4754828599999998 7.591164389999999 0.006765 0.075633 -0.005391
13940 -6.01449138 1.49433768 7.49551689 0.004603 0.07031 -0.004331000000000001
13960 -5.918696730000001 1.5402975300000001 7.58757393 0.000201 0.045802 0.001011
13980 -5.91016203 1.5928398900000003 7.684722360000001 -0.004172 0.026625 0.005278
14000 -5.82767955 1.6401437100000003 7.7350182300000005 -0.010539 0.035164999999999995 0.006291
14020 -5.69670624 1.64522529 7.7278275 -0.011635 0.031961 0.009492
14040 -5.72559669 1.6363962900000002 7.7739345 -0.010558 0.034087 0.009497
14060 -5.74774767 1.59104466 7.74908577 -0.010525 0.039422000000000006 0.007354
14080 -5.76047124 1.54658574 7.7327717400000004 -0.008391 0.038354 0.006302
14100 -5.76496422 1.51365357 7.6928058 -0.008401 0.034101 0.004171
14120 -5.83786233 1.51200549 7.67244024 -0.010534 0.034109 0.004156
14140 -5.89519197 1.41096249 7.6453548300000005 -0.0040950000000000005 0.041547 0.003123
14160 -5.948784000000001 1.33237458 7.639665030000001 0.000187 0.044728 0.003149
14180 -6.015992310000001 1.3563306 7.6208004 0.003412 0.048982 0.002098
14200 -6.048620370000001 1.4103640800000001 7.579784790000001 0.006612000000000001 0.04791 0.001053
14220 -6.020779590000001 1.49538735 7.592508360000001 0.009827 0.047912 -0.002129
14240 -5.97318147 1.52846667 7.603289550000001 0.009832 0.050038 -0.001064
14260 -5.93590347 1.63220742 7.63263126 0.008754999999999999 0.045789 -0.0032020000000000004
14280 -5.86644867 1.61409816 7.601945580000001 0.003397 0.039421 -0.0043
14300 -5.8505859000000004 1.63534662 7.63008066 0.000177 0.039415 -4.9e-05
14320 -5.867194230000001 1.6232214600000001 7.68637044 -0.005167000000000001 0.038364 0.000983
14340 -5.8158585 1.58041062 7.69864275 -0.007329 0.036224 0.005243
14360 -5.79235374 1.5699335399999998 7.72992684 -0.005214 0.035138 0.008464
14380 -5.858963640000001 1.5660389700000001 7.687861560000001 -0.000933 0.035136 0.00529
14400 -5.89069899 1.52577873 7.65313416 0.002278 0.035133 0.003176
14420 -5.88336111 1.4862640500000002 7.6055360400000005 0.0033350000000000003 0.030877 0.001052
14440 -5.926927320000001 1.46799783 7.619005169999999 0.000125 0.029819 0.002099
14460 -5.9345595 1.4383618200000001 7.6350248999999994 -0.004138 0.034082 0.005268999999999999
14480 -5.906865870000001 1.41875163 7.671998790000001 -0.006272 0.035151 0.00632
14500 -5.88096747 1.43207361 7.653879720000001 -0.011635 0.031961 0.009492
14520 -5.88426363 1.45393029 7.655979060000001 -0.012697 0.038335 0.014817
14540 -5.864055030000001 1.5304188600000002 7.68247587 -0.009458 0.046846 0.014828999999999997
14560 -5.86195569 1.5694822800000003 7.68022938 -0.009453 0.04685 0.013761
14580 -5.872285620000001 1.60571061 7.675589250000001 -0.01053 0.044723 0.013756
14600 -5.8824684 1.6284600000000002 7.64296119 -0.004124 0.043644 0.011666
14620 -5.89952799 1.5976271700000002 7.626343050000001 0.002306 0.048952 0.010636
14640 -5.901627330000001 1.5549634799999998 7.628736689999999 0.006579000000000001 0.052124 0.012798
14660 -5.95581777 1.4898545100000002 7.605830340000001 0.002292 0.047878 0.012773
14680 -5.98650345 1.47293226 7.5956573700000005 0.002292 0.044695 0.009573
14700 -5.99667642 1.45572552 7.6215557700000005 -0.004148 0.033013 0.006338
14720 -5.9478814799999995 1.4921010000000001 7.623949410000001 -0.009525 0.025566 0.008445999999999999
14740 -5.95087353 1.52338509 7.61915232 -0.008444 0.03088 0.010584
14760 -5.930969040000001 1.5494306400000002 7.640410590000001 0.000125 0.037246 0.009567
14780 -5.910907590000001 1.56933513 7.656430320000001 0.007612000000000002 0.039359 0.00748
14800 -5.862554100000001 1.5826571100000002 7.64490357 0.009784 0.046813 0.006418000000000001
14820 -5.80957029 1.56050613 7.66884978 0.01088 0.051078 0.004283
14840 -5.8267868400000005 1.53190998 7.70941413 0.0066170000000000005 0.050037 0.002119
14860 -5.84983053 1.5147032400000002 7.71181758 0.003407 0.045795 -3.5e-05
14880 -5.83980471 1.5025780800000001 7.694453879999999 -0.005147 0.044747 0.003111
14900 -5.843993580000001 1.5027252300000002 7.669899450000001 -0.013673 0.043724 -0.000152
14920 -5.90207859 1.4835663000000001 7.6272357600000005 -0.025447 0.034182 -0.00129
14940 -5.95266876 1.4693418 7.676187660000001 -0.023361 0.033071 0.00834
14960 -5.964195510000001 1.5126039000000002 7.65568476 -0.013763999999999998 0.044704 0.021211
14980 -5.93949393 1.5443392500000002 7.63263126 -0.006272 0.058493 0.029791
15000 -5.935305060000001 1.573524 7.6293351000000005 -0.007358 0.058479 0.034057
15020 -5.93291142 1.63325709 7.6095777600000005 0.0033200000000000005 0.056329 0.029861
15040 -5.91913818 1.5994224000000004 7.554043350000001 0.016209 0.054238 0.008589
15060 -5.936354730000001 1.50093 7.62170292 0.017314 0.043659 -0.010617
15080 -5.91958944 1.4124634200000001 7.663915350000001 0.006612000000000001 0.024568 -0.022418
15100 -5.864055030000001 1.3910580000000001 7.682328720000001 0.005493 0.00861 -0.026678
15120 -5.853273840000001 1.3840242299999999 7.70088924 0.004464 0.016075 -0.027763
15140 -5.879025090000001 1.4980851 7.684418250000001 0.000192 0.023513 -0.019257
15160 -5.826335580000001 1.56918798 7.670949120000001 -0.009453 0.02563 -0.007576
15180 -5.80882473 1.6393883400000002 7.66436661 -0.019093 0.025629 0.000902
15200 -5.82977889 1.7486619300000001 7.644452310000001 -0.019098 0.033052 0.009438
15220 -5.84983053 1.7446202100000001 7.71196473 -0.016978999999999998 0.035154000000000005 0.014791
15240 -5.83441902 1.7455227299999998 7.64864118 -0.009501 0.034075 0.01164
15260 -5.82454035 1.5667943400000004 7.5459599100000005 0.000153 0.039393 0.005292
15280 -5.938297110000001 1.2954105 7.6526829 0.01087 0.047887 0.003219
15300 -6.0071535 1.1424235500000002 7.669899450000001 0.016228 0.053195000000000006 0.00325
15320 -6.07481307 1.18853055 7.65463509 0.018386000000000003 0.057452 0.002191
15340 -6.02092674 1.35767457 7.55029593 0.018386000000000003 0.056391 0.001124
15360 -5.996234970000001 1.60840836 7.657323030000001 0.010884 0.053205 0.0053490000000000005
15380 -5.89608468 1.7354870999999998 7.650593370000001 0.0023350000000000003 0.050039 0.005293
15400 -5.85013464 1.8029995200000002 7.592508360000001 -0.007281 0.043693 0.00203
15420 -5.8384607399999995 1.7905800600000001 7.62289974 -0.013716 0.038381 0.004128
15440 -5.836067100000001 1.7911784700000002 7.706422080000001 -0.015859 0.037319 0.005183
15460 -5.801938110000001 1.71902592 7.70837427 -0.014807 0.038363 0.009461
15480 -5.79070566 1.58580612 7.7207937300000005 -0.011606 0.040474 0.011618
15500 -5.83382061 1.5344605800000002 7.7067261899999995 -0.009472 0.037284 0.008431999999999999
15520 -5.885607600000001 1.41784911 7.60223988 -0.004133 0.036208 0.006334
15540 -5.979616830000001 1.3482471600000001 7.57934334 0.000144 0.035141000000000006 0.003161
15560 -6.00461271 1.3521417299999998 7.618858020000001 0.004445 0.0394 -1.9e-05
15580 -5.99667642 1.31201883 7.61855391 0.00445 0.038343 -0.002154
15600 -5.938895520000001 1.3446567 7.6014943200000005 0.002292 0.035146 -2.9e-05
15620 -5.94474228 1.3953940200000001 7.63591761 0.002297 0.037273 0.001037
15640 -5.93785566 1.4569223400000002 7.66375839 -0.0008939999999999998 0.040475 0.002078
15660 -5.892494220000001 1.52532747 7.681730310000001 -0.0041140000000000005 0.036225 0.002061
15680 -5.8363613999999995 1.5826571100000002 7.669448190000001 -0.006243 0.041542 0.006312
15700 -5.81196393 1.61573643 7.65672462 -0.005162 0.043673 0.005249
15720 -5.803134930000001 1.7371351800000001 7.67080197 -0.003023 0.039426 -7.2e-05
15740 -5.811816780000001 1.7354870999999998 7.665710580000001 0.00015800000000000002 0.033032 -0.002178
15760 -5.81570154 1.6247223900000003 7.66451376 0.001235 0.037281 -3.9e-05
15780 -5.882164290000001 1.5375997800000003 7.655979060000001 0.003392 0.040477 -0.002165
15800 -5.9604579 1.47278511 7.631581590000001 0.003378 0.034099000000000004 -0.005361
15820 -5.98110795 1.48086855 7.6136194800000006 0.000149 0.025596 -0.007509
15840 -5.97617352 1.4976338400000002 7.592214060000001 -0.003047 0.029856 -0.004332
15860 -5.947734330000001 1.46769372 7.60822398 -0.003042 0.030921 -0.004334
15880 -5.95312002 1.49329782 7.634877750000001 -0.004128 0.028786000000000006 -0.002202
15900 -5.9384540700000015 1.52697555 7.629629400000001 -0.006257 0.03198 -8.499999999999999e-05
15920 -5.90222574 1.573524 7.64655165 -0.004109000000000001 0.03623 0.000993
15940 -5.87094165 1.57652586 7.672293090000001 -0.003047 0.036222 0.002069
15960 -5.835910139999999 1.5521185800000001 7.69639626 -0.000904 0.037284 0.001014
15980 -5.844444840000001 1.5582596400000002 7.70807016 0.001254 0.041542 -4.4e-05
16000 -5.827532400000001 1.53551025 7.67633481 0.002316 0.042595 0.002098
16020 -5.85611874 1.54613448 7.677688590000002 0.001244 0.041533 0.002092
16040 -5.895339120000001 1.53326376 7.68681189 0.003368 0.039395 0.002109
16060 -5.885764560000001 1.5239835 7.632180000000001 0.005521 0.040466 -0.001082
16080 -5.89069899 1.5073653599999999 7.63053192 0.004469 0.042604 -0.00216
16100 -5.92482798 1.54747845 7.6814262 0.002325 0.042603 -3.8e-05
16120 -5.949078300000001 1.58849406 7.647601320000001 0.003397 0.046848 0.003168
16140 -5.895643230000001 1.5679911599999998 7.622752590000001 0.004464 0.048966 0.0053100000000000005
16160 -5.880673170000001 1.5587109000000001 7.6324743 0.002321 0.045782 0.004229999999999999
16180 -5.891895810000001 1.5356574000000003 7.65628317 -0.0030280000000000003 0.041544 0.00313
16200 -5.9362075800000005 1.5211386 7.642058670000001 -0.007315 0.040481 0.006306
16220 -5.889502169999999 1.4900016600000001 7.66331694 -0.009444 0.044736 0.009491
16240 -5.889806280000001 1.4657513400000002 7.66451376 -0.011601 0.037295 0.007349
16260 -5.88740283 1.4618567700000002 7.64804277 -0.012692 0.024546 -0.00012
16280 -5.910907590000001 1.4730892199999999 7.662561570000001 -0.006301 0.022393 -7.3e-05
16300 -5.87588589 1.4911984800000002 7.64296119 0.005497 0.037261 0.001059
16320 -5.870039129999999 1.5275739600000002 7.682328720000001 0.009808 0.04259 -0.003191
16340 -5.88366522 1.5477825600000001 7.68217176 0.005521 0.0341 -0.007483
16360 -5.851635570000001 1.5239835 7.66136475 -0.003066 0.023473 -0.006461
16380 -5.860013310000001 1.51320231 7.65792144 -0.008386 0.031992 -0.001168
16400 -5.865399 1.51095582 7.683368580000002 -0.007305 0.037306 0.000969
16420 -5.854176360000001 1.49928192 7.67304846 -0.010525 0.035177999999999994 0.003086
16440 -5.88291966 1.5320669400000002 7.670949120000001 -0.01053 0.037296 0.006288
16460 -5.901931439999999 1.5181465500000002 7.650436409999999 -0.001961 0.045784 0.007405
16480 -5.917195800000001 1.55795553 7.654183830000001 0.000206 0.048989 0.003143
16500 -5.89968495 1.5549634799999998 7.64235297 -0.0008699999999999999 0.048985 0.005272
16520 -5.852979540000001 1.58999499 7.65672462 0.000201 0.048985 0.004212
16540 -5.89084614 1.5919373700000001 7.669448190000001 -0.000875 0.046858 0.004207
16560 -5.920933410000001 1.60286571 7.67843415 -0.00409 0.045796 0.006322
16580 -5.886657270000001 1.55481633 7.674088320000001 -0.0041 0.043665 0.006325
16600 -5.86840086 1.55735712 7.63876251 -0.020122 0.05961900000000001 0.026489
16620 -5.886657270000001 1.4638089600000002 7.60209273 -0.029843 0.024533000000000003 0.01792
16640 -5.95671048 1.49658417 7.7068733400000005 -0.012692 0.025607 0.000947
16660 -5.92767288 1.56813831 7.689362490000001 -0.0008849999999999998 0.039423 -0.001125
16680 -5.844896100000001 1.58535486 7.64265708 -0.006272 0.033029 0.004187
16700 -5.817506580000001 1.54747845 7.5956573700000005 -0.005306 0.013837 0.007423000000000002
16720 -5.9282712900000005 1.52772111 7.65403668 -0.008525 0.009587 0.007406
16740 -5.915253420000001 1.5263771400000001 7.67783574 0.006483 0.022331 0.00429
16760 -5.83860789 1.47952458 7.666456139999999 0.006502 0.028714 0.006418000000000001
16780 -5.854176360000001 1.4150042100000002 7.67154753 3.4e-05 0.017006 0.009592
16800 -5.9376987 1.45123254 7.684418250000001 -0.002129 0.010622 0.009586
16820 -5.87558178 1.52023608 7.681730310000001 -0.003177 0.013826 0.008506
16840 -5.852979540000001 1.5172440300000003 7.647748470000001 -0.002115 0.013818 0.009582
16860 -5.89668309 1.5167927700000001 7.6555278000000015 -0.003148 0.028705 0.017033
16880 -5.91181011 1.57172877 7.6555278000000015 -0.004196 0.035092 0.019154
16900 -5.8912974 1.57113036 7.634279340000001 -0.00099 0.032963 0.015974000000000002
16920 -5.860758870000001 1.54568322 7.673342760000001 0.002258 0.041482 0.01385
16940 -5.879476350000001 1.5769673100000001 7.681279050000001 -0.001961 0.051089 0.012739
16960 -5.86675278 1.52802522 7.641911520000001 -0.0008609999999999999 0.055359000000000005 0.009537
16980 -5.96868849 1.7573437800000002 7.617661200000001 -0.001952 0.046854 0.006336
17000 -5.900724810000001 1.53655011 7.681730310000001 0.000192 0.044733 0.0020800000000000003
17020 -5.916744540000001 1.51185834 7.70223321 0.002345 0.045803 -0.001111
17040 -5.898929580000001 1.48850073 7.63352397 0.00344 0.046886 -0.006445
17060 -5.865399 1.5028723800000001 7.624842120000001 0.004522 0.046895 -0.009643
17080 -5.90566905 1.48401756 7.612716960000001 0.004526 0.044777 -0.012844
17100 -5.95866267 1.55512044 7.68052368 0.005608 0.047969 -0.012841
17120 -5.91599898 1.53341091 7.657479990000001 0.001359 0.051184 -0.013943
17140 -5.83741107 1.52023608 7.62993351 -0.000779 0.045883 -0.018224
17160 -5.83800948 1.53250839 7.673489910000001 0.003493 0.044811 -0.020329
17180 -5.83246683 1.4780236500000004 7.63727139 0.006698000000000001 0.046926 -0.019241
17200 -5.843993580000001 1.4754828599999998 7.71526089 0.002421 0.043749 -0.020335
17220 -5.84384643 1.5060213900000003 7.7646542400000005 -0.0008029999999999999 0.040556 -0.018217
17240 -5.80852062 1.52862363 7.7210978400000005 0.005593 0.041591 -0.016038
17260 -5.8086677700000005 1.5220313100000002 7.67798289 0.010937 0.043702 -0.016003
17280 -5.861514240000001 1.5432895800000002 7.703430030000001 0.0077459999999999985 0.047966 -0.013894
17300 -5.87737701 1.56080043 7.693100100000001 0.00455 0.049043 -0.013918
17320 -5.82378498 1.52023608 7.73232048 -0.000794 0.046931 -0.013953
17340 -5.79983877 1.5106615200000002 7.691304870000001 -0.0008560000000000001 0.040509 -0.0064670000000000005
17360 -5.842796760000001 1.53355806 7.661521710000001 -0.003009 0.034134 -0.008611
17380 -5.879623500000001 1.5500290500000002 7.66855548 -0.012615 0.025675 -0.016144
17400 -5.87094165 1.56244851 7.6791797100000005 -0.016868 0.021459 -0.023646
17420 -5.85223398 1.58624757 7.70986539 -0.015768 0.027851 -0.024715
17440 -5.8585123800000005 1.6078099500000003 7.668408330000001 -0.029441 0.074758 -0.021666
17460 -5.90597316 1.5958319400000003 7.70253732 -0.05705900000000001 0.100426 -0.02296
17480 -5.893249590000001 1.5777226800000002 7.644158010000001 -0.051969000000000015 0.042896 -0.026055
17500 -5.860013310000001 1.54508481 7.584729030000001 -0.039244 0.030051 -0.021677
17520 -5.861357280000001 1.52772111 7.67214594 -0.028633 0.010864 -0.027988
17540 -5.89010058 1.4931408600000002 7.71675201 -0.012591 0.009781 -0.037488
17560 -5.885764560000001 1.5039220500000001 7.683819840000001 -0.011414 0.032157 -0.039645
17580 -5.87498337 1.47637557 7.668408330000001 -0.008242 0.017266 -0.04815
17600 -5.858816490000001 1.43207361 7.67678607 -0.007152 0.013039 -0.057751
17620 -5.838313590000001 1.4265309600000002 7.687861560000001 0.003574000000000001 0.026846 -0.056625
17640 -5.8880012399999995 1.47967173 7.701634800000001 0.006847 0.044936 -0.054489
17660 -5.9302136700000005 1.5789195000000003 7.66436661 0.0056890000000000005 0.033188 -0.045936000000000005
17680 -5.93979804 1.6021201500000002 7.656577470000001 0.002412 0.022521 -0.039536
17700 -5.86809675 1.4762284200000002 7.637712840000001 -0.00409 0.004417 -0.035286
17720 -5.860915830000001 1.49614272 7.59595167 0.0020280000000000003 -0.028748000000000006 -0.00529
17740 -5.87034324 1.5796650600000002 7.61466915 -0.019328 -0.018081 0.009502
17760 -5.86735119 1.5769673100000001 7.64235297 -0.02151 -0.014933000000000004 0.02337
17780 -5.86764549 1.52547462 7.729024320000001 -0.031174 -0.018138 0.033989
17800 -5.86914642 1.5338621700000001 7.7784274799999995 -0.049301 -0.019127 0.030659
17820 -5.835910139999999 1.5967344600000002 7.814646 -0.045062 -0.02235 0.033897000000000004
17840 -5.773194810000001 1.5236793900000003 7.5715542 -0.051598000000000005 -0.028813 0.05736
17860 -5.85043875 1.3642668900000001 7.61720994 -0.057932 -0.020243 0.050896
17880 -5.90507064 1.35992106 7.628138280000001 -0.055688 0.011677 0.058348
17900 -5.926770360000001 1.40737203 7.60822398 -0.061027 0.027607 0.075382
17920 -5.94534069 1.5135064200000001 7.80806349 -0.00112 0.075288 0.08749
17940 -5.8881582 1.4917968900000003 7.76300616 0.020122 0.06451799999999999 0.098334
17960 -5.761972170000001 1.51185834 7.68501666 0.0053100000000000005 0.10393800000000003 0.109931
17980 -5.792805 1.48326219 7.723040220000001 0.013538 0.063318 0.13781400000000002
18000 -5.8308285600000005 1.4983794 7.719901020000001 0.006840000000000001 0.019575 0.16025599999999998
18020 -5.861514240000001 1.4406083100000002 7.674539580000001 -0.025616000000000003 -0.028459 0.212434
18040 -5.93949393 1.42593255 7.586818560000001 -0.024727 -0.041353 0.239162
18060 -5.99967828 1.35602649 7.553444939999999 -0.054551 -0.056060000000000006 0.213335
18080 -6.011048070000001 1.16308341 7.68412395 -0.035621 -0.129579 0.200743
18100 -5.891444550000001 1.01279421 7.71869439 -0.006926000000000001 -0.129777 0.225513
18120 -5.90940666 1.20589425 7.7350182300000005 -0.026383 -0.147973 0.263856
18140 -5.843100870000001 1.35827298 7.65971667 -0.092205 -0.287398 0.289212
18160 -5.78486871 1.33028505 7.706422080000001 -0.107443 -0.382043 0.26145300000000005
18180 -5.7549285900000005 1.31232294 7.707471750000001 -0.078786 -0.434265 0.242493
18200 -5.742205020000001 1.4043799799999999 7.75597239 -0.04235 -0.430003 0.210695
18220 -5.68802439 1.49898762 7.819590240000001 0.00375 -0.412987 0.17787999999999998
18240 -5.72679351 1.5615558 7.8926355 0.020863 -0.419374 0.161985
18260 -5.56108299 1.4373121500000001 8.096958180000001 -0.005597 -0.363921 0.170275
18280 -5.464984230000001 1.4552742600000002 8.27539227 -0.028829 -0.303149 0.17751199999999998
18300 -5.50315494 1.40811759 8.1009999 -0.049854 -0.230649 0.180477
18320 -5.529053340000001 1.6281657 7.97691321 -0.068655 -0.16550299999999998 0.155693
18340 -5.78965599 1.6301080800000003 8.01403425 -0.059483 -0.071598 0.107567
18360 -5.90447223 1.6420860900000003 8.041129470000001 -0.063199 0.0010550000000000002 0.057241
18380 -6.022574820000001 1.7425306800000002 8.14665564 -0.065901 0.068353 0.013338999999999998
18400 -6.16014045 1.7090001000000001 7.8501287699999995 -0.06114500000000001 0.133494 -0.030508
18420 -6.37105545 1.78039728 7.469167230000001 -0.044518 0.210384 -0.092448
18440 -6.34081122 2.02139955 7.7269347900000005 -0.044355 0.19037 -0.149037
18460 -6.38497584 1.8179695800000002 7.700290830000001 -0.052775 0.182014 -0.183268
18480 -6.3282446100000005 1.8519514200000002 7.536081240000001 -0.065237 0.196154 -0.24533
18500 -6.10056432 1.6096051800000002 7.1876006100000005 -0.077843 0.183641 -0.302018
18520 -5.86211265 1.38851721 7.196135310000001 -0.073801 0.059289 -0.376606
18540 -5.87827953 1.7312982300000002 7.865540280000001 -0.009818 -0.017353 -0.446563
18560 -5.689966770000001 1.7284533300000002 8.03334033 0.158724 0.181399 -0.478755
18580 -5.11426692 1.5521185800000001 8.024962590000001 0.256542 0.318581 -0.503885
18600 -4.679114940000001 1.51635132 8.10759222 0.24286 0.337893 -0.526438
18620 -4.9310455499999994 1.2777426900000002 8.0025075 0.179383 0.219869 -0.52673
18640 -5.13821313 1.11577959 7.83066573 0.157605 0.127244 -0.521423
18660 -4.96577295 0.9714843000000001 7.609430610000001 0.20669 0.17164300000000002 -0.478408
18680 -4.77537066 0.81056106 7.60538889 0.224697 0.191624 -0.429169
18700 -4.563405990000001 1.04393115 7.7808211200000015 0.188925 0.140316 -0.354578
18720 -4.4439594300000005 1.32684174 7.849971810000001 0.12108499999999997 0.05193 -0.303664
18740 -4.2845371199999995 1.4115609000000002 7.910901720000001 0.026626 -0.003426 -0.231614
18760 -4.30086096 1.04467671 7.947120240000001 -0.029239 -0.029041 -0.171083
18780 -4.36567563 1.13209362 7.974068310000001 0.001484 -0.08133 -0.175074
18800 -4.44964923 1.4687433900000002 8.0113365 0.088163 -0.029409 -0.180944
18820 -4.476440340000002 1.5423968700000001 8.139769020000001 0.11581099999999997 -0.005184 -0.135917
18840 -4.77955953 1.59133896 8.35891461 0.109997 -0.035299000000000004 -0.059007
18860 -4.94871336 1.7422265700000001 8.12869353 0.032852 -0.021532 0.028031
18880 -5.025947490000001 1.4630535900000003 8.00101638 -0.020922 -0.027034 0.118461
18900 -5.097197520000001 1.3329828000000001 8.22270276 -0.101493 -0.061201 0.207673
18920 -5.4768150900000006 1.2750449400000001 9.18984123 -0.229212 -0.145254 0.292346
18940 -5.66466678 1.38267045 9.40882986 -0.312911 -0.193138 0.351643
18960 -5.0766946200000005 1.2960089099999998 8.71248663 -0.35590700000000003 -0.243142 0.372771
18980 -4.85485128 1.7431290900000003 7.96328712 -0.320758 -0.273024 0.355964
19000 -5.17264623 1.9893600900000001 7.788904560000001 -0.279973 -0.246423 0.328441
19020 -5.52874923 1.57442652 8.159977620000001 -0.22207 -0.201803 0.308492
19040 -5.795797050000001 1.5492736800000002 8.62565832 -0.153608 -0.166866 0.303584
19060 -5.93979804 1.33253154 8.41684266 -0.091448 -0.111659 0.29647
19080 -5.644762290000001 1.20544299 8.111928240000001 -0.025976 -0.070158 0.250941
19100 -5.65269858 1.3841713800000002 7.612118550000001 0.013992 0.007595999999999999 0.219073
19120 -5.82454035 1.3305793499999998 7.50643542 0.020045 0.151452 0.202908
19140 -5.964793920000001 1.7191730700000003 7.827820830000001 0.067567 0.292917 0.215877
19160 -5.73667218 1.8965574900000002 8.14097565 0.093584 0.403539 0.235145
19180 -5.544916110000001 1.67920713 8.60979555 0.097005 0.440859 0.223371
19200 -5.51587851 1.3527401400000003 8.601260850000001 0.14113 0.469694 0.167027
19220 -5.71406994 0.79439418 8.0833419 0.170997 0.397437 0.095757
19240 -5.92782003 0.5890218299999999 7.59415644 0.210303 0.300598 0.036335
19260 -5.923336860000001 0.7568218800000002 7.33355379 0.210045 0.22715900000000006 0.020404
19280 -6.08320062 1.10963853 7.421569110000001 0.182956 0.178075 0.064075
19300 -5.980215240000001 1.4284831500000004 7.77498417 0.123909 0.138695 0.106442
19320 -5.66227314 1.5971759099999998 7.99980975 0.004802000000000001 0.039827 0.159148
19340 -5.30242272 1.8525498300000003 8.176301460000001 -0.091882 -0.072897 0.193868
19360 -4.905745560000001 1.98906579 8.29964259 -0.142144 -0.101475 0.191417
19380 -4.67418051 1.9426644900000003 8.4972258 -0.15476900000000002 -0.07793 0.175275
19400 -4.575531150000001 1.87575048 8.75769111 -0.143952 -0.070409 0.149704
19420 -4.62074544 1.6714278 8.78163732 -0.123533 -0.075652 0.111397
19440 -4.71953214 1.2826869300000001 8.77146435 -0.070566 0.0011710000000000002 0.034757
19460 -4.5336228300000005 1.23268536 8.7198147 0.0070290000000000005 0.087538 -0.052406
19480 -4.31373168 0.90741519 8.80259148 0.062206 0.181398 -0.129053
19500 -4.34157246 1.04557923 9.11723742 0.091529 0.24754 -0.178071
19520 -4.48138458 0.83212344 9.00093006 0.115192 0.26036 -0.207832
19540 -4.63481298 0.63243108 8.72925192 0.09718 0.276449 -0.219729
19560 -4.839282810000001 0.78601644 8.37627831 0.074392 0.186002 -0.225114
19580 -5.0265459 1.03165884 8.06103396 0.07399 0.106068 -0.2154
19600 -5.25946473 1.40572395 7.982151750000001 0.07797899999999999 0.060183000000000014 -0.19929
19620 -5.49566991 1.7801029800000001 8.47732131 0.047944 0.047411 -0.175982
19640 -5.716914840000001 1.99609956 8.94105963 -0.002721 -0.029271 -0.136714
19660 -5.724095760000001 2.06435754 8.32853304 -0.040522 -0.091088 -0.096306
19680 -5.49881892 2.12199129 7.35331113 -0.058951 -0.125236 -0.065413
19700 -5.371279110000001 1.9205037 6.539601060000001 -0.068624 -0.122084 -0.046256
19720 -5.47561827 1.7121393 6.500979090000001 -0.065505 -0.117923 -0.023807
19740 -5.65239447 1.30873248 6.865626600000001 -0.040886 -0.080801 -0.004455
19760 -5.30900523 1.04302863 7.09494516 -0.011903 -0.028755000000000006 0.008499
19780 -4.860541080000001 0.78481962 7.43130063 -0.001057 0.014866 0.012792
19800 -4.8539585700000005 0.67464351 7.91494344 9.6e-05 0.038281 0.017043
19820 -4.98119427 0.80682345 8.405325720000002 -0.004128 0.059555 0.028737
19840 -5.081629050000001 0.86340753 8.573871330000001 -0.020122 0.07128999999999999 0.038224
19860 -4.75606458 1.1304455400000002 8.55021942 -0.023361 0.067023 0.04248
19880 -4.57284321 1.24495767 8.531207640000002 -0.02338 0.061701 0.041418
19900 -4.73585598 1.36307007 8.31626073 -0.03079 0.06920499999999999 0.036016
19920 -5.224138920000001 1.6040625300000002 8.060886810000001 -0.034962 0.082038 0.027424
19940 -5.791755330000001 1.6790599800000001 7.970173740000001 -0.034924000000000004 0.07995 0.016745
19960 -5.9341082400000005 1.81123011 7.75013544 -0.018906 0.065053 -0.001284
19980 -6.0935305500000005 1.8462616200000002 7.904309400000001 0.001354 0.039509 -0.02461
20000 -6.09547293 2.14668306 7.99996671 0.029107 0.033059 -0.034022000000000004
20020 -5.82963174 2.15371683 7.879166370000001 0.05914700000000001 0.068117 -0.035994
20040 -5.67454545 2.02259637 7.80402177 0.07004099999999999 0.123452 -0.030647000000000008
20060 -5.6934100800000005 1.8332339400000002 7.866442800000001 0.057215 0.13408499999999998 -0.014727
20080 -5.646263220000001 1.6325017199999998 7.90894953 0.022788 0.095753 0.010719
20100 -5.45345748 1.36126503 8.07136389 -0.021237 0.055336 0.032895999999999995
20120 -5.30617014 1.19257227 8.23003083 -0.048052 0.038326 0.047685000000000005
20140 -5.26859784 1.1300040900000001 8.43690411 -0.059831 0.028779 0.047615
20160 -5.1920994600000006 1.1148770700000001 8.478223830000001 -0.053439 0.017077000000000002 0.038061000000000005
20180 -5.0814819 1.22879079 8.40966174 -0.045937 0.00541 0.0189
20200 -5.05214019 1.36261881 8.260422210000002 -0.027772 -0.015847999999999998 -0.008719
20220 -5.08028508 1.4760812700000003 8.15533749 -0.006425 -0.042439 -0.037378
20240 -5.07205449 1.61917974 8.077652100000002 0.004176 -0.076488 -0.056489
20260 -5.10274017 1.6986701700000002 8.139327569999999 0.01806 -0.087134 -0.070265
20280 -5.104829700000001 1.7378905500000001 8.216561700000002 0.035259 -0.070102 -0.08191699999999999
20300 -5.1919523100000005 1.75599981 8.264463930000002 0.056783000000000014 -0.033937 -0.087154
20320 -5.19778926 1.7215667100000003 8.20533906 0.06435199999999999 -0.007348 -0.082862
20340 -5.195101320000001 1.63206027 8.07511131 0.057970000000000015 0.013911 -0.065843
20360 -5.188361850000001 1.45587267 7.988439960000001 0.040896 0.033065 -0.04569
20380 -5.23327203 1.32878412 8.08798203 0.01852 0.05757200000000001 -0.027718
20400 -5.40645777 1.1612881800000001 8.208183960000001 -0.004965 0.075678 -0.006541
20420 -5.49177534 1.14062832 8.299789740000001 -0.017844 0.079899 0.014728
20440 -5.46782913 1.15364619 8.172406890000001 -0.028604 0.067123 0.022147
20460 -5.362146 1.1379305700000002 7.91822979 -0.032967 0.054320000000000014 0.030679
20480 -5.31844245 1.21442895 7.71600645 -0.03833 0.057497 0.040251
20500 -5.44477563 1.3992885900000003 7.717948830000001 -0.035197000000000006 0.059548 0.057362
20520 -5.61572469 1.55885805 7.85701539 -0.032001 0.064837 0.063787
20540 -5.54940909 1.6551039600000002 7.953859710000001 -0.035182 0.066988 0.061625
20560 -5.47605972 1.7024077800000001 8.045465490000002 -0.033006 0.06914 0.05416
20580 -5.436397889999999 1.82186415 8.09905752 -0.02659 0.058521 0.040332
20600 -5.439389940000001 1.70944155 8.05909158 -0.018022 0.044728 0.019045
20620 -5.393430090000001 1.51394787 7.929158129999999 -0.0041 0.030933 -0.006478
20640 -5.45136795 1.4156026200000003 7.93664316 0.008759999999999999 0.022452 -0.027741
20660 -5.4588529800000005 1.3099292999999999 8.03005398 0.019443 0.011817 -0.04154
20680 -5.472920520000001 1.24301529 8.188573770000001 0.030107 0.002226 -0.049999
20700 -5.41903419 1.25573886 8.272400220000002 0.032236 -0.000968 -0.052116
20720 -5.25991599 1.2029022 8.22060342 0.029045 0.006478 -0.046807
20740 -5.09121342 1.19900763 8.17525179 0.025787 0.00856 -0.031878
20760 -4.96098567 1.28223567 8.181235890000002 0.017209000000000002 0.018101 -0.012722
20780 -4.9075407900000005 1.38776184 8.20878237 0.00333 0.029812 0.001053
20800 -4.94302356 1.5001844400000002 8.2253907 -0.003062 0.044697 0.013808
20820 -5.00409081 1.55376666 8.22569481 -0.011592 0.052158 0.020148
20840 -4.974906060000001 1.52622999 8.25937254 -0.014792 0.054291 0.02226
20860 -4.960387260000001 1.4995860300000001 8.274941010000001 -0.016944999999999998 0.053221 0.025451
20880 -5.09810004 1.4295230100000003 8.23243428 -0.019045 0.058563 0.023293
20900 -5.33430522 1.3446567 8.16297948 -0.015821 0.056451 0.01584
20920 -5.4545071499999995 1.29091752 8.1382779 -0.012596 0.051156 0.005188
20940 -5.49133389 1.34330292 8.01778167 -0.010482 0.040522 -0.001193
20960 -5.5124352 1.3953940200000001 7.94862117 -0.005171 0.033055 -0.003283
20980 -5.5380294899999996 1.4169564000000001 7.89533325 0.001191 0.028754 0.00104
21000 -5.53503744 1.48775517 7.912098540000001 0.007587999999999998 0.03085 0.004286
21020 -5.472920520000001 1.52173701 7.92946224 0.010851 0.048931 0.008559
21040 -5.4289128600000005 1.5648421500000003 8.012984580000001 0.009817 0.06594 0.018144
21060 -5.360203620000001 1.54269117 8.100705600000001 0.009789 0.061671 0.020286
21080 -5.3154504000000005 1.5001844400000002 8.12225817 0.006534999999999999 0.043598000000000005 0.013877
21100 -5.25856221 1.41635799 8.15085432 0.001168 0.031916 0.009581
21120 -5.2040774700000005 1.32698889 8.15145273 -0.003076 0.033013 0.005277
21140 -5.20333191 1.25454204 8.184826350000002 -0.003033 0.040478 0.003132
21160 -5.21380899 1.2265541100000001 8.195303430000001 -0.008314 0.042666 -0.006522
21180 -5.17773762 1.2584366100000002 8.18198145 -0.01583 0.023551 -0.015096
21200 -5.18551695 1.34734464 8.16506901 -0.014859 0.001181 -0.016128999999999998
21220 -5.14660068 1.3790799900000001 8.16956199 -0.013821 -0.004153 -0.015046
21240 -5.13312174 1.4492901599999999 8.18003907 -0.002071 0.010673 -0.003233
21260 -5.18925456 1.4579720100000002 8.1496575 0.009784 0.053179 0.012819
21280 -5.21246502 1.4919440400000001 8.155788750000001 0.015262 0.093606 0.021351
21300 -5.20902171 1.55916216 8.12600559 0.009885 0.086159 0.02346
21320 -5.19524847 1.54613448 8.1385722 0.002321 0.059575 0.0181
21340 -5.22713097 1.52846667 8.108484930000001 -0.005186 0.044713 0.011657
21360 -5.29044471 1.3840242299999999 8.0662725 -0.011544 0.044774 0.001998
21380 -5.4049568400000005 1.25918217 8.07839766 -0.00941 0.036278 -0.006522
21400 -5.46393456 1.1632305600000001 8.0947215 -0.009501 0.013916 -0.00863
21420 -5.473371780000001 1.1666738700000001 8.09456454 -0.010592 0.006470999999999999 -0.010764
21440 -5.461089660000001 1.22804523 8.07181515 -0.005248 0.012827000000000002 -0.006462000000000001
21460 -5.41618929 1.3500423900000003 8.0602884 0.0033350000000000003 0.036182 0.006386
21480 -5.33535489 1.4642504099999998 8.04426867 0.0023350000000000003 0.057466 0.012761
21500 -5.26740102 1.4988306599999999 8.063878859999999 -0.000842 0.065986 0.015933000000000003
21520 -5.2200972 1.55512044 8.09546706 -0.001942 0.059594000000000015 0.017002
21540 -5.22338355 1.6055634600000002 8.17570305 -0.004085 0.053227 0.012722
21560 -5.14300041 1.7212724099999999 8.22763719 -0.007276 0.047942 0.005229
21580 -5.071907340000001 1.71768195 8.14277088 -0.001932 0.041566000000000006 -0.003271
21600 -5.077145880000001 1.5188921100000001 8.100852750000001 0.000173 0.027739 -0.010717
21620 -5.18716503 1.28013633 8.14980465 0.003325 0.014954 -0.012815
21640 -5.304522060000001 1.1075490000000001 8.17465338 0.005464 0.02556 -0.003199
21660 -5.50061415 1.06443405 8.240664870000002 0.0076310000000000015 0.041498 0.005340999999999999
21680 -5.512582350000001 1.13464422 8.19276264 0.005502 0.042571 0.005325
21700 -5.40031671 1.25454204 8.01912564 0.003383 0.045774 0.005306
21720 -5.27173704 1.3995927 7.972273080000001 -0.001937 0.050049 0.006332
21740 -5.25991599 1.54568322 8.01373995 -0.002994 0.050062 0.004188
21760 -5.243749110000001 1.6847497800000002 8.08064415 -0.006195 0.044768 -0.001169
21780 -5.18596821 1.7444730600000002 8.095015799999999 -0.007315 0.034115 -9.5e-05
21800 -5.12804016 1.6687300500000002 8.14845087 -0.008401 0.031979 0.002037
21820 -5.11291314 1.49733954 8.16806106 -0.00199 0.034087 0.002079
21840 -5.18432013 1.35602649 8.195009129999999 0.002302 0.038338 0.001035
21860 -5.3126055 1.24181847 8.215668990000001 0.006583 0.044702 0.004262
21880 -5.383257120000001 1.2009500100000001 8.202190049999999 0.00554 0.050032 0.004247
21900 -5.3530227 1.24690986 8.095761360000001 0.003397 0.044726 0.001035
21920 -5.32636893 1.2970487700000002 8.05534416 -0.0008849999999999998 0.040484 -5.8e-05
21940 -5.3191880099999995 1.39015548 8.02989702 -0.007295 0.037315 -0.001167
21960 -5.3013730500000005 1.4994290700000001 8.0662725 -0.008386 0.035175 0.002033
21980 -5.275180350000001 1.57188573 8.08169382 -0.008401 0.031979 0.002037
22000 -5.226228450000001 1.5762217500000002 8.12136546 -0.0052 0.033029 0.0031260000000000003
22020 -5.1801312600000005 1.4853615300000003 8.16207696 -0.0008990000000000002 0.03941 0.0020800000000000003
22040 -5.2476338700000005 1.42129242 8.171210069999999 0.005521 0.041527 -1.5e-05
22060 -5.328919530000001 1.3727917800000002 8.19455787 0.007669 0.044715 -4e-06
22080 -5.33774853 1.34420544 8.173898009999998 0.004483 0.046861 -0.001097
22100 -5.266645649999999 1.34719749 8.08513713 0.001259 0.043668 0.001021
22120 -5.2898463 1.36351152 8.0807913 -0.005162 0.04049 0.002049
22140 -5.29928352 1.39450131 8.10968175 -0.007334 0.035159 0.0052450000000000005
22160 -5.24090421 1.4394114900000001 8.06672376 -0.009468 0.036227 0.006297
22180 -5.22129402 1.44180513 8.08498998 -0.008395999999999999 0.034106 0.003102
22200 -5.2374609 1.43252487 8.09905752 -0.002004 0.031952999999999995 0.00315
22220 -5.27443479 1.41770196 8.17434927 0.000173 0.040472 0.002086
22240 -5.27712273 1.4272863300000003 8.155190339999999 0.003378 0.040465 0.00104
22260 -5.29628166 1.38491694 8.16252822 0.0065980000000000006 0.039409 -0.004277
22280 -5.31889371 1.3953940200000001 8.13782664 0.001259 0.040485 -0.00218
22300 -5.316343110000001 1.42368606 8.096958180000001 -0.001947 0.042614 0.001
22320 -5.260661550000001 1.42473573 8.09037567 -0.001956 0.041544 0.00207
22340 -5.254069230000001 1.44764208 8.08184097 -0.004104 0.037295 0.000992
22360 -5.251979700000001 1.43132805 8.076602430000001 -0.0041140000000000005 0.036225 0.002061
22380 -5.26515453 1.39779747 8.12076705 -0.0041 0.039421 0.002057
22400 -5.259759030000001 1.38267045 8.11866771 -0.000889 0.039419 -5.7e-05
22420 -5.282361270000001 1.37489112 8.13887631 0.001244 0.03835 -0.001109
22440 -5.30526762 1.38761469 8.13632571 0.000177 0.039415 -4.9e-05
22460 -5.304070800000001 1.3983958800000003 8.125554330000002 0.00016299999999999998 0.039402 0.0031550000000000003
22480 -5.29613451 1.4012407800000002 8.121806910000002 -0.003047 0.041527 0.007403
22500 -5.293740870000001 1.4265309600000002 8.12240532 -0.007329 0.040468 0.009511
22520 -5.253029370000001 1.4413538700000001 8.10190242 -0.010544 0.041527 0.01376
22540 -5.26200552 1.43551692 8.09755659 -0.005224 0.037252 0.012734
22560 -5.270393070000001 1.40198634 8.119717379999999 -0.001995 0.039388 0.008481
22580 -5.264104860000001 1.43896023 8.132283990000001 0.004435000000000001 0.042574 0.005318
22600 -5.2796733300000005 1.39180356 8.1212085 0.0033880000000000004 0.046839 0.005305
22620 -5.293740870000001 1.3823761500000002 8.1212085 0.003378 0.046831 0.007441
22640 -5.3390925000000005 1.38806595 8.131685580000001 0.001225 0.042577 0.0074319999999999985
22660 -5.30466921 1.4263838100000001 8.12704545 -0.0019760000000000003 0.041527 0.006342
22680 -5.2667928 1.4100697800000002 8.11148679 -0.003047 0.04471 0.010604
22700 -5.28775677 1.3843185300000003 8.11866771 -0.007305 0.044733 0.008437
22720 -5.27727969 1.39450131 8.110878569999999 -0.0041 0.042604 0.005258
22740 -5.2533236699999994 1.3940500500000002 8.117323740000002 -0.0008609999999999999 0.04581 -6.500000000000001e-05
22760 -5.230427130000001 1.42683507 8.12734956 -0.005147 0.040503 -0.001156
22780 -5.25557016 1.4274334800000001 8.14605723 -0.0062770000000000005 0.026658 -0.001146
22800 -5.27443479 1.4335647300000003 8.129743200000002 -0.004181 0.009641 -0.009656
22820 -5.266949760000001 1.42473573 8.134089029999998 0.003296 0.004318 -0.017074000000000002
22840 -5.276377169999999 1.42353891 8.14246677 0.006516 0.014934 -0.010656
22860 -5.27592591 1.40662647 8.105944140000002 0.010817 0.035108 0.002167
22880 -5.30302113 1.4156026200000003 8.1183636 0.011913 0.049984 0.010701
22900 -5.301078750000001 1.4166522899999998 8.111035529999999 0.0076209999999999984 0.049977 0.016013
22920 -5.28281253 1.41081534 8.078996069999999 -0.00198 0.054255 0.020213
22940 -5.3075141100000005 1.3980917700000002 8.100401490000001 -0.008415 0.051065 0.024445
22960 -5.28625584 1.35393696 8.12225817 -0.015888 0.043659 0.017993000000000002
22980 -5.2456914900000005 1.3497480900000003 8.136933930000001 -0.015874 0.036245 0.00732
23000 -5.257963800000001 1.3611178800000001 8.168963580000002 -0.016926 0.035201 0.003041
23020 -5.286108690000001 1.3835729700000001 8.140367430000001 -0.010506 0.035195 -0.001187
23040 -5.292092790000001 1.4415010200000002 8.125250220000002 -0.008343000000000001 0.036274 -0.006514
23060 -5.26829373 1.4585704199999998 8.10504162 -0.004057 0.037338 -0.00969
23080 -5.26485042 1.4349185100000001 8.12151261 -0.002966 0.041599 -0.010756
23100 -5.24239533 1.40452713 8.12644704 -0.002942 0.046925 -0.010763
23120 -5.23955043 1.4112666 8.104443210000001 0.002426 0.052242 -0.012869
23140 -5.270088960000001 1.41920289 8.14306518 0.008837000000000001 0.055411 -0.01176
23160 -5.25991599 1.41186501 8.13947472 0.012042 0.06070900000000001 -0.0074709999999999985
23180 -5.244945929999999 1.49868351 8.093671830000002 0.013109 0.064949 -0.003196
23200 -5.24509308 1.4760812700000003 8.064634230000001 0.012037 0.068132 0.001065
23220 -5.248536389999999 1.44104976 8.08872759 0.010961 0.064944 -7.000000000000002e-06
23240 -5.206618260000001 1.3994357400000002 8.10759222 0.007708 0.05642000000000001 0.003186
23260 -5.27936922 1.3028857200000001 8.13632571 0.001273 0.048986 0.003151
23280 -5.3649909000000005 1.23538311 8.18453205 -0.003014 0.043679 0.002059
23300 -5.3823546 1.22684841 8.16102729 -0.0062 0.044763 -0.000101
23320 -5.34374244 1.26741276 8.12480877 -0.007286 0.040506 -0.000103
23340 -5.354366669999999 1.38761469 8.109387450000002 -0.010544 0.033039 0.005225
23360 -5.3530227 1.49793795 8.08798203 -0.007391 0.02768 0.010595
23380 -5.26874499 1.5618501 8.06358456 -0.008497 0.022345 0.013799
23400 -5.17099815 1.6393883400000002 8.07570972 -0.006382 0.027626 0.023421
23420 -5.14764054 1.61499087 8.132440950000001 -0.00532 0.037167 0.034098
23440 -5.181622379999999 1.58550201 8.19051615 -0.005301 0.042489 0.035160000000000004
23460 -5.20168383 1.52547462 8.1960588 3.4e-05 0.037165 0.029863
23480 -5.19539562 1.46170962 8.18527761 0.00112 0.029751 0.018129
23500 -5.2019781300000005 1.39150926 8.141574060000002 0.002234 0.026607 0.004254
23520 -5.26035744 1.3275873 8.133333660000002 0.005478 0.027695 -0.00427
23540 -5.2756316100000005 1.30558347 8.14201551 0.0034020000000000005 0.03412 -0.010702
23560 -5.29344657 1.31725737 8.089031700000001 0.0044740000000000005 0.03412 -0.011763
23580 -5.316794370000001 1.30378824 8.12076705 -0.000866 0.034135000000000006 -0.010731999999999998
23600 -5.32397529 1.3052891699999998 8.118216450000002 -0.00831 0.039487 -0.010791
23620 -5.33685582 1.3843185300000003 8.1009999 -0.00829 0.043748 -0.010796
23640 -5.2870014 1.4633577 8.09591832 -0.010434 0.043747 -0.008675
23660 -5.27083452 1.48027014 8.116872480000001 -0.014701 0.043762 -0.008705
23680 -5.2338704400000005 1.45886472 8.111035529999999 -0.016863999999999997 0.0395 -0.0065780000000000005
23700 -5.23686249 1.45108539 8.11163394 -0.016888 0.036296 -0.004437
23720 -5.24554434 1.4880592800000003 8.10654255 -0.009453 0.029874 -0.0033090000000000003
23740 -5.23266381 1.4564710800000003 8.06717502 -0.002019 0.028757 0.003154
23760 -5.2898463 1.38881151 8.0397855 0.006531 0.040411 0.011744
23780 -5.355259380000001 1.3130685 8.05909158 0.010846 0.056354 0.017095
23800 -5.4051138000000005 1.2301445700000002 8.11447884 0.010836 0.057405999999999985 0.020298
23820 -5.385797909999999 1.16113122 8.081242560000002 0.00975 0.052088 0.019229
23840 -5.41184346 1.12192065 8.04232629 0.003354 0.04787 0.013849
23860 -5.44343166 1.2338821800000002 8.093514870000002 0.000173 0.040472 0.002086
23880 -5.37801858 1.37458701 8.09755659 0.000173 0.026678 -0.011783
23900 -5.26095585 1.4436003599999998 8.1152244 0.002302 0.022423 -0.014968
23920 -5.201085419999999 1.54747845 8.12615274 0.004507 0.036272000000000006 -0.017107
23940 -5.181779340000001 1.61858133 8.14172121 -0.007219 0.028895 -0.026793
23960 -5.181779340000001 1.5949294200000002 8.17075881 -0.014735 0.017207 -0.027899
23980 -5.17308768 1.6116947100000003 8.1641763 -0.015864 0.008668 -0.022555
24000 -5.192403570000001 1.58401089 8.15549445 -0.0062770000000000005 0.016048 -0.011815
24020 -5.19000993 1.5819115499999998 8.17884225 -0.003057 0.031969 -6.2e-05
24040 -5.2413456599999995 1.52458191 8.17539894 0.005536 0.058516 0.013851
24060 -5.250478770000001 1.49359212 8.143810740000001 0.00988 0.086155 0.024528
24080 -5.251077179999999 1.43566407 8.07915303 0.010899 0.080804 0.029883
24100 -5.26559598 1.4112666 8.085588390000002 0.005512 0.06592100000000001 0.026660000000000003
24120 -5.291043120000001 1.3403108700000002 8.0719623 0.000182 0.056395000000000015 0.015952
24140 -5.309760600000001 1.30259142 8.08872759 -0.001952 0.051098000000000005 0.010603
24160 -5.33430522 1.2094847100000001 8.096212620000001 -0.004076 0.047931 0.005251
24180 -5.388495659999999 1.1662226100000002 8.115822810000001 -0.0062 0.043702 -0.001168
24200 -5.41229472 1.1410795800000002 8.129743200000002 -0.00942 0.034148000000000005 -0.006519
24220 -5.4051138000000005 1.2195105300000002 8.135433 -0.015864 0.020339 -0.010819
24240 -5.350020840000001 1.3305793499999998 8.0773578 -0.022294 0.013969 -0.010856
24260 -5.33296125 1.4223420900000001 8.07047118 -0.016931 0.01822 -0.01296
24280 -5.304522060000001 1.55916216 8.06567409 -0.007358 0.0171 -0.007551
24300 -5.230427130000001 1.67980554 8.067626279999999 -0.002023 0.02557 0.001021
24320 -5.16860451 1.68219918 8.09022852 0.007606999999999998 0.041477 0.010682
24340 -5.179375889999999 1.6589985300000003 8.19006489 0.014071 0.060608 0.016044
24360 -5.21395614 1.6293625200000001 8.22584196 0.012994 0.059542 0.017106
24380 -5.1403124700000005 1.61589339 8.15473908 0.011908 0.052102 0.013903
24400 -5.0814819 1.5380510399999998 8.08439157 0.007645 0.045755 0.006404000000000001
24420 -5.172342120000001 1.34645193 8.1035505 0.002321 0.041538 -3.7e-05
24440 -5.2913472299999995 1.1106882 8.18692569 -0.001952 0.038365 -0.002199
24460 -5.37098481 1.02087765 8.21521773 -0.003014 0.036251 -0.005409000000000001
24480 -5.460196949999999 0.9886910400000001 8.16776676 -0.012673 0.02138 -0.007593000000000002
24500 -5.42666637 1.1223621000000001 8.11013301 -0.019103 0.015011000000000004 -0.00763
24520 -5.362450110000001 1.2506474699999999 8.02974987 -0.013773 0.018171 -0.003324
24540 -5.31215424 1.43640963 8.03738205 -0.006305 0.022389 0.000995
24560 -5.30017623 1.5759274500000002 8.051459399999999 -0.000961 0.037233 0.013832
24580 -5.2518325500000005 1.64612781 8.09291646 -0.0040950000000000005 0.063829 0.025527
24600 -5.22234369 1.69776765 8.15968332 -0.003009 0.074452 0.03193
24620 -5.192550720000001 1.69642368 8.15968332 0.001254 0.065945 0.024493
24640 -5.1563322 1.6631874 8.16312663 0.004445 0.053193 0.01385
24660 -5.1521335200000005 1.5965775000000002 8.11956042 0.007669 0.048959 0.004264
24680 -5.1802784100000006 1.4702443200000002 8.11357632 0.006636 0.050054 -0.002154
24700 -5.252126850000001 1.3639627800000003 8.104296060000001 0.003445 0.044768 -0.009647
24720 -5.34149595 1.1814967800000005 8.112232350000001 0.000187 0.027752 -0.013921
24740 -5.40690903 1.08014967 8.128997640000001 -0.004118999999999999 0.018184 -0.015007
24760 -5.4866937600000005 1.0373388300000002 8.1038448 -0.010558 0.013928 -0.010774
24780 -5.4744116400000005 1.12924872 8.09127819 -0.009506 0.017095 -0.004361
24800 -5.39239023 1.2783410999999998 8.03798046 -0.006286 0.030894 0.005258
24820 -5.30032338 1.43626248 8.07779925 -0.004109000000000001 0.04684 0.011662
24840 -5.23536156 1.5470370000000002 8.09171964 -0.001952 0.058525 0.018071
24860 -5.173695899999999 1.6208278200000001 8.16597153 0.002325 0.062762 0.020232
24880 -5.142706110000001 1.6949227500000001 8.174054970000002 0.003383 0.059567 0.019175
24900 -5.131630620000001 1.6881930900000002 8.171661330000001 0.0033880000000000004 0.055327 0.01384
24920 -5.0814819 1.63160901 8.17793973 0.000177 0.047903 0.008486
24940 -5.13342585 1.57741857 8.16641298 0.000187 0.042606 0.001015
24960 -5.263359300000001 1.3921076700000001 8.163273779999999 -0.004118999999999999 0.030916000000000006 -0.002205
24980 -5.30242272 1.23777675 8.16207696 -0.009506 0.016034 -0.0054280000000000005
25000 -5.413942800000001 1.1078433 8.13019446 -0.010597 0.012833 -0.003295
25020 -5.50270368 1.0835929800000001 8.116725330000001 -0.006305 0.020267 -0.001138
25040 -5.45615523 1.1154754800000002 8.031849209999999 -0.00309 0.029817000000000007 0.005281
25060 -5.36828706 1.26711846 7.985742210000001 0.000144 0.041507 0.009562
25080 -5.322180060000001 1.4257854 8.03079954 0.007684000000000002 0.055338 0.00746
25100 -5.30017623 1.52726985 8.11043712 0.009827 0.0564 0.006406
25120 -5.25497175 1.6122931200000001 8.14366359 0.006622 0.058529 0.009585
25140 -5.1841729800000005 1.7010638100000002 8.171661330000001 -0.0008460000000000001 0.055372000000000005 0.006332
25160 -5.12414559 1.6986701700000002 8.1468126 -0.005152 0.04156 0.0009789999999999998
25180 -5.129236980000001 1.64732463 8.155190339999999 -0.008391 0.028805 -0.0033
25200 -5.16740769 1.5224825700000002 8.167913910000001 -0.010558 0.018172 -0.0065060000000000005
25220 -5.23431189 1.34121339 8.1496575 -0.007358 0.019222 -0.005417
25240 -5.3242794 1.21921623 8.13438333 -0.002 0.025591 -0.00432
25260 -5.38834851 1.1192229 8.107886520000001 0.002292 0.034085000000000004 -0.0010960000000000002
25280 -5.401817639999999 1.10095668 8.05400019 0.005516 0.044705 0.004254
25300 -5.391938970000001 1.20768948 8.064634230000001 0.006640999999999999 0.057485 0.004246
25320 -5.35496508 1.3075356599999999 8.04322881 0.00344 0.05855700000000001 0.00529
25340 -5.33370681 1.45033002 8.065075680000001 -0.001918 0.051127 0.0031260000000000003
25360 -5.29149438 1.54314243 8.10623844 -0.004061 0.049004 0.003114
25380 -5.22638541 1.64478384 8.12929194 -0.005152 0.042621 0.002046
25400 -5.176687950000001 1.6732230300000004 8.14665564 -0.006253 0.030924 -0.00222
25420 -5.135221080000001 1.65166065 8.13813075 -0.008395999999999999 0.026678 -0.004366
25440 -5.1594714 1.50901344 8.157289680000002 -0.006272 0.026663 -0.0022140000000000003
25460 -5.23431189 1.3614219900000002 8.16626583 -0.000909 0.034096 -0.001118
25480 -5.2781724 1.2317926500000003 8.139769020000001 0.000177 0.039415 -4.9e-05
25500 -5.34238866 1.20903345 8.13019446 0.000173 0.040472 0.002086
25520 -5.3554163400000006 1.2310372800000002 8.081242560000002 -0.000889 0.043663 0.004211
25540 -5.339847870000001 1.2487050900000003 8.096212620000001 -0.000866 0.048989 0.004204
25560 -5.339700720000001 1.3837201200000002 8.07091263 -0.003004 0.048992 0.005257
25580 -5.33580615 1.4980851 8.078996069999999 -0.00409 0.043674 0.004188
25600 -5.281468560000001 1.60735869 8.06732217 -0.004124 0.036217 0.004198
25620 -5.1970437 1.65390714 8.108043480000001 -0.002 0.030896 0.001015
25640 -5.184918540000001 1.59028929 8.12270943 0.000149 0.031962 -0.001108
25660 -5.18970582 1.52338509 8.17285815 0.002325 0.03942 -0.003239
25680 -5.24389626 1.38641787 8.16761961 0.003412 0.042616 -0.004304
25700 -5.300774639999999 1.26771687 8.143810740000001 -0.000851 0.047941 -6.7e-05
25720 -5.316048810000001 1.2162241800000002 8.127947970000001 -0.006214 0.046873000000000005 0.0052380000000000005
25740 -5.358261240000001 1.22924205 8.096212620000001 -0.0062380000000000005 0.043668 0.007378
25760 -5.34553767 1.31366691 8.07570972 -0.00297 0.05751000000000001 0.006314999999999999
25780 -5.298381000000001 1.3873105800000003 8.06253489 0.009841 0.051108 -0.002133
25800 -5.27487624 1.5051188700000002 8.03903013 0.019472 0.046856 -0.012743
25820 -5.25422619 1.5507746100000002 8.1066897 0.024811 0.040475 -0.020175
25840 -5.220391500000001 1.5489793800000002 8.13094002 0.027983 0.028767 -0.025479
25860 -5.22638541 1.53355806 8.12510307 0.022615 0.023451 -0.023373
25880 -5.2175466 1.47637557 8.15085432 0.023749 0.036239 -0.025518
25900 -5.25602142 1.39719906 8.16566742 0.020644 0.052251 -0.030901
25920 -5.2795163700000005 1.3404580200000002 8.14875498 0.024888 0.045848 -0.031932
25940 -5.313802320000001 1.3271360399999999 8.1066897 0.016295 0.050071 -0.014905000000000003
25960 -5.33056761 1.29436083 8.07091263 0.008789 0.059612 0.00319
25980 -5.335953300000001 1.29885381 8.07315912 -0.0051140000000000005 0.06493600000000001 0.015903999999999998
26000 -5.31529344 1.3789328400000003 8.073316080000001 -0.016883000000000002 0.06813 0.0265
26020 -5.26125996 1.4112666 8.097262290000002 -0.026542000000000003 0.067051 0.038185
26040 -5.257071090000001 1.4564710800000003 8.09276931 -0.032967 0.06493099999999999 0.041347
26060 -5.27188419 1.44644526 8.131842540000001 -0.03512 0.059616 0.040271
26080 -5.23341918 1.47293226 8.113723470000002 -0.040474 0.052191 0.037038
26100 -5.244641820000001 1.4564710800000003 8.17210278 -0.028733 0.041544 0.025383000000000003
26120 -5.2608087 1.4602086900000002 8.18168715 -0.008395999999999999 0.035167000000000004 0.004169
26140 -5.22667971 1.3997398499999998 8.111928240000001 0.007654999999999999 0.025604 -0.016003
26160 -5.26485042 1.3921076700000001 8.08423461 0.021543 0.013902 -0.031914
26180 -5.294486429999999 1.3765392 8.09546706 0.031131 6.2e-05 -0.042512
26200 -5.310810270000001 1.38567231 8.105944140000002 0.028997 -0.004174000000000001 -0.046794
26220 -5.31889371 1.3855153500000001 8.08573554 0.027978 0.008604 -0.044681
26240 -5.407350480000001 1.3392612000000002 8.05040973 0.025868 0.014999 -0.043636
26260 -5.40391698 1.4599143900000002 8.049958470000002 0.019414 0.011791 -0.035131
26280 -5.366491830000001 1.40902011 8.073011970000001 0.008674 0.010704 -0.020249
26300 -5.300480340000001 1.4114137500000001 8.100401490000001 0.003373 0.031972 -0.006427
26320 -5.2721883 1.46410326 8.150255910000002 0.002306 0.039403 0.001034
26340 -5.26814658 1.49598576 8.158035240000002 0.002311 0.044712 0.0053
26360 -5.219940240000001 1.50901344 8.17106292 0.006612000000000001 0.057459 0.010655
26380 -5.203027800000001 1.5027252300000002 8.13708108 0.008779 0.059604 0.005326
26400 -5.137761870000001 1.4593159800000002 8.21043045 0.016305 0.062812 -0.004239
26420 -5.18731218 1.4441987699999999 8.193508200000002 0.020707 0.084136 -0.012782
26440 -5.2001829 1.39031244 8.132588100000001 0.019683000000000003 0.090544 -0.016002000000000002
26460 -5.20542144 1.38447549 8.099803080000001 0.010009 0.084148 -0.006447
26480 -5.27847651 1.35602649 8.05310748 -0.009271 0.078842 0.005175
26500 -5.30646444 1.31606055 8.01792882 -0.024313 0.069251 0.018969
26520 -5.376370500000001 1.3102235999999998 7.97765877 -0.023342 0.053247 0.024338
26540 -5.435946629999999 1.31217579 7.98394698 -0.025518 0.050033 0.030736000000000006
26560 -5.47815906 1.36934847 7.997867370000001 -0.030862 0.054287 0.037103
26580 -5.451662250000001 1.4804172899999999 8.01328869 -0.030886 0.051083 0.039243
26600 -5.418730080000001 1.5425440200000002 8.03708775 -0.024533000000000003 0.027676 0.026499
26620 -5.3729271899999995 1.50721821 8.06253489 -0.009583 0.013844 0.009529
26640 -5.313645360000001 1.4925424500000002 8.05938588 0.001158 0.023419 0.003183
26660 -5.313802320000001 1.4070777300000001 8.087677919999999 0.007654999999999999 0.038336 -0.0032
26680 -5.33041065 1.42159653 8.152198290000001 0.015157 0.03834 -0.010625
26700 -5.2796733300000005 1.36530675 8.1414171 0.021591 0.036225 -0.020192
26720 -5.194198800000001 1.3409092800000002 8.12629989 0.022668 0.03623 -0.022321
26740 -5.14405008 1.24555608 8.11792215 0.011961 0.036233 -0.01385
26760 -5.25497175 1.3199551200000001 8.168218020000001 0.003421 0.046869 -0.002173
26780 -5.26754817 1.3956981300000002 8.17853814 -0.005118999999999999 0.051139 0.0031030000000000003
26800 -5.2097672699999995 1.42219494 8.183933640000001 -0.011577 0.039439 0.004141
26820 -5.23117269 1.4825166300000001 8.17525179 -0.009458 0.031991000000000006 -0.000107
26840 -5.18910741 1.4724908100000003 8.14217247 -0.006219 0.036258 -0.0043630000000000006
26860 -5.132680290000001 1.5552675900000001 8.1701604 -0.004023 0.047977 -0.006499
26880 -5.172047820000001 1.5898478400000002 8.20189575 -0.002726 0.088496 -0.017224
26900 -5.199888600000001 1.6078099500000003 8.225547660000002 0.008971 0.078872 -0.018198
26920 -5.23117269 1.55421792 8.12061009 0.017405 0.074509 2.6e-05
26940 -5.315891850000001 1.52922204 8.044719930000001 -0.001105 -0.023372 -0.014933000000000004
26960 -5.4066049199999995 1.48969755 7.960442220000001 0.010923 0.05854400000000001 0.002138
26980 -5.43190491 1.37384145 7.965533610000001 -0.023457 0.002217 -0.001235
27000 -5.485644090000001 1.3070844000000001 8.02675782 -0.047383 -0.101023 -0.003406
27020 -5.51946897 1.3228000200000003 8.03005398 -0.005109000000000001 0.073428 0.023371
27040 -5.51917467 1.3974933600000001 7.982446050000001 -0.004065999999999999 0.062793 0.018051
27060 -5.429962530000001 1.3099292999999999 7.958352690000001 0.010832 0.03406 -0.002104
27080 -5.32053198 1.2758003100000002 7.995620880000001 0.021634 0.048996 -0.017003
27100 -5.285804580000001 1.30813407 8.092023750000001 0.025993 0.067099 -0.019132
27120 -5.26874499 1.3398596100000002 8.16566742 0.019601 0.08516699999999999 -0.003177
27140 -5.220391500000001 1.4130618300000002 8.1613314 0.008923 0.092623 0.006353
27160 -5.1918051599999995 1.4265309600000002 8.16207696 0.038189 0.192665 0.004293
27180 -5.12804016 1.454823 8.16102729 0.048958 0.208633 -0.002062
27200 -5.187459330000001 1.43521281 8.16401934 0.037112 0.177806 -0.008514
27220 -5.279820480000001 1.44778923 8.127643860000001 -0.0052 0.021358 -0.008609
27240 -5.34688164 1.45781505 8.0918766 -0.007520999999999998 -0.036095 -0.024575
27260 -5.33176443 1.47039147 8.009541270000001 0.007578 -0.010538 -0.035185
27280 -5.36199885 1.4394114900000001 8.00341002 0.035681 0.059715 -0.045761
27300 -5.3706807 1.40916726 8.024962590000001 0.048733 0.099149 -0.061744000000000014
27320 -5.40196479 1.4115609000000002 8.055197009999999 0.046532 0.086365 -0.059605999999999985
27340 -5.4527119200000005 1.4561767799999998 8.0748072 0.017415 0.03526 -0.041584
27360 -5.432052060000001 1.3927060800000002 8.048614500000001 -0.007243 0.017202000000000002 -0.033188
27380 -5.40211194 1.47667968 8.056246680000001 0.000336 0.04486 -0.029965
27400 -5.60345238 1.40512554 8.01807597 0.013147 0.056495 -0.020277
27420 -5.176835100000001 1.02222162 8.06777343 0.020836 0.077885 -0.048024
27440 -5.285804580000001 1.97888301 8.06702787 0.031508999999999995 0.112865 -0.013811000000000002
27460 -5.315891850000001 1.57531923 7.958352690000001 0.043384 0.163876 0.006502
27480 -5.037327090000001 1.16368182 7.98184764 0.032557 0.138309 0.016074
27500 -5.49641547 1.4317695000000001 8.20728144 0.015272 0.084065 0.009613
27520 -5.160668220000001 1.37294874 8.06971581 0.005708 0.072462 -0.010735
27540 -5.09810004 1.4572166400000002 8.259078240000001 0.00824 0.125858 -0.046037
27560 -5.07115197 1.4052825 8.204289390000001 0.003723 0.065174 -0.051332
27580 -5.1828192 1.27160163 8.15055021 0.011057 0.053358 -0.033106000000000003
27600 -5.37098481 1.26187992 8.141574060000002 0.004656 0.030038 -0.05662200000000001
27620 -5.40855711 1.37998251 8.00745174 -0.006109000000000001 0.01938 -0.046001
27640 -5.606591580000001 1.63190331 8.034242850000002 -0.014931 -0.021164 -0.02251
27660 -5.5182721500000005 1.4844590100000001 7.8421924800000005 7.2e-05 0.009613 -0.006421
27680 -5.589679139999999 1.41320898 7.85147274 0.006593000000000001 0.040466 -0.002142
27700 -5.313949470000001 1.36336437 7.88560173 0.001268 0.041554 -0.003249
27720 -5.34673449 1.52772111 8.03873583 0.006794 0.073536 -0.013934
27740 -5.446570860000001 1.53924786 8.100401490000001 0.008986 0.083129 -0.017135
27760 -5.562436770000001 1.54119024 8.08917885 0.002436 0.064982 -0.002203
27780 -5.52890619 1.5742793700000002 7.99472817 0.000216 0.060669000000000015 0.012742
27800 -5.3476272 1.38806595 7.93934091 -0.010554 0.043641 0.01803
27820 -5.339543760000001 1.34360703 8.04082536 -0.011668 0.032992 0.018036
27840 -5.3667861299999995 1.35992106 8.02661067 -0.011606 0.041535 0.012684
27860 -5.372475929999999 1.42683507 8.02630656 -0.007291 0.04899 0.0095
27880 -5.267999430000001 1.4244414300000001 7.9357504500000005 -0.0008699999999999999 0.058534 0.014874
27900 -5.3670902400000005 1.44764208 8.13887631 -0.001971 0.052141 0.015943000000000002
27920 -5.38160904 1.3757936400000002 8.1496575 -0.005205 0.041513 0.012729
27940 -5.339847870000001 1.29720573 8.009394120000001 0.001268 0.053225 0.008486
27960 -5.36005647 1.49688828 7.897275629999999 0.003407 0.053222000000000005 0.007432999999999999
27980 -5.529200490000001 1.5173911800000002 7.969722480000001 -0.003052 0.041522 0.008471
28000 -5.6598795 1.5058644300000001 7.94907243 -0.008425 0.035141000000000006 0.010578
28020 -5.87768112 1.5075125100000002 7.765998210000001 -0.006267 0.04046 0.010587
28040 -5.43025683 1.3621675500000001 7.7986360800000005 -0.004079999999999999 0.051109 0.00952
28060 -5.4326504700000005 1.45242936 7.94907243 -0.010568 0.038323 0.0159
28080 -5.60673873 1.4910513300000003 8.02166643 -0.018079 0.034067 0.021195
28100 -5.65688745 1.4323679100000002 8.005950810000002 -0.021342 0.014924000000000003 0.015855
28120 -5.350619250000001 1.2819315599999999 7.94952369 -0.03003 -0.021256 0.013704
28140 -5.35870269 1.3332771 7.95295719 -0.046172000000000005 -0.052092999999999993 0.013631
28160 -5.41528677 1.42084116 7.940841840000001 -0.042895 -0.027633 0.0211
28180 -5.47665813 1.4633577 7.99697466 -0.038632 -0.027652 0.022198
28200 -5.52770937 1.4542245900000002 8.036185230000001 -0.037594 -0.044657 0.011545
28220 -5.47725654 1.4314752 8.00341002 -0.039762 -0.056351 0.007272
28240 -5.39987526 1.33672041 7.97720751 -0.035547 -0.062779 0.012651
28260 -5.407958699999999 1.3331299500000002 7.928863830000001 -0.020385 -0.017006999999999998 0.008425
28280 -5.49028422 1.39435416 7.948022760000001 -0.012745 0.016011 0.003095
28300 -5.521862610000001 1.3503465000000001 7.929315090000001 -0.010554 0.033031 0.007362
28320 -5.57215848 1.40992263 7.92123165 -0.013763999999999998 0.033033 0.009476
28340 -5.59551609 1.4630535900000003 7.96119759 -0.015912 0.034089 0.013732
28360 -5.60584602 1.46096406 7.95969666 -0.013797 0.031942 0.015886
28380 -5.507500770000001 1.41096249 7.92467496 -0.009487 0.037271 0.011636
28400 -5.51542725 1.44524844 7.90880238 -0.005205 0.037269 0.008462
28420 -5.55973902 1.45901187 7.96134474 -0.000928 0.033018 0.002088
28440 -5.54162976 1.4400099000000002 7.96284567 0.006583 0.034092000000000004 -0.006407
28460 -5.47815906 1.4226462000000002 7.905810330000001 0.009803 0.035159 -0.009591
28480 -5.45570397 1.36307007 7.951318919999999 0.010889 0.037294 -0.011722
28500 -5.511238379999999 1.4076761400000002 7.99906419 0.005545 0.036243 -0.01069
28520 -5.52201957 1.43611533 8.01807597 0.002311 0.034102 -0.005369
28540 -5.432356169999999 1.35962676 7.94128329 -0.005176 0.037294 0.002052
28560 -5.50061415 1.4283261900000002 7.9472772 -0.014792 0.043681 0.011591
28580 -5.504655870000001 1.41081534 7.9270686 -0.020146 0.047927 0.020094
28600 -5.498220510000001 1.43910738 7.9561062 -0.022308 0.047909 0.026488
28620 -5.491628189999999 1.3897140300000002 7.949670840000001 -0.020194 0.045762 0.028642
28640 -5.50210527 1.3674060900000002 7.955959050000001 -0.02128 0.044688 0.031841
28660 -5.40136638 1.3584299400000002 7.85985048 -0.021294 0.046797000000000005 0.037179
28680 -5.47397019 1.39165641 7.944579450000001 -0.017012 0.048917 0.036138
28700 -5.565723120000001 1.4584134600000003 8.08678521 -0.011664 0.039362 0.023369
28720 -5.40136638 1.3835729700000001 8.01568233 -0.009515 0.033001 0.013778
28740 -5.397923070000001 1.52667144 8.03110365 -0.010563 0.035144 0.011632
28760 -5.4805527000000005 1.52188416 8.041129470000001 -0.007324 0.039411 0.0073760000000000015
28780 -5.40480969 1.3924019699999999 8.01223902 0.000168 0.038345 0.00102
28800 -5.44252914 1.3662092700000001 8.01358299 0.0023350000000000003 0.042612 -0.002175
28820 -5.44193073 1.3159134000000001 7.98439824 0.007679000000000002 0.041541 -0.005340999999999999
28840 -5.436397889999999 1.2629197800000003 8.0198712 0.010884 0.036229 -0.011721
28860 -5.470821180000001 1.3069274400000002 8.009541270000001 0.016219 0.029844 -0.018085
28880 -5.467230720000001 1.3648653000000002 8.01762471 0.019453 0.030924 -0.024473
28900 -5.41229472 1.3966006500000003 8.03484126 0.022653 0.02879 -0.026584
28920 -5.37861699 1.42054686 8.07375753 0.023711000000000003 0.025595 -0.027641
28940 -5.34882402 1.44838764 8.093671830000002 0.018367 0.028788 -0.022341
28960 -5.3130469499999995 1.47862206 8.08259634 0.011961 0.031989 -0.018117
28980 -5.338199790000001 1.4825166300000001 8.104443210000001 0.006573999999999999 0.028778 -0.009605
29000 -5.33161728 1.4605127999999998 8.063878859999999 -0.003081 0.02346 -0.003256
29020 -5.35466097 1.4060280600000001 8.042924700000002 -0.011649 0.019216 -0.000106
29040 -5.38534665 1.38326886 8.02017531 -0.015916999999999997 0.026658 0.007331999999999998
29060 -5.42396862 1.39120515 8.020469610000001 -0.015902 0.03622 0.013729
29080 -5.441783580000001 1.37115351 8.009394120000001 0.046196 0.073334 0.002365
29100 -5.45031828 1.34794305 8.02989702 0.000125 0.044673 0.017034999999999998
29120 -5.4366921900000005 1.3497480900000003 8.04726072 -0.014883 0.028746 0.016951
29140 -5.433101730000001 1.3647083400000002 8.037833310000002 -0.0074150000000000015 0.027659 0.015936000000000002
29160 -5.45256477 1.37518542 8.022421800000002 -0.015869 0.042615 0.012653
29180 -5.44522689 1.41904593 8.03813742 -0.01807 0.031952999999999995 0.016924
29200 -5.3554163400000006 1.4024376 8.01778167 -0.008621 0.0073799999999999985 0.026636
29220 -5.329665090000001 1.35438822 8.01613359 -0.010788 0.010541 0.037299
29240 -5.38130493 1.3338755100000002 8.04741768 -0.016984 0.045759 0.026528
29260 -5.38624917 1.31366691 8.060739660000001 -0.024404 0.054316 0.024329
29280 -5.40346572 1.2880726200000001 8.04741768 -0.020194 0.045762 0.028642
29300 -5.40571221 1.3028857200000001 8.02421703 -0.007411 0.044639 0.031938
29320 -5.4167876999999995 1.34540226 8.01089505 -0.007396 0.045713 0.0298
29340 -5.39777592 1.3927060800000002 8.01493677 -0.0074680000000000015 0.030795 0.030887
29360 -5.39807022 1.4042328300000002 8.047868939999999 -0.001029 0.032929 0.02452
29380 -5.355259380000001 1.37594079 8.05205781 0.002287 0.048935 0.014908
29400 -5.3649909000000005 1.4060280600000001 8.05250907 0.005579 0.056432 0.0021030000000000003
29420 -5.36888547 1.39629654 8.0836362 0.005555 0.047923 -0.001091
29440 -5.38430679 1.4293758600000002 8.06282919 0.011889 0.030864 -0.003161
29460 -5.42980557 1.41215931 8.02226484 0.018328 0.026632 -0.015929
29480 -5.40975393 1.4528806200000002 8.01403425 0.023744 0.033052 -0.02765
29500 -5.39612784 1.45137969 7.998318629999999 0.016329 0.044796 -0.027717
