time Ax Ay Az Gx Gy Gz
20 1.58700294 1.8345877200000003 -9.58606713 0.009712 0.02659 0.00217
40 1.5667943400000004 1.7970154200000001 -9.50014134 0.015041999999999996 0.022323 -0.000992
60 1.58610042 1.75869756 -9.47365434 0.011831 0.021264 5.5e-05
80 1.60257141 1.7574909300000001 -9.50388876 0.006511 0.021296 -0.003186
100 1.6413405300000004 1.8200689200000002 -9.53831205 0.003364 0.029842 -0.006423999999999999
120 1.62756729 1.83922785 -9.549093240000001 0.001283 0.041567 -0.0064540000000000005
140 1.64178198 1.77336351 -9.57992607 -0.001932 0.040505 -0.004338
160 1.6167861 1.81182852 -9.542353770000002 -0.000875 0.039431 -0.003261
180 1.5944879699999999 1.8362358000000003 -9.5062824 0.001263 0.04155 -0.002181
200 1.5958319400000003 1.84356387 -9.5148171 0.007659999999999998 0.041523 -0.001068
220 1.6109491500000002 1.83009474 -9.524391660000001 0.008722 0.043637 0.002141
240 1.5938895600000003 1.81691991 -9.505536840000001 0.005531 0.045779 0.002116
260 1.5949294200000002 1.78548867 -9.53158239 0.005526 0.044714 0.002118
280 1.56529341 1.7639361 -9.533220660000001 0.010841 0.041495 0.0032270000000000003
300 1.57263129 1.7501628599999999 -9.55897191 0.01297 0.042545 0.005377000000000001
320 1.55481633 1.7956616400000003 -9.584271900000001 0.011903 0.045731 0.00857
340 1.5519714300000003 1.86377247 -9.54715086 0.008693000000000001 0.043612 0.008551000000000001
360 1.56244851 1.86976638 -9.56211111 0.004425999999999999 0.041505 0.006387
380 1.57172877 1.8615259800000001 -9.57154833 0.007626000000000002 0.041494 0.006409000000000001
400 1.58564916 1.8670686300000001 -9.54340344 0.008688 0.038303 0.0042840000000000005
420 1.6051122000000002 1.85868108 -9.55373337 0.000139 0.036198 0.005296
440 1.6066131300000002 1.86647022 -9.52409736 -0.007329 0.035163 0.004177
460 1.61245008 1.8628797600000002 -9.54998595 -0.0030280000000000003 0.041544 0.00313
480 1.62996093 1.87604478 -9.5498388 -0.000904 0.040467 0.004215
500 1.65390714 1.85793552 -9.53022861 -0.00198 0.036218 0.002076
520 1.66229469 1.80718839 -9.51630822 -0.001985 0.033031 -5.600000000000001e-05
540 1.62891126 1.8018027 -9.53861616 0.000153 0.034088 -4.3e-05
560 1.60765299 1.7787492000000003 -9.51406173 0.001225 0.03515 -3.6e-05
580 1.60121763 1.7691746400000001 -9.54191232 -0.0019760000000000003 0.035161000000000005 -5.9e-05
600 1.57442652 1.7757571500000002 -9.549240390000001 -0.0040950000000000005 0.038364 -7.8e-05
620 1.58116599 1.7830950300000001 -9.516759480000001 -0.001961 0.038357 -6.3e-05
640 1.5946351200000002 1.79027595 -9.52754067 -0.000913 0.036214 0.002084
660 1.59867684 1.7765027100000002 -9.55792224 0.001225 0.037272 0.002097
680 1.58041062 1.7884807200000001 -9.55822635 0.00122 0.03939 0.005299
700 1.59867684 1.81572309 -9.53142543 0.004411 0.03937 0.007458
720 1.57756572 1.8345877200000003 -9.52290054 0.00334 0.036187 0.005318
740 1.5901421400000002 1.82411064 -9.54115695 -0.001966 0.042597 0.005273
760 1.5940367100000001 1.8244049400000002 -9.55029006 -0.004071 0.047935000000000005 0.004183
780 1.6151380200000003 1.80973899 -9.54550278 0.003392 0.045782 0.00317
800 1.5967344600000002 1.82291382 -9.53427033 0.006573999999999999 0.040449 0.002131
820 1.6304121900000001 1.8214128900000002 -9.54160821 0.0044210000000000005 0.037257 0.003188
840 1.59793128 1.8143791200000001 -9.55029006 0.001235 0.038342 0.0010279999999999998
860 1.5967344600000002 1.82949633 -9.54400185 0.002306 0.039403 0.001034
880 1.6148437199999999 1.8369813600000002 -9.51810345 0.006559000000000001 0.038314 0.003201
900 1.59433101 1.85509062 -9.52903179 0.007597 0.035102 0.006417
920 1.58535486 1.83069315 -9.530385570000002 0.00333 0.035117 0.006388
940 1.57531923 1.8248562 -9.54205947 0.0033350000000000003 0.037243 0.007453
960 1.57547619 1.8209616300000002 -9.56810502 0.000129 0.036189 0.0074319999999999985
980 1.6060147200000001 1.8513530100000002 -9.60507891 -0.00198 0.041523 0.007411
1000 1.6007663699999999 1.84236705 -9.57303945 -0.010491 0.046879 0.007344
1020 1.5911918100000002 1.8027052200000002 -9.50717511 -0.00942 0.045819 0.005217
1040 1.6082514 1.78548867 -9.50778333 -0.001952 0.043671 0.003135
1060 1.6069074300000001 1.7917768800000002 -9.52199802 -0.00088 0.043671 0.002074
1080 1.5702376500000002 1.8347348700000001 -9.51930027 -0.0040950000000000005 0.040486 0.002056
1100 1.5783210900000002 1.87006068 -9.5378706 -0.005147 0.039442000000000005 -0.002223
1120 1.57008069 1.8405718200000003 -9.53232795 -0.006214 0.039446 -0.00223
1140 1.5952335300000002 1.8103374 -9.544600260000001 -0.003014 0.043679 0.002059
1160 1.59733287 1.8348820200000002 -9.54355059 0.000182 0.046846 0.006351
1180 1.61858133 1.79641701 -9.54146106 -0.001932 0.050054 0.005263
1200 1.6184341800000002 1.79761383 -9.53022861 -0.01151 0.053291 0.003056
1220 1.62232875 1.8074925000000002 -9.540558540000001 -0.00831 0.05328 0.003078
1240 1.5808618800000003 1.8489593700000002 -9.572598000000001 -0.0008269999999999999 0.05645 0.003127
1260 1.58146029 1.85554188 -9.53127828 -0.002999 0.048996 0.004189
1280 1.5944879699999999 1.8029995200000002 -9.54310914 -0.006205 0.046881 0.003101
1300 1.58684598 1.8086893200000003 -9.540705690000001 -0.00619 0.046894 -0.000103
1320 1.5932911500000002 1.79970336 -9.52574544 -0.00299 0.047944 0.000986
1340 1.5905934000000002 1.82859381 -9.56990025 0.001239 0.041529 0.00316
1360 1.5998736599999999 1.8805377600000002 -9.53906742 0.000129 0.030884 0.002098
1380 1.5760746 1.87305273 -9.56301363 0.000134 0.030888 0.00103
1400 1.601973 1.83982626 -9.53053272 0.003364 0.03833 0.002111
1420 1.5886510200000001 1.79821224 -9.54340344 0.005497 0.040444 0.004259000000000001
1440 1.60571061 1.81572309 -9.52349895 0.00975 0.035112 0.00216
1460 1.619631 1.8016555500000002 -9.51061842 0.012937 0.032966 0.003253
1480 1.6115475600000002 1.81572309 -9.54998595 0.011875 0.032974 0.002177
1500 1.6245752400000002 1.8263473200000002 -9.54026424 0.004425999999999999 0.035139 -1.4e-05
1520 1.6232214600000001 1.82291382 -9.533073510000001 -0.0008699999999999999 0.041558 -0.002196
1540 1.64253735 1.8505976400000002 -9.51211935 0.00023 0.049011 -0.002198
1560 1.6220246400000002 1.83248838 -9.509127300000001 0.000244 0.052206 -0.002202
1580 1.6287641099999999 1.82710269 -9.50807763 -0.002951 0.057527 0.002042
1600 1.5983727300000001 1.84236705 -9.516612330000001 -0.009324 0.067124 0.00519
1620 1.6015217400000001 1.8598779 -9.55478304 -0.022054 0.081026 0.002947
1640 1.57203288 1.87140465 -9.553134960000001 -0.029489 0.087448 0.001818
1660 1.62068067 1.87844823 -9.55388052 -0.01881 0.089541 0.00189
1680 1.6061618700000002 1.87739856 -9.493254720000001 0.008860999999999999 0.081957 0.009571
1700 1.59074055 1.85150016 -9.49445154 0.021519 0.051016000000000006 0.010767
1720 1.6031698200000002 1.8256017600000003 -9.504781470000001 0.017103 0.014824 0.007578
1740 1.58939658 1.8003017700000001 -9.537566490000001 0.011692 -0.003262 0.006495
1760 1.6407421200000003 1.81182852 -9.564808860000001 0.003249 0.012763 0.002143
1780 1.61469657 1.81452627 -9.544453110000001 -0.0073 0.036249 -0.001166
1800 1.6537599900000002 1.8206673300000003 -9.53591841 -0.006214 0.04369 0.002037
1820 1.67202621 1.8073453500000003 -9.5122665 0.013999 0.039324 0.01073
1840 1.62307431 1.77066576 -9.521252460000001 0.036283 0.021102000000000003 0.019454
1860 1.6413405300000004 1.84087593 -9.62409069 0.0266 -0.00334 0.013009
1880 1.65885138 1.9393683300000002 -9.60148845 -0.001158 -0.023419 -0.003183
1900 1.5988239899999999 1.96151931 -9.4949028 -0.020246 -0.014762 -0.020419
1920 1.5798122100000003 1.90957536 -9.39805848 -0.023308 0.011898 -0.024747
1940 1.6251736500000002 1.8538938000000003 -9.40359132 -0.026485 0.029967 -0.011974
1960 1.66648356 1.7874310500000001 -9.517662 -0.009434 0.038379 0.000953
1980 1.66334436 1.74297213 -9.589657590000002 0.032059 0.021155 0.009811
2000 1.66708197 1.7419322700000002 -9.5871168 0.05969600000000001 0.007176 0.018568
2020 1.64807019 1.8495577800000003 -9.577532430000002 0.057596 0.013579 0.017476
2040 1.60436664 1.96601229 -9.47260467 0.03634 0.029641000000000008 0.015171
2060 1.5356574000000003 2.02334193 -9.43218747 0.009736 0.041465 0.011765
2080 1.4974866900000001 1.9552311 -9.49609962 0.002302 0.053192 0.015971
2100 1.6097523300000003 1.78293807 -9.577081170000001 0.009774 0.06271900000000001 0.024557
2120 1.7983593900000001 1.58939658 -9.61345665 0.017185 0.053093 0.027826
2140 1.82710269 1.6190325900000002 -9.588460770000001 0.018228 0.037153 0.017171000000000002
2160 1.77186258 1.7781507900000002 -9.53996013 0.009712 0.021285 -0.003164
2180 1.6932746699999999 1.99609956 -9.4946085 -0.005195 0.011813 -0.019279
2200 1.56050613 2.15911233 -9.47858877 -0.02437 0.014028 -0.023689
2220 1.4579720100000002 2.1683925900000003 -9.40643622 -0.033938 0.031067 -0.014163999999999996
2240 1.39031244 2.00478141 -9.480982410000001 -0.025375 0.052283 0.000824
2260 1.4835663000000001 1.82679858 -9.58023018 -0.0040420000000000005 0.061753 0.011643
2280 1.54074879 1.6956781200000002 -9.656571600000001 0.021481 0.045676 0.013978
2300 1.63610199 1.6486686 -9.60971904 0.032087 0.028608 0.01087
2320 1.63489536 1.6753125600000003 -9.54310914 0.032068 0.016919999999999998 0.003407
2340 1.57397526 1.7815941 -9.493705980000001 0.012869 0.012747 -0.002063
2360 1.49449464 1.81467342 -9.45658494 -0.004138 0.025594 -0.003266
2380 1.55122587 1.7775523800000002 -9.469308510000001 -0.012582 0.049047 -0.000151
2400 1.6697797200000002 1.67681349 -9.536369670000001 -0.012553 0.06074400000000001 0.005176
2420 1.7624351699999998 1.6200822600000002 -9.656414640000001 -0.004047 0.059627 0.010578
2440 1.73998008 1.7419322700000002 -9.632174130000001 0.005507 0.051063 0.012792
2460 1.67681349 1.87290558 -9.57947481 0.008727 0.042581 6e-06
2480 1.6040625300000002 2.0112167700000003 -9.50434002 0.00023 0.039462 -0.011799
2500 1.4733835200000003 2.09085435 -9.46736613 -0.010333 0.055508 -0.019371
2520 1.46665386 2.04938748 -9.45074799 -0.018753 0.086409 -0.014129
2540 1.4657513400000002 1.8731998800000003 -9.492960420000001 -0.014466 0.098082 -0.006636
2560 1.5825099599999999 1.7594431200000002 -9.556578270000001 -0.003836 0.099072 0.0030510000000000003
2580 1.66019535 1.6301080800000003 -9.64938087 0.013143 0.084077 0.00853
2600 1.69597242 1.6705252800000003 -9.6423471 0.031193 0.063778 0.007614
2620 1.6591456800000002 1.71019692 -9.59998752 0.035461 0.052091999999999986 -0.004092
2640 1.59044625 1.8399734100000003 -9.49191075 0.017415 0.060724 -0.015979
2660 1.5001844400000002 1.92753747 -9.4544856 -0.011333 0.069364 -0.020464
2680 1.4576679000000001 1.88936676 -9.47485116 -0.023044 0.080037 -0.015219
2700 1.48865769 1.7841447000000001 -9.58516461 -0.030503 0.092803 -0.004605
2720 1.59028929 1.7595902700000001 -9.62363943 -0.033699 0.098124 -0.000361
2740 1.61469657 1.7929737 -9.605226060000001 -0.015615 0.089525 0.002981
2760 1.57308255 1.8690110100000001 -9.590256 0.008818000000000001 0.066004 0.003182
2780 1.63998675 1.9080842400000002 -9.509274450000001 0.022558 0.038254 0.004381
2800 1.64493099 1.9347282000000001 -9.45748746 0.028829 0.014775 0.009796
2820 1.6462749600000002 1.9734973199999999 -9.44640216 0.02881 0.015819 0.015136000000000004
2840 1.5778698300000003 1.9148139000000002 -9.485024130000001 0.019247 0.03074 0.021459
2860 1.57846824 1.77396192 -9.50747922 0.010774 0.048863 0.02565
2880 1.65062079 1.6540640999999998 -9.55193814 0.006569 0.063787 0.02667
2900 1.7024077800000001 1.61469657 -9.60941493 0.010899 0.075498 0.024548
2920 1.7025549300000002 1.68654501 -9.581427000000001 0.009832 0.07019700000000001 0.019207
2940 1.7432762400000001 1.73998008 -9.56331774 -0.003009 0.046866000000000005 0.004192
2960 1.70450712 1.8329396400000002 -9.55447893 -0.015897 0.017126 -0.006542
2980 1.6392411900000001 1.9154123100000002 -9.4946085 -0.020198 0.00544 -0.01083
3000 1.6098994800000002 2.030228550000001 -9.45628083 -0.021217 0.012913 -0.014052
3020 1.6075058400000002 2.03441742 -9.421111980000001 -0.017998 0.021407 -0.009767
3040 1.5802634699999998 2.0547731700000003 -9.45598653 -0.004143 0.024529 -0.003265
3060 1.60915392 1.94805018 -9.54160821 0.022466 0.022258 0.008674
3080 1.6229271600000001 1.8800865 -9.624237840000001 0.042603 0.005092 0.021655
3100 1.6685829000000003 1.79986032 -9.577532430000002 0.042512 -0.013026 0.023815
3120 1.6973163900000001 1.75165398 -9.53442729 0.026475 -0.022549 0.021578
3140 1.7095985100000002 1.76752656 -9.521252460000001 0.006296 -0.011787 0.01181
3160 1.7052526800000003 1.75794219 -9.462274740000002 -0.009477 0.028791000000000008 0.000965
3180 1.74671955 1.7061552 -9.49894452 -0.024279 0.055488 -0.002377
3200 1.84267116 1.67875587 -9.53082702 -0.020045 0.045894 -0.004472
3220 1.8754463700000001 1.6477758900000001 -9.52783497 0.002278 0.029828 -0.002159
3240 1.81557594 1.6913322899999998 -9.54474741 0.018247 0.027621 0.003297
3260 1.75165398 1.83952215 -9.556274160000001 0.031021 0.022245 0.004461
3280 1.7022606300000003 1.9775390400000001 -9.47050533 0.030953 0.004149 0.001279
3300 1.6109491500000002 2.1037250700000003 -9.45044388 0.011807 0.015938 6.2e-05
3320 1.5167927700000001 2.11345659 -9.417815820000001 -0.005181 0.036229 0.002054
3340 1.46470167 1.93726899 -9.48832029 -0.007315 0.038359 0.004173
3360 1.5143991300000001 1.7994090600000001 -9.592649640000001 -0.007281 0.044754 0.003096
3380 1.5778698300000003 1.6181398800000002 -9.59833944 -0.006219 0.044746 0.004172
3400 1.6368475500000002 1.55795553 -9.62722989 -0.0041 0.039421 0.002057
3420 1.7107953300000003 1.6116947100000003 -9.57154833 -0.004076 0.042625 -8.3e-05
3440 1.69986699 1.8043434900000002 -9.50733207 -0.000923 0.033023000000000004 0.001019
3460 1.70735202 1.95687918 -9.44745183 0.005608 0.05964 -0.001105
3480 1.6639427700000002 2.00792061 -9.486525060000002 0.006756 0.07774600000000001 -0.001121
3500 1.61573643 2.00178936 -9.5296302 -0.0006929999999999999 0.08203300000000001 -0.001178
3520 1.59238863 1.8788896800000001 -9.53427033 -0.011357 0.08419700000000001 -0.000187
3540 1.61693325 1.79491608 -9.52708941 -0.008242 0.067133 0.001993
3560 1.5998736599999999 1.7501628599999999 -9.588460770000001 0.003392 0.042599 -3.1e-05
3580 1.61618769 1.7458170300000002 -9.624384990000001 0.006531 0.027679 -0.001058
3600 1.64612781 1.73998008 -9.57349071 0.002278 0.028767 -0.003226
3620 1.6816007700000002 1.7414810100000002 -9.50688081 -0.00198 0.031974 -0.002191
3640 1.6290584099999998 1.81751832 -9.47993274 -0.00298 0.050074 0.000983
3660 1.5932911500000002 1.86931512 -9.474399900000002 -0.006138 0.068161 0.009484
3680 1.6097523300000003 1.8901221300000002 -9.52020279 -0.002927 0.072402 0.011637
3700 1.53819819 1.88503074 -9.54655245 0.000235 0.069174 0.017005000000000003
3720 1.58430519 1.85344254 -9.57319641 0.001259 0.057461 0.01489
3740 1.6429788 1.8134766 -9.53562411 -0.000928 0.044689 0.013822999999999998
3760 1.66947561 1.7480635200000003 -9.53113113 0.004354 0.032953 0.013875
3780 1.72261638 1.77665967 -9.51840756 0.009616 0.021199000000000003 0.0182
3800 1.6483743 1.7604927899999998 -9.5065767 0.011726 0.011622 0.013954
3820 1.63759311 1.8449176500000002 -9.48397446 0.013874 0.002078 0.0011619999999999998
3840 1.6646883300000002 1.84281831 -9.50119101 -0.000985 0.005381 -0.012832
3860 1.6613921699999998 1.84267116 -9.5148171 -0.016912 0.013993 -0.0215
3880 1.5925357800000002 1.8332339400000002 -9.55493019 -0.021145 0.022526 -0.020473
3900 1.58700294 1.85659155 -9.596092950000001 -0.020045 0.029979 -0.020475
3920 1.6278615900000002 1.88653167 -9.56256237 -0.022212 0.026774 -0.016212999999999998
3940 1.6018160399999999 1.89820557 -9.53232795 -0.011601 0.020319 -0.009721
3960 1.62068067 1.9118218500000002 -9.517662 0.018194 0.009537 -0.00309
3980 1.674567 1.885482 -9.50164227 0.036245 -0.006518 0.000262
4000 1.69283322 1.8492536700000002 -9.477686250000001 0.043641 -0.01934 0.003534
4020 1.7115408900000002 1.80120429 -9.437573160000001 0.039445 -0.002286 0.004551
4040 1.7238132000000002 1.78279092 -9.49805181 0.026801 0.032913 0.004418
4060 1.6826504400000002 1.7479163700000002 -9.50987286 0.000283 0.06603400000000001 0.003122
4080 1.65750741 1.66304025 -9.49924863 -0.019925 0.079953 0.002963
4100 1.7013581100000001 1.64911986 -9.552536550000001 -0.023107 0.082103 0.000802
4120 1.7134832700000002 1.69312752 -9.58262382 -0.016677 0.094838 0.007240000000000002
4140 1.70914725 1.7435705400000001 -9.558069390000002 -0.001865 0.084065 0.024448
4160 1.67650938 1.8034507800000001 -9.549544500000001 0.019122 0.011531 0.030029000000000007
4180 1.60765299 1.97139798 -9.5062824 0.02005 -0.029975 0.019406
4200 1.5329596500000002 2.07468747 -9.4977477 0.012668 -0.016079 0.013996
4220 1.46979306 2.14099326 -9.48248334 -0.000216 -0.026717 0.021397
4240 1.49284656 2.09743686 -9.508823190000001 -0.005445 -0.009628 0.014929
4260 1.5211386 2.00492856 -9.54280503 -0.013797 0.021332 0.005217
4280 1.59418386 1.80914058 -9.57813084 -0.011563 0.039452 0.000937
4300 1.66258899 1.69671798 -9.593405010000001 0.0033490000000000004 0.033012 -1.9e-05
4320 1.7042030099999999 1.59148611 -9.624237840000001 0.026839 0.044618 0.007608
4340 1.7525565 1.6347482100000001 -9.59504328 0.052041 -0.024795 0.028169
4360 1.7432762400000001 1.7775523800000002 -9.572598000000001 0.03202 0.02006 0.01729
4380 1.6341498 1.91961099 -9.4949028 -0.006181 0.053269 0.004161
4400 1.6178357700000001 2.15507061 -9.46077381 -0.026202 0.096001 -0.008851999999999999
4420 1.77965172 2.04564987 -9.42290721 -0.033392000000000005 0.156752 -0.010048
4440 1.59793128 1.8546393600000002 -9.462726 -0.035516000000000006 0.162073 -0.006865
4460 1.6067602800000003 1.6603425000000003 -9.55133973 -0.019935 0.0757 0.0008320000000000001
4480 1.66902435 1.5892494300000002 -9.4946085 0.011846 0.026582 0.0021850000000000003
4500 1.5513730200000002 1.55735712 -9.54759231 0.029906 0.011596 0.0044670000000000005
4520 1.54852812 1.7136402300000002 -9.6164487 0.025605000000000003 0.005215999999999999 0.0055130000000000005
4540 1.4934449699999999 1.92215178 -9.53022861 0.006487000000000001 0.019152 2.1e-05
4560 1.5069141000000001 2.0853117 -9.474252750000002 -0.011577 0.038378 0.003075
4580 1.42413732 2.1086693100000007 -9.512717760000001 -0.012563 0.060735 0.007312000000000002
4600 1.3807280700000002 2.1375597600000003 -9.42604641 -0.015696 0.076721 0.008338
4620 1.44764208 1.7378905500000001 -9.620196120000001 -0.008185 0.078855 0.00091
4640 1.6991214300000002 1.58834691 -9.76254903 0.000321 0.06819 -0.00329
4660 1.71273771 1.52262972 -9.68201874 0.013032 0.051088 2.6e-05
4680 1.6860937500000002 1.62501669 -9.572441040000001 0.019367 0.037213 0.001156
4700 1.76453451 1.7747074800000002 -9.46751328 0.016156 0.037216 0.0032700000000000003
4720 1.74207942 1.9989444600000001 -9.342818370000002 0.009784 0.044691 0.0042840000000000005
4740 1.6301080800000003 1.9785887100000001 -9.38039067 0.005574 0.05855 0.005305
4760 1.5489793800000002 1.9143724500000001 -9.513169020000001 0.001369 0.073474 0.006325
4780 1.5386494500000003 1.8525498300000003 -9.573941970000002 0.002378 0.060687 0.006348
4800 1.5759274500000002 1.75375332 -9.62572896 0.005526 0.047897 0.005318
4820 1.62232875 1.7776995300000002 -9.620941680000001 0.0033490000000000004 0.036195 0.003182
4840 1.6287641099999999 1.8100332900000002 -9.556578270000001 0.005521 0.037283 -0.004282
4860 1.63654344 1.82859381 -9.528433380000001 -0.002956 0.051157 -0.003291
4880 1.63070649 1.84446639 -9.50329035 -0.012534 0.060761 0.000903
4900 1.61304849 1.8958119300000003 -9.485024130000001 -0.003014 0.040495 -0.001141
4920 1.58475645 1.91870847 -9.49909167 0.002354 0.045812 -0.003247
4940 1.56110454 1.9127243700000003 -9.46990692 -0.00297 0.050083 -0.001153
4960 1.57652586 1.88233299 -9.537262380000001 -0.008251999999999999 0.06181900000000001 -0.001205
4980 1.63759311 1.86976638 -9.56107125 -0.008228000000000001 0.068207 -0.000145
5000 1.6660323000000001 1.82679858 -9.56391615 -0.006056000000000001 0.074599 -0.002274
5020 1.6949227500000001 1.76961609 -9.53606556 -0.006075 0.071399 -0.001202
5040 1.7107953300000003 1.7371351800000001 -9.516612330000001 -0.006128 0.059681 -0.001188
5060 1.73729214 1.81572309 -9.47365434 0.00024 0.054324 0.001
5080 1.6874377200000001 1.80419634 -9.49760055 0.001326 0.06282599999999999 0.00527
5100 1.64598066 1.81287819 -9.50374161 -0.001837 0.070298 0.00417
5120 1.6401437100000003 1.81108296 -9.54474741 0.001503 0.089508 -0.0075819999999999985
5140 1.6527103200000002 1.85943645 -9.54759231 -0.002961 0.051152 -0.002223
5160 1.71168804 1.86871671 -9.53577126 -0.00297 0.053266 0.002047
5180 1.68489693 1.8369813600000002 -9.52694226 0.007684000000000002 0.038362 -0.009609
5200 1.63833867 1.8362358000000003 -9.5239404 0.002383 0.045837 -0.009656
5220 1.6631874 1.87051194 -9.526491 -0.005061 0.057556 -0.003314
5240 1.67606793 1.8522457200000002 -9.54624834 -0.002884 0.070319 -0.00011
5260 1.69432434 1.83548043 -9.54191232 0.001364 0.067104 0.000992
5280 1.67875587 1.84027752 -9.532475100000001 0.002397 0.054338 -0.004326
5300 1.6747141500000002 1.87844823 -9.489811410000002 -0.000683 0.07143200000000001 -0.013983
5320 1.6712708400000003 1.89131895 -9.509274450000001 -0.002822 0.07461799999999999 -0.009729
5340 1.6426844999999999 1.87140465 -9.52978716 -0.003994 0.059674 -0.001173
5360 1.6980717600000002 1.8182736900000003 -9.516759480000001 0.00011 0.029806 0.005304
5380 1.77635556 1.8037450800000001 -9.489968370000001 0.003191 0.003163 0.005359
5400 1.6576545599999999 1.8941638500000002 -9.536820930000001 0.004999 -0.072465 0.002264
5420 1.70974566 1.84999923 -9.52768782 0.004033 -0.060701 -0.008440000000000001
5440 1.8618300900000002 1.79881065 -9.4513464 -0.014835 0.016057 -0.006534000000000001
5460 1.6985132100000002 1.84386798 -9.556578270000001 -0.025365 0.052292 -0.001312
5480 1.6845928200000002 1.8381781799999999 -9.52798212 -0.022097 0.070377 0.001892
5500 1.7058510900000003 1.93607217 -9.50807763 -0.013653 0.05329 0.005177
5520 1.73459439 1.90928106 -9.55059417 -0.010534 0.034109 0.004156
5540 1.6841513700000001 1.84027752 -9.55583271 -0.011659 0.021329 0.004164
5560 1.7059982400000002 1.83248838 -9.489213000000001 -0.0031620000000000003 0.008533 -3.3e-05
5580 1.82665143 1.8154287900000001 -9.458380170000002 0.008616 0.021263 0.0032380000000000004
5600 1.7492603400000002 1.8616829400000001 -9.47544957 0.00864 0.028711 0.005365
5620 1.70480142 1.8762017400000002 -9.52409736 0.001196 0.035124 0.006372999999999999
5640 1.72560843 1.87799697 -9.45433845 0.00122 0.038329 0.004232
5660 1.7757571500000002 1.8239536800000002 -9.474252750000002 0.000201 0.04368 -0.001123
5680 1.7323479000000002 1.7944648200000002 -9.43158906 0.004507 0.050065 -0.003237
5700 1.6486686 1.8024011100000001 -9.57604131 0.010817 0.03723 0.004301
5720 1.66363866 1.80285237 -9.63546048 0.016118 0.033998 0.008615000000000001
5740 1.7630335800000003 1.90868265 -9.53517285 0.020352 0.030771 0.012921
5760 1.68683931 1.89131895 -9.51870186 0.021424 0.032893 0.013994
5780 1.63998675 1.90373841 -9.46601235 0.018271000000000003 0.045679 0.016092
5800 1.64493099 1.9251438300000001 -9.47200626 0.014075 0.068039 0.022444
5820 1.6510622400000001 1.89820557 -9.496550880000001 -0.000875 0.072322 0.029811
5840 1.61589339 1.9434100500000002 -9.536820930000001 -0.027494 0.08307300000000001 0.028543
5860 1.6714278 1.89026928 -9.5151114 -0.060308000000000014 0.119492 0.006903
5880 1.6862409000000003 1.87424955 -9.51721074 -0.08668200000000001 0.140009 -0.039241000000000005
5900 1.64942397 1.8528441300000003 -9.49550121 -0.07298099999999999 0.058114 -0.083906
5920 1.66543389 1.86302691 -9.500592600000001 -0.019652 0.014413999999999996 -0.124069
5940 1.67546952 1.8525498300000003 -9.51900597 0.003848 0.001625 -0.143117
5960 1.71244341 1.8941638500000002 -9.5438547 0.050593 -0.043276 -0.143801
5980 1.7178290999999999 1.93712184 -9.45957699 0.109122 -0.077565 -0.14441700000000002
6000 1.7338488300000001 1.9417619700000002 -9.46316745 0.083536 -0.06791 -0.139267
6020 1.7112367800000001 1.90928106 -9.4860738 0.053592 -0.06892999999999999 -0.124519
6040 1.67023098 1.8756033300000001 -9.51137379 0.013124 0.008729 -0.062945
6060 1.66543389 1.8796450500000002 -9.540705690000001 -0.02414 0.096991 0.008253
6080 1.62501669 1.8696094200000002 -9.5640633 0.004713 0.138312 0.03938
6100 1.6075058400000002 1.82679858 -9.56675124 0.02729 0.229633 0.092832
6120 1.65959694 1.89326133 -9.55388052 -0.004711 0.238237 0.100075
6140 1.6170902100000002 1.82979063 -9.64115028 -0.034837 0.198859 0.117006
6160 1.6082514 1.8564444 -9.63426366 -0.015907 0.160353 0.13962
6180 1.64807019 1.9559864700000003 -9.42709608 0.010693 0.16231800000000002 0.15796400000000002
6200 1.7425306800000002 1.9401138900000001 -9.33144858 0.01829 0.196359 0.163314
6220 1.8968517900000001 1.89925524 -9.46421712 0.00456 0.212446 0.148242
6240 1.83683421 1.98172791 -9.59938911 -0.005056000000000001 0.14668399999999998 0.085234
6260 1.6643842199999999 2.0332206 -9.45808587 -0.017907 0.071355 0.02008
6280 1.5587109000000001 2.07827793 -9.118885500000001 -0.028451 0.049222 -0.030172000000000008
6300 1.53326376 1.87589763 -9.43233462 -0.038004 0.028078 -0.062258
6320 1.69343163 1.48565583 -9.612259830000001 -0.027369 0.00573 -0.07711
6340 1.6727717700000002 1.8332339400000002 -9.56585853 -0.009281 0.009868 -0.06203400000000001
6360 1.8187151400000001 1.9529846100000001 -9.7986204 0.006689 0.023575 -0.040576
6380 1.9592728200000002 1.69986699 -9.58936329 0.022644 0.031965 -0.021247
6400 1.96002819 2.02888458 -9.421857540000001 0.031164 0.036166 -0.013716
6420 2.08860786 2.02348908 -9.32306103 0.019496 0.05006 -0.014883
6440 2.10776679 1.9562807700000002 -9.520948350000001 0.014166 0.0469 -0.019189
6460 2.06285661 1.8308403 -9.49520691 0.013095 0.045838 -0.019195
6480 1.96122501 1.7443259100000001 -9.462274740000002 0.004565 0.054360000000000006 -0.011788
6500 1.79596575 1.8277011 -9.51960438 -0.004037 0.051148 -9.4e-05
6520 1.65016953 1.79596575 -9.462127590000001 -0.012563 0.055429999999999986 0.001978
6540 1.48431186 1.83114441 -9.409428270000001 -0.02958 0.06826900000000001 0.002911
6560 1.48595994 1.85509062 -9.453592890000001 -0.024308 0.061828 0.010433
6580 1.6061618700000002 1.8080909100000002 -9.489213000000001 -0.004104 0.046844 0.010594
6600 1.7556957000000002 1.8257489100000002 -9.49834611 -0.008367 0.045802 0.008429
6620 1.87634889 1.9284399900000002 -9.520948350000001 -0.016978999999999998 0.042581 0.022259
6640 1.8964103400000003 2.02528431 -9.50822478 -0.007449 0.041422 0.037283
6660 1.7872839 2.08920627 -9.4428117 0.013863999999999998 0.033899 0.035305
6680 1.7431290900000003 2.03097411 -9.46691487 0.020328 0.026505 0.013995
6700 1.8568858500000003 1.9766365200000002 -9.50283909 0.007645 0.026657 -0.012799
6720 1.9785887100000001 1.89371259 -9.477686250000001 0.003416 0.022462 -0.025642
6740 2.0718425700000003 1.80524601 -9.46616931 0.011956 0.024558 -0.024517
6760 2.14234704 1.82110878 -9.4453623 0.02262 0.035127 -0.012706
6780 2.08516455 1.84236705 -9.46736613 0.0205 0.043635 -0.007390000000000002
6800 2.06749674 1.82650428 -9.46856295 0.004517 0.049013 -0.006441
6820 2.0540276100000003 1.80973899 -9.509127300000001 -0.010362 0.058665 -0.009762
6840 1.9935587700000001 1.93621932 -9.43817157 -0.015744 0.049092 -0.008719
6860 1.8859234500000002 1.95044382 -9.38548206 -0.002009 0.021338 -0.006451
6880 1.8791937900000002 1.91122344 -9.418414230000002 0.003287 0.019164 -2e-06
6900 1.85778837 1.98217917 -9.45928269 0.002143 0.025465 0.023483
6920 1.74671955 2.05897185 -9.46152918 0.006387 0.036039 0.039523
6940 1.6667876700000002 2.02124259 -9.525147030000001 0.012764 0.034934 0.043841000000000005
6960 1.7597374200000002 1.9230543000000002 -9.47559672 0.019204 0.033885000000000005 0.034274
6980 1.90359126 1.8369813600000002 -9.4573305 0.017161000000000003 0.043522000000000005 0.023565
7000 1.99131228 1.81677276 -9.414372510000002 0.011903 0.048914 0.011771
7020 1.99265625 1.86931512 -9.41931675 0.01197 0.051096 -0.00105
7040 2.00807757 1.9805310900000002 -9.46466838 0.019496 0.054304 -0.010616
7060 1.9404180000000002 1.90613205 -9.4946085 0.025892 0.050033 -0.01377
7080 1.8660189600000001 1.7970154200000001 -9.500592600000001 0.013119 0.050104 -0.020269
7100 1.89221166 1.8293491800000001 -9.45553527 0.002474 0.059711 -0.016083
7120 1.95418143 1.88039061 -9.477686250000001 -0.002875 0.0629 -0.009715
7140 2.01944736 1.91915973 -9.434129850000001 -0.009319 0.05864 -0.004413
7160 2.06375913 1.82650428 -9.38234286 -0.017883 0.063949 0.007271
7180 1.9928034 1.84910652 -9.41123331 -0.025365 0.067146 0.013624
7200 1.81557594 2.0082247200000003 -9.44730468 -0.028614 0.058626 0.015747999999999998
7220 1.6847497800000002 2.03381901 -9.50358465 -0.024408000000000003 0.042641000000000005 0.013662
7240 1.6266647700000003 2.00568393 -9.50269194 -0.018017 0.030939 0.004107
7260 1.60630902 1.9428116400000002 -9.496550880000001 -0.015902 0.023487 0.000927
7280 1.7342902800000002 1.93592502 -9.5148171 -0.012711 0.022407 0.002019
7300 1.9115275500000002 1.9422132300000001 -9.465266790000001 -0.003143 0.01916 0.006363000000000001
7320 2.0555285400000005 1.93353138 -9.44191899 0.0011 0.018063 0.010667
7340 2.14698717 1.8901221300000002 -9.45524097 0.004382 0.039344 0.013867
7360 2.11854798 1.84042467 -9.492813270000001 0.006579000000000001 0.052124 0.012798
7380 2.13096744 1.8378740700000002 -9.48846744 0.011937 0.054249 0.009628
7400 2.07034164 1.8282995100000001 -9.477391950000001 0.022596 0.055264 0.012906
7420 2.0073222 1.73998008 -9.497453400000001 0.02582 0.056335 0.008654
7440 1.9820320200000001 1.84715433 -9.47904003 0.027969 0.049975 -0.000937
7460 1.93442409 1.84446639 -9.46856295 0.029069 0.042574 -0.015875
7480 1.93173615 1.8788896800000001 -9.44759898 0.02372 0.034092000000000004 -0.021242
7500 1.93592502 1.93621932 -9.421111980000001 0.018309 0.022371 -0.015924
7520 1.9383186600000002 1.89969669 -9.39581199 0.018228 0.019116 -0.000965
7540 1.9775390400000001 1.8184208400000001 -9.45478971 0.012845 0.024397 0.015013999999999996
7560 1.93862277 1.87604478 -9.469161360000001 0.002153 0.027596 0.023481
7580 1.88428518 1.9682587800000002 -9.44416548 -0.003215 0.026523 0.029854
7600 1.7877351600000002 1.93427694 -9.446255010000002 -0.002148 0.02652 0.029861
7620 1.6866921599999998 1.99191069 -9.43278588 0.0 0.026525 0.026672
7640 1.6949227500000001 1.99131228 -9.47454705 0.001105 0.029738 0.021334
7660 1.8089836200000002 2.02603968 -9.465570900000001 0.004339 0.03294 0.01708
7680 1.81512468 2.04953463 -9.47454705 0.013988999999999998 0.039315 0.012866
7700 1.7866854900000002 2.00956869 -9.461372220000001 0.019328 0.031874 0.004367
7720 1.89161325 1.9404180000000002 -9.47873592 0.015142 0.040449 -0.005287
7740 2.01930021 1.8616829400000001 -9.477391950000001 0.005636 0.058605 -0.008582
7760 2.1158502300000004 1.7910215100000002 -9.39835278 0.007789 0.06392 -0.007504999999999999
7780 2.23170633 1.8088364700000001 -9.40478814 0.018415 0.057478 -0.004218
7800 2.21000661 1.83982626 -9.417364560000001 0.016228 0.052134 0.002183
7820 2.1465359100000003 1.86137883 -9.461823480000001 0.0065980000000000006 0.050019 0.006391
7840 2.0839677300000004 1.8989511300000002 -9.47349738 0.000182 0.048968 0.008484
7860 1.9898113499999999 1.8598779 -9.529188750000001 -0.000918 0.043637 0.01062
7880 1.8187151400000001 1.8947622600000003 -9.4863681 -0.000947 0.036184 0.009561
7900 1.8070412400000002 1.8977543100000003 -9.45464256 -0.002023 0.032997000000000005 0.008489
7920 1.79551449 1.93681773 -9.43862283 -0.004162 0.030878 0.0074090000000000015
7940 1.7938664100000001 1.9214062200000002 -9.471555 -0.006281 0.03302 0.006323
7960 1.8244049400000002 1.95283746 -9.50822478 -0.007348 0.033024 0.006316
7980 1.8525498300000003 1.9693084500000002 -9.46601235 -0.005191 0.037282 0.005257
8000 1.85838678 1.89161325 -9.43831872 -0.001947 0.043675 0.0020670000000000003
8020 1.8507546000000001 1.84999923 -9.48681936 -0.001918 0.049005 0.000992
8040 1.90732887 1.86976638 -9.51466014 -0.001899 0.054327 0.002054
8060 1.9377202500000001 1.8724543200000003 -9.481129560000001 0.001302 0.057499 0.005277
8080 1.9835231400000002 1.86108453 -9.46376586 0.001297 0.057495 0.006345
8100 1.98547533 1.8015084000000001 -9.450002430000001 -0.004033 0.056457000000000014 0.004172
8120 1.9818750600000001 1.8037450800000001 -9.45568242 -0.002951 0.052222000000000005 -0.003292
8140 1.99296036 1.82665143 -9.460930770000001 -0.003999 0.053304 -0.0065060000000000005
8160 1.9910081700000002 1.8467128800000001 -9.45239607 -0.004037 0.051148 -9.4e-05
8180 2.00642949 1.8666173700000002 -9.45928269 0.000182 0.047907 0.007417
8200 1.96780752 1.8724543200000003 -9.464815530000001 0.001225 0.046821 0.011699
8220 1.96316739 1.8476055900000001 -9.456732090000001 0.005502 0.053180999999999985 0.015994
8240 1.9303823700000002 1.8791937900000002 -9.45613368 0.009746 0.052083 0.020298
8260 1.8947622600000003 1.8946053 -9.47380149 0.009736 0.044648 0.014966
8280 1.88697312 1.88653167 -9.480982410000001 0.00975 0.039356 0.006427
8300 1.9074858300000002 1.91616768 -9.47349738 0.01086 0.03939 -0.003179
8320 1.8934084800000002 1.8928100700000001 -9.471555 0.015113 0.040424 0.0011220000000000002
8340 1.91122344 1.9152651600000001 -9.45493686 0.011875 0.037218 0.006445
8360 1.8655677000000002 1.8994023900000003 -9.46751328 0.0033159999999999995 0.036165 0.010659
8380 1.88892531 1.8814402799999999 -9.49475565 -0.000957 0.036176 0.011697
8400 1.97948142 1.8886212 -9.46316745 0.002239 0.031916 0.008520999999999999
8420 2.01900591 1.8694622699999999 -9.456889050000001 0.005464 0.032988 0.004268999999999999
8440 2.01630816 1.85808267 -9.44790309 -0.00409 0.03943 -7.900000000000001e-05
8460 1.9543383900000002 1.86736293 -9.4573305 -0.0094 0.044775 -0.000123
8480 1.9028457 1.8794880900000002 -9.46840599 -0.003033 0.039417 0.002065
8500 1.92215178 1.92858714 -9.45209196 0.007597 0.03298 0.0042840000000000005
8520 1.9267919100000002 1.99400022 -9.44790309 0.007617 0.03618 0.003212
8540 1.9254479400000002 2.0092743900000003 -9.48562254 -0.000909 0.041523 0.00635
8560 1.9410164100000002 1.96242183 -9.44715753 -0.003023 0.045792 0.00633
8580 1.9881632700000003 1.8827842500000003 -9.468857250000001 -0.00299 0.053249 0.00632
8600 2.05957026 1.82186415 -9.46856295 0.000244 0.05857200000000001 0.0042
8620 2.0507314500000002 1.8768001500000002 -9.442360440000002 0.004497999999999999 0.051118 -3.4e-05
8640 2.03516298 1.85898519 -9.43068654 -0.0008560000000000001 0.042631 -0.004333
8660 2.00568393 1.85764122 -9.465718050000001 0.00015800000000000002 0.029849 -0.005378
8680 1.99145943 1.8844323300000003 -9.452994480000001 0.007578 0.020231 -0.004246
8700 1.95418143 1.8684126 -9.47574387 0.005377000000000001 0.006386 -0.003175
8720 1.95044382 1.83069315 -9.45149355 -0.003172 0.001098 -0.005365
8740 1.9655610300000002 1.8080909100000002 -9.433678590000001 -0.004306 -0.012751 -0.004287
8760 1.9378674 1.8226097100000003 -9.436974750000001 0.012649 -0.034133 0.000132
8780 1.9679546700000001 1.8971559000000002 -9.465266790000001 0.05649600000000001 -0.034192 -0.023062
8800 1.93487535 1.9227501900000001 -9.457183350000001 0.098768 -0.15883699999999998 -0.057859
8820 1.885482 1.91466675 -9.46047951 0.072372 -0.305869 -0.029013
8840 1.86676452 1.92559509 -9.47634228 0.013088 -0.172626 0.001381
8860 1.8669214800000002 1.9314320400000002 -9.48906585 -0.020198 0.04788 0.031844
8880 1.94505813 1.9121259600000002 -9.48413142 -0.018446 0.191721 0.023126
8900 2.04145119 1.8917702100000002 -9.43862283 -0.018413 0.191751 0.015649
8920 2.0341231200000003 1.85793552 -9.3992553 -0.016380000000000002 0.161946 0.008223999999999999
8940 2.04519861 1.8405718200000003 -9.417668670000001 -0.00485 0.11291500000000003 0.005163
8960 2.0281292100000003 1.86871671 -9.43772031 0.001307 0.06387000000000001 0.01061
8980 2.0446002 1.85374665 -9.46002825 0.017214 0.046752 0.015015
9000 2.08650852 1.85659155 -9.45883143 0.040685 0.045609 0.014113
9020 2.08456614 1.8363829500000002 -9.465413940000001 0.033303 0.055261000000000005 0.004435000000000001
9040 2.07213687 1.87589763 -9.43204032 0.00135 0.063908 0.000996
9060 2.00762631 1.91466675 -9.40299291 -0.01894 0.058657000000000015 -0.000207
9080 1.8526969800000002 1.91961099 -9.40074642 -0.009352 0.057549 0.001997
9100 1.68145362 1.7122864500000001 -9.58681269 0.006612000000000001 0.04791 0.001053
9120 1.7580893400000002 1.9552311 -9.223666110000002 0.004392 0.022377 -0.005339
9140 1.6079571000000001 2.01391452 -9.41243013 -0.011673 0.003279 -0.010768000000000002
9160 1.50197967 1.9785887100000001 -9.73800441 -0.00952 0.008594 -0.009692
9180 1.6414876800000002 1.86931512 -9.89756406 0.0033350000000000003 0.025572 -0.004282
9200 1.85509062 1.8389237400000003 -9.71285157 0.012961000000000002 0.039353 0.004313
9220 2.01496419 1.86078042 -9.35464923 0.011879 0.037222000000000005 0.005376
9240 1.8646749900000001 1.8652734000000002 -9.27965178 0.004349 0.020217 0.002141
9260 1.9023944400000001 1.89505656 -9.25675524 0.0032630000000000003 0.011715 -0.002129
9280 1.9639129500000003 1.89221166 -9.480384 0.007587999999999998 0.023423 -0.003182
9300 1.97694063 1.87335684 -9.60552036 0.01718 0.025502 0.001156
9320 1.9401138900000001 1.8342836100000002 -9.50508558 0.017194 0.03082 0.003285
9340 1.9279887300000003 1.7787492000000003 -9.41721741 0.0076209999999999984 0.044672 0.010678
9360 1.8874243800000001 1.7760612600000003 -9.45883143 0.007545 0.024445 0.007499
9380 1.9309807800000003 1.7820453600000001 -9.53262225 0.0033060000000000003 0.030852 0.007461
9400 1.9779903 1.84147434 -9.51855471 -0.002 0.036201 0.0063490000000000005
9420 1.9464021 1.7820453600000001 -9.4425174 0.00334 0.033003 0.002117
9440 1.9426644900000003 1.78489026 -9.35300115 0.003445 0.053256 -0.001112
9460 1.9170603900000003 1.8492536700000002 -9.42066072 -0.006152 0.058599 0.003087
9480 1.9110762900000002 1.8820386900000001 -9.51960438 -0.016821 0.065002 0.009413
9500 1.8735039900000001 1.93817151 -9.56421045 -0.015754 0.061816 0.006220000000000001
9520 1.83877659 1.9314320400000002 -9.49969989 0.003344 0.048923 0.017052
9540 1.74476736 1.9031399999999998 -9.449404020000001 0.000105 0.018131 -0.005364
9560 1.72680525 1.89296703 -9.42709608 -0.002019 0.018147 -0.007515000000000002
9580 1.77201954 1.87335684 -9.477244800000001 0.002258 0.02875 0.001047
9600 1.80390204 1.85764122 -9.51421869 5e-06 0.013797 0.012801
9620 1.8236593800000003 1.90688742 -9.50778333 0.005272 0.006292 0.020325
9640 1.8323412300000002 1.8721600200000001 -9.480688110000001 0.007377 -0.000107 0.020348
9660 1.8363829500000002 1.88682597 -9.47110374 0.013773 -0.008622 0.012925999999999998
9680 1.93681773 1.8179695800000002 -9.44670627 0.014888 0.000966 0.011853
9700 1.8486552600000001 1.77156828 -9.524391660000001 0.017055 0.011599 0.015059
9720 1.9085355000000002 1.79776098 -9.53546715 0.017089 0.016933 0.012916
9740 1.96271613 1.7917768800000002 -9.45074799 0.011779 0.018034 0.008605
9760 1.8979014600000002 1.7923752900000003 -9.47544957 0.010731 0.020177 0.006458
9780 1.9143724500000001 1.85045049 -9.44041806 0.008592 0.015936000000000002 0.003244
9800 1.8778498200000002 1.91691324 -9.48442572 0.0053490000000000005 0.009543 0.0064340000000000005
9820 1.9567320300000002 1.87305273 -9.47005407 0.002153 0.011681 0.007478
9840 1.62831285 1.93322727 -9.50269194 0.00644 0.01911 0.010703
9860 2.08441899 1.8016555500000002 -9.425752110000001 0.00433 0.026566000000000003 0.012815
9880 1.73144538 1.82351223 -9.49026267 0.002249 0.035108 0.009585
9900 1.7053998300000002 1.88802279 -9.493107570000001 0.001201 0.039373000000000005 0.009572
9920 1.77365781 1.9097323200000003 -9.52978716 0.00015800000000000002 0.045764 0.010625
9940 1.75869756 1.9127243700000003 -9.4598811 0.004425999999999999 0.041505 0.006387
9960 1.7434233900000002 1.8279954 -9.50778333 0.005483 0.037249 0.004263
9980 1.7631807300000002 1.8904164300000001 -9.49819896 0.005526 0.043653 0.001051
10000 1.85150016 1.9254479400000002 -9.45284733 0.000182 0.038358 -0.002184
10020 1.8356373900000003 1.9064361600000002 -9.48188493 0.003368 0.031968 -0.005359
10040 1.80060588 1.81646865 -9.53277921 0.008679000000000001 0.030867 -0.001047
10060 1.86347817 1.8230609700000002 -9.506135250000002 0.008707 0.03832 1.2e-05
10080 1.88472663 1.7760612600000003 -9.469161360000001 0.001244 0.039411 -4.2e-05
10100 1.8884740500000001 1.7687233800000002 -9.47889288 -0.000918 0.034088 0.001018
10120 1.85943645 1.77635556 -9.48772188 0.001177 0.024497 -2.3e-05
10140 1.8302418900000001 1.8187151400000001 -9.493107570000001 0.005454 0.025552 -0.001063
10160 1.8200689200000002 1.8660189600000001 -9.51616107 0.001235 0.035159 -0.002173
10180 1.80419634 1.84581036 -9.49595247 0.000177 0.039415 -4.9e-05
10200 1.76348484 1.8670686300000001 -9.49760055 0.00123 0.038337 0.002096
10220 1.7610912000000003 1.8841282200000002 -9.47949129 0.003344 0.034069 0.002116
10240 1.72605969 1.86047631 -9.5267853 0.0075689999999999985 0.026588 0.004292
10260 1.7606399400000001 1.8503033400000002 -9.53053272 0.008607 0.020193 0.004307
10280 1.75210524 1.8598779 -9.476489429999999 0.009669 0.021246 0.00645
10300 1.76198391 1.83174282 -9.46631646 0.012884 0.02337 0.005401
10320 1.8027052200000002 1.8064428300000002 -9.505232730000001 0.0054210000000000005 0.024461 0.005348
10340 1.81751832 1.8238065300000001 -9.49475565 7.2e-05 0.024467 0.008515
10360 1.83114441 1.81811673 -9.48547539 0.003296 0.029782 0.008531
10380 1.839375 1.8152718300000001 -9.49026267 0.008664 0.035098000000000004 0.006425
10400 1.79761383 1.81423197 -9.49475565 0.002278 0.035133 0.003176
10420 1.76932179 1.8277011 -9.49565817 -0.001995 0.034082999999999995 0.003147
10440 1.75031001 1.83743262 -9.51002001 0.002282 0.036199 0.003174
10460 1.7480635200000003 1.8622813500000002 -9.521252460000001 0.004406 0.033 0.002125
10480 1.76692815 1.8681183 -9.533220660000001 0.004397 0.030869 0.002128
10500 1.75210524 1.8886212 -9.51630822 0.00122 0.033024 -0.001102
10520 1.7621310600000002 1.88039061 -9.5205069 -0.001985 0.030909 -0.00219
10540 1.77501159 1.86542055 -9.49865022 0.001206 0.030889 -3.1e-05
10560 1.7479163700000002 1.86047631 -9.47514546 0.003325 0.028747 0.0010550000000000002
10580 1.79746668 1.87006068 -9.500592600000001 0.004397 0.027686 -0.001073
10600 1.8058444200000001 1.8685597500000002 -9.49535406 0.002263 0.026633 -0.002155
10620 1.7875782 1.83188997 -9.49640373 -0.000918 0.029844 -0.003249
10640 1.78623423 1.77485463 -9.50673366 0.002258 0.027689 -2e-05
10660 1.76273928 1.83683421 -9.49939578 0.006502 0.026592 0.0042840000000000005
10680 1.74267783 1.8505976400000002 -9.501936570000002 0.004392 0.031926 0.004263
10700 1.73069982 1.83862944 -9.53996013 0.002287 0.038325 0.00424
10720 1.75061412 1.80254826 -9.506135250000002 0.003354 0.038321 0.004247
10740 1.7265109500000002 1.79955621 -9.49520691 0.005478 0.036183 0.004265
10760 1.7229204900000001 1.8282995100000001 -9.52230213 0.0012109999999999998 0.036198 0.004235
10780 1.7317494900000001 1.8074925000000002 -9.520948350000001 0.004435000000000001 0.039391 0.002117
10800 1.7402841900000001 1.81782243 -9.48772188 0.00445 0.043648 0.00318
10820 1.7330934600000003 1.84940082 -9.473948640000001 0.001254 0.045786 0.004222999999999999
10840 1.7582463000000002 1.85479632 -9.517662 0.000177 0.045781 0.006352
10860 1.76647689 1.86003486 -9.54744516 0.000168 0.04365 0.006355
10880 1.7655743700000002 1.83803103 -9.51630822 0.00123 0.042581 0.006363000000000001
10900 1.7774052300000003 1.8233552700000002 -9.49609962 0.002297 0.042578 0.006371
10920 1.74102975 1.81646865 -9.50597829 0.001244 0.045777 0.006359
10940 1.74641544 1.8257489100000002 -9.51630822 0.002297 0.041517 0.005304
10960 1.7482106700000002 1.84372083 -9.51989868 0.000144 0.033019 0.001027
10980 1.75435173 1.87634889 -9.521105310000001 -0.000937 0.031949 0.003157
11000 1.7115408900000002 1.86212439 -9.51451299 -0.000937 0.036193 0.007425
11020 1.6980717600000002 1.85314824 -9.52290054 0.002287 0.040447 0.006372999999999999
11040 1.70211348 1.8675198900000003 -9.51721074 0.001239 0.041529 0.00316
11060 1.7248628700000002 1.8333909000000002 -9.508823190000001 -0.0041140000000000005 0.040469 0.006329
11080 1.70271189 1.8453591 -9.52334199 0.00334 0.038309 0.0074519999999999986
11100 1.7377335900000002 1.85539473 -9.51646518 0.004416 0.039374 0.00639
11120 1.72501002 1.8277011 -9.50807763 0.00123 0.040459 0.004229999999999999
11140 1.7311510800000003 1.8182736900000003 -9.51181524 0.001235 0.040464 0.003161
11160 1.7435705400000001 1.8208144800000001 -9.50298624 0.006573999999999999 0.041510000000000005 0.003197
11180 1.73938167 1.8206673300000003 -9.50418306 0.0033590000000000004 0.040448000000000005 0.005313
11200 1.73908737 1.84745844 -9.512864910000001 0.003364 0.041513 0.005311
11220 1.7326422000000001 1.84386798 -9.51166809 0.0044210000000000005 0.041501 0.007455
11240 1.7269622100000002 1.83952215 -9.49520691 0.006540000000000001 0.039358 0.008541
11260 1.7396857800000003 1.8516473100000002 -9.51047127 0.005488 0.039375 0.005329
11280 1.7329463100000002 1.8196176600000002 -9.500739750000001 0.0033490000000000004 0.040439 0.007449
11300 1.7468667000000002 1.81572309 -9.51541551 0.004411 0.038309 0.006391
11320 1.7699202 1.87065909 -9.50597829 0.006531 0.036167000000000005 0.007476999999999998
11340 1.72501002 1.8486552600000001 -9.508676040000001 0.0033159999999999995 0.031921 0.006392
11360 1.73533995 1.79596575 -9.537115230000001 8.6e-05 0.025541 0.006377000000000001
11380 1.7480635200000003 1.82590587 -9.52738371 0.003272 0.020212 0.00427
11400 1.6976205000000002 1.8227568600000001 -9.512570610000001 0.002206 0.019155 0.003196
11420 1.69522686 1.85150016 -9.493254720000001 0.001187 0.02875 0.002108
11440 1.6983660600000001 1.8655677000000002 -9.51362028 0.000149 0.035145 0.002092
11460 1.71468009 1.8624285 -9.51601392 0.000153 0.03621 0.002091
11480 1.7143857900000001 1.87844823 -9.505232730000001 0.0033350000000000003 0.032999 0.003186
11500 1.72112526 1.86092757 -9.53846901 0.003354 0.03726 0.00318
11520 1.74267783 1.8312915600000002 -9.52230213 0.002273 0.03619 0.005311
11540 1.7199186300000002 1.8476055900000001 -9.50269194 0.0033490000000000004 0.035134 0.002115
11560 1.72740366 1.84700718 -9.50688081 0.006564 0.041502 0.005334
11580 1.7396857800000003 1.8336852000000001 -9.50164227 0.007626000000000002 0.040433 0.005343
11600 1.73729214 1.82246256 -9.49834611 0.0044210000000000005 0.038318 0.004255
11620 1.75585266 1.83607884 -9.51017697 0.001244 0.042594 0.003159
11640 1.7556957000000002 1.84595751 -9.53127828 0.001268 0.04792 0.003152
11660 1.7360855100000003 1.8251505000000001 -9.50388876 0.004469 0.047909 0.003174
11680 1.75435173 1.8248562 -9.480835260000001 0.007654999999999999 0.041519 0.0
11700 1.7443259100000001 1.8357845400000001 -9.48712347 0.005502 0.039388 0.002124
11720 1.72366605 1.8432695700000001 -9.52618689 0.006564 0.041502 0.005334
11740 1.73459439 1.8083852100000002 -9.53532 0.004406 0.037244 0.006392
11760 1.73668392 1.8073453500000003 -9.502240680000002 0.005469 0.037236 0.0074680000000000015
11780 1.75076127 1.83967911 -9.536968080000001 0.005497 0.041505 0.005326
11800 1.7371351800000001 1.8486552600000001 -9.52244928 0.001239 0.043651 0.005294
11820 1.70570394 1.84102308 -9.48772188 0.000182 0.043663 0.00315
11840 1.6844456700000001 1.84595751 -9.49236201 0.000177 0.041537 0.002084
11860 1.6742727000000002 1.8724543200000003 -9.51451299 0.003368 0.036212 -0.001091
11880 1.68774183 1.8762017400000002 -9.51601392 0.006555 0.033005 -0.001065
11900 1.7078032800000003 1.8562874400000002 -9.52424451 0.00443 0.034082 -0.002149
11920 1.70495838 1.8329396400000002 -9.508980150000001 0.002297 0.037273 0.001037
11940 1.7069007600000001 1.8244049400000002 -9.52319484 0.002297 0.038334 0.0021030000000000003
11960 1.7305526699999998 1.84401513 -9.5381649 0.0033490000000000004 0.036195 0.003182
11980 1.74102975 1.85240268 -9.53113113 0.00015800000000000002 0.035154000000000005 -4.4e-05
12000 1.75899186 1.8027052200000002 -9.496854990000001 0.00015800000000000002 0.035154000000000005 -4.4e-05
12020 1.77860205 1.81452627 -9.480531150000001 0.002282 0.031955000000000004 -0.001093
12040 1.73653677 1.8244049400000002 -9.48233619 0.0033490000000000004 0.033012 -1.9e-05
12060 1.720674 1.830546 -9.50463432 0.004435000000000001 0.03833 0.00105
12080 1.7028590399999999 1.85344254 -9.51496425 0.002316 0.040473 -3.6e-05
12100 1.69597242 1.8669214800000002 -9.521850870000002 0.00555 0.046857 -0.001089
12120 1.69207785 1.8498520800000002 -9.54474741 0.002349 0.046868 -0.001112
12140 1.6887915 1.8401205600000001 -9.52589259 0.0034020000000000005 0.04473 -3.4e-05
12160 1.7275606200000002 1.81123011 -9.50762637 0.000182 0.043663 0.00315
12180 1.7121393 1.81392786 -9.50238783 0.001249 0.042598 0.002091
12200 1.7178290999999999 1.82605302 -9.502240680000002 0.002302 0.04046 0.003169
12220 1.72501002 1.80359793 -9.49145949 0.0033490000000000004 0.034073 0.001048
12240 1.7163281700000002 1.8190192500000002 -9.52723656 0.00122 0.031963 -0.002169
12260 1.73339757 1.82875077 -9.50133816 -0.000889 0.04048 0.00101
12280 1.73100393 1.8226097100000003 -9.50448717 0.002302 0.042582 0.005303
12300 1.74102975 1.7887848300000002 -9.529188750000001 0.009736 0.036160000000000005 0.006431
12320 1.7079504300000001 1.81392786 -9.51092253 0.009755 0.037238 0.003225
12340 1.74641544 1.8452119500000002 -9.53442729 0.003373 0.042582 0.004242
12360 1.7449243200000002 1.85539473 -9.52424451 0.003368 0.043639 0.006377000000000001
12380 1.73758644 1.86377247 -9.53622252 0.005488 0.041497000000000006 0.007462999999999998
12400 1.7185746599999998 1.8378740700000002 -9.50822478 0.005488 0.040436 0.006396
12420 1.7299542600000002 1.84386798 -9.530385570000002 0.001201 0.037251 0.007437999999999998
12440 1.71648513 1.83877659 -9.53262225 0.002268 0.036186 0.006379
12460 1.7322007500000003 1.83952215 -9.50747922 0.005469 0.038297000000000005 0.008535
12480 1.7058510900000003 1.84117023 -9.53067987 0.00123 0.044703 0.008497
12500 1.7229204900000001 1.85943645 -9.51346332 0.002278 0.039377 0.007443000000000002
12520 1.6983660600000001 1.82215845 -9.500739750000001 0.001187 0.034055 0.007442
12540 1.71618102 1.83308679 -9.505536840000001 0.0022440000000000003 0.029799000000000006 0.005319
12560 1.7172306900000003 1.82605302 -9.50358465 0.0033060000000000003 0.029791 0.006394
12580 1.69986699 1.8037450800000001 -9.51885882 0.005473 0.035118 0.004266
12600 1.7092944 1.82679858 -9.528433380000001 0.0034020000000000005 0.048974 0.004234
12620 1.7444730600000002 1.8841282200000002 -9.54115695 -0.0008560000000000001 0.051119 0.004201
12640 1.70749917 1.8616829400000001 -9.51211935 0.000149 0.039389 0.00636
12660 1.72232208 1.84416228 -9.505683990000001 0.004416 0.037252 0.004256
12680 1.72022274 1.80854217 -9.49924863 0.006520999999999999 0.029792000000000006 0.003212
12700 1.69642368 1.8425141999999999 -9.50403591 0.004425999999999999 0.037261 0.00212
12720 1.6932746699999999 1.8685597500000002 -9.51630822 0.002306 0.039403 0.001034
12740 1.72036989 1.85344254 -9.49729644 0.006555 0.035127 0.001069
12760 1.74237372 1.8353332800000002 -9.501936570000002 0.005469 0.032992 0.003201
12780 1.7336918700000001 1.8497049300000001 -9.50793048 0.002258 0.030872000000000007 0.003181
12800 1.7480635200000003 1.8658718100000002 -9.53158239 0.0043630000000000006 0.027656 0.006404000000000001
12820 1.76437755 1.8143791200000001 -9.52768782 0.005435 0.029779000000000007 0.007476999999999998
12840 1.7642304000000002 1.81991196 -9.51900597 0.001206 0.038316 0.007437
12860 1.7253141300000001 1.8381781799999999 -9.49116519 0.0033490000000000004 0.040439 0.007449
12880 1.7266581 1.8191664 -9.5034375 0.005425 0.027648 0.00748
12900 1.7022606300000003 1.8377269200000002 -9.51541551 0.001148 0.02235 0.004252000000000001
12920 1.6983660600000001 1.81646865 -9.5205069 -0.000971 0.026614 0.0053
12940 1.7063023499999999 1.83353805 -9.51436584 0.006516 0.032971 0.007481
12960 1.70764632 1.80614853 -9.558373500000002 0.008631 0.027641 0.0064340000000000005
12980 1.7055567900000002 1.8468600300000002 -9.49999419 0.0043630000000000006 0.028717000000000006 0.0074709999999999985
13000 1.7003182500000003 1.85494347 -9.489213000000001 0.0033200000000000005 0.035108 0.008524
13020 1.7293558500000001 1.8251505000000001 -9.51585696 0.006534999999999999 0.036171 0.006409000000000001
13040 1.6956781200000002 1.81782243 -9.517662 0.005488 0.040436 0.006396
13060 1.7305526699999998 1.81706706 -9.52230213 0.000177 0.043659 0.004218
13080 1.7486619300000001 1.84386798 -9.53292636 0.001235 0.041525 0.004228
13100 1.72785492 1.8227568600000001 -9.50597829 0.002287 0.036203 0.002106
13120 1.7446202100000001 1.81691991 -9.48741777 0.004416 0.034069 0.0010550000000000002
13140 1.7444730600000002 1.8401205600000001 -9.52379325 0.0033590000000000004 0.037265 0.002112
13160 1.7092944 1.84207275 -9.52634385 0.00122 0.038329 0.004232
13180 1.69747335 1.83548043 -9.53577126 0.002297 0.040456 0.004237
13200 1.69687494 1.85927949 -9.51616107 0.000177 0.041537 0.002084
13220 1.70869599 1.8432695700000001 -9.50448717 -0.000875 0.044736 0.002073
13240 1.7265109500000002 1.84296546 -9.49819896 -0.000909 0.037279 0.002082
13260 1.72815903 1.8347348700000001 -9.53127828 0.002258 0.030872000000000007 0.003181
13280 1.7052526800000003 1.84102308 -9.521399610000001 0.00122 0.036207 0.002099
13300 1.7033103 1.83279249 -9.54550278 0.002292 0.038329 0.003172
13320 1.69312752 1.82411064 -9.49954293 0.000177 0.043659 0.004218
13340 1.65959694 1.81123011 -9.505536840000001 -0.000875 0.047919 0.005274
13360 1.6688772 1.83982626 -9.5296302 -0.003018 0.045796 0.005261
13380 1.69147944 1.8282995100000001 -9.53966583 -0.000875 0.046858 0.004207
13400 1.6808552100000003 1.8299475900000002 -9.53022861 0.000221 0.050063 0.001006
13420 1.7063023499999999 1.8383253300000002 -9.51960438 -0.000842 0.051132 0.000997
13440 1.71572976 1.83009474 -9.51092253 0.000192 0.043672 0.001014
13460 1.7107953300000003 1.83248838 -9.528433380000001 0.001254 0.043664 0.002089
13480 1.72965015 1.8070412400000002 -9.496854990000001 0.00123 0.042581 0.006363000000000001
13500 1.7082447299999999 1.80555012 -9.51047127 0.003364 0.040452 0.0042450000000000005
13520 1.6994157300000001 1.8074925000000002 -9.53067987 0.002287 0.039386 0.005307
13540 1.70675361 1.80718839 -9.53187669 0.005497 0.039383 0.003193
13560 1.7079504300000001 1.83383235 -9.53412318 0.001215 0.03408 0.001033
13580 1.6970220900000001 1.83143871 -9.517956300000002 -0.000913 0.035153 0.001017
13600 1.72576539 1.8329396400000002 -9.49640373 0.002302 0.04046 0.003169
13620 1.68938991 1.8377269200000002 -9.49580532 0.005536 0.046844 0.002115
13640 1.7009166599999999 1.8326355300000001 -9.52290054 0.0023350000000000003 0.045795 0.001026
13660 1.69283322 1.85179446 -9.52230213 0.001259 0.04579 0.0031550000000000003
13680 1.6717220999999998 1.8143791200000001 -9.52634385 0.005493 0.041501 0.0063950000000000005
13700 1.6799526900000001 1.8302418900000001 -9.53442729 0.0065450000000000005 0.038302 0.006406
13720 1.6940300400000001 1.8389237400000003 -9.49071393 0.005502 0.042571 0.005325
13740 1.6847497800000002 1.83712851 -9.5350257 0.002321 0.045782 0.004229999999999999
13760 1.7025549300000002 1.8179695800000002 -9.5296302 0.000211 0.051116 0.004209
13780 1.72905174 1.82889792 -9.51181524 0.000221 0.052185 0.003139
13800 1.71063837 1.830546 -9.49116519 0.0023350000000000003 0.046856 0.002093
13820 1.6949227500000001 1.83877659 -9.521703720000001 0.002325 0.045786 0.0031620000000000003
13840 1.6886345399999998 1.84162149 -9.53098398 0.002321 0.044721 0.003164
13860 1.6826504400000002 1.83143871 -9.528737490000001 0.001283 0.046872 -0.001119
13880 1.68774183 1.86212439 -9.5239404 0.002316 0.044717 0.004232
13900 1.69776765 1.8272498400000001 -9.50209353 0.002306 0.043647000000000005 0.005301
13920 1.6997198400000002 1.80555012 -9.50642955 0.003373 0.043643 0.005309
13940 1.73339757 1.81123011 -9.544149 -0.0008699999999999999 0.044741 0.001005
13960 1.72112526 1.89206451 -9.544453110000001 0.000177 0.041537 0.002084
13980 1.7275606200000002 1.83308679 -9.54519867 0.0033490000000000004 0.036195 0.003182
14000 1.7160338700000002 1.8080909100000002 -9.496698030000001 0.005459 0.032983 0.005337
14020 1.70390871 1.83607884 -9.493705980000001 0.001206 0.036194 0.005303
14040 1.67875587 1.8353332800000002 -9.5065767 0.002254 0.036173 0.009583
14060 1.6878889799999999 1.8483609600000002 -9.508528890000001 0.00544 0.029783 0.006409000000000001
14080 1.6886345399999998 1.8546393600000002 -9.52663815 0.006483 0.023392 0.0053560000000000005
14100 1.69881732 1.8511960500000002 -9.52783497 0.006483 0.022331 0.00429
14120 1.72261638 1.8541979100000001 -9.52768782 0.005416 0.022335 0.004282
14140 1.7052526800000003 1.8522457200000002 -9.53232795 0.006497 0.025527 0.004286
14160 1.71034407 1.80914058 -9.489811410000002 0.004372999999999999 0.029787 0.006402
14180 1.7378905500000001 1.8432695700000001 -9.49236201 0.001148 0.026594 0.00852
14200 1.7160338700000002 1.84386798 -9.50374161 0.005411 0.022331 0.00535
14220 1.73533995 1.8293491800000001 -9.53187669 0.008636 0.028707 0.006433
14240 1.7618367600000002 1.84102308 -9.5236461 0.007587999999999998 0.027667 0.001086
14260 1.72396035 1.82919222 -9.51032412 -0.001971 0.035164999999999995 -0.001127
14280 1.71063837 1.82755395 -9.51421869 -0.0008560000000000001 0.045814 -0.001133
14300 1.7441689500000002 1.81751832 -9.52424451 0.005512 0.041518 0.002122
14320 1.7580893400000002 1.8223056000000002 -9.51616107 0.00655 0.034062 0.00107
14340 1.7449243200000002 1.8483609600000002 -9.49805181 0.004397 0.030869 0.002128
14360 1.72022274 1.84850811 -9.508528890000001 0.005469 0.034053 0.004267
14380 1.7085488400000002 1.83607884 -9.53187669 0.004406 0.037244 0.006392
14400 1.70809758 1.8381781799999999 -9.50119101 0.002273 0.038312 0.007444
14420 1.7095985100000002 1.84476069 -9.513169020000001 0.005445 0.03297 0.008542000000000001
14440 1.6973163900000001 1.83383235 -9.50014134 0.005449 0.031914 0.006407
14460 1.7013581100000001 1.83413646 -9.49475565 0.006534999999999999 0.031927 0.002141
14480 1.7082447299999999 1.8492536700000002 -9.51840756 0.00443 0.033020999999999995 -0.003216
14500 1.69252911 1.83443076 -9.52663815 0.00234 0.042616 -0.003243
14520 1.72261638 1.84281831 -9.51451299 0.0012779999999999998 0.046868 -5.1e-05
14540 1.7143857900000001 1.8160272000000002 -9.516612330000001 0.00234 0.04686 0.001025
14560 1.70376156 1.83922785 -9.50374161 0.00234 0.04686 0.001025
14580 1.7028590399999999 1.82859381 -9.49999419 0.0033880000000000004 0.045778 0.004238
14600 1.7019565200000002 1.81273104 -9.5065767 0.001249 0.043659 0.003157
14620 1.71587691 1.80225396 -9.5438547 0.000182 0.043663 0.00315
14640 1.7401272300000001 1.8564444 -9.54026424 0.001263 0.046855 0.003153
14660 1.7302485600000002 1.86212439 -9.521252460000001 0.0034020000000000005 0.048974 0.004234
14680 1.70376156 1.8088364700000001 -9.51541551 0.001268 0.048981 0.004219
14700 1.6947756 1.81722402 -9.48741777 0.001268 0.050042 0.005286
14720 1.66334436 1.8227568600000001 -9.48277764 0.0023350000000000003 0.050039 0.005293
14740 1.6428316500000002 1.8329396400000002 -9.524391660000001 0.001263 0.050038 0.006354
14760 1.67262462 1.84416228 -9.540705690000001 0.003373 0.044704 0.006376
14780 1.66079376 1.87829127 -9.512717760000001 0.005464 0.034049 0.005336
14800 1.6712708400000003 1.8238065300000001 -9.516612330000001 0.0043630000000000006 0.026595 0.005338
14820 1.68174792 1.8369813600000002 -9.52618689 0.004411 0.034065 0.002124
14840 1.7199186300000002 1.7907272100000002 -9.51346332 0.002282 0.03726 0.004241
14860 1.71244341 1.8080909100000002 -9.51616107 0.000168 0.041528 0.004221
14880 1.7082447299999999 1.8369813600000002 -9.525147030000001 -0.000913 0.040458 0.006351
14900 1.70749917 1.83548043 -9.524990070000001 -0.00199 0.039392 0.007412999999999999
14920 1.6991214300000002 1.81483038 -9.54010728 0.0033350000000000003 0.037243 0.007453
14940 1.7142386400000003 1.82665143 -9.49805181 0.0065260000000000006 0.034041 0.006411
14960 1.7152785000000002 1.8080909100000002 -9.51840756 0.000129 0.031945 0.003165
14980 1.69671798 1.8256017600000003 -9.52065405 -0.0030280000000000003 0.041544 0.00313
15000 1.69522686 1.8323412300000002 -9.52798212 0.000192 0.045794 0.003147
15020 1.67831442 1.8363829500000002 -9.53187669 0.0034020000000000005 0.046852 0.0021
15040 1.6898313600000001 1.8538938000000003 -9.517662 0.0023350000000000003 0.047917 0.00316
15060 1.69986699 1.84236705 -9.51152094 0.002316 0.045778 0.005299
15080 1.70211348 1.84162149 -9.5267853 0.0033590000000000004 0.043631 0.008513
15100 1.71648513 1.8236593800000003 -9.51451299 0.003354 0.041504 0.0074480000000000015
15120 1.69417719 1.8094348800000002 -9.52424451 -0.00088 0.046854 0.005275
15140 1.6902826200000003 1.82455209 -9.50209353 -0.004085 0.048983 0.008454000000000001
15160 1.70345745 1.82530746 -9.500896710000001 -0.011592 0.047914 0.015881
15180 1.711845 1.8152718300000001 -9.497149290000001 -0.002023 0.044668 0.020225
15200 1.7330934600000003 1.81467342 -9.52274358 0.014965 0.040291 0.034236
15220 1.72036989 1.8149775300000002 -9.52694226 0.036221 0.030595 0.042943
15240 1.7028590399999999 1.82739699 -9.536820930000001 0.032958 -0.00234 0.023734
15260 1.7088431400000001 1.82351223 -9.521703720000001 0.019093 -0.027751 -0.003036
15280 1.70944155 1.84311261 -9.51900597 -0.003167 -0.015874 -0.023503
15300 1.6986701700000002 1.84147434 -9.50747922 -0.032895 0.011944 -0.028019
15320 1.7098928100000002 1.80794376 -9.509421600000001 -0.035029000000000005 0.014074 -0.0259
15340 1.7064495 1.8375797700000003 -9.54220662 0.007564 -0.007368 -0.02878
15360 1.6887915 1.87006068 -9.52694226 0.047942 -0.046912 -0.031652
15380 1.69671798 1.8359316900000002 -9.53876331 0.09373 -0.063064 -0.028106
15400 1.70735202 1.8059915700000002 -9.524538810000001 0.122862 -0.007702 -0.045065
15420 1.7181234000000003 1.8154287900000001 -9.489213000000001 0.086751 0.054107 -0.01976
15440 1.7061552 1.8332339400000002 -9.489968370000001 0.146189 -0.00579 -0.010722
15460 1.69447149 1.8372756600000002 -9.512864910000001 0.167737 0.036763 -0.014899
15480 1.7209683 1.8230609700000002 -9.493107570000001 0.197005 -0.057247 0.026019
15500 1.70735202 1.8074925000000002 -9.53771364 0.371371 -0.164491 0.054079
15520 1.70016129 1.80959184 -9.55747098 0.53662 -0.126975 0.119279
15540 1.69522686 1.8826371000000002 -9.53292636 0.653788 -0.143467 0.145756
15560 1.70180937 1.9754397000000001 -9.46856295 0.6485350000000001 -0.172023 0.098754
15580 1.66229469 1.96586514 -9.4516407 0.5854560000000001 -0.287571 0.011935
15600 1.5916430700000002 1.96017534 -9.42365277 0.55432 -0.376762 -0.034101
15620 1.5699335399999998 1.83967911 -9.47604798 0.611046 -0.352395 -0.049760000000000006
15640 1.7292087000000003 1.55122587 -9.564808860000001 0.638464 -0.407949 -0.033474000000000004
15660 1.8233552700000002 1.46964591 -9.5817213 0.6360279999999999 -0.430491 0.011404
15680 1.78982469 1.57263129 -9.608365260000001 0.694485 -0.434076 0.05775
15700 1.6175316599999998 1.8628797600000002 -9.48697632 0.677266 -0.429904 0.095012
15720 1.4917968900000003 2.0910015 -9.43548363 0.693159 -0.468254 0.081286
15740 1.5545220300000002 2.10088017 -9.48368016 0.684883 -0.422371 0.069418
15760 1.5482338199999999 1.99325466 -9.52065405 0.661503 -0.388256 0.083098
15780 1.51514469 1.91227311 -9.72213183 0.682625 -0.381095 0.138784
15800 1.509759 2.20221747 -10.02809592 0.612183 -0.293872 0.232184
15820 1.5459873300000002 1.66184343 -10.1105784 0.549396 -0.174679 0.31598200000000004
15840 1.7019565200000002 1.9248495300000001 -9.47963844 0.5067649999999999 -0.130991 0.349812
15860 1.71049122 1.9746941400000002 -9.98662905 0.396797 -0.199644 0.29785700000000004
15880 2.00328048 2.48916978 -10.15219242 0.234825 -0.178748 0.274266
15900 2.2785588900000002 2.1764760300000003 -10.07764623 0.14568299999999998 -0.080401 0.26604
15920 2.0975840100000003 2.10851235 -10.085425560000001 -0.054446 -0.018831 0.227175
15940 1.6378972200000002 1.7061552 -9.7724277 -0.145879 -0.003375 0.170969
15960 1.2933111599999998 1.22670126 -9.4223088 -0.300941 0.102831 0.119543
15980 1.16098407 0.68317821 -9.32516037 -0.525469 0.232515 0.117809
16000 1.45273347 1.20170538 -9.65193147 -0.6635340000000001 0.434087 0.178543
16020 1.4542245900000002 1.4202427499999999 -9.87601149 -0.6980310000000001 0.572771 0.158896
16040 1.38790899 1.02865698 -9.987080310000001 -0.562127 0.544017 0.039174
16060 1.4052825 1.15155666 -10.015225200000001 0.0026780000000000003 0.325034 -0.033513
16080 1.2494506500000002 0.6773412600000002 -9.85939335 0.387841 0.019313 -0.104138
16100 0.76850559 0.09789399 -9.96747012 0.314755 0.198287 -0.042921
16120 0.74978811 -0.06107706 -9.60792381 0.023384 0.697763 0.243892
16140 0.82748331 -0.07320222000000003 -9.95923953 -0.058666 0.577292 0.338545
16160 0.8087658299999999 0.06975891000000001 -10.162218240000001 0.128448 0.167677 0.313671
16180 0.72913806 -0.6336279 -9.53412318 0.206241 -0.136011 0.267602
16200 0.86235786 -1.00501488 -9.76404996 0.08616 -0.042861 0.253825
16220 0.79005816 -1.01623752 -9.61465347 0.057611 0.190779 0.192438
16240 0.1591182 -1.2000573 -9.27276516 0.108223 0.179351 0.07637000000000001
16260 0.14250006 -1.45542141 -8.69376915 0.072662 -0.0043950000000000005 -0.029397000000000006
16280 0.31180104000000003 -1.38058092 -9.36063333 0.031608 -0.15112799999999998 -0.062611
16300 -0.09564750000000001 -1.38895866 -8.718921990000002 0.020508 -0.222561 -0.038028
16320 -0.19968255000000001 -1.2150273600000001 -8.76202713 0.028621 -0.262223 0.016559
16340 -0.27468 -1.14526845 -8.84944404 0.048532 -0.328396 0.03067
16360 -0.21285737999999998 -1.3521417299999998 -8.05878747 0.045068 -0.402889 0.014718
16380 0.15103476000000002 -1.02491937 -8.684793 0.022457 -0.4719600000000001 -0.008851999999999999
16400 0.17528508000000004 -0.40430934 -9.14148774 -0.008563 -0.47829 0.00269
16420 0.00509139 -0.054936000000000006 -9.262739340000001 -0.021665 -0.344934 -0.034961
16440 0.16435674 0.60923043 -10.88715762 -0.00946 -0.243762 -0.03821
16460 0.39397941000000003 1.21068153 -12.97756071 0.00217 -0.19403 0.035515
16480 0.19295289 0.14744430000000003 -11.526033870000001 0.035123 -0.217594 0.03898
16500 0.9253773000000001 -1.5527169900000002 -8.310718080000001 0.050136 -0.221822 0.017726
16520 0.8840575800000001 -0.45475236 -8.32149927 0.026024 -0.134355 0.009968
16540 0.9256716 0.32363190000000003 -10.11955455 0.012299 -0.087494 0.024767
16560 0.90636552 0.6557886900000001 -10.82429514 0.02624 -0.071564 0.024844
16580 0.70608456 0.01886463 -10.07944146 0.049831 -0.052441 0.017506999999999998
16600 1.0557522 -0.33859215 -9.3446136 0.050975 -0.052377 0.000423
16620 0.9876413700000001 -0.07409493 -9.70447383 0.044684 -0.053318 -0.025257
16640 1.1668210200000002 -0.18546786 -10.01223315 0.044909 -0.025531 -0.047724
16660 1.49404338 -0.29114118 -9.80236782 0.032279 -0.001991 -0.062797
16680 1.65675204 -0.7188081300000001 -9.433835550000001 0.015276 0.005555 -0.070403
16700 1.3686029100000001 -0.73646613 -9.48741777 0.004632 0.006675 -0.074752
16720 0.99916812 -0.42705873000000005 -9.94546629 0.001383 0.008766 -0.06195800000000001
16740 0.7562234700000001 -0.0836793 -10.15607718 -0.000851 0.009745 -0.038474
16760 0.56687085 -0.028144890000000002 -9.970913430000001 0.002292 0.016048 -0.019233
16780 0.58617693 -0.11645451 -9.7894971 0.011908 0.027698 -0.010635
16800 0.35715267000000006 -0.30611124000000006 -9.62737704 0.016118 0.02551 8e-05
16820 0.6222581100000001 -0.24040386000000002 -9.74728467 0.020352 0.027588 0.009721
16840 0.16061913 0.06885639 -9.950861790000001 0.029887 0.024311000000000003 0.021542
16860 -0.57330621 0.10822392 -10.298135790000002 0.031996 0.017917 0.020497
16880 -0.41164722000000004 0.15851979 -10.080039870000002 0.025705 0.026525 0.004418
16900 -0.28575549 -0.05583852 -9.66704868 0.020553 0.047926 -0.014873
16920 -0.30866184 -0.27557271000000005 -9.63411651 0.019587 0.058629 -0.026644
16940 -0.08427771 -0.40700709 -9.70641621 0.023859 0.053313 -0.033017000000000005
16960 -0.05149269000000001 -0.36015453000000003 -9.71495091 0.019616 0.052289 -0.039454
16980 -0.026496810000000003 -0.47361699000000007 -9.69234867 0.011081 0.038525 -0.053383000000000014
17000 -0.08996751000000001 -0.4326013800000001 -9.80071974 0.009086 0.07048600000000001 -0.052370000000000014
17020 -0.13756563000000002 -0.33755229 -9.81464013 0.013387 0.083233 -0.047015
17040 -0.11900511 -0.33784659 -9.79069392 0.015449 0.076796 -0.037378
17060 -0.06301944 -0.35491599000000007 -9.87361785 0.012177 0.069316 -0.028846
17080 0.01631403 -0.31075136999999997 -9.92360961 0.011081 0.062928 -0.028845
17100 0.14025357000000002 -0.32497587 -9.911935710000002 0.012114 0.054407 -0.029895
17120 0.12199716 -0.23725485000000002 -9.879758910000001 0.011019 0.046958 -0.030962
17140 -0.00329616 -0.16256151000000002 -9.85027005 0.012047 0.043737 -0.025609
17160 -0.06856209 -0.16974243 -9.76180347 0.008823000000000001 0.037361 -0.026692
17180 -0.14309847 -0.13531914 -9.73051938 0.004545 0.038428 -0.023518
17200 -0.08427771 -0.09714843000000001 -9.75745764 0.007708 0.034139 -0.019218
17220 -0.13187583 -0.12903093000000002 -9.759704130000001 0.01087 0.031972 -0.012784
17240 -0.16301277 -0.18471249 -9.883202220000001 0.0076739999999999985 0.034109 -0.011741
17260 -0.24773193000000002 -0.23995260000000002 -9.942474240000003 0.005555 0.041556 -0.007492
17280 -0.25072398 -0.27737775000000003 -9.942327090000001 0.004488000000000001 0.045804 -0.003232
17300 -0.19878984000000002 -0.34338924000000004 -9.86194395 0.007659999999999998 0.044706 0.002133
17320 -0.12364524000000002 -0.40804695 -9.7812567 0.008684 0.04042 0.007486
17340 -0.12393954 -0.46822149 -9.71794296 0.00864 0.035077 0.011766
17360 -0.13785993 -0.5081972400000001 -9.74219328 0.0075299999999999985 0.029737 0.016038
17380 -0.23052519000000005 -0.42676443000000003 -9.866878380000001 0.011745 0.02331 0.021417
17400 -0.21869433000000002 -0.38844657000000005 -9.8415882 0.010669 0.024366 0.024612
17420 -0.1619631 -0.36119439 -9.85371336 0.009607 0.025435 0.024604
17440 -0.08457201 -0.37212273 -9.85520448 0.009616 0.02226 0.019267
17460 0.026192700000000003 -0.3731724 -9.836496810000002 0.008559 0.015907 0.010722
17480 0.07679268 -0.34143705 -9.86883057 0.00432 0.015947 0.004283
17500 0.07903917 -0.35071731 -9.832307940000002 0.00333 0.026629000000000003 -0.002147
17520 0.07858791000000001 -0.35461188 -9.815091390000003 0.001263 0.033062 -0.010716
17540 0.06945480000000001 -0.40206285 -9.85146687 0.005564 0.035199 -0.016030000000000003
17560 0.016765290000000002 -0.45475236 -9.87825798 0.007726999999999999 0.039461 -0.018156
17580 -0.0464013 -0.45176031000000005 -9.864484740000002 0.004517 0.036281 -0.019243
17600 -0.08622009 -0.46118772 -9.80595828 -0.002927 0.039511 -0.021436
17620 -0.10298538000000002 -0.5236087500000001 -9.78470001 -0.007161 0.049105 -0.019341
17640 -0.13531914 -0.57136383 -9.79817895 -0.007166 0.052284 -0.015072
17660 -0.13426947 -0.57136383 -9.83035575 -0.00509 0.042676 -0.011841
17680 -0.08397360000000001 -0.52001829 -9.813590460000002 -0.000866 0.036257 -0.008598
17700 -0.08038314 -0.47450970000000003 -9.77392863 -0.000851 0.03627 -0.011803
17720 -0.018109260000000002 -0.46313991000000004 -9.7781175 -0.002975 0.038408 -0.01182
17740 -0.008230590000000001 -0.48514374000000005 -9.8068608 -0.002975 0.044774 -0.005419
17760 0.0038945700000000004 -0.45415395000000003 -9.83140542 0.001268 0.048981 0.004219
17780 0.00777933 -0.43769277 -9.803260530000001 0.00444 0.048945 0.010651
17800 -0.03592422 -0.44382402 -9.79517709 0.008722 0.05637 0.014944
17820 -0.07993188000000001 -0.45745011 -9.81164808 0.009789 0.056366 0.014951
17840 -0.08038314 -0.45909819 -9.834397469999999 0.0044740000000000005 0.058523 0.012775
17860 -0.10148445 -0.45370269 -9.811343970000001 0.000244 0.06387799999999999 0.009534
17880 -0.054190440000000006 -0.45235872000000005 -9.78814332 0.00555 0.057467 0.009579
17900 -0.0375723 -0.46209024000000004 -9.79712928 0.010841 0.047861 0.009628
17920 -0.06811083000000001 -0.42136893000000003 -9.784101600000001 0.00975 0.0436 0.010694
17940 -0.11391372000000001 -0.42437079 -9.77467419 0.006531 0.036167000000000005 0.007476999999999998
17960 -0.17483382000000003 -0.41433516000000004 -9.80416305 0.005478 0.036183 0.004265
17980 -0.20597076000000003 -0.37108287 -9.84098979 0.005507 0.042575 0.004257
18000 -0.18891117000000002 -0.34503732000000004 -9.85955031 0.005507 0.040453 0.002123
18020 -0.11286405000000001 -0.38799531000000004 -9.838890450000001 0.005497 0.0362 -8e-06
18040 -0.058977720000000004 -0.38694564000000004 -9.800121330000001 0.003364 0.033025 -0.003223
18060 -0.046107 -0.39517623 -9.808803180000002 0.006579000000000001 0.033026 -0.006406
18080 -0.06287229000000001 -0.40371093 -9.820477080000002 0.005521 0.0341 -0.007483
18100 -0.07499745000000001 -0.38096154000000004 -9.81688662 0.002349 0.03838 -0.009647
18120 -0.08921214 -0.38335518 -9.83065986 0.004478 0.036247 -0.010697
18140 -0.08007903000000001 -0.34593003000000005 -9.839783160000001 0.002345 0.036254 -0.010712
18160 -0.05478885000000001 -0.36778670999999996 -9.82122264 0.0023350000000000003 0.037307 -0.007509
18180 -0.05747679000000001 -0.38948643000000005 -9.799817220000001 0.002321 0.036233 -0.005371
18200 -0.08457201 -0.42182019000000004 -9.75671208 0.000177 0.037293 -0.002183
18220 -0.10104300000000001 -0.45670455000000004 -9.78455286 0.00123 0.035154000000000005 -0.001105
18240 -0.11451213 -0.44113608000000004 -9.820025820000001 0.002282 0.034077 0.00104
18260 -0.12649014 -0.4912749900000001 -9.8734707 0.002282 0.036199 0.003174
18280 -0.050148719999999994 -0.44113608000000004 -9.82796211 0.002268 0.036186 0.006379
18300 -0.01990449 -0.45310428 -9.76898439 0.00011 0.03405 0.009571
18320 -0.01751085 -0.48304440000000004 -9.75700638 0.00011 0.036172 0.011705
18340 -0.018413370000000002 -0.46238454000000007 -9.80760636 -0.000947 0.036184 0.009561
18360 -0.0378666 -0.46598481 -9.8677809 0.002287 0.040447 0.006372999999999999
18380 -0.03622833 -0.47825712 -9.80595828 0.001235 0.039403 0.002095
18400 -0.062116920000000006 -0.45295713 -9.79203789 -0.0008939999999999998 0.038353 -5.5e-05
18420 -0.09984618 -0.42361542 -9.81074556 -0.000875 0.040492 -0.002194
18440 -0.08547453 -0.44726733 -9.799375770000001 0.001263 0.04155 -0.002181
18460 -0.08726976 -0.45130905 -9.799522920000001 0.002349 0.043685 -0.004312
18480 -0.07244685 -0.42901092 -9.815689800000001 -0.001899 0.047961 -0.004348
18500 -0.07484049000000001 -0.45235872000000005 -9.81733788 -0.006128 0.052254 -0.008656
18520 -0.06167547 -0.43738866000000004 -9.807155100000001 0.000254 0.050093 -0.006472
18540 -0.07844076 -0.43874244 -9.82466595 0.004507 0.046882 -0.006437999999999999
18560 -0.07125002999999999 -0.47211606000000006 -9.81868185 0.003421 0.043686 -0.005372999999999999
18580 -0.07619427 -0.44427528000000005 -9.81254079 0.000225 0.043701 -0.006464
18600 -0.03771945 -0.47002653 -9.815689800000001 0.002354 0.044751 -0.004314
18620 -0.033530580000000004 -0.46403262 -9.80416305 0.00233 0.043668 -4e-05
18640 -0.03712104000000001 -0.45834282000000004 -9.84831786 0.00445 0.043648 0.00318
18660 -0.03023442 -0.43470072 -9.81987867 0.002278 0.040439 0.00851
18680 -0.0170694 -0.45025938000000004 -9.81209934 0.00223 0.038274 0.017058
18700 -0.030087270000000003 -0.43709436 -9.81554265 0.00433 0.035054 0.02135
18720 -0.06601149 -0.43829118000000006 -9.816739470000002 0.003268 0.034001 0.019207
18740 -0.08457201 -0.40400523 -9.8418825 0.001168 0.038282 0.015982
18760 -0.07065161999999998 -0.4263131700000001 -9.81643536 -0.000942 0.039372 0.011693
18780 -0.09954207 -0.42377238 -9.810304109999999 -0.002009 0.036192 0.008485
18800 -0.09984618 -0.40744854 -9.807459210000001 -0.002009 0.037253 0.009552
18820 -0.09100737 -0.40086603 -9.80565417 -0.000933 0.038319 0.008490000000000001
18840 -0.07244685 -0.43753581 -9.80206371 0.00123 0.040459 0.004229999999999999
18860 -0.09640287000000002 -0.41733702000000006 -9.783807300000001 0.001239 0.039407 0.001026
18880 -0.0925083 -0.43125741 -9.80490861 0.001244 0.039411 -4.2e-05
18900 -0.10972485000000001 -0.44367687000000006 -9.833651910000002 0.001249 0.038354 -0.002177
18920 -0.08083440000000001 -0.4281084 -9.86852646 0.002311 0.039407 -3.4e-05
18940 -0.0464013 -0.38664153 -9.78874173 0.001249 0.039415 -0.00111
18960 -0.05463189 -0.42361542 -9.76539393 0.002316 0.039412 -0.001103
18980 -0.043860510000000005 -0.45340839000000005 -9.78290478 0.000187 0.039423 -0.002186
19000 -0.04250673 -0.44816985000000004 -9.8245188 0.001259 0.040485 -0.00218
19020 -0.04460607 -0.4504163400000001 -9.807155100000001 0.002306 0.039403 0.001034
19040 -0.07543890000000002 -0.41808258000000004 -9.82841337 0.003373 0.039399 0.001041
19060 -0.05478885000000001 -0.42406668000000003 -9.82241946 0.003368 0.040456 0.003176
19080 -0.028586340000000002 -0.43589754000000003 -9.831709530000001 0.001235 0.041525 0.004228
19100 -0.006141059999999999 -0.46268865000000003 -9.82078119 0.001225 0.040455 0.005298
19120 0.01197801 -0.45190746000000004 -9.82257642 0.004435000000000001 0.040452 0.003184
19140 -0.030391380000000003 -0.48723327000000005 -9.83454462 0.0033590000000000004 0.040448000000000005 0.005313
19160 -0.06930765000000003 -0.47526507 -9.792783450000002 -0.003004 0.04687 0.003124
19180 -0.08128566000000001 -0.45206442 -9.79203789 -0.001956 0.045788 0.006337
19200 -0.06975891000000001 -0.43229727000000007 -9.78844743 0.0044210000000000005 0.041501 0.007455
19220 -0.05912487 -0.42241860000000003 -9.83754648 0.005483 0.039371 0.006397
19240 -0.06151851 -0.42721569 -9.821821049999999 0.00122 0.036207 0.002099
19260 -0.08801532 -0.42601887000000005 -9.80670384 0.002316 0.038351 -0.002169
19280 -0.08397360000000001 -0.40325967 -9.79892451 0.003383 0.040469 -2.8000000000000006e-05
19300 -0.07275096 -0.41194152000000006 -9.82257642 0.002325 0.042603 -3.8e-05
19320 -0.062116920000000006 -0.40490775 -9.82122264 0.003383 0.040469 -2.8000000000000006e-05
19340 -0.03831786 -0.43200297000000004 -9.808803180000002 0.00445 0.041526 0.001046
19360 -0.043114950000000006 -0.41942655 -9.82078119 0.004435000000000001 0.039391 0.002117
19380 -0.03233376 -0.41358960000000006 -9.81119682 0.00444 0.039396 0.001049
19400 -0.06735546 -0.42960933 -9.79892451 0.001239 0.039407 0.001026
19420 -0.05568156 -0.43783992 -9.823773240000003 0.000168 0.040467 0.003154
19440 -0.055230299999999996 -0.43110045 -9.811343970000001 0.002302 0.039399 0.002102
19460 -0.03173535 -0.43514217000000005 -9.8043102 0.00122 0.03939 0.005299
19480 -0.05268951 -0.41868099000000003 -9.80865603 -0.000923 0.039389 0.007421
19500 -0.04355640000000001 -0.43604469000000007 -9.82197801 0.001196 0.036185 0.00744
19520 -0.06706116000000001 -0.40490775 -9.81074556 0.00333 0.036178 0.007454
19540 -0.045204480000000005 -0.40969503 -9.80550702 0.000149 0.037267 0.004226
19560 -0.05598567000000001 -0.43843833 -9.80385894 0.000149 0.038328 0.005293
19580 -0.06765957 -0.47510811000000003 -9.85266369 0.001201 0.037251 0.007437999999999998
19600 -0.05718249 -0.38723994000000006 -9.87720831 0.003325 0.037235 0.00959
19620 -0.025898400000000002 -0.38709279 -9.79024266 0.000134 0.036193 0.006364
19640 -0.033383430000000006 -0.42227145000000005 -9.77737194 0.0012109999999999998 0.037259 0.005302
19660 -0.05538726 -0.41957370000000005 -9.79802199 0.000134 0.035132 0.005297
19680 -0.06481466999999999 -0.45130905 -9.81494424 0.000149 0.038328 0.005293
19700 -0.06900354 -0.42481224000000006 -9.80940159 0.00122 0.038329 0.004232
19720 -0.07439904 -0.40804695 -9.80385894 0.002278 0.037255 0.005309
19740 -0.07784234999999999 -0.39787398 -9.82122264 0.002297 0.040456 0.004237
19760 -0.06691401 -0.38589597 -9.82032993 0.00122 0.03939 0.005299
19780 -0.04730382 -0.41628735 -9.80041563 0.002302 0.04046 0.003169
19800 -0.041309910000000005 -0.43813422 -9.823626090000001 0.00444 0.041518 0.003182
19820 -0.04266369 -0.44338257000000003 -9.80162226 0.003354 0.038321 0.004247
19840 -0.033530580000000004 -0.45849978 -9.808803180000002 -0.000889 0.043663 0.004211
19860 -0.04909905 -0.42870681 -9.81239364 -0.003004 0.04687 0.003124
19880 -0.03637548 -0.42406668000000003 -9.82032993 0.004435000000000001 0.042574 0.005318
19900 -0.042065280000000004 -0.4379870700000001 -9.8242245 0.005478 0.039366000000000005 0.007465
19920 -0.02006145 -0.42901092 -9.82721655 0.0012109999999999998 0.037259 0.005302
19940 -0.044007660000000004 -0.41268708000000004 -9.828707670000002 0.002292 0.038329 0.003172
19960 -0.06167547 -0.43349409 -9.82212516 0.0033880000000000004 0.042595 0.001037
19980 -0.051198389999999996 -0.42870681 -9.81045126 0.00233 0.043668 -4e-05
20000 -0.04250673 -0.39637305000000006 -9.821821049999999 0.002311 0.040468 0.001033
20020 -0.041309910000000005 -0.4326013800000001 -9.82152675 0.003378 0.040465 0.00104
20040 -0.06571719 -0.41957370000000005 -9.78620094 0.00233 0.042607 -0.001107
20060 -0.03098979 -0.43934085000000006 -9.787397760000001 0.00234 0.040494 -0.005377000000000001
20080 -0.05343507 -0.4363389900000001 -9.81074556 0.002349 0.041563 -0.006446
20100 -0.0606258 -0.45580203 -9.81718092 0.002354 0.042629 -0.006448000000000001
20120 -0.04999176 -0.41808258000000004 -9.82466595 0.001263 0.040489 -0.003248
20140 -0.08397360000000001 -0.40985199 -9.80176941 0.002321 0.041538 -3.7e-05
20160 -0.06765957 -0.41014629 -9.78620094 0.00123 0.039398 0.003163
20180 -0.0691605 -0.39742272 -9.812246490000001 0.002297 0.038334 0.0021030000000000003
20200 -0.06511878 -0.40835106000000004 -9.835751250000001 0.002292 0.03939 0.004238
20220 -0.06691401 -0.39667716000000003 -9.82901178 0.002278 0.038316 0.006376
20240 -0.04491018000000001 -0.43110045 -9.78500412 0.001206 0.038316 0.007437
20260 -0.05239521 -0.43874244 -9.819133110000001 0.003344 0.040435000000000006 0.008517
20280 -0.06675705 -0.43274853 -9.871675470000001 0.003344 0.038313 0.006384
20300 -0.03697389 -0.36958194 -9.841735350000002 0.00122 0.03939 0.005299
20320 -0.03398184 -0.42377238 -9.79443153 0.00123 0.039398 0.003163
20340 -0.028144890000000002 -0.44412813 -9.7954812 0.002311 0.040468 0.001033
20360 -0.06765957 -0.41882814000000007 -9.8358984 0.002311 0.040468 0.001033
20380 -0.06660990000000001 -0.4326013800000001 -9.80790066 0.002306 0.039403 0.001034
20400 -0.07753824000000002 -0.41628735 -9.79323471 0.001235 0.038342 0.0010279999999999998
20420 -0.05254236000000001 -0.40775265 -9.8128449 0.002292 0.038329 0.003172
20440 -0.05867361000000001 -0.41313834 -9.82930608 0.002282 0.038321 0.005308
20460 -0.06646275 -0.41882814000000007 -9.81494424 0.002278 0.038316 0.006376
20480 -0.03712104000000001 -0.43080615000000005 -9.80461431 0.002297 0.039395 0.00317
20500 -0.06436341000000001 -0.44457939 -9.808351920000002 0.0033590000000000004 0.038326 0.003179
20520 -0.05538726 -0.43693740000000003 -9.81164808 0.003354 0.038321 0.004247
20540 -0.057633750000000004 -0.40535900999999996 -9.822272309999999 -0.001947 0.043675 0.0020670000000000003
20560 -0.022602240000000003 -0.42601887000000005 -9.811795230000001 -0.005123 0.04689 -9.6e-05
20580 -0.033383430000000006 -0.41882814000000007 -9.808499070000002 0.003383 0.042591 0.002105
20600 -0.038023560000000005 -0.4309533 -9.82272357 0.00443 0.041509 0.005319
20620 -0.02694807 -0.41853384000000005 -9.81418887 0.002292 0.037268 0.002105
20640 -0.01032993 -0.43394535 -9.81299205 0.003378 0.038343 -0.001094
20660 -0.03248091 -0.42421383 -9.818829 0.0033880000000000004 0.042595 0.001037
20680 -0.03532581 -0.4221243 -9.828266220000001 0.004445 0.041522 0.002114
20700 -0.04699970999999999 -0.41853384000000005 -9.80490861 0.003378 0.041526 0.002107
20720 -0.04116276 -0.40969503 -9.808803180000002 0.003368 0.038334 0.001043
20740 -0.05643693 -0.43365105000000004 -9.783650340000001 0.005512 0.038335 -0.001079
20760 -0.06137136000000001 -0.42571475999999997 -9.81793629 0.005521 0.038344 -0.003215
20780 -0.04759812000000001 -0.40715424 -9.81389457 0.00234 0.040494 -0.005377000000000001
20800 -0.04281084 -0.42661728 -9.80101404 0.001292 0.039454 -0.010724
20820 -0.053592030000000006 -0.41553198 -9.816739470000002 0.001302 0.039462 -0.01286
20840 -0.04355640000000001 -0.41987781 -9.81987867 0.000221 0.037331 -0.011797
20860 -0.05912487 -0.40266126 -9.82152675 0.001263 0.035184 -0.008582
20880 -0.06167547 -0.41059755000000003 -9.81823059 0.003383 0.033042 -0.007495999999999998
20900 -0.03742515 -0.4263131700000001 -9.828707670000002 0.004445 0.034095 -0.005354
20920 -0.048049379999999996 -0.39832524 -9.819427410000001 0.005512 0.034091 -0.005346
20940 -0.02320065 -0.3912816600000001 -9.787692060000001 0.005516 0.036217 -0.004281
20960 -0.05613282 -0.41793543000000005 -9.79593246 0.005507 0.035148 -0.003211
20980 -0.06466752 -0.44472654 -9.84053853 0.004425999999999999 0.035139 -1.4e-05
21000 -0.050148719999999994 -0.3793134600000001 -9.853860509999999 0.005483 0.034066 0.001063
21020 -0.01377324 -0.40325967 -9.787996170000001 0.005493 0.036196 0.00106
21040 -0.03098979 -0.40220999999999996 -9.78275763 0.005497 0.037261 0.001059
21060 -0.04491018000000001 -0.44083197 -9.83200383 0.0076310000000000015 0.038315 0.002141
21080 -0.06720831000000001 -0.42227145000000005 -9.81718092 0.00655 0.035123 0.002137
21100 -0.034727400000000005 -0.42541065000000006 -9.79323471 0.004416 0.036191 0.003189
21120 -0.05747679000000001 -0.39787398 -9.81808344 0.004416 0.036191 0.003189
21140 -0.050295870000000006 -0.38319822000000003 -9.83948886 0.00334 0.035125 0.004251
21160 -0.05583852 -0.36644274000000004 -9.82556847 0.004411 0.035126 0.00319
21180 -0.040711500000000005 -0.38319822000000003 -9.81164808 0.002278 0.034072000000000005 0.002109
21200 -0.027095220000000003 -0.43470072 -9.804015900000001 0.00444 0.039396 0.001049
21220 -0.053739180000000004 -0.44338257000000003 -9.811500930000001 0.0044210000000000005 0.037257 0.003188
21240 -0.048049379999999996 -0.42391953000000004 -9.80775351 0.002302 0.04046 0.003169
21260 -0.05268951 -0.41733702000000006 -9.82631403 -0.005152 0.042621 0.002046
21280 -0.03562992 -0.41478642000000004 -9.796530870000002 0.001254 0.044725 0.003156
21300 -0.01302768 -0.42092748 -9.803260530000001 0.003368 0.042578 0.0053100000000000005
21320 -0.03967164 -0.40251411 -9.796373910000002 0.001215 0.039385 0.006367
21340 -0.05613282 -0.40610457000000005 -9.833504759999999 -0.000913 0.039397 0.0052840000000000005
21360 -0.057329639999999994 -0.39532338 -9.819584370000001 0.00122 0.041512 0.007432999999999999
21380 -0.05867361000000001 -0.42227145000000005 -9.79084107 0.003354 0.041504 0.0074480000000000015
21400 -0.04295799 -0.42855966000000006 -9.808351920000002 0.003344 0.041496 0.009584
21420 -0.028144890000000002 -0.43948800000000005 -9.80581113 0.001215 0.042568 0.009568
21440 -0.040711500000000005 -0.41688576 -9.831101310000001 0.003325 0.039357 0.011723
21460 -0.04759812000000001 -0.42841251 -9.820477080000002 0.00334 0.040431 0.009586
21480 -0.032186610000000004 -0.4107447 -9.82556847 0.001225 0.041516 0.006365
21500 -0.05163984 -0.41449212 -9.813139200000002 0.001239 0.041529 0.00316
21520 -0.050148719999999994 -0.42136893000000003 -9.80640954 0.000168 0.040467 0.003154
21540 -0.036071370000000005 -0.40880232000000005 -9.83858634 0.002297 0.041517 0.005304
21560 -0.05613282 -0.42152589 -9.815091390000003 0.000173 0.041533 0.003153
21580 -0.05883057 -0.43229727000000007 -9.799375770000001 0.001239 0.041529 0.00316
21600 -0.04190832 -0.42002496 -9.82901178 0.002311 0.04259 0.003166
21620 -0.0378666 -0.44352972000000007 -9.834995880000001 0.000168 0.041528 0.004221
21640 -0.05568156 -0.41329530000000003 -9.79457868 0.00123 0.04152 0.005296
21660 -0.04221243000000001 -0.41718006 -9.796226760000001 0.00123 0.04152 0.005296
21680 -0.06691401 -0.41777847 -9.80655669 0.001235 0.041525 0.004228
21700 -0.04355640000000001 -0.44862111000000005 -9.847268190000001 0.002292 0.040451 0.005305
21720 -0.07469334000000001 -0.39188987999999997 -9.83140542 0.002287 0.039386 0.005307
21740 -0.03233376 -0.39847239000000007 -9.804015900000001 0.001206 0.039377 0.008504000000000001
21760 -0.022307940000000002 -0.44293130999999997 -9.803564640000001 0.002282 0.040443 0.007442
21780 -0.04027005 -0.43484787 -9.807302250000001 0.001201 0.038312 0.008505
21800 -0.03981879 -0.42721569 -9.816582510000002 0.002282 0.040443 0.007442
21820 -0.05598567000000001 -0.40176855 -9.7983261 0.00123 0.040459 0.004229999999999999
21840 -0.07304525999999999 -0.40026762 -9.823920390000001 0.00123 0.040459 0.004229999999999999
21860 -0.04745097 -0.40131729000000005 -9.82661814 0.003344 0.039374 0.00745
21880 -0.04909905 -0.41478642000000004 -9.831258270000001 0.001235 0.041525 0.004228
21900 -0.04745097 -0.42541065000000006 -9.80595828 0.003383 0.043652 0.003172
21920 -0.04415481 -0.44293130999999997 -9.80057259 0.003373 0.042582 0.004242
21940 -0.05883057 -0.44367687000000006 -9.82346913 0.004435000000000001 0.042574 0.005318
21960 -0.04550859 -0.41718006 -9.82122264 0.000201 0.047924 0.003145
21980 -0.055230299999999996 -0.41313834 -9.82497006 -0.002994 0.04794 0.002054
22000 -0.053739180000000004 -0.41493357000000003 -9.80236782 0.003378 0.04577 0.006374
22020 -0.05883057 -0.41538483 -9.81554265 0.006555 0.042554 0.008537000000000001
22040 -0.06811083000000001 -0.40820391000000006 -9.799670070000001 0.003364 0.041513 0.005311
22060 -0.031588200000000004 -0.41179437 -9.82556847 0.003373 0.042582 0.004242
22080 -0.00404172 -0.41268708000000004 -9.823027680000001 0.003392 0.046843 0.004237
22100 -0.030832830000000002 -0.41478642000000004 -9.80581113 0.005536 0.050027 0.005316
22120 -0.03398184 -0.4288539600000001 -9.80895033 0.002349 0.051112 0.003156
22140 -0.05328792 -0.42750999 -9.82212516 0.00024 0.054324 0.001
22160 -0.02963601 -0.41194152000000006 -9.80820477 0.0024170000000000003 0.058599 -0.004331000000000001
22180 -0.04281084 -0.42646032 -9.80461431 0.005646 0.059675 -0.009651
22200 -0.03367773 -0.42017211000000004 -9.79517709 0.006756 0.065014 -0.013923
22220 -0.03951468 -0.41553198 -9.819584370000001 0.013243 0.080984 -0.017103
22240 -0.053886329999999996 -0.41913225000000004 -9.807155100000001 0.011071 0.065042 -0.024575
22260 -0.04819653 -0.40789980000000003 -9.80521272 0.001388 0.036356 -0.035288
22280 -0.05972328000000001 -0.42227145000000005 -9.820025820000001 -0.008242 0.025754000000000003 -0.039615
22300 -0.03532581 -0.41463927 -9.807155100000001 -0.01894 0.022583 -0.036481
22320 -0.04235958 -0.39936510000000003 -9.81164808 -0.026417000000000003 0.021539 -0.035463
22340 -0.054936000000000006 -0.42257556000000007 -9.83454462 -0.025389 0.021501 -0.026910000000000003
22360 -0.07304525999999999 -0.384552 -9.81418887 -0.015888 0.020317 -0.005478
22380 -0.023347800000000002 -0.4249692 -9.78515127 -0.004267 0.016991 0.01704
22400 -0.04565574000000001 -0.43874244 -9.80281908 0.0031100000000000004 0.016884 0.037388
22420 -0.05268951 -0.44561925 -9.84577707 0.010539 0.016824000000000002 0.045986
22440 -0.05149269000000001 -0.36823797 -9.826912440000001 0.012702 0.022147 0.044926
22460 -0.00958437 -0.40969503 -9.77886306 0.011755 0.038172000000000005 0.034216
22480 -0.01392039 -0.43245423 -9.77781339 0.00443 0.05318 0.017054
22500 -0.054190440000000006 -0.40251411 -9.83664396 0.001354 0.06179 -0.002206
22520 -0.06151851 -0.38723994000000006 -9.81373761 0.004569 0.058609 -0.008589
22540 -0.08427771 -0.35506314 -9.80131815 0.005579 0.045822 -0.008565999999999999
22560 -0.08741691000000001 -0.33844500000000005 -9.80985285 0.008717 0.038328 -0.002125
22580 -0.04595004000000001 -0.33305931000000005 -9.82751085 0.0076409999999999985 0.039384 0.001071
22600 -0.03532581 -0.34368354000000007 -9.834995880000001 0.002321 0.042599 0.00103
22620 -0.04460607 -0.30042144 -9.78245352 0.003407 0.045795 -3.5e-05
22640 -0.042065280000000004 -0.26824464000000003 -9.81194238 0.002321 0.041538 -3.7e-05
22660 -0.09176274 -0.22768029 -9.76434426 0.003364 0.03833 0.002111
22680 -0.12498921000000002 -0.37900935 -9.71315568 -0.004079999999999999 0.042621 0.000985
22700 -0.06885639 -0.5780934900000001 -9.87511878 -0.003018 0.043674 0.003128
22720 0.06541308000000001 -0.71850402 -9.924060870000002 0.003373 0.041521 0.003175
22740 0.14505066000000003 -0.8614553400000001 -9.82406754 0.004425999999999999 0.039383 0.004253
22760 0.21211182 -0.8786718900000001 -9.81 0.002306 0.040464 0.002101
22780 0.18800865000000003 -0.72658746 -9.831709530000001 0.002297 0.041517 0.005304
22800 0.13995926999999997 -0.48693897 -9.82197801 0.005507 0.045758 0.007456999999999998
22820 0.05209110000000001 -0.26090676 -9.80191656 0.008703 0.044681 0.007481
22840 -0.06675705 -0.1300806 -9.76135221 0.0033590000000000004 0.041509 0.006379999999999999
22860 -0.11705292 -0.14594337000000002 -9.77347737 0.004406 0.038305 0.007459
22880 -0.16525926000000002 -0.20941407000000004 -9.82676529 0.00334 0.036187 0.005318
22900 -0.12558762 -0.32856633 -9.83829204 0.002287 0.037264 0.003173
22920 -0.07648857 -0.44726733 -9.82841337 0.00123 0.038337 0.002096
22940 -0.04595004000000001 -0.49277592000000003 -9.81464013 0.00015800000000000002 0.037276 0.00209
22960 -0.03382488 -0.41777847 -9.78201207 0.001235 0.038342 0.0010279999999999998
22980 -0.034276140000000004 -0.32991030000000005 -9.784405710000001 0.001235 0.038342 0.0010279999999999998
23000 -0.032932170000000004 -0.27812331 -9.799218810000001 0.001244 0.039411 -4.2e-05
23020 -0.04759812000000001 -0.33066567 -9.8245188 0.000173 0.03835 -4.8e-05
23040 -0.017363700000000003 -0.36539307000000004 -9.83035575 0.000182 0.04048 -5.1e-05
23060 0.0038945700000000004 -0.43649595 -9.857303820000002 0.001244 0.040472 0.001025
23080 -0.01946304 -0.44742429 -9.85400766 0.00123 0.039398 0.003163
23100 -0.016618140000000003 -0.41658165 -9.791439480000001 0.001215 0.037263 0.004234
23120 0.00434583 -0.45999090000000004 -9.787692060000001 0.000129 0.035128 0.006365
23140 -0.015264360000000001 -0.49038228 -9.81418887 0.000129 0.035128 0.006365
23160 -0.04431177000000001 -0.41418801000000005 -9.84831786 0.000144 0.036202 0.004228
23180 -0.0290376 -0.39742272 -9.767493270000001 0.001196 0.035124 0.006372999999999999
23200 -0.01990449 -0.41433516000000004 -9.79233219 0.002268 0.035125 0.005312
23220 -0.03532581 -0.4090966200000001 -9.85027005 0.002258 0.035116 0.0074480000000000015
23240 -0.02215098 -0.40430934 -9.82616688 0.002278 0.038316 0.006376
23260 -0.00958437 -0.40985199 -9.803711790000001 0.004435000000000001 0.040452 0.003184
23280 -0.01257642 -0.38904498 -9.81898596 0.005516 0.042583 0.00212
23300 -0.02529999 -0.40131729000000005 -9.815689800000001 0.006593000000000001 0.042588 -9e-06
23320 0.024848730000000003 -0.39517623 -9.83290635 0.005555 0.041556 -0.007492
23340 0.01886463 -0.4122456300000001 -9.836948069999998 0.002345 0.040498 -0.006445
23360 0.01092834 -0.42855966000000006 -9.799071660000001 0.004469 0.038360000000000005 -0.006427
23380 -0.033530580000000004 -0.41029344 -9.817485029999999 0.006593000000000001 0.038344 -0.004275999999999999
23400 -0.02110131 -0.39173292000000004 -9.816582510000002 0.001249 0.039415 -0.00111
23420 -0.030087270000000003 -0.40280841 -9.81090252 0.000173 0.040472 0.002086
23440 -0.020208600000000004 -0.4288539600000001 -9.79697232 0.005469 0.036175 0.006401
23460 -0.01946304 -0.41478642000000004 -9.80236782 0.007593000000000002 0.035098000000000004 0.007486
23480 0.00373761 -0.4090966200000001 -9.7986204 0.004392 0.032987 0.00533
23500 -0.028144890000000002 -0.40206285 -9.81329616 0.0033350000000000003 0.032999 0.003186
23520 -0.017667810000000003 -0.40057173 -9.828109260000002 0.005497 0.0362 -8e-06
23540 0.0022464900000000003 -0.39667716000000003 -9.81194238 0.004425999999999999 0.035139 -1.4e-05
23560 0.01107549 -0.40371093 -9.81898596 0.005493 0.036196 0.00106
23580 0.01406754 -0.41913225000000004 -9.821075490000002 0.005478 0.034061 0.002131
23600 0.0073378800000000015 -0.40730139000000004 -9.82152675 0.005473 0.034057 0.003199
23620 0.0013439700000000003 -0.40206285 -9.820928339999998 0.005502 0.037266 -9e-06
23640 -0.0009025200000000001 -0.39996351 -9.80790066 0.003378 0.036221 -0.0032270000000000003
23660 -0.02365191 -0.41703291000000003 -9.81373761 0.004464 0.037295 -0.006426
23680 -0.04955031 -0.40954788000000003 -9.81898596 0.005526 0.036226 -0.006417
23700 -0.055083150000000004 -0.38335518 -9.82332198 0.003392 0.037294 -0.005365
23720 -0.06361785 -0.37077876000000004 -9.82257642 0.0033880000000000004 0.036229 -0.005364
23740 -0.06481466999999999 -0.37976472000000006 -9.80595828 0.003392 0.037294 -0.005365
23760 -0.034727400000000005 -0.4107447 -9.81239364 0.002316 0.03729 -0.003236
23780 -0.027095220000000003 -0.4249692 -9.81898596 0.0033880000000000004 0.038351 -0.00323
23800 -0.022307940000000002 -0.3990708 -9.79787484 0.002311 0.038346 -0.001101
23820 0.01482291 -0.40744854 -9.831258270000001 0.003354 0.036199 0.002113
23840 0.01197801 -0.3930867 -9.8014653 0.0044210000000000005 0.038318 0.004255
23860 -0.01915893 -0.41897529 -9.819133110000001 0.004416 0.038313 0.005323
23880 -0.01107549 -0.44652177000000004 -9.86089428 0.003344 0.038313 0.006384
23900 -0.00913311 -0.3817071 -9.850711500000001 0.002292 0.040451 0.005305
23920 0.00958437 -0.4263131700000001 -9.7894971 0.002287 0.039386 0.005307
23940 0.02470158 -0.42781410000000003 -9.77032836 0.002278 0.039377 0.007443000000000002
23960 -0.01002582 -0.43948800000000005 -9.81434583 0.002273 0.038312 0.007444
23980 -0.02140542 -0.41418801000000005 -9.7866522 0.004406 0.038305 0.007459
24000 -0.036826740000000004 -0.3844048500000001 -9.81478728 0.00334 0.037248 0.006385
24020 -0.036826740000000004 -0.38469915000000005 -9.82796211 0.0033490000000000004 0.037256 0.004249
24040 -0.033383430000000006 -0.39233133000000003 -9.82272357 0.000168 0.040467 0.003154
24060 -0.029488860000000002 -0.39188987999999997 -9.83274939 0.00123 0.04152 0.005296
24080 -0.016618140000000003 -0.3972755700000001 -9.80041563 0.005493 0.04044 0.005328
24100 -0.033383430000000006 -0.4252635 -9.81718092 -0.000889 0.043663 0.004211
24120 -0.05687838 -0.43993926 -9.821075490000002 -0.004071 0.045813 0.002049
24140 -0.02664396 -0.41059755000000003 -9.818534699999999 0.001249 0.042598 0.002091
24160 -0.031136940000000002 -0.39952206 -9.80191656 0.002302 0.04046 0.003169
24180 -0.020355750000000002 -0.41119596 -9.80969589 -0.00088 0.041549 -5.9e-05
24200 -0.00718092 -0.41598324 -9.82078119 -0.0008560000000000001 0.045814 -0.001133
24220 -0.029184750000000002 -0.40146444000000003 -9.7983261 0.000273 0.057537 -0.003276
24240 -0.04595004000000001 -0.41389371 -9.82751085 -0.003961 0.063948 -0.004382
24260 -0.01466595 -0.39742272 -9.82346913 -0.003932 0.068217 -0.006523999999999999
24280 -0.026192700000000003 -0.39802113000000006 -9.819133110000001 -0.002831 0.068244 -0.013994
24300 -0.01586277 -0.39996351 -9.83379906 -0.00385 0.06829 -0.024684
24320 -0.03382488 -0.40999914 -9.81868185 -0.004855 0.074715 -0.032176
24340 -0.0287433 -0.42286986 -9.82796211 -0.004797 0.085376 -0.034326
24360 -0.022602240000000003 -0.4197306600000001 -9.80610543 -0.006984000000000001 0.076849 -0.031126
24380 -0.03771945 -0.4249692 -9.81554265 -0.007104000000000002 0.058704999999999986 -0.022558
24400 -0.02544714 -0.40894947000000004 -9.80610543 -0.005099 0.043729 -0.008637
24420 -0.033530580000000004 -0.41208867000000005 -9.804015900000001 -0.007295 0.038376 -0.0001
24440 -0.03652263 -0.42167304000000005 -9.80610543 -0.009472 0.038345 0.009499
24460 -0.022003830000000002 -0.42841251 -9.81643536 -0.007387 0.038295 0.020196
24480 -0.05089428 -0.43289568 -9.80490861 0.00433 0.046725 0.033085
24500 -0.03967164 -0.43589754000000003 -9.81464013 0.022538 0.064762 0.035326
24520 -0.03307932 -0.42586191 -9.81987867 0.030112 0.07119600000000001 0.018279
24540 -0.033383430000000006 -0.39038895 -9.84458025 0.015133 0.038319 -0.005285
24560 -0.03577707 -0.40430934 -9.78964425 -0.008372 0.020334 -0.016108
24580 -0.02754648 -0.4337982 -9.80775351 -0.023246 0.039539 -0.010895
24600 -0.058977720000000004 -0.40117014 -9.86014872 -0.02636 0.05342 -0.016276
24620 -0.01078119 -0.36688419000000005 -9.81733788 -0.02103 0.051275 -0.017304
24640 0.019306080000000003 -0.41658165 -9.780511140000002 0.003373 0.042582 0.004242
24660 -0.028144890000000002 -0.45415395000000003 -9.79772769 0.025648 0.033901 0.024705
24680 -0.04161402 -0.43724151 -9.825715620000002 0.024408000000000003 0.010409 0.039681
24700 -0.054484740000000004 -0.4685256 -9.796226760000001 0.01051 0.010432 0.045994
24720 -0.06795387 -0.4288539600000001 -9.84412899 0.005344 0.041369 0.039509
24740 -0.053140770000000004 -0.41089185000000006 -9.84248091 0.003412 0.063837 0.017034
24760 -0.04190832 -0.41164722000000004 -9.83679111 0.002498 0.066099 -0.015022
24780 -0.03517866 -0.42870681 -9.82032993 0.00677 0.059722 -0.022462
24800 0.00928026 -0.38784816000000005 -9.7664436 0.014138 0.048996 -0.010646
24820 -0.02963601 -0.4300605900000001 -9.75162069 0.015075 0.036145 0.0054
24840 0.02454462 -0.4391838900000001 -9.858951900000001 0.003287 0.034018 0.014934
24860 0.08487612 -0.42870681 -9.862091099999999 -0.002057 0.03615 0.019167
24880 0.15522363 -0.46104057 -9.83963601 0.003292 0.038266 0.018134
24900 0.1502892 -0.4316988600000001 -9.835594290000001 0.003311 0.037222000000000005 0.012794
24920 0.15387966000000003 -0.35356221 -9.847719450000001 0.0043630000000000006 0.029778 0.008537999999999999
24940 0.10492776000000001 -0.24339591000000002 -9.823027680000001 0.00433 0.025505 0.011748
24960 -0.01122264 -0.13067901 -9.79233219 0.003244 0.02443 0.014946
24980 -0.20223315000000003 -0.07334936999999998 -9.680066550000001 -0.001 0.028710000000000006 0.013843
25000 -0.30506157000000006 -0.30955455000000004 -9.67946814 -0.000957 0.032993 0.008497
25020 -0.18590931 -0.65189412 -9.867182490000001 0.000134 0.035132 0.005297
25040 0.12917808 -0.82478556 -9.95505066 0.0033350000000000003 0.035121 0.005319
25060 0.33619851000000006 -0.7791298200000001 -9.91956789 0.005464 0.03511 0.006403
25080 0.35671122 -0.5694116400000001 -9.864484740000002 0.005473 0.036179 0.005333
25100 0.27827046 -0.25776756 -9.80176941 0.003344 0.03513 0.003183
25120 0.12229146 -0.05613282 -9.70103052 0.00122 0.034085000000000004 -3.5e-05
25140 -0.16854561000000004 -0.05583852 -9.668392650000001 0.001249 0.037293 -0.003244
25160 -0.27018702 -0.15507648000000004 -9.876158640000002 0.001254 0.035176 -0.006446
25180 -0.19564083 -0.39428352 -9.92197134 0.001239 0.03198 -0.006442
25200 -0.06301944 -0.51972399 -9.84098979 0.003364 0.033025 -0.003223
25220 0.06586434000000001 -0.58543137 -9.79428438 0.003354 0.034077 -2e-05
25240 0.13486788 -0.53917722 -9.811500930000001 0.0033590000000000004 0.036204 0.001045
25260 0.16406244 -0.41299119 -9.7667379 0.003364 0.037269 0.001044
25280 0.09325386000000001 -0.34353639 -9.80535987 0.003373 0.038338 -2.6e-05
25300 -0.008681849999999998 -0.36554022 -9.815238540000001 0.002292 0.037268 0.002105
25320 -0.005542650000000001 -0.45206442 -9.84353058 0.0033490000000000004 0.037256 0.004249
25340 0.049246200000000004 -0.46463103000000006 -9.87002739 0.005473 0.036179 0.005333
25360 0.1329255 -0.46238454000000007 -9.83320065 0.004392 0.03617 0.00853
25380 0.15043635 -0.46927115999999996 -9.813139200000002 0.004386999999999999 0.036166 0.009598
25400 0.11616021000000001 -0.43470072 -9.83095416 0.004392 0.037231 0.009597
25420 0.10088604 -0.41643450000000004 -9.833651910000002 0.004411 0.037248 0.005324000000000001
25440 0.04685256 -0.43229727000000007 -9.80521272 0.005493 0.036196 0.00106
25460 -0.0068866199999999995 -0.41703291000000003 -9.78859458 0.0033880000000000004 0.038351 -0.00323
25480 -0.027095220000000003 -0.42032907 -9.807302250000001 0.003426 0.042629 -0.007508
25500 -0.00718092 -0.38784816000000005 -9.81090252 0.001311 0.044776 -0.009662
25520 0.00748503 -0.37197558000000003 -9.812246490000001 0.003431 0.042633 -0.008576
25540 0.0205029 -0.3583593 -9.833651910000002 0.004469 0.037299 -0.007494
25560 0.00329616 -0.39876669 -9.81718092 0.000221 0.043697 -0.005396
25580 0.017667810000000003 -0.41045040000000005 -9.82197801 -0.002956 0.047974 -0.006490999999999999
25600 0.02889045 -0.44083197 -9.81554265 0.002364 0.04582 -0.005383
25620 0.01212516 -0.44338257000000003 -9.80251497 0.003373 0.037277 -0.001092
25640 0.023504760000000003 -0.42107463000000006 -9.80626239 0.0044210000000000005 0.034074 -1.3e-05
25660 0.03666978 -0.37886220000000004 -9.812246490000001 0.002297 0.034089999999999995 -0.002164
25680 0.03322647 -0.37855809 -9.81808344 0.003392 0.041538 -0.001098
25700 0.01601973 -0.37377081000000006 -9.83185668 0.002321 0.042599 0.00103
25720 0.01257642 -0.37512459000000004 -9.823174830000001 0.00444 0.042579 0.004249
25740 0.029341710000000003 -0.39292974 -9.80490861 0.00334 0.036187 0.005318
25760 0.02365191 -0.39742272 -9.80581113 0.005473 0.036179 0.005333
25780 0.03458025 -0.41059755000000003 -9.80476146 0.0076209999999999984 0.036184 0.002143
25800 0.03398184 -0.40969503 -9.80236782 0.006573999999999999 0.037266 -0.00107
25820 0.02754648 -0.38784816000000005 -9.815238540000001 0.00444 0.038335 -1.8e-05
25840 0.027389520000000004 -0.41433516000000004 -9.79787484 0.004406 0.031938999999999995 0.001058
25860 0.016765290000000002 -0.40371093 -9.81808344 0.0044020000000000005 0.030873 0.001059
25880 0.00808344 -0.39397941000000003 -9.80191656 0.003344 0.031947 -1.8e-05
25900 0.004188870000000001 -0.39233133000000003 -9.80385894 0.004411 0.031943 -1e-05
25920 0.00104967 -0.38020617 -9.80162226 0.005478 0.030878 -0.00107
25940 -0.0145188 -0.39472497000000006 -9.808351920000002 0.002278 0.03195 -2.5e-05
25960 0.01466595 -0.38515041 -9.796373910000002 0.0033350000000000003 0.030877 0.001052
25980 0.00104967 -0.40685013000000003 -9.80969589 0.0033350000000000003 0.029816 -1.5e-05
26000 0.018413370000000002 -0.38065743 -9.80521272 0.005488 0.030887 -0.003206
26020 0.02784078 -0.37287810000000005 -9.79173378 0.005483 0.029822 -0.0032049999999999995
26040 0.02006145 -0.40999914 -9.80610543 0.003344 0.030886 -0.001084
26060 0.01990449 -0.44862111000000005 -9.85460607 0.002278 0.03195 -2.5e-05
26080 0.02529999 -0.40296537000000004 -9.868379310000002 0.00334 0.031942 0.001051
26100 0.07304525999999999 -0.40385808000000006 -9.81808344 0.004416 0.033008 -1.1e-05
26120 0.05538726 -0.39532338 -9.77422293 0.005488 0.035131 0.001062
26140 0.04999176 -0.43738866000000004 -9.80760636 0.0033490000000000004 0.034073 0.001048
26160 0.02006145 -0.41449212 -9.82497006 0.003354 0.036199 0.002113
26180 -0.00494424 -0.41119596 -9.81583695 0.003354 0.036199 0.002113
26200 0.01227231 -0.38110869 -9.8068608 0.004416 0.036191 0.003189
26220 0.01482291 -0.37960776 -9.823027680000001 0.003354 0.036199 0.002113
26240 0.008230590000000001 -0.37811664000000006 -9.840391380000002 0.002302 0.039399 0.002102
26260 0.02679111 -0.3990708 -9.81299205 0.001239 0.04259 0.004227000000000001
26280 0.03248091 -0.42301701 -9.79877736 0.0033490000000000004 0.0415 0.008516
26300 0.03726819 -0.44712018000000003 -9.78455286 0.003354 0.042565 0.008515
26320 0.02410317 -0.41433516000000004 -9.81793629 -0.001952 0.044732 0.004202
26340 0.00434583 -0.40744854 -9.841284090000002 0.000201 0.045802 0.001011
26360 0.029783160000000003 -0.42421383 -9.82122264 0.0033880000000000004 0.043656 0.002104
26380 0.02769363 -0.41433516000000004 -9.81449298 0.000177 0.041537 0.002084
26400 0.0287433 -0.40550616000000006 -9.819731520000001 -0.000904 0.039406 0.003148
26420 0.0205029 -0.39548034000000004 -9.823920390000001 0.000182 0.042602 0.002083
26440 0.025594290000000002 -0.40595742000000007 -9.80071974 0.002316 0.044717 0.004232
26460 -0.00074556 -0.39861954000000005 -9.827069400000001 0.001244 0.044716000000000006 0.005293
26480 0.00045126000000000004 -0.39682431 -9.8216739 0.001225 0.042577 0.0074319999999999985
26500 0.0 -0.42541065000000006 -9.80251497 0.001215 0.042568 0.009568
26520 0.02604555 -0.41104881000000004 -9.83200383 0.002292 0.042573 0.007439
26540 0.030087270000000003 -0.42451794000000004 -9.83738952 0.002306 0.041525 0.003168
26560 0.03053853 -0.42062337 -9.835299990000001 0.001254 0.042603 0.001022
26580 0.018109260000000002 -0.41404086 -9.81583695 -0.00088 0.04261 0.001007
26600 -0.01406754 -0.40670298000000005 -9.80895033 0.000182 0.042602 0.002083
26620 0.0009025200000000001 -0.41703291000000003 -9.81464013 0.000201 0.045802 0.001011
26640 -0.01616688 -0.40117014 -9.818534699999999 0.002302 0.041521 0.004236
26660 -0.00793629 -0.37871505 -9.78201207 0.00123 0.042581 0.006363000000000001
26680 -0.00958437 -0.39653001 -9.83769363 0.0033590000000000004 0.041509 0.006379999999999999
26700 0.00958437 -0.40416219000000003 -9.7897914 0.001225 0.041516 0.006365
26720 -0.004188870000000001 -0.42377238 -9.82152675 0.002292 0.041512 0.006372
26740 -0.0025407900000000002 -0.42062337 -9.80565417 0.001215 0.040446 0.007434
26760 -0.0026977500000000005 -0.38754405000000003 -9.84218661 0.0033490000000000004 0.039378 0.006382
26780 -0.01482291 -0.37900935 -9.80026848 0.00334 0.038309 0.0074519999999999986
26800 0.00164808 -0.43454376000000006 -9.795775500000001 0.005473 0.039362 0.008534
26820 -0.01107549 -0.42915807000000006 -9.843383430000001 0.0033350000000000003 0.039365 0.009587
26840 0.0047872800000000005 -0.38993769 -9.8358984 0.00333 0.039361 0.010655
26860 0.039367530000000005 -0.40146444000000003 -9.783650340000001 0.001196 0.039368 0.01064
26880 0.045204480000000005 -0.43753581 -9.80071974 0.002258 0.037238 0.009582
26900 0.01601973 -0.4167288 -9.837840779999999 0.002254 0.036173 0.009583
26920 -0.00164808 -0.42017211000000004 -9.807155100000001 0.002273 0.038312 0.007444
26940 -0.0230535 -0.40985199 -9.79009551 0.002287 0.040447 0.006372999999999999
26960 -0.00973152 -0.37676286000000003 -9.80490861 0.002292 0.03939 0.004238
26980 -0.00299205 -0.39488193 -9.823920390000001 0.002302 0.039399 0.002102
27000 0.03202965 -0.38230551 -9.80176941 0.001239 0.039407 0.001026
27020 -0.022749390000000005 -0.41045040000000005 -9.80266212 0.001244 0.040472 0.001025
27040 0.00837774 -0.42616602000000003 -9.81059841 0.001254 0.041542 -4.4e-05
27060 0.00179523 -0.45670455000000004 -9.78844743 0.002302 0.038338 0.001035
27080 0.01032993 -0.41463927 -9.82901178 -0.0008849999999999998 0.042606 0.002076
27100 -0.021552570000000004 -0.3930867 -9.816582510000002 -0.001932 0.04581 0.000996
27120 0.0011968200000000001 -0.41104881000000004 -9.80760636 0.001254 0.043664 0.002089
27140 -0.00164808 -0.41628735 -9.80476146 0.00443 0.040448000000000005 0.004252000000000001
27160 0.00913311 -0.39158577000000006 -9.81299205 0.002292 0.037268 0.002105
27180 -0.00209934 -0.41463927 -9.82930608 0.000173 0.039411 0.001019
27200 0.02185668 -0.39712842 -9.81418887 0.001239 0.040468 0.002093
27220 0.02439747 -0.39952206 -9.828109260000002 0.004435000000000001 0.042574 0.005318
27240 0.01856052 -0.3962259 -9.821075490000002 0.002292 0.03939 0.004238
27260 0.018413370000000002 -0.39637305000000006 -9.82032993 0.004411 0.038309 0.006391
27280 0.02889045 -0.41808258000000004 -9.81389457 0.004416 0.040435000000000006 0.007456999999999998
27300 0.01437165 -0.41299119 -9.820182780000001 0.003364 0.039391 0.0031780000000000003
27320 0.02634966 -0.41119596 -9.811795230000001 0.003378 0.039404 -2.7e-05
27340 0.01946304 -0.39742272 -9.82556847 0.001249 0.041537 0.001024
27360 0.01990449 -0.43544628 -9.80805762 0.002306 0.041525 0.003168
27380 0.01406754 -0.39832524 -9.821075490000002 0.003354 0.03726 0.00318
27400 0.00777933 -0.38874087000000007 -9.80655669 0.002282 0.038321 0.005308
27420 0.0205029 -0.40356378000000004 -9.818534699999999 0.002297 0.040456 0.004237
27440 0.02365191 -0.4047606000000001 -9.81449298 0.002287 0.038325 0.00424
27460 0.01227231 -0.41822973 -9.803564640000001 0.003354 0.038321 0.004247
27480 0.006141059999999999 -0.40416219000000003 -9.80909748 0.002282 0.039382 0.006375
27500 -0.004640130000000001 -0.3990708 -9.818377739999999 0.002287 0.039386 0.005307
27520 0.016461180000000002 -0.39861954000000005 -9.81329616 0.002273 0.038312 0.007444
27540 0.01946304 -0.38784816000000005 -9.816739470000002 0.002273 0.037251 0.006377000000000001
27560 0.01586277 -0.40535900999999996 -9.80041563 0.002273 0.037251 0.006377000000000001
27580 0.0058369500000000005 -0.42032907 -9.82601973 0.000144 0.038324 0.006361
27600 -0.00014715 -0.43349409 -9.84098979 0.001206 0.039377 0.008504000000000001
27620 0.0068866199999999995 -0.3646377 -9.8532621 0.0012109999999999998 0.039381 0.007436
27640 0.034874550000000004 -0.38469915000000005 -9.772133400000001 0.000139 0.03832 0.007429000000000002
27660 0.03503151 -0.41882814000000007 -9.787692060000001 0.001206 0.039377 0.008504000000000001
27680 0.028144890000000002 -0.42346827 -9.833504759999999 0.00444 0.044701 0.006383
27700 0.0058369500000000005 -0.42136893000000003 -9.82796211 0.004478 0.048979 0.002105
27720 0.00718092 -0.39921795000000004 -9.78021684 0.005545 0.047914 0.001046
27740 -0.00523854 -0.37811664000000006 -9.81868185 0.003383 0.038347000000000006 -0.0021620000000000003
27760 0.031588200000000004 -0.37272114 -9.82631403 -0.002 0.027713 -0.002186
27780 0.01721655 -0.37946061000000003 -9.83934171 -0.0073430000000000014 0.026662 -0.001154
27800 0.00074556 -0.41628735 -9.80820477 -0.009458 0.030930000000000006 -0.001174
27820 0.02245509 -0.43829118000000006 -9.80461431 -0.006229 0.037311 -0.00116
27840 0.00434583 -0.44577621000000006 -9.79189074 0.0033490000000000004 0.039378 0.006382
27860 0.015264360000000001 -0.42002496 -9.822870720000001 0.012903 0.03718 0.014998
27880 0.024848730000000003 -0.41299119 -9.82556847 0.013978999999999998 0.041429 0.017136000000000002
27900 0.03712104000000001 -0.40535900999999996 -9.82511721 0.007645 0.049999 0.010672
27920 0.02185668 -0.41718006 -9.80985285 0.009846 0.054295 -1e-06
27940 0.03262806 -0.41104881000000004 -9.833053500000002 0.007736 0.054324 -0.005357
27960 0.01497006 -0.40325967 -9.802966230000001 0.001359 0.053305999999999985 -0.011809
27980 0.03532581 -0.42017211000000004 -9.810304109999999 -0.00188 0.047978 -0.008620000000000001
28000 0.022749390000000005 -0.38259981000000004 -9.815689800000001 0.002321 0.042599 0.00103
28020 0.027242370000000002 -0.37676286000000003 -9.81254079 0.006492 0.034011 0.013889
28040 0.00494424 -0.38500326000000007 -9.80760636 0.004311 0.027610000000000003 0.018155
28060 0.01990449 -0.38350233000000006 -9.818377739999999 0.004306 0.026544 0.018156
28080 0.02769363 -0.39832524 -9.8216739 0.0032770000000000004 0.029765 0.012803
28100 0.03023442 -0.40969503 -9.80176941 0.001201 0.035129 0.005304
28120 0.03458025 -0.4281084 -9.799071660000001 0.001259 0.039424 -0.003246
28140 0.02410317 -0.40086603 -9.828266220000001 -0.0008269999999999999 0.04584 -0.007542
28160 0.01542132 -0.39697146000000005 -9.83035575 -0.0008460000000000001 0.043701 -0.005403
28180 -0.01092834 -0.35955612 -9.83454462 0.001259 0.040485 -0.00218
28200 -0.03592422 -0.33978897 -9.811500930000001 0.003364 0.037269 0.001044
28220 -0.03233376 -0.35820234 -9.75745764 0.00123 0.039398 0.003163
28240 -0.018109260000000002 -0.42841251 -9.80236782 0.002292 0.038329 0.003172
28260 0.06990606 -0.54352305 -9.846826740000001 0.001239 0.039407 0.001026
28280 0.09445068 -0.6014511 -9.83290635 0.002321 0.040477 -0.001104
28300 0.14833701000000002 -0.55175364 -9.85984461 0.003397 0.040482 -0.003233
28320 0.11570895 -0.4366431 -9.84248091 0.000206 0.040501 -0.005392
28340 0.018413370000000002 -0.31689243 -9.833053500000002 0.0023350000000000003 0.038368 -0.006442
28360 -0.062273880000000004 -0.20522520000000002 -9.76898439 0.003407 0.038368 -0.007503
28380 -0.13067901 -0.21555513 -9.73889712 0.001268 0.036249 -0.008583
28400 -0.14684589 -0.29278926000000005 -9.77601816 0.001259 0.036241 -0.006447
28420 -0.13037490000000002 -0.40117014 -9.867035340000001 0.003383 0.036225 -0.004296
28440 -0.0068866199999999995 -0.44097912 -9.862689510000001 0.002311 0.035163 -0.004302
28460 0.0928026 -0.5457695400000001 -9.815091390000003 0.001244 0.034106 -0.005376
28480 0.17693316 -0.5568450300000001 -9.82886463 0.00123 0.034093 -0.002172
28500 0.17483382000000003 -0.4685256 -9.84458025 0.002292 0.034085000000000004 -0.0010960000000000002
28520 0.1591182 -0.37287810000000005 -9.8213796 0.002292 0.035146 -2.9e-05
28540 0.06331374000000001 -0.30761217 -9.77377167 0.00122 0.034085000000000004 -3.5e-05
28560 -0.00179523 -0.33440328 -9.799974180000001 0.002287 0.034081 -2.8000000000000006e-05
28580 -0.019306080000000003 -0.38140299 -9.83829204 6.7e-05 0.030829 0.015984
28600 -0.00973152 -0.41449212 -9.82946304 0.008497 0.027522 0.036344
28620 -0.027095220000000003 -0.4363389900000001 -9.83006145 0.012764 0.02008 0.028905
28640 0.02365191 -0.44338257000000003 -9.81014715 0.009688 0.033995 0.014979
28660 0.023504760000000003 -0.42107463000000006 -9.78110955 0.00122 0.038329 0.004232
28680 0.01018278 -0.37736127 -9.79562835 0.000139 0.035137 0.004229
28700 0.011673900000000001 -0.3930867 -9.807459210000001 -0.003062 0.033026 0.002073
28720 0.016618140000000003 -0.37407492000000003 -9.8043102 -0.003004 0.034138 -0.009679
28740 0.03592422 -0.40535900999999996 -9.81823059 -0.000808 0.037369 -0.02035
28760 0.0028449 -0.41822973 -9.81643536 0.004536 0.042664 -0.017115000000000002
28780 0.01990449 -0.39084021 -9.80266212 0.004464 0.040478 -0.003225
28800 0.01856052 -0.40041477000000003 -9.811795230000001 0.004382 0.034039 0.008533
28820 0.006582510000000001 -0.41404086 -9.80954874 0.003292 0.034022000000000004 0.013866
28840 -0.00673947 -0.39188987999999997 -9.84248091 0.004354 0.032953 0.013875
28860 0.017363700000000003 -0.39323385000000005 -9.80985285 0.005435 0.034023000000000005 0.011745
28880 0.03398184 -0.39742272 -9.80954874 0.004386999999999999 0.035105000000000004 0.008531
28900 0.05163984 -0.39756987000000005 -9.81688662 0.0033350000000000003 0.037243 0.007453
28920 0.06392196 -0.39816828 -9.81987867 0.002268 0.036186 0.006379
28940 0.06481466999999999 -0.39952206 -9.838890450000001 0.0033350000000000003 0.036182 0.006386
28960 0.03922038 -0.40685013000000003 -9.81538569 0.002287 0.040447 0.006372999999999999
28980 0.018707670000000003 -0.41793543000000005 -9.82886463 0.003368 0.039395 0.002109
29000 0.01197801 -0.39921795000000004 -9.823027680000001 0.005493 0.034074 -0.001074
29020 0.022749390000000005 -0.42047622 -9.823626090000001 0.00123 0.042581 0.006363000000000001
29040 0.022749390000000005 -0.40894947000000004 -9.819584370000001 0.000134 0.040437 0.010631
29060 0.025898400000000002 -0.4192794 -9.83290635 0.001163 0.037217 0.015984
29080 0.004188870000000001 -0.40280841 -9.80385894 0.002239 0.037221 0.013855
29100 0.04715667 -0.39084021 -9.82212516 0.000125 0.036185 0.0085
29120 0.11241279000000001 -0.42152589 -9.843226470000001 0.000139 0.039381 0.008496
29140 0.0025407900000000002 -0.36403929000000007 -9.85371336 0.002278 0.042561 0.010644
29160 -0.055534410000000006 -0.42136893000000003 -9.77617512 0.0022440000000000003 0.039348 0.01492
29180 -0.03053853 -0.42197715 -9.79024266 0.001168 0.038282 0.015982
29200 -0.00104967 -0.42870681 -9.784101600000001 0.001172 0.037225 0.013847
29220 0.05478885000000001 -0.44233290000000003 -9.79758054 0.001201 0.040434 0.010639
29240 0.01466595 -0.42616602000000003 -9.84202965 0.00334 0.040431 0.009586
29260 -0.04056435 -0.35700552 -9.82586277 0.002273 0.040434 0.009578
29280 -0.01197801 -0.34308513000000007 -9.822870720000001 0.002268 0.039369 0.009579
29300 0.038170710000000004 -0.38933928 -9.80760636 0.002254 0.038295 0.011717
29320 0.04939335000000001 -0.42481224000000006 -9.79338186 0.002254 0.037234 0.01065
29340 0.042065280000000004 -0.42960933 -9.813590460000002 0.00334 0.03937 0.008519
29360 -0.00164808 -0.41329530000000003 -9.78620094 -0.000909 0.040462 0.005283
29380 -0.01856052 -0.40565331 -9.84068568 -0.000904 0.040467 0.004215
29400 -0.00104967 -0.38364948 -9.83918475 0.001215 0.038324 0.0053
29420 -0.0038945700000000004 -0.38364948 -9.82497006 -0.000909 0.039401 0.004215999999999999
29440 0.00164808 -0.37916631 -9.821075490000002 -0.001961 0.04154 0.003138
29460 -0.00014715 -0.40325967 -9.80805762 0.001235 0.042586 0.005295
29480 0.00718092 -0.41313834 -9.81389457 0.002306 0.043647000000000005 0.005301
29500 0.0085347 -0.40086603 -9.803113380000001 -0.001956 0.043666 0.004203
29520 -0.04850064 -0.36568737 -9.84068568 -0.003004 0.04687 0.003124
29540 0.00928026 -0.40849821 -9.78201207 0.000177 0.04472 0.005285
29560 0.01392039 -0.4249692 -9.8387433 0.006555 0.041493 0.00747
