time Ax Ay Az Gx Gy Gz
20 7.256613960000001 3.2154629399999997 -5.4107937900000005 0.103951 0.175117 0.073141
40 7.518560580000001 3.3283269900000003 -5.38983963 0.073417 0.081265 0.126459
60 7.3706748300000005 3.32189163 -5.31244854 0.117957 -0.012498 0.092707
80 7.5254472 3.6878831100000005 -5.46184503 0.233106 -0.025697 0.096733
100 7.46961849 3.19391037 -5.55375492 0.20011 0.033903 0.139155
120 7.40061495 3.3894040500000004 -5.42112372 0.083767 0.234681 0.113516
140 7.57829367 3.42637794 -5.29314246 -0.048237 0.32876700000000003 0.14238399999999998
160 7.57200546 3.65270445 -5.207373629999999 -0.177677 0.312992 0.203456
180 7.57544877 4.05431604 -5.2753274999999995 -0.309289 0.28552 0.261325
200 7.619750730000001 4.46925942 -5.81450472 -0.408059 0.224836 0.337624
220 7.578136710000001 4.45802697 -6.17616018 -0.427466 0.042338 0.438136
240 7.23131397 4.68570726 -5.88291966 -0.306887 0.030267 0.4219020000000001
260 7.29328374 4.22765874 -5.526806850000001 -0.143837 0.13765 0.333172
280 7.55658414 3.9046350600000013 -5.33385396 -0.029357 0.06539299999999999 0.188786
300 7.6495437 3.65240034 -5.1802784100000006 0.001947 0.050755 0.092884
320 7.8579081 3.07535652 -5.350020840000001 0.0205 0.120027 0.069424
340 8.005950810000002 2.9326995 -4.942866600000001 0.064256 0.111399 0.05799
360 8.18527761 3.1557396600000005 -4.57882731 0.12171300000000003 0.031486 0.01256
380 8.03005398 3.60824553 -5.03867106 0.134645 0.008214 -0.039662
400 7.548647850000001 3.6259133400000003 -5.433248880000001 0.119083 0.065956 -0.080438
420 7.37711019 3.2886651600000003 -5.31559755 -0.02111 0.211307 -0.07733
440 7.017554070000001 3.3882072300000003 -5.518870560000001 -0.20292 0.481994 0.053512
460 6.793768350000001 3.5691821100000003 -5.30526762 -0.247155 0.60054 0.282719
480 7.26633567 3.63115188 -5.02744842 -0.303195 0.419972 0.465225
500 7.6175140500000005 3.58758567 -5.20931601 -0.376135 0.35091100000000003 0.4829640000000001
520 7.46842167 3.2400075600000005 -5.281762860000001 -0.492907 0.20765100000000006 0.446012
540 7.4362350600000005 2.9144430900000002 -4.794382440000001 -0.534826 0.097176 0.4042
560 7.516922310000001 2.8342071 -4.49559927 -0.436291 0.021842 0.243684
580 8.376876720000002 2.7842055300000004 -5.09016375 -0.290198 -0.079524 0.158308
600 9.07982208 2.89617687 -5.09061501 -0.19941 -0.059588 0.155712
620 9.21409155 3.3257862 -4.78150191 -0.190366 0.037385 0.139628
640 9.65762127 3.36096486 -5.59491768 -0.175344 0.009824 0.092766
660 9.35704287 3.68817741 -5.22818064 -0.124226 -0.059401 0.044074
680 8.16941484 2.7846567900000005 -4.154015070000001 -0.079485 -0.077655 0.041205
700 7.265894220000001 2.2350024900000003 -3.87154593 -0.07216 -0.062954 0.088239
720 7.459288560000001 2.2200324300000007 -4.365077220000001 -0.126642 -0.016144 0.150824
740 7.70357718 3.2087234700000002 -4.731215850000001 -0.174551 0.050956 0.195268
760 8.03843172 4.20071067 -4.728518100000001 -0.23417 0.11918 0.235357
780 8.271046440000001 4.1879871 -4.67612289 -0.316577 0.08422400000000001 0.257259
800 7.930060650000001 3.65060511 -4.47493941 -0.337982 0.059836 0.247526
820 7.710169500000001 3.0187724400000002 -4.64993019 -0.29502399999999995 0.114049 0.239211
840 7.74130644 2.8178930699999998 -4.63466583 -0.311123 0.118264 0.264731
860 7.840691550000001 2.99093166 -4.604872860000001 -0.346133 0.191771 0.294302
880 8.150255910000002 2.9186319600000004 -4.87761048 -0.36649 0.179033 0.300586
900 8.510106330000001 2.78181189 -4.90545126 -0.390922 0.187701 0.28544899999999995
920 8.55695889 2.8050125400000003 -4.5523305 -0.417776 0.150497 0.288514
940 8.125407180000002 2.71056186 -4.4652177 -0.43065 0.162149 0.316182
960 7.966887389999999 2.30101398 -4.94422038 -0.475487 0.182439 0.342549
980 8.39184678 2.2763124 -5.08178601 -0.535179 0.198609 0.346384
1000 8.349340049999999 2.5924592700000004 -4.8093525 -0.558376 0.283815 0.370682
1020 8.14306518 2.93105142 -4.643789129999999 -0.636545 0.247757 0.397956
1040 7.89742278 2.98329948 -4.6668426300000005 -0.651965 0.161438 0.419323
1060 8.223595470000001 2.8883975400000006 -4.53391713 -0.628681 0.117688 0.417405
1080 8.235122220000001 3.12744762 -4.338727560000001 -0.640263 0.119988 0.385275
1100 8.020469610000001 3.3611120100000003 -4.2540084 -0.601689 0.111515 0.339622
1120 7.969281030000001 3.5025624000000004 -4.25355714 -0.572185 0.033629 0.34420100000000003
1140 7.875271800000001 3.6121401 -4.17241863 -0.540079 0.000715 0.288919
1160 8.27733465 3.6190267200000004 -4.315075650000001 -0.532992 0.111647 0.247166
1180 8.731341450000002 3.76661817 -4.108055220000001 -0.525045 0.214964 0.243885
1200 8.688981870000001 3.80868345 -3.4232289300000005 -0.414901 0.041974 0.252353
1220 8.436305700000002 3.7989519300000003 -3.46799196 -0.346871 -0.048672 0.217693
1240 8.276736240000002 3.4793617500000003 -3.86720991 -0.33478600000000003 0.025868 0.214477
1260 8.434059210000001 3.1753498500000004 -3.81811086 -0.260981 0.013049000000000002 0.159462
1280 8.535553470000002 3.21007725 -3.43131237 -0.17487 0.087699 0.06489600000000001
1300 7.94068488 2.95799949 -3.8044847700000006 -0.06125 0.121729 -0.018744
1320 8.120011680000001 2.30041557 -4.2529587300000005 0.117098 0.118085 -0.06129
1340 8.63569395 2.0279820600000003 -4.6509798600000005 0.221473 0.043292 -0.095717
1360 9.17233038 2.74918383 -3.78144108 0.26124 0.063573 -0.14032999999999998
1380 8.73942489 2.96593578 -4.241431980000001 0.291685 -0.047319 -0.141044
1400 8.76217428 3.03029919 -4.29561261 0.281642 -0.183485 -0.179395
1420 8.10759222 3.52262385 -3.7035987300000004 0.237002 -0.234108 -0.268305
1440 7.4645271000000015 3.4320677400000004 -3.75942744 0.23173 -0.287084 -0.335572
1460 7.848931950000001 3.7791945900000004 -3.48385473 0.339322 -0.122196 -0.371351
1480 8.23827123 4.380792840000001 -3.30991362 0.537998 -0.02082 -0.32095500000000005
1500 8.19695151 4.48901676 -2.6589220200000003 0.239353 0.083209 -0.236648
1520 8.116725330000001 3.86646435 -3.3178499100000005 0.039802 0.157073 -0.153747
1540 9.15765462 3.72306177 -3.1891230900000003 0.142549 0.021308 -0.124014
1560 9.60747255 4.32196227 -2.85142365 0.105452 -0.166035 -0.128306
1580 9.035216010000001 3.50990028 -2.08516455 0.054148 0.094959 -0.084133
1600 8.46414648 2.52030672 -2.0071750500000003 0.023162 0.170355 0.0020800000000000003
1620 8.25054354 0.16899687000000005 -2.6807787000000003 -0.161583 0.203734 0.073386
1640 8.52462513 -0.48034665000000004 -3.24734544 -0.16658199999999998 0.318639 0.113796
1660 9.520801200000001 1.03046202 -4.567604670000001 -0.101762 0.258766 0.112189
1680 10.221195960000001 2.41762545 -3.89459943 -0.081005 0.102208 0.084761
1700 9.094792140000001 1.7780036399999999 -3.47307354 -0.10326 0.119394 0.06856
1720 8.000712270000001 1.31501088 -5.58952218 -0.161847 0.134534 0.06279
1740 8.04711357 1.4244414300000001 -5.952374460000001 -0.170621 0.102521 0.084135
1760 8.125407180000002 2.3822996400000003 -4.761303120000002 -0.209163 0.099353 0.110575
1780 7.820639910000001 3.76346916 -5.459000130000001 -0.265649 0.14946900000000002 0.147504
1800 7.7427975600000005 3.98950137 -4.71025188 -0.31907800000000003 0.165494 0.182362
1820 8.35907157 3.6055477799999998 -3.9691456200000004 -0.361872 0.167658 0.210902
1840 8.65140957 3.83353218 -4.10266953 -0.398453 0.116584 0.22780300000000006
1860 8.23287573 3.74311341 -3.6025557299999997 -0.366701 0.085477 0.253702
1880 7.9014645 3.40437411 -3.4100541 -0.372064 0.079104 0.253673
1900 8.57506815 3.41365437 -3.7649700900000003 -0.287065 -0.046703 0.206358
1920 9.01066158 3.8847207600000004 -3.8425083300000002 -0.151847 -0.170496 0.14443599999999998
1940 8.816511870000001 3.72889872 -3.4259266800000003 -0.040013 -0.282459 0.07485800000000001
1960 8.63165223 3.57681429 -3.30811839 0.050064 -0.295095 -0.039865
1980 8.708140799999999 3.58953786 -3.5703789300000004 0.004932 -0.251834 -0.163081
2000 9.07637877 3.55046463 -3.35183175 -0.100208 -0.226636 -0.246101
2020 9.174567060000001 3.35721744 -3.2250473100000003 -0.15867 -0.21775100000000006 -0.286045
2040 9.407790000000002 3.7095828300000004 -3.4185888 -0.045381 -0.120355 -0.231967
2060 9.58231971 3.43041966 -2.95201539 0.158059 -0.084226 -0.119497
2080 9.5987907 3.0084425100000005 -2.75891535 0.263966 -0.0026420000000000003 -0.100702
2100 9.21663234 2.76310422 -3.09885147 0.345186 0.000381 -0.127912
2120 9.05691573 2.35580283 -2.9817985500000006 0.296039 -0.006939 -0.119701
2140 8.4909474 1.5242778 -2.8241812800000003 0.238021 -0.02832 -0.050644
2160 8.539889490000002 1.23148854 -2.9817985500000006 0.17941500000000002 -0.005769 -0.044673
2180 8.98805934 1.4100697800000002 -3.2885082000000003 0.163546 0.005016 -0.064026
2200 9.417668670000001 1.72366605 -3.68803026 0.16182 0.071168 -0.088692
2220 9.53292636 1.9905569100000002 -4.23065079 0.204341 0.032686 -0.092618
2240 9.04209282 3.0205676700000006 -4.37120847 0.287206 -0.05704 -0.103675
2260 8.193665160000002 4.0462326000000015 -4.267026270000001 0.316002 -0.082613 -0.126942
2280 7.1757795600000005 4.04324055 -5.00963346 0.25842 -0.077081 -0.128419
2300 7.83425619 3.7233560700000004 -4.61924451 0.179314 -0.078007 -0.094787
2320 8.04771198 2.91129408 -3.8067312600000003 0.055774 -0.006296 -0.072241
2340 8.45292384 3.05215587 -3.7952045100000005 -0.039635 0.138877 -0.06348
2360 8.25772446 3.61663308 -3.83337522 -0.069994 0.267883 -0.06385700000000001
2380 7.910146350000001 3.86810262 -3.9540284100000003 -0.060013 0.356249 -0.059628
2400 7.76570391 3.9564220500000005 -4.13230554 -0.019717 0.299657 -0.06141
2420 7.907458409999999 4.026622410000001 -4.4626671 0.025856 0.23769 -0.055672
2440 7.65253575 3.92843412 -4.35399192 0.036371 0.206747 -0.052354
2460 8.10654255 3.6515076300000002 -4.24083357 0.032118 0.211019 -0.051321000000000006
2480 8.18453205 3.3864120000000004 -4.09533165 0.014116 0.231361 -0.061087
2500 8.05474575 2.9774625300000004 -4.25774601 -0.006102000000000001 0.237844 -0.066577
2520 8.434657620000001 2.79259308 -4.02078546 -0.012647 0.202726 -0.069783
2540 8.81920962 2.89543131 -3.95926695 -0.001213 0.14300000000000002 -0.062149
2560 8.89809183 3.00155589 -3.7459583100000002 0.018741 0.08217100000000001 -0.052317
2580 8.82669465 2.70682425 -3.75898599 0.032442 0.053326 -0.043639
2600 8.68434174 2.57045544 -3.56947641 0.030222 0.050074 -0.027627
2620 8.61218919 2.66745672 -3.53145285 0.014056 0.02346 -0.018092
2640 8.73268542 2.76580197 -3.54103722 -0.001072 -0.008489 -0.007474
2660 8.79450804 2.88285489 -3.58370091 -0.020357 -0.019104 -0.000118
2680 8.77804686 3.0192237 -3.58190568 -0.03104 -0.012713 0.009413
2700 8.69900769 3.09016962 -3.5857904400000002 -0.031054 -0.013787 0.011551
2720 8.62835607 3.1774393800000005 -3.59357958 -0.032111 -0.012714 0.010474
2740 8.58824298 3.2894107200000002 -3.6676745100000003 -0.038455 -0.000969 0.009347
2760 8.58405411 3.4462824300000006 -3.7510497000000003 -0.044789 0.013967 0.009283
2780 8.68329207 3.4943318100000007 -3.7302426900000003 -0.046875 0.025688 0.010322
2800 8.598572910000001 3.5346018600000004 -3.6512035200000006 -0.04365 0.028881 0.008204000000000001
2820 8.52896115 3.43954296 -3.55959774 -0.034039 0.028856 0.006135
2840 8.50112037 3.4269763500000003 -3.5443333800000003 -0.025528 0.016073 -0.001267
2860 8.5954239 3.3424043400000003 -3.57965919 -0.015941 0.011782 -0.002263
2880 8.588095830000002 3.2828282100000004 -3.58250409 -0.011592 0.028816 -0.003323
2900 8.543636910000002 3.2310314100000004 -3.60659745 -0.022208 0.03951 -0.004479
2920 8.555909220000002 3.17519289 -3.6706665600000004 -0.015811000000000002 0.0363 -0.006566
2940 8.56399266 3.13298046 -3.71362455 -0.005181 0.02668 -0.007548
2960 8.53869267 3.11142789 -3.78023445 0.004536 0.045847000000000006 -0.013914
2980 8.53345413 3.13957278 -3.80868345 0.013056 0.042621 -0.01385
3000 8.51563917 3.1039428600000005 -3.8264886000000002 0.018386000000000003 0.042598 -0.012745
3020 8.505162089999999 3.0990084300000005 -3.8495421 0.018396 0.048973 -0.00848
3040 8.50845825 3.1406224500000004 -3.8728997100000004 0.018396 0.054278 -0.003146
3060 8.486307270000001 3.2250473100000003 -3.8564287200000003 0.02262 0.041493 -0.006305
3080 8.41520439 3.3114145500000003 -3.8350233 0.034331 0.037186 -0.005149
3100 8.407268100000001 3.33207441 -3.81856212 0.036489 0.043566 -0.004074
3120 8.35592256 3.38041809 -3.79116279 0.028002 0.053188 -0.005214
3140 8.467295490000001 3.3421002300000002 -3.8872615500000003 0.021596 0.054267 -0.003123
3160 8.342747730000001 3.47787063 -3.78023445 0.011961 0.048965 -0.001047
3180 8.43137127 3.4548171300000003 -3.7503041400000003 0.011913 0.038313 -0.001034
3200 8.44993179 3.3608079 -3.7420637400000003 0.008717 0.041511 0.001076
3220 8.491545810000002 3.37682763 -3.7486560600000005 0.006579000000000001 0.041514 0.002129
3240 8.48854395 3.3656049900000005 -3.66408405 0.001239 0.040468 0.002093
3260 8.46086013 3.3024285900000003 -3.74461434 -0.003042 0.038348 0.003134
3280 8.48166714 3.28462344 -3.74655672 -0.009444 0.040492 0.005222999999999999
3300 8.49992355 3.28491774 -3.74760639 -0.009444 0.040492 0.005222999999999999
3320 8.543479950000002 3.2030434800000003 -3.70988694 -0.014778 0.041572000000000005 0.006253
3340 8.523124200000002 3.23476902 -3.68803026 -0.016902 0.041588 0.004102000000000001
3360 8.4997764 3.2377708800000002 -3.71512548 -0.01263 0.043699 0.005197
3380 8.529559560000001 3.1985505 -3.7803914100000005 -0.010525 0.0373 0.005220000000000001
3400 8.55665478 3.25318239 -3.7344315600000004 -0.007363 0.027706 0.004186
3420 8.50935096 3.25497762 -3.70554111 -0.008434 0.026644 0.00418
3440 8.52716592 3.2500431899999995 -3.7133302500000003 -0.01164 0.027712 0.006293
3460 8.51504076 3.2708502 -3.7068948900000005 -0.013754 0.033042 0.007339
3480 8.53539651 3.2201030700000004 -3.71093661 -0.010578 0.028765 0.008435
3500 8.531060490000002 3.2334250500000006 -3.7184216400000003 -0.007391 0.024497 0.007395
3520 8.54288154 3.2386635900000003 -3.7134774 -0.000976 0.024488 0.004235
3540 8.54124327 3.25513458 -3.69745767 0.002215 0.024468 0.006393
3560 8.52163308 3.32308845 -3.68533251 0.00012 0.029815 0.003167
3580 8.51295123 3.2921084700000005 -3.69656496 -0.001985 0.035153 0.002078
3600 8.4997764 3.2837209200000004 -3.7395229500000005 0.000144 0.036202 0.004228
3620 8.53315983 3.2741365500000006 -3.72574971 0.00015800000000000002 0.04152 0.006357
3640 8.500070700000002 3.2965916400000004 -3.74341752 -0.000904 0.04365 0.0074150000000000015
3660 8.50950792 3.3205476600000003 -3.72590667 0.001225 0.042577 0.0074319999999999985
3680 8.48719998 3.27922794 -3.75748506 0.001225 0.041516 0.006365
3700 8.449480529999999 3.32084196 -3.7712583 0.005488 0.039375 0.005329
3720 8.48495349 3.3084225000000003 -3.8116755 0.006579000000000001 0.040453 0.001062
3740 8.5026213 3.303027 -3.8167668900000002 0.005502 0.040449 0.003191
3760 8.47657575 3.28342662 -3.7847274300000002 0.006593000000000001 0.04471 0.002125
3780 8.47926369 3.2832696600000006 -3.78608121 0.005536 0.047905 0.003182
3800 8.450530200000001 3.2840250300000005 -3.78876915 0.004459 0.044718 0.0021100000000000003
3820 8.44005312 3.29374674 -3.76332201 0.005497 0.039383 0.003193
3840 8.4767229 3.26006901 -3.7583875800000004 0.005497 0.039383 0.003193
3860 8.486905680000001 3.2537808000000004 -3.7875723300000006 0.003378 0.041526 0.002107
3880 8.498422620000001 3.26920212 -3.74311341 0.00016299999999999998 0.038341 0.002088
3900 8.51683599 3.26530755 -3.7540417500000003 -0.003038 0.040474 0.0042
3920 8.517885660000001 3.24061578 -3.7263481200000004 -0.003047 0.039405 0.005268999999999999
3940 8.49678435 3.2808760200000004 -3.77455446 -0.004138 0.035143 0.006335
3960 8.50666302 3.28312251 -3.73218507 -0.002004 0.037258 0.008484
3980 8.52821559 3.2976413100000004 -3.7365309000000004 -0.006281 0.03302 0.006323
4000 8.48105892 3.28132728 -3.71991276 -0.004143 0.034078 0.006337
4020 8.49198726 3.2540849100000004 -3.7217079900000005 -0.000923 0.037267 0.005287
4040 8.5174344 3.2606674200000003 -3.7419165899999998 -0.002004 0.033014 0.004217
4060 8.531207640000002 3.2799833100000004 -3.75733791 -0.000928 0.03514 0.004221
4080 8.505466200000003 3.2686037100000003 -3.7504512900000004 -0.000923 0.036206 0.004220000000000001
4100 8.518336920000001 3.2754903300000002 -3.7483519500000004 -0.005186 0.037286 0.004189
4120 8.500227660000002 3.26530755 -3.74775354 -0.001966 0.040475 0.003139
4140 8.51040063 3.2482479600000005 -3.7501471800000004 -0.001966 0.039414 0.002072
4160 8.509949370000001 3.3063231600000003 -3.74281911 0.00123 0.038337 0.002096
4180 8.50965507 3.26621007 -3.74176944 0.002292 0.037268 0.002105
4200 8.51114619 3.25393776 -3.73114521 0.003373 0.04046 0.002108
4220 8.47058184 3.27698145 -3.7450656 0.003378 0.040465 0.00104
4240 8.49303693 3.2711445000000006 -3.79820637 0.002302 0.04046 0.003169
4260 8.51279427 3.2714486100000006 -3.7519522200000006 0.003364 0.037269 0.001044
4280 8.494989120000001 3.26740689 -3.78353061 0.003368 0.039395 0.002109
4300 8.49992355 3.25932345 -3.76826625 0.002302 0.038338 0.001035
4320 8.50171878 3.25992186 -3.7854828 0.003354 0.035138 0.001047
4340 8.486905680000001 3.2563314 -3.72754494 -0.000913 0.036214 0.002084
4360 8.502915600000001 3.27608874 -3.77874333 -0.000904 0.037284 0.001014
4380 8.491241700000002 3.26590596 -3.7592802900000004 -0.003038 0.039413 0.003133
4400 8.50351401 3.28342662 -3.75568983 -0.004128 0.036213 0.005266
4420 8.494832160000001 3.2811801300000005 -3.74162229 -0.002004 0.036197 0.007417
4440 8.502022890000001 3.28986198 -3.7712583 0.0012109999999999998 0.03832 0.006369
4460 8.502170040000001 3.28192569 -3.7356283800000005 0.002302 0.04046 0.003169
4480 8.49318408 3.2965916400000004 -3.7612324800000003 0.004411 0.036187 0.004257
4500 8.49169296 3.2879097900000005 -3.74880321 0.002268 0.035125 0.005312
4520 8.49558753 3.26171709 -3.7489503600000003 0.00015800000000000002 0.040459 0.00529
4540 8.51324553 3.28207284 -3.78353061 0.002297 0.040456 0.004237
4560 8.514295200000001 3.25437921 -3.7471551300000003 0.0033590000000000004 0.038326 0.003179
4580 8.506358910000001 3.30138873 -3.77305353 0.00444 0.041518 0.003182
4600 8.48884806 3.2796792000000003 -3.72694653 0.002325 0.044725 0.002095
4620 8.477772569999999 3.25497762 -3.742515 -0.00088 0.041549 -5.9e-05
4640 8.5086054 3.2698005300000004 -3.7600356600000002 0.001259 0.042607 -4.6e-05
4660 8.489897730000001 3.26785815 -3.7395229500000005 0.002321 0.04366 0.002097
4680 8.49738276 3.2786295300000003 -3.74760639 0.000182 0.041541 0.001016
4700 8.497677060000001 3.2482479600000005 -3.76946307 0.001244 0.039411 -4.2e-05
4720 8.500227660000002 3.2790807900000005 -3.7609283700000002 0.0033880000000000004 0.040473 -0.0010960000000000002
4740 8.4997764 3.29165721 -3.75942744 0.001249 0.040476 -4.3e-05
4760 8.469836279999999 3.2701046400000005 -3.75568983 0.00233 0.041546 -0.002173
4780 8.491388850000002 3.27922794 -3.7818825300000003 0.0034020000000000005 0.043669 -0.0011
4800 8.496333089999998 3.26920212 -3.7419165899999998 -0.000875 0.041553 -0.001128
4820 8.49363534 3.27099735 -3.73847328 -0.00088 0.041549 -5.9e-05
4840 8.49887388 3.27594159 -3.75913314 -0.0008849999999999998 0.039423 -0.001125
4860 8.50771269 3.24629577 -3.77245512 -0.000875 0.043675 0.001006
4880 8.51190156 3.26291391 -3.7612324800000003 0.001254 0.040481 -0.001111
4900 8.505907650000001 3.2548304700000004 -3.7330875900000002 -0.001947 0.042614 0.001
4920 8.5086054 3.2566257 -3.75359049 -0.001952 0.040488 -6.6e-05
4940 8.50486779 3.26141298 -3.71826468 -0.003018 0.040491 -7.3e-05
4960 8.50666302 3.25393776 -3.7520993700000003 -0.001937 0.045805 0.002064
4980 8.518631220000001 3.2639635800000004 -3.75554268 -0.004065999999999999 0.045817 0.000981
5000 8.50456368 3.28342662 -3.7500000300000003 -0.0008609999999999999 0.044749 -0.001132
5020 8.49274263 3.25198557 -3.7601828100000003 0.000206 0.044745 -0.001124
5040 8.505162089999999 3.28027761 -3.7377277200000005 0.001273 0.044742 -0.001117
5060 8.52087771 3.2548304700000004 -3.74012136 -0.0008609999999999999 0.046871 0.001002
5080 8.522525790000001 3.2633651700000006 -3.75090255 0.002354 0.045812 -0.003247
5100 8.491241700000002 3.26905497 -3.7743975 0.002354 0.046873000000000005 -0.00218
5120 8.49588183 3.2995836899999995 -3.7317436200000005 0.002373 0.050073 -0.003252
5140 8.46429363 3.2754903300000002 -3.7503041400000003 0.003431 0.046877 -0.004309
5160 8.467295490000001 3.26321802 -3.7350299700000003 0.004497999999999999 0.046874 -0.004302
5180 8.52522354 3.26590596 -3.76063407 0.004493 0.047931 -0.002166
5200 8.5145895 3.26037312 -3.74655672 0.003445 0.050073 -0.004313
5220 8.51549202 3.27922794 -3.7187159400000005 0.002349 0.045807 -0.002179
5240 8.49707865 3.27773682 -3.7520993700000003 0.004469 0.043665 -0.001093
5260 8.48569905 3.27698145 -3.74850891 0.001283 0.046872 -0.001119
5280 8.48480634 3.2723413199999998 -3.74102388 0.000221 0.045819 -0.003262
5300 8.48510064 3.2804247600000003 -3.7347356700000005 -0.001913 0.045827 -0.0032770000000000004
5320 8.51324553 3.2927068800000003 -3.7422207 -0.0008699999999999999 0.042619 -0.001129
5340 8.50456368 3.28776264 -3.7134774 0.001249 0.040476 -4.3e-05
5360 8.50082607 3.2686037100000003 -3.7601828100000003 0.002302 0.037277 -3.2e-05
5380 8.502317190000001 3.2825241000000003 -3.75599394 0.002316 0.041534 0.001031
5400 8.50396527 3.2955517800000003 -3.75614109 0.001254 0.041542 -4.4e-05
5420 8.498275470000001 3.3043807800000002 -3.7181175300000002 0.000173 0.037289 -0.001115
5440 8.49707865 3.28926357 -3.7163223000000003 0.004454 0.04153 -2.2e-05
5460 8.51279427 3.2868601200000005 -3.7196184600000004 0.001254 0.040481 -0.001111
5480 8.51982804 3.32203878 -3.72694653 0.000187 0.040484 -0.001119
5500 8.526116250000001 3.30766713 -3.72186495 -0.0019760000000000003 0.037283 0.002075
5520 8.49198726 3.31395534 -3.68384139 -0.003033 0.040478 0.003132
5540 8.486748720000001 3.2778839700000004 -3.72186495 -0.002023 0.027692 0.0031550000000000003
5560 8.502768450000001 3.2799833100000004 -3.73338189 -0.000928 0.034079000000000005 0.0031550000000000003
5580 8.52731307 3.2546833200000003 -3.73009554 -0.0040950000000000005 0.040486 0.002056
5600 8.550817830000002 3.2512400100000005 -3.6782987400000002 -0.005195 0.035155 0.004192
5620 8.52926526 3.2736951000000003 -3.7068948900000005 -0.000937 0.033010000000000005 0.004224
5640 8.52731307 3.26081457 -3.71601819 0.00016299999999999998 0.041524 0.005289
5660 8.5202793 3.27518622 -3.7571907600000003 -0.000913 0.038336 0.004217
5680 8.50336686 3.3136610400000004 -3.74371182 0.000129 0.034067 0.005298
5700 8.46265536 3.29599323 -3.7173719700000003 0.000139 0.037259 0.006363000000000001
5720 8.485551899999999 3.30856965 -3.7305468000000004 -0.001995 0.037266 0.006348
5740 8.46280251 3.3551181 -3.7064436300000003 -0.002 0.036201 0.0063490000000000005
5760 8.50066911 3.29314833 -3.7377277200000005 -0.003062 0.039392 0.008473999999999999
5780 8.482707000000001 3.32383401 -3.69446562 -0.00198 0.040462 0.006344
5800 8.482559850000001 3.3521260500000007 -3.7157238900000005 -0.000923 0.039389 0.007421
5820 8.4596535 3.2945021100000003 -3.6697640400000004 -0.003052 0.038339 0.0052710000000000005
5840 8.49738276 3.29075469 -3.7684134 0.00015800000000000002 0.039398 0.004224
5860 8.529716520000001 3.30228144 -3.69716337 0.00016299999999999998 0.040463 0.004222
5880 8.49678435 3.29090184 -3.70629648 0.000168 0.042589 0.005288
5900 8.498579580000001 3.2977884600000005 -3.7223064000000003 -0.000904 0.040467 0.004215
5920 8.50142448 3.31859547 -3.72275766 0.002306 0.041525 0.003168
5940 8.47837098 3.3129154800000005 -3.7389245399999997 0.003373 0.04046 0.002108
5960 8.45546463 3.3033311100000002 -3.75973155 0.004425999999999999 0.037261 0.00212
5980 8.47222992 3.3066272700000003 -3.7558369799999998 0.004425999999999999 0.038322 0.003186
6000 8.502317190000001 3.294198 -3.7642245300000003 0.000144 0.036202 0.004228
6020 8.502768450000001 3.29584608 -3.74775354 -0.000928 0.036201 0.005288
6040 8.50785984 3.31575057 -3.7018035000000005 -0.000937 0.035132 0.006358
6060 8.50321971 3.29285403 -3.7071891900000002 0.0022440000000000003 0.03086 0.006385
6080 8.49453786 3.28491774 -3.6925232400000003 -0.000952 0.030875 0.005295
6100 8.49707865 3.2935995900000004 -3.7065907800000004 -0.003086 0.030883 0.00528
6120 8.486307270000001 3.2856633000000004 -3.7061395200000002 -0.004143 0.034078 0.006337
6140 8.51219586 3.29584608 -3.72096243 -0.002019 0.033001 0.007421
6160 8.5316589 3.30677442 -3.7142229600000003 -0.004162 0.031938999999999995 0.008476000000000001
6180 8.5319532 3.2970429 -3.7251513000000003 -0.000952 0.032997000000000005 0.007429000000000002
6200 8.50351401 3.2965916400000004 -3.70434429 0.000115 0.034054 0.008503
6220 8.480460509999999 3.2868601200000005 -3.70105794 0.005459 0.035105000000000004 0.0074709999999999985
6240 8.473279589999999 3.29734701 -3.70704204 0.002263 0.035121 0.006379999999999999
6260 8.486748720000001 3.2971900500000006 -3.7049427 0.004416 0.039374 0.00639
6280 8.51190156 3.2934524400000003 -3.72694653 0.003344 0.037252 0.0053170000000000005
6300 8.51190156 3.3120129600000006 -3.7203640200000003 0.001225 0.040455 0.005298
6320 8.508752549999999 3.3057247500000004 -3.74686083 0.002292 0.040451 0.005305
6340 8.51579613 3.30347826 -3.7251513000000003 0.001235 0.042586 0.005295
6360 8.47118025 3.2680053000000004 -3.72620097 -0.000918 0.038332 0.005286
6380 8.477772569999999 3.2620212 -3.72679938 -0.000923 0.037267 0.005287
6400 8.48196144 3.2715957600000003 -3.74356467 0.001215 0.038324 0.0053
6420 8.489142359999999 3.2823769499999997 -3.73997421 -0.000923 0.037267 0.005287
6440 8.51354964 3.3012317700000002 -3.7073363400000003 -0.0019760000000000003 0.040466 0.005275
6460 8.48824965 3.2790807900000005 -3.72605382 -0.001985 0.039397 0.006345
6480 8.478969390000001 3.28357377 -3.74086692 0.000144 0.037263 0.005294
6500 8.5171401 3.2873113800000002 -3.73069395 0.002282 0.03726 0.004241
6520 8.48346237 3.2983868700000003 -3.74296626 0.002292 0.03939 0.004238
6540 8.470140390000001 3.2921084700000005 -3.72919302 0.000153 0.038332 0.004225
6560 8.48750409 3.33162315 -3.7302426900000003 0.000149 0.036206 0.003159
6580 8.4972258 3.31021773 -3.73787487 0.001215 0.037263 0.004234
6600 8.52836274 3.2970429 -3.73997421 0.0012109999999999998 0.037259 0.005302
6620 8.51594328 3.2976413100000004 -3.7284474600000004 0.000139 0.035137 0.004229
6640 8.501865930000001 3.2832696600000006 -3.7220121000000006 0.000144 0.035141000000000006 0.003161
6660 8.51579613 3.2639635800000004 -3.7482048 0.001215 0.036202 0.003167
6680 8.514295200000001 3.2757846300000004 -3.72694653 -0.005186 0.038347000000000006 0.005256
6700 8.505907650000001 3.2522896800000005 -3.7166166 -0.0041140000000000005 0.038347000000000006 0.004195
6720 8.52447798 3.2844664800000003 -3.72455289 0.000139 0.036198 0.005296
6740 8.53270857 3.28207284 -3.70764045 0.002263 0.032999 0.004246
6760 8.486454420000001 3.2741365500000006 -3.7077876000000005 0.0033350000000000003 0.032999 0.003186
6780 8.49334104 3.30976647 -3.7360796400000003 0.002297 0.038334 0.0021030000000000003
6800 8.50905666 3.2883610500000007 -3.75778917 0.005488 0.037253 0.003195
6820 8.489299319999999 3.3087168000000005 -3.7332347400000003 0.0033590000000000004 0.035143 -2.2e-05
6840 8.494832160000001 3.2766871500000003 -3.74356467 0.0044210000000000005 0.037257 0.003188
6860 8.503670970000002 3.25752822 -3.7342844100000003 0.00016299999999999998 0.040463 0.004222
6880 8.53225731 3.2708502 -3.7426719600000005 -0.0019760000000000003 0.040466 0.005275
6900 8.50336686 3.27833523 -3.7350299700000003 -0.004124 0.037278 0.005265
6920 8.493939450000001 3.3015358800000003 -3.7396701 0.000149 0.035145 0.002092
6940 8.508909509999999 3.30916806 -3.7365309000000004 0.004406 0.033 0.002125
6960 8.49198726 3.2965916400000004 -3.7309882500000002 0.003364 0.037269 0.001044
6980 8.49602898 3.2698005300000004 -3.72904587 0.001215 0.036202 0.003167
7000 8.48884806 3.27893364 -3.7360796400000003 0.000129 0.033006 0.004231
7020 8.5086054 3.29195151 -3.72874176 -0.000947 0.034062 0.007427
7040 8.518032810000001 3.28102317 -3.76332201 -0.000923 0.037267 0.005287
7060 8.49887388 3.28221999 -3.75599394 -0.0008939999999999998 0.042597 0.004212
7080 8.502915600000001 3.2656116600000002 -3.74176944 0.00015800000000000002 0.04152 0.006357
7100 8.47373085 3.26530755 -3.7308411 0.002287 0.039386 0.005307
7120 8.4881025 3.2705460900000003 -3.7125748800000005 0.0033350000000000003 0.037243 0.007453
7140 8.50336686 3.29524767 -3.7528449299999997 0.0033490000000000004 0.036195 0.003182
7160 8.51130315 3.29075469 -3.75239367 0.00015800000000000002 0.039398 0.004224
7180 8.50950792 3.29734701 -3.73698216 -0.001966 0.040475 0.003139
7200 8.522378640000001 3.3120129600000006 -3.7534433400000005 0.001235 0.039403 0.002095
7220 8.523124200000002 3.2953948200000003 -3.7353340800000003 0.002311 0.039407 -3.4e-05
7240 8.489897730000001 3.27833523 -3.72859461 0.002311 0.04259 0.003166
7260 8.48495349 3.2638164300000003 -3.7238073300000005 0.000168 0.039406 0.0020870000000000003
7280 8.52132897 3.2495919300000002 -3.7565923500000005 0.000168 0.039406 0.0020870000000000003
7300 8.51848407 3.27353814 -3.72320892 -0.001966 0.040475 0.003139
7320 8.51204871 3.26710278 -3.75449301 0.001249 0.041537 0.001024
7340 8.500070700000002 3.27713841 -3.76810929 0.002311 0.040468 0.001033
7360 8.48105892 3.2832696600000006 -3.7749959100000003 0.002316 0.039412 -0.001103
7380 8.46968913 3.28806675 -3.7534433400000005 0.001259 0.041546 -0.001113
7400 8.48360952 3.2883610500000007 -3.74296626 -0.001942 0.042618 -6.8e-05
7420 8.50471083 3.31351389 -3.73038984 -0.00088 0.041549 -5.9e-05
7440 8.49528342 3.2775798600000003 -3.7272506400000003 0.000182 0.04048 -5.1e-05
7460 8.510704740000001 3.2715957600000003 -3.77559432 0.001235 0.038342 0.0010279999999999998
7480 8.51130315 3.2701046400000005 -3.7470079800000002 0.00016299999999999998 0.036219 -4.5e-05
7500 8.477772569999999 3.248091 -3.73383315 0.00016299999999999998 0.038341 0.002088
7520 8.51399109 3.2768343 -3.733686 -0.0008849999999999998 0.040484 -5.8e-05
7540 8.51309838 3.2795320500000003 -3.74281911 -0.00088 0.041549 -5.9e-05
7560 8.52043626 3.27039894 -3.72694653 -0.0008939999999999998 0.040475 0.002078
7580 8.502317190000001 3.2729397300000005 -3.7459583100000002 -0.001947 0.043675 0.0020670000000000003
7600 8.497824210000001 3.2537808000000004 -3.7272506400000003 -0.000875 0.043675 0.001006
7620 8.51114619 3.27324384 -3.74012136 -0.004065999999999999 0.046878 0.002048
7640 8.510106330000001 3.2757846300000004 -3.72455289 -0.001942 0.04474 0.002066
7660 8.496480240000002 3.29000913 -3.7383261300000004 0.001268 0.044737 -4.8e-05
7680 8.4972258 3.2778839700000004 -3.73877739 0.001268 0.045798 0.001018
7700 8.487798390000002 3.29015628 -3.7205111700000004 -0.000875 0.042614 -6.1e-05
7720 8.49439071 3.29524767 -3.74281911 0.004464 0.0426 -0.001092
7740 8.502170040000001 3.2540849100000004 -3.7500000300000003 0.005536 0.043661 -0.001086
7760 8.50785984 3.28462344 -3.7459583100000002 0.00445 0.040465 -2.1e-05
7780 8.51309838 3.28656582 -3.7284474600000004 0.002321 0.040477 -0.001104
7800 8.49992355 3.27893364 -3.7479105 -0.00088 0.041549 -5.9e-05
7820 8.50441653 3.2768343 -3.75074559 -0.000875 0.041553 -0.001128
7840 8.496333089999998 3.27099735 -3.7450656 -0.0008699999999999999 0.044741 0.001005
7860 8.49198726 3.27429351 -3.72949713 -0.003014 0.043679 0.002059
7880 8.50621176 3.2799833100000004 -3.74146533 -0.001971 0.038348 0.002074
7900 8.48750409 3.28776264 -3.71601819 0.00015800000000000002 0.036215 0.001023
7920 8.47597734 3.2829753600000005 -3.7363837500000003 0.003378 0.041526 0.002107
7940 8.49363534 3.29225562 -3.72590667 0.002311 0.040468 0.001033
7960 8.48734713 3.30138873 -3.72694653 -0.00409 0.042613 0.003121
7980 8.482707000000001 3.3036254100000004 -3.7214136900000003 -0.0008699999999999999 0.044741 0.001005
8000 8.50755573 3.2718998700000004 -3.71587104 0.000182 0.04048 -5.1e-05
8020 8.540792009999999 3.2894107200000002 -3.7673637300000005 0.006573999999999999 0.037266 -0.00107
8040 8.51204871 3.3346152 -3.72306177 0.006579000000000001 0.03727 -0.002138
8060 8.50950792 3.2934524400000003 -3.74102388 0.002354 0.04369 -0.005381
8080 8.48196144 3.2951005200000005 -3.73294044 0.002359 0.043694 -0.006449
8100 8.486905680000001 3.2879097900000005 -3.7187159400000005 0.003421 0.044747 -0.004306
8120 8.48406078 3.2787864900000003 -3.7252984500000004 0.00234 0.044738 -0.001109
8140 8.503670970000002 3.30467508 -3.7103382000000003 -0.000875 0.043675 0.001006
8160 8.52941241 3.2681524500000005 -3.71392866 -0.000889 0.041541 0.002077
8180 8.52821559 3.2672597400000005 -3.75059844 -0.0008939999999999998 0.040475 0.002078
8200 8.51489361 3.28192569 -3.7664710200000004 0.00122 0.037268 0.003165
8220 8.50785984 3.2980925700000006 -3.7444671900000004 0.001201 0.035129 0.005304
8240 8.49798117 3.33880407 -3.7178232300000005 0.000125 0.034063 0.006367
8260 8.483305410000002 3.306470310000001 -3.7094356800000003 0.000134 0.034071 0.004229999999999999
8280 8.47118025 3.3045279300000003 -3.74431023 -0.000923 0.036206 0.004220000000000001
8300 8.521780230000001 3.2977884600000005 -3.71407581 -0.003042 0.041531 0.006335
8320 8.51563917 3.2933052900000006 -3.7157238900000005 -0.005186 0.038347000000000006 0.005256
8340 8.51579613 3.29734701 -3.7194615 -0.004124 0.0394 0.007398
8360 8.494086600000001 3.2686037100000003 -3.7089844199999997 -0.001995 0.038327 0.0074150000000000015
8380 8.50815414 3.27922794 -3.71587104 0.000134 0.037254 0.007431
8400 8.49423375 3.30423363 -3.74131818 0.002258 0.034055 0.006381
8420 8.502317190000001 3.28027761 -3.71378151 0.004425999999999999 0.039383 0.004253
8440 8.4972258 3.28462344 -3.6797996700000004 0.002311 0.04259 0.003166
8460 8.505162089999999 3.31275852 -3.71048535 0.002311 0.041529 0.002099
8480 8.47837098 3.3325158600000004 -3.7250041500000006 0.002311 0.040468 0.001033
8500 8.48031336 3.31575057 -3.7166166 0.000177 0.040476 0.001018
8520 8.490044880000001 3.30168303 -3.7344315600000004 0.002316 0.041534 0.001031
8540 8.51219586 3.29285403 -3.73758057 0.003378 0.041526 0.002107
8560 8.51549202 3.2997406500000004 -3.72065832 0.005483 0.035127 0.00213
8580 8.50666302 3.26530755 -3.7374236100000005 0.005478 0.034061 0.002131
8600 8.51204871 3.2913531 -3.72125673 0.002282 0.034077 0.00104
8620 8.475378930000002 3.2838680700000005 -3.73218507 -0.000918 0.03621 0.003152
8640 8.47627164 3.2979454200000005 -3.7205111700000004 -0.002004 0.034075 0.005283
8660 8.51130315 3.3025855500000003 -3.7482048 -0.002004 0.035136 0.00635
8680 8.5145895 3.3033311100000002 -3.73877739 -0.006261999999999999 0.039403 0.008452
8700 8.50711428 3.28776264 -3.7125748800000005 -0.006229 0.045799 0.007375
8720 8.50935096 3.27608874 -3.73338189 0.000177 0.045781 0.006352
8740 8.52836274 3.30617601 -3.7266522300000005 0.002263 0.035121 0.006379999999999999
8760 8.50396527 3.2997406500000004 -3.7208152800000005 0.0033350000000000003 0.03406 0.004253
8780 8.49274263 3.3058719 -3.73009554 0.0033350000000000003 0.03406 0.004253
8800 8.47478052 3.3187524300000004 -3.7226105100000004 0.002287 0.038325 0.00424
8820 8.50082607 3.30138873 -3.7166166 0.00016299999999999998 0.039402 0.0031550000000000003
8840 8.517885660000001 3.32383401 -3.72125673 0.001215 0.036202 0.003167
8860 8.53211016 3.2933052900000006 -3.7221592500000003 0.005473 0.032996 0.002132
8880 8.51354964 3.3163489800000003 -3.7450656 0.004411 0.033004 0.001057
8900 8.491545810000002 3.2808760200000004 -3.71407581 0.004416 0.034069 0.0010550000000000002
8920 8.498275470000001 3.2995836899999995 -3.7190200500000006 0.0012109999999999998 0.036198 0.004235
8940 8.46594171 3.2805817200000003 -3.7277019 0.0012109999999999998 0.037259 0.005302
8960 8.50845825 3.2518384200000003 -3.71018124 -0.0019760000000000003 0.038344 0.0031420000000000003
8980 8.49992355 3.29524767 -3.7046484 0.001225 0.039394 0.004231
9000 8.523124200000002 3.3012317700000002 -3.73787487 -0.000909 0.03834 0.003149
9020 8.52747003 3.28986198 -3.7173719700000003 -0.0019760000000000003 0.038344 0.0031420000000000003
9040 8.49738276 3.30228144 -3.77245512 0.00016299999999999998 0.039402 0.0031550000000000003
9060 8.48001906 3.2903034300000003 -3.7362267900000004 -0.000889 0.042602 0.003144
9080 8.47851813 3.2953948200000003 -3.71093661 -0.003033 0.039417 0.002065
9100 8.50530924 3.29090184 -3.72440574 -0.0008699999999999999 0.045802 0.002072
9120 8.524772279999999 3.3043807800000002 -3.7145270700000004 -0.000904 0.038345 0.002081
9140 8.51683599 3.3018301800000005 -3.7073363400000003 -0.00199 0.035148 0.003146
9160 8.487651240000002 3.30378237 -3.71213343 -0.0041140000000000005 0.04153 0.007396
9180 8.47837098 3.26425788 -3.7365309000000004 -0.009468 0.041532 0.011631
9200 8.48360952 3.25497762 -3.7396701 -0.004162 0.034061 0.01061
9220 8.514442350000001 3.27039894 -3.74311341 0.004382 0.0351 0.0096
9240 8.494832160000001 3.26590596 -3.70599237 0.002273 0.037251 0.006377000000000001
9260 8.501571629999999 3.2910588 -3.7233560700000004 0.005469 0.032992 0.003201
9280 8.48540475 3.2965916400000004 -3.74640957 0.004411 0.037248 0.005324000000000001
9300 8.50142448 3.2976413100000004 -3.74057262 0.004397 0.032991 0.004261
9320 8.46474489 3.3045279300000003 -3.7390716900000003 0.004392 0.031926 0.004263
9340 8.47313244 3.2621683500000005 -3.76826625 0.001215 0.038324 0.0053
9360 8.53883982 3.31919388 -3.72994839 -0.000909 0.03834 0.003149
9380 8.509949370000001 3.2915100600000007 -3.6988114500000004 0.002273 0.035129 0.004244
9400 8.54467677 3.2630610600000005 -3.7471551300000003 0.001196 0.036185 0.00744
9420 8.52073056 3.31216011 -3.74341752 0.000134 0.035132 0.005297
9440 8.49064329 3.31650594 -3.7390716900000003 0.00016299999999999998 0.038341 0.002088
9460 8.49662739 3.28522185 -3.72455289 -0.001952 0.04261 0.002068
9480 8.48734713 3.31620183 -3.6531557100000005 0.001196 0.029819 0.001038
9500 8.48121588 3.3175556100000003 -3.7284474600000004 0.001182 0.029807 0.004243
9520 8.50695732 3.2921084700000005 -3.7339803000000003 0.001182 0.03299 0.007444
9540 8.50935096 3.3028798500000005 -3.72874176 -0.000942 0.035128 0.007426
9560 8.47762542 3.2855161500000003 -3.75599394 -0.002 0.036201 0.0063490000000000005
9580 8.506358910000001 3.24899352 -3.7664710200000004 0.00012 0.032998 0.006368
9600 8.51264712 3.2621683500000005 -3.7419165899999998 0.0012109999999999998 0.037259 0.005302
9620 8.52073056 3.26441484 -3.7350299700000003 0.00334 0.035125 0.004251
9640 8.51728725 3.27608874 -3.73982706 0.000144 0.037263 0.005294
9660 8.48450223 3.2648562900000004 -3.71976561 -0.000909 0.039401 0.004215999999999999
9680 8.50771269 3.25857789 -3.74162229 0.001215 0.038324 0.0053
9700 8.49798117 3.2817785400000004 -3.73218507 -0.001961 0.04154 0.003138
9720 8.52447798 3.2886651600000003 -3.72889872 -0.001952 0.044732 0.004202
9740 8.489446470000003 3.2986909800000004 -3.69192483 -0.000889 0.042602 0.003144
9760 8.486003160000001 3.28491774 -3.73009554 -0.000904 0.040467 0.004215
9780 8.494832160000001 3.2768343 -3.7360796400000003 -0.000904 0.039406 0.003148
9800 8.51699295 3.2705460900000003 -3.7296442800000005 0.000168 0.041528 0.004221
9820 8.493939450000001 3.27803112 -3.7145270700000004 0.000168 0.039406 0.0020870000000000003
9840 8.49468501 3.27713841 -3.7377277200000005 0.001225 0.038333 0.003164
9860 8.49439071 3.2879097900000005 -3.74775354 0.00123 0.039398 0.003163
9880 8.48899521 3.2775798600000003 -3.7880235900000003 0.001235 0.039403 0.002095
9900 8.500227660000002 3.27429351 -3.7441630800000003 0.001225 0.038333 0.003164
9920 8.490348990000001 3.29000913 -3.7449086400000007 0.00123 0.038337 0.002096
9940 8.492889779999999 3.28027761 -3.7296442800000005 -0.000909 0.039401 0.004215999999999999
9960 8.47641879 3.27534318 -3.7368252 -0.00198 0.037279 0.003143
9980 8.484207930000002 3.2873113800000002 -3.7419165899999998 -0.001971 0.04047 0.004207
10000 8.50246434 3.28102317 -3.72979143 -0.001966 0.040475 0.003139
10020 8.48360952 3.2903034300000003 -3.71797038 -0.001961 0.040479 0.002071
10040 8.521181819999999 3.27608874 -3.7115350200000004 -0.0008939999999999998 0.040475 0.002078
10060 8.50695732 3.2825241000000003 -3.7480576500000002 -0.0008939999999999998 0.039414 0.001011
10080 8.539143930000002 3.2804247600000003 -3.74775354 0.001244 0.040472 0.001025
10100 8.51922963 3.25992186 -3.7534433400000005 0.000173 0.039411 0.001019
10120 8.49258567 3.2635123200000002 -3.7175191200000004 0.001249 0.040476 -4.3e-05
10140 8.49274263 3.2775798600000003 -3.73218507 0.001268 0.044737 -4.8e-05
10160 8.511597450000002 3.2921084700000005 -3.7365309000000004 -0.0008699999999999999 0.04368 -6.2e-05
10180 8.49932514 3.27654 -3.7450656 0.001244 0.040472 0.001025
10200 8.503670970000002 3.2953948200000003 -3.7558369799999998 0.000182 0.039419 -0.001117
10220 8.505907650000001 3.2682996 -3.7368252 0.001249 0.041537 0.001024
10240 8.500227660000002 3.30048621 -3.74610546 0.000192 0.042611 -5.3e-05
10260 8.502768450000001 3.2739894000000005 -3.7432703700000003 -0.0008849999999999998 0.041545 0.001009
10280 8.491388850000002 3.2947964100000005 -3.7528449299999997 0.000173 0.039411 0.001019
10300 8.478223830000001 3.2828282100000004 -3.7312923600000003 -0.001971 0.037287 0.001007
10320 8.498275470000001 3.2668084800000003 -3.73877739 -0.001942 0.041557 -0.001135
10340 8.52267294 3.2645619900000002 -3.7565923500000005 -0.0008699999999999999 0.044741 0.001005
10360 8.521780230000001 3.2665043700000003 -3.74102388 -0.0008939999999999998 0.039414 0.001011
10380 8.514442350000001 3.28192569 -3.73578534 0.000153 0.037271 0.003158
10400 8.513696790000001 3.2682996 -3.73997421 0.002282 0.036199 0.003174
10420 8.518032810000001 3.27893364 -3.75314904 0.002311 0.040468 0.001033
10440 8.490348990000001 3.2784823800000003 -3.72679938 0.003373 0.04046 0.002108
10460 8.471778660000002 3.30079032 -3.73667805 0.001244 0.040472 0.001025
10480 8.50815414 3.29075469 -3.7305468000000004 0.000187 0.042606 0.001015
10500 8.4972258 3.30318396 -3.7411710300000003 0.001254 0.041542 -4.4e-05
10520 8.46624582 3.28162158 -3.7396701 0.001268 0.044737 -4.8e-05
10540 8.48346237 3.30602886 -3.7344315600000004 0.000201 0.044741 -5.600000000000001e-05
10560 8.54093916 3.2832696600000006 -3.74461434 0.001254 0.042603 0.001022
10580 8.487798390000002 3.2886651600000003 -3.72919302 0.002321 0.042599 0.00103
10600 8.52386976 3.2943451500000003 -3.7154197800000004 0.001259 0.042607 -4.6e-05
10620 8.50935096 3.30706872 -3.7339803000000003 -0.001932 0.042627 -0.002205
10640 8.487798390000002 3.2888123100000004 -3.72710349 0.001259 0.041546 -0.001113
10660 8.50097322 3.2903034300000003 -3.72096243 0.002321 0.041538 -3.7e-05
10680 8.495136270000001 3.2793849000000006 -3.7226105100000004 0.001268 0.043676 -0.001115
10700 8.50441653 3.27713841 -3.6985073400000004 0.001263 0.043672 -4.7e-05
10720 8.500070700000002 3.2748919200000004 -3.7491073200000002 0.001259 0.041546 -0.001113
10740 8.493782490000001 3.2953948200000003 -3.7226105100000004 -0.001932 0.043688 -0.001138
10760 8.505907650000001 3.2939037000000004 -3.73338189 -0.0008609999999999999 0.044749 -0.001132
10780 8.494832160000001 3.29374674 -3.7332347400000003 -0.0008609999999999999 0.044749 -0.001132
10800 8.49348819 3.2994365400000003 -3.7211095800000002 0.000197 0.042615 -0.001121
10820 8.48705283 3.3268358700000005 -3.72065832 0.000177 0.039415 -4.9e-05
10840 8.47762542 3.30976647 -3.7453599000000004 0.001235 0.038342 0.0010279999999999998
10860 8.477772569999999 3.2965916400000004 -3.7145270700000004 0.000182 0.041541 0.001016
10880 8.51728725 3.29464926 -3.7217079900000005 0.001254 0.040481 -0.001111
10900 8.47971495 3.2840250300000005 -3.72859461 -0.000889 0.039419 -5.7e-05
10920 8.52447798 3.28221999 -3.7166166 0.001259 0.041546 -0.001113
10940 8.5404879 3.28102317 -3.74296626 -0.00088 0.041549 -5.9e-05
10960 8.526116250000001 3.28221999 -3.7263481200000004 0.001249 0.040476 -4.3e-05
10980 8.51295123 3.2921084700000005 -3.71213343 0.002311 0.039407 -3.4e-05
11000 8.50351401 3.2850648900000006 -3.70853316 0.001249 0.040476 -4.3e-05
11020 8.494989120000001 3.3027327000000004 -3.71976561 -0.0008699999999999999 0.042619 -0.001129
11040 8.47851813 3.3172515000000002 -3.72919302 0.000192 0.043672 0.001014
11060 8.515187910000002 3.2992893899999998 -3.7326363300000005 0.000192 0.042611 -5.3e-05
11080 8.515187910000002 3.3179970600000006 -3.69596655 0.002306 0.038342 -3.3e-05
11100 8.501571629999999 3.3033311100000002 -3.7342844100000003 0.001225 0.03515 -3.6e-05
11120 8.486748720000001 3.3156034200000004 -3.7308411 0.001235 0.037281 -3.9e-05
11140 8.48959362 3.28926357 -3.71482137 0.002311 0.038346 -0.001101
11160 8.51054778 3.29464926 -3.7296442800000005 0.00015800000000000002 0.036215 0.001023
11180 8.512352819999998 3.30079032 -3.7344315600000004 0.002263 0.03406 0.005313
11200 8.50112037 3.2998878000000005 -3.70883727 0.00012 0.031937 0.005301
11220 8.519985 3.28312251 -3.70883727 -0.003076 0.036196 0.008478
11240 8.50441653 3.3078240900000004 -3.70988694 -0.001995 0.039388 0.008481
11260 8.509802220000001 3.2829753600000005 -3.69821304 0.003325 0.034052 0.006389
11280 8.517885660000001 3.2979454200000005 -3.71108376 0.002249 0.032986 0.007451
11300 8.48824965 3.2832696600000006 -3.73114521 0.001215 0.038324 0.0053
11320 8.486150310000001 3.3141123000000006 -3.73069395 -0.000923 0.038328 0.006354
11340 8.49558753 3.3073728300000003 -3.72096243 -0.001985 0.037275 0.004211
11360 8.50771269 3.31455375 -3.70165635 0.00015800000000000002 0.038337 0.003157
11380 8.512352819999998 3.3094721700000003 -3.71512548 0.001225 0.038333 0.003164
11400 8.49229137 3.336410430000001 -3.7034515800000003 0.004411 0.034065 0.002124
11420 8.510704740000001 3.3114145500000003 -3.7061395200000002 0.0033490000000000004 0.036195 0.003182
11440 8.47612449 3.3214403700000004 -3.7420637400000003 0.003354 0.038321 0.004247
11460 8.4735837 3.294198 -3.7131831 0.000144 0.037263 0.005294
11480 8.477772569999999 3.3028798500000005 -3.71108376 0.00122 0.038329 0.004232
11500 8.52192738 3.2924027700000003 -3.7407197700000006 0.002311 0.043651 0.004233
11520 8.51504076 3.30617601 -3.6896783400000004 -0.000909 0.041523 0.00635
11540 8.49602898 3.3223428900000003 -3.72605382 -0.000909 0.040462 0.005283
11560 8.502915600000001 3.3257862 -3.72306177 -0.0040950000000000005 0.04473 0.006323
11580 8.511597450000002 3.3172515000000002 -3.75538572 -0.0040950000000000005 0.043669 0.005257
11600 8.478822240000001 3.3371559900000003 -3.69461277 -0.000933 0.034075 0.004222999999999999
11620 8.45981046 3.3175556100000003 -3.7344315600000004 0.005449 0.029792000000000006 0.004273
11640 8.486454420000001 3.3033311100000002 -3.7187159400000005 0.004411 0.035126 0.00319
11660 8.5228299 3.2967486000000004 -3.7252984500000004 -0.0008939999999999998 0.040475 0.002078
11680 8.51848407 3.2903034300000003 -3.7082388600000002 -0.003038 0.040474 0.0042
11700 8.51982804 3.27654 -3.72290481 -0.001966 0.041536 0.0042060000000000005
11720 8.51295123 3.2838680700000005 -3.7203640200000003 -0.000918 0.038332 0.005286
11740 8.48406078 3.25497762 -3.7284474600000004 0.001215 0.038324 0.0053
11760 8.48406078 3.28013046 -3.73787487 0.000173 0.042594 0.004220000000000001
11780 8.48884806 3.3302791800000002 -3.7200599100000002 -0.0030280000000000003 0.041544 0.00313
11800 8.503818120000002 3.32413812 -3.7277019 -0.001971 0.039409 0.00314
11820 8.510999040000002 3.30063336 -3.73982706 0.000173 0.039411 0.001019
11840 8.54423532 3.3184483200000003 -3.7283003100000003 0.002292 0.038329 0.003172
11860 8.49019203 3.33880407 -3.7047955500000005 0.0033350000000000003 0.03406 0.004253
11880 8.47627164 3.31471071 -3.71048535 0.0012109999999999998 0.036198 0.004235
11900 8.50426938 3.3371559900000003 -3.7341372600000002 0.00122 0.037268 0.003165
11920 8.52297705 3.30033906 -3.74012136 0.000149 0.036206 0.003159
11940 8.52941241 3.26006901 -3.7252984500000004 0.002268 0.035125 0.005312
11960 8.50785984 3.2524368299999997 -3.70554111 0.002249 0.032986 0.007451
11980 8.48360952 3.27982635 -3.7217079900000005 0.001196 0.035124 0.006372999999999999
12000 8.506064610000001 3.2711445000000006 -3.71826468 -0.000904 0.040467 0.004215
12020 8.51295123 3.2943451500000003 -3.71512548 0.001239 0.04259 0.004227000000000001
12040 8.50920381 3.3045279300000003 -3.71137806 0.00016299999999999998 0.040463 0.004222
12060 8.526714660000001 3.30213429 -3.6926703900000004 0.001239 0.041529 0.00316
12080 8.50530924 3.3205476600000003 -3.73069395 0.003373 0.042582 0.004242
12100 8.48854395 3.3169572 -3.72306177 0.003368 0.039395 0.002109
12120 8.49274263 3.3410505600000007 -3.7473120900000003 0.00122 0.036207 0.002099
12140 8.49992355 3.3015358800000003 -3.7293401700000004 0.0044020000000000005 0.034057 0.00426
12160 8.52491943 3.2997406500000004 -3.7351869300000002 0.002278 0.035133 0.003176
12180 8.49812832 3.31590753 -3.6914735700000003 0.001206 0.036194 0.005303
12200 8.495136270000001 3.3126113700000004 -3.73863024 -0.002004 0.034075 0.005283
12220 8.479116540000001 3.3120129600000006 -3.73863024 -0.002004 0.033014 0.004217
12240 8.50082607 3.28895946 -3.7077876000000005 -0.002009 0.03407 0.006352
12260 8.505162089999999 3.25617444 -3.72156084 -0.003057 0.037274 0.005272
12280 8.507261430000002 3.2717429100000004 -3.7094356800000003 -0.0041 0.042604 0.005258
12300 8.52163308 3.26905497 -3.69745767 -0.00409 0.041552 0.002055
12320 8.51309838 3.2921084700000005 -3.75119685 -0.003033 0.040478 0.003132
12340 8.507408580000002 3.2956989300000004 -3.7211095800000002 -0.0008849999999999998 0.042606 0.002076
12360 8.49229137 3.2924027700000003 -3.71646945 0.001254 0.042603 0.001022
12380 8.49019203 3.3078240900000004 -3.7308411 0.002316 0.040473 -3.6e-05
12400 8.49707865 3.33057348 -3.7124277300000004 0.004445 0.040461 0.001047
12420 8.508752549999999 3.3450922800000003 -3.7034515800000003 0.004435000000000001 0.039391 0.002117
12440 8.49752991 3.3214403700000004 -3.74146533 0.005488 0.036192 0.002128
12460 8.48465919 3.3271301700000007 -3.73698216 0.005478 0.033 0.001064
12480 8.50082607 3.3232356000000003 -3.71228058 0.002282 0.03726 0.004241
12500 8.4852576 3.3281798400000002 -3.7296442800000005 0.001215 0.038324 0.0053
12520 8.4972258 3.2829753600000005 -3.7320379200000002 -0.000928 0.036201 0.005288
12540 8.51204871 3.2811801300000005 -3.72186495 -0.001985 0.037275 0.004211
12560 8.52462513 3.2627667600000003 -3.7342844100000003 -0.001995 0.037266 0.006348
12580 8.51295123 3.25138716 -3.7312923600000003 -0.000923 0.037267 0.005287
12600 8.49992355 3.2656116600000002 -3.74057262 -0.001995 0.036205 0.005281
12620 8.49453786 3.2873113800000002 -3.7422207 -0.004138 0.036204 0.007402
12640 8.498726730000001 3.30677442 -3.75538572 -0.003105 0.028743 0.0074189999999999985
12660 8.50142448 3.3296807700000004 -3.7170678600000002 -0.002009 0.031948000000000004 0.004218
12680 8.501571629999999 3.3172515000000002 -3.7170678600000002 -0.000913 0.036214 0.002084
12700 8.496333089999998 3.32279415 -3.72784905 -0.001985 0.036214 0.003144
12720 8.50785984 3.3421002300000002 -3.71003409 0.0022440000000000003 0.029799000000000006 0.005319
12740 8.494989120000001 3.32203878 -3.73578534 0.00223 0.027664 0.006389
12760 8.48884806 3.30887376 -3.73189077 0.005449 0.030853 0.00534
12780 8.497677060000001 3.3151521600000002 -3.7208152800000005 0.0044020000000000005 0.036179 0.006394
12800 8.500070700000002 3.2934524400000003 -3.733686 0.004411 0.036187 0.004257
12820 8.51279427 3.27099735 -3.74042547 0.00333 0.034056 0.005321
12840 8.489740770000001 3.28462344 -3.7142229600000003 0.0012109999999999998 0.03832 0.006369
12860 8.49618594 3.27594159 -3.7266522300000005 0.0033590000000000004 0.039387 0.004246
12880 8.51309838 3.28895946 -3.7077876000000005 0.001235 0.040464 0.003161
12900 8.49348819 3.27982635 -3.72096243 0.00123 0.040459 0.004229999999999999
12920 8.484355080000002 3.3229413000000005 -3.71587104 0.000149 0.037267 0.004226
12940 8.494989120000001 3.27563748 -3.7254554100000004 0.00015800000000000002 0.039398 0.004224
12960 8.49678435 3.3187524300000004 -3.74356467 0.00016299999999999998 0.040463 0.004222
12980 8.503670970000002 3.3126113700000004 -3.7381789800000003 -0.0019760000000000003 0.039405 0.004209
13000 8.50755573 3.32743428 -3.7281433500000003 -0.000933 0.035136 0.00529
13020 8.468188200000002 3.2894107200000002 -3.72590667 -0.000928 0.036201 0.005288
13040 8.468188200000002 3.2805817200000003 -3.74042547 0.000144 0.036202 0.004228
13060 8.50336686 3.2838680700000005 -3.7564353900000005 0.000129 0.034067 0.005298
13080 8.49318408 3.26965338 -3.71826468 0.001206 0.036194 0.005303
13100 8.48734713 3.25752822 -3.7350299700000003 0.000149 0.037267 0.004226
13120 8.48884806 3.2876154900000003 -3.74102388 -0.000909 0.03834 0.003149
13140 8.50246434 3.2858202600000004 -3.74954877 0.000153 0.038332 0.004225
13160 8.49992355 3.28955787 -3.7510497000000003 0.000153 0.038332 0.004225
13180 8.503818120000002 3.2934524400000003 -3.74371182 -0.00198 0.03834 0.00421
13200 8.494832160000001 3.3132097800000007 -3.7119764699999998 0.000153 0.038332 0.004225
13220 8.4972258 3.28895946 -3.71722482 0.000149 0.037267 0.004226
13240 8.514295200000001 3.28656582 -3.7339803000000003 0.002278 0.036194 0.004242
13260 8.50082607 3.3108161400000005 -3.70419714 0.001215 0.037263 0.004234
13280 8.490348990000001 3.3025855500000003 -3.71497833 0.000149 0.037267 0.004226
13300 8.48824965 3.28701708 -3.75359049 0.0012109999999999998 0.036198 0.004235
13320 8.50530924 3.2597747100000003 -3.7377277200000005 0.0012109999999999998 0.037259 0.005302
13340 8.5083111 3.27534318 -3.7538946 -0.000909 0.040462 0.005283
13360 8.52132897 3.2714486100000006 -3.7534433400000005 -0.000904 0.039406 0.003148
13380 8.498422620000001 3.27039894 -3.73218507 -0.00198 0.039401 0.005277
13400 8.52192738 3.2729397300000005 -3.7479105 0.00015800000000000002 0.039398 0.004224
13420 8.50246434 3.28910661 -3.72979143 -0.0008990000000000002 0.040471 0.003147
13440 8.49019203 3.26785815 -3.74131818 0.00122 0.037268 0.003165
13460 8.51414805 3.28776264 -3.7419165899999998 0.002282 0.036199 0.003174
13480 8.49707865 3.30527349 -3.7580834700000003 -0.000909 0.039401 0.004215999999999999
13500 8.49588183 3.2951005200000005 -3.72874176 -0.001956 0.040483 0.001003
13520 8.49752991 3.2840250300000005 -3.7456640100000005 0.00015800000000000002 0.038337 0.003157
13540 8.484355080000002 3.2778839700000004 -3.7332347400000003 0.001206 0.034072000000000005 0.003169
13560 8.51204871 3.28072887 -3.7309882500000002 0.001196 0.033002 0.004239
13580 8.500227660000002 3.2906075400000003 -3.75568983 0.0033350000000000003 0.036182 0.006386
13600 8.50112037 3.2787864900000003 -3.73982706 0.001215 0.037263 0.004234
13620 8.477919720000001 3.28522185 -3.7580834700000003 0.00333 0.034056 0.005321
13640 8.50456368 3.2964444900000003 -3.72096243 0.002263 0.03406 0.005313
13660 8.49678435 3.28955787 -3.7459583100000002 0.00015800000000000002 0.040459 0.00529
13680 8.496333089999998 3.28462344 -3.75090255 -0.0008990000000000002 0.042593 0.00528
13700 8.50681017 3.2871642300000006 -3.75733791 -0.0008990000000000002 0.041532 0.004213000000000001
13720 8.49932514 3.29599323 -3.74476149 0.00015800000000000002 0.040459 0.00529
13740 8.47971495 3.27982635 -3.74521275 -0.000904 0.040467 0.004215
13760 8.498275470000001 3.2793849000000006 -3.7685605500000006 -0.0008939999999999998 0.040475 0.002078
13780 8.49229137 3.3115617 -3.7800873000000004 0.000187 0.043667 0.002082
13800 8.50561335 3.2903034300000003 -3.7335388500000004 0.000177 0.042598 0.003151
13820 8.528519700000002 3.31007058 -3.75090255 0.001235 0.038342 0.0010279999999999998
13840 8.47237707 3.30019191 -3.7330875900000002 0.000173 0.040472 0.002086
13860 8.49738276 3.2787864900000003 -3.7479105 0.003378 0.041526 0.002107
13880 8.498726730000001 3.2766871500000003 -3.74670387 0.003383 0.040469 -2.8000000000000006e-05
13900 8.49423375 3.2808760200000004 -3.75239367 0.003364 0.03833 0.002111
13920 8.49528342 3.26635722 -3.7330875900000002 0.001235 0.039403 0.002095
13940 8.500374810000002 3.2528880900000003 -3.7663140600000014 -0.0008939999999999998 0.041536 0.003145
13960 8.502768450000001 3.2793849000000006 -3.7709541900000003 -0.001952 0.041549 0.001001
13980 8.483305410000002 3.29615019 -3.7610755200000003 -0.000904 0.038345 0.002081
14000 8.50066911 3.27534318 -3.76810929 0.00015800000000000002 0.037276 0.00209
14020 8.498726730000001 3.31066899 -3.72859461 0.0033590000000000004 0.037265 0.002112
14040 8.47507482 3.2858202600000004 -3.75239367 0.00016299999999999998 0.038341 0.002088
14060 8.49214422 3.2787864900000003 -3.73758057 -0.000909 0.037279 0.002082
14080 8.50097322 3.28806675 -3.7350299700000003 -0.000918 0.03621 0.003152
14100 8.50321971 3.3048320400000004 -3.74521275 0.00016299999999999998 0.038341 0.002088
14120 8.47612449 3.28312251 -3.75942744 0.000177 0.041537 0.002084
14140 8.4972258 3.28192569 -3.75898599 0.001244 0.040472 0.001025
14160 8.50486779 3.2680053000000004 -3.74775354 -0.000889 0.04048 0.00101
14180 8.517885660000001 3.2837209200000004 -3.72455289 -0.000889 0.041541 0.002077
14200 8.486905680000001 3.27713841 -3.7293401700000004 -0.00088 0.04261 0.001007
14220 8.4969315 3.2786295300000003 -3.74176944 0.0012779999999999998 0.045807 -0.001118
14240 8.49318408 3.2811801300000005 -3.7407197700000006 0.001263 0.042611 -0.001114
14260 8.48450223 3.2933052900000006 -3.7380220200000003 0.001254 0.040481 -0.001111
14280 8.4795678 3.2979454200000005 -3.7631748600000003 0.003397 0.043665 -3.2e-05
14300 8.49184011 3.31066899 -3.73758057 -0.000875 0.044736 0.002073
14320 8.50530924 3.30063336 -3.73248918 0.002297 0.036212 -3e-05
14340 8.49602898 3.2971900500000006 -3.75359049 0.00123 0.037276 0.001029
14360 8.50171878 3.2897050200000004 -3.7565923500000005 -0.001952 0.039427 -0.001132
14380 8.5026213 3.28013046 -3.73712931 -0.004079999999999999 0.042621 0.000985
14400 8.49303693 3.2656116600000002 -3.72919302 0.00016299999999999998 0.039402 0.0031550000000000003
14420 8.48495349 3.2778839700000004 -3.7519522200000006 0.000149 0.036206 0.003159
14440 8.4969315 3.2747447700000003 -3.74176944 0.002273 0.034068 0.003177
14460 8.494086600000001 3.28522185 -3.7479105 0.002297 0.040456 0.004237
14480 8.51489361 3.30887376 -3.73009554 0.002302 0.04046 0.003169
14500 8.498275470000001 3.28701708 -3.74012136 0.002311 0.041529 0.002099
14520 8.4883968 3.29015628 -3.73338189 0.001239 0.040468 0.002093
14540 8.486150310000001 3.3033311100000002 -3.7522465200000004 0.001249 0.042598 0.002091
14560 8.51639454 3.30706872 -3.7422207 0.000206 0.045806 -5.7e-05
14580 8.503818120000002 3.30213429 -3.72065832 0.000187 0.041545 -5.2e-05
14600 8.476870049999999 3.29464926 -3.7320379200000002 0.000192 0.04155 -0.00112
14620 8.46938502 3.2904603900000002 -3.74296626 0.002311 0.040468 0.001033
14640 8.52297705 3.3028798500000005 -3.77903763 0.001249 0.040476 -4.3e-05
14660 8.49243852 3.3202435500000003 -3.74296626 0.001249 0.040476 -4.3e-05
14680 8.50336686 3.31485786 -3.7500000300000003 0.001225 0.037272 0.002097
14700 8.48870091 3.31904673 -3.7480576500000002 0.002292 0.036207 0.001038
14720 8.455170330000001 3.29225562 -3.7396701 0.00015800000000000002 0.038337 0.003157
14740 8.465500259999999 3.2894107200000002 -3.72994839 0.000168 0.040467 0.003154
14760 8.494989120000001 3.2711445000000006 -3.7598787000000002 -0.003033 0.040478 0.003132
14780 8.54093916 3.2747447700000003 -3.7193143500000003 -0.0019760000000000003 0.040466 0.005275
14800 8.506358910000001 3.2805817200000003 -3.742515 0.000149 0.037267 0.004226
14820 8.50785984 3.29195151 -3.7489503600000003 0.001196 0.035124 0.006372999999999999
14840 8.49334104 3.2714486100000006 -3.73877739 0.002263 0.03406 0.005313
14860 8.49588183 3.2871642300000006 -3.73069395 0.002258 0.032994 0.005315
14880 8.48540475 3.31949799 -3.7184216400000003 0.000139 0.037259 0.006363000000000001
14900 8.48705283 3.31949799 -3.7224633600000003 -0.000923 0.037267 0.005287
14920 8.49318408 3.30766713 -3.7353340800000003 -0.00199 0.03727 0.005279
14940 8.48105892 3.3010846200000006 -3.72306177 0.000139 0.037259 0.006363000000000001
14960 8.50905666 3.2965916400000004 -3.7444671900000004 -0.000913 0.039397 0.0052840000000000005
14980 8.50695732 3.30392952 -3.72560256 -0.000909 0.041523 0.00635
15000 8.510106330000001 3.3018301800000005 -3.7143799200000003 0.001225 0.040455 0.005298
15020 8.49274263 3.28192569 -3.74281911 -0.0008990000000000002 0.040471 0.003147
15040 8.49423375 3.27817827 -3.7363837500000003 0.00016299999999999998 0.039402 0.0031550000000000003
15060 8.51130315 3.29000913 -3.71646945 0.001235 0.041525 0.004228
15080 8.49602898 3.3138081900000005 -3.7453599000000004 0.00122 0.036207 0.002099
15100 8.49243852 3.3184483200000003 -3.72290481 0.00334 0.034064 0.003184
15120 8.46325377 3.3163489800000003 -3.71766627 0.004392 0.031926 0.004263
15140 8.47762542 3.32203878 -3.74386878 0.002278 0.034072000000000005 0.002109
15160 8.500374810000002 3.32383401 -3.7420637400000003 0.000149 0.036206 0.003159
15180 8.50486779 3.32279415 -3.73294044 -0.000942 0.034067 0.006359
15200 8.50695732 3.3012317700000002 -3.74162229 -0.000933 0.035136 0.00529
15220 8.505162089999999 3.28431933 -3.74940162 -0.000933 0.036197 0.0063560000000000005
15240 8.48181429 3.2956989300000004 -3.74970573 -0.000928 0.038323 0.007422
15260 8.49229137 3.28102317 -3.7351869300000002 0.000134 0.037254 0.007431
15280 8.50755573 3.28477059 -3.7211095800000002 0.0033350000000000003 0.035121 0.005319
15300 8.50785984 3.28221999 -3.7482048 0.004397 0.035113 0.0063950000000000005
15320 8.50066911 3.31216011 -3.73982706 0.002268 0.036186 0.006379
15340 8.494989120000001 3.30766713 -3.73548123 0.004397 0.034052 0.005328
15360 8.517885660000001 3.2970429 -3.7395229500000005 0.002278 0.036194 0.004242
15380 8.498275470000001 3.3028798500000005 -3.7281433500000003 -0.000913 0.038336 0.004217
15400 8.49887388 3.31620183 -3.7309882500000002 -0.003018 0.042613 0.002061
15420 8.49439071 3.29285403 -3.72859461 -0.001947 0.043675 0.0020670000000000003
15440 8.519533740000002 3.3073728300000003 -3.7383261300000004 0.000177 0.042598 0.003151
15460 8.49932514 3.29314833 -3.73712931 0.001225 0.039394 0.004231
15480 8.50905666 3.30766713 -3.74296626 0.002268 0.035125 0.005312
15500 8.50441653 3.30512634 -3.7528449299999997 0.001201 0.034068 0.004238
15520 8.47253403 3.27623589 -3.71378151 0.002287 0.037264 0.003173
15540 8.485551899999999 3.2805817200000003 -3.72440574 0.002297 0.038334 0.0021030000000000003
15560 8.49439071 3.2694964200000003 -3.7360796400000003 0.003354 0.038321 0.004247
15580 8.50097322 3.28132728 -3.72320892 -0.000913 0.037275 0.003151
15600 8.50486779 3.29075469 -3.74281911 -0.000904 0.038345 0.002081
15620 8.47851813 3.27309669 -3.75913314 -0.000904 0.039406 0.003148
15640 8.500227660000002 3.29015628 -3.7516481100000005 -0.00198 0.03834 0.00421
15660 8.49274263 3.2811801300000005 -3.77170956 -0.000918 0.037271 0.004219
15680 8.507261430000002 3.27503907 -3.75150096 -0.000928 0.036201 0.005288
15700 8.470885950000001 3.2841721800000006 -3.72395448 0.000149 0.036206 0.003159
15720 8.4735837 3.2858202600000004 -3.7595844000000005 -0.000918 0.037271 0.004219
15740 8.49707865 3.2882139 -3.7359324899999997 -0.000918 0.037271 0.004219
15760 8.50396527 3.2985438300000003 -3.7390716900000003 0.000153 0.038332 0.004225
15780 8.51504076 3.3033311100000002 -3.73982706 -0.000909 0.037279 0.002082
15800 8.508006990000002 3.27518622 -3.7071891900000002 -0.000909 0.03834 0.003149
15820 8.49707865 3.25707696 -3.7486560600000005 -0.000904 0.039406 0.003148
15840 8.50471083 3.2766871500000003 -3.75179526 0.000168 0.040467 0.003154
15860 8.50426938 3.2805817200000003 -3.7305468000000004 0.00016299999999999998 0.038341 0.002088
15880 8.4883968 3.2876154900000003 -3.7456640100000005 0.00122 0.037268 0.003165
15900 8.51534487 3.28926357 -3.74356467 0.002297 0.039395 0.00317
15920 8.51773851 3.2933052900000006 -3.7534433400000005 0.000173 0.041533 0.003153
15940 8.52297705 3.2873113800000002 -3.76511724 0.000153 0.037271 0.003158
15960 8.49812832 3.29314833 -3.7449086400000007 0.000153 0.037271 0.003158
15980 8.491545810000002 3.2786295300000003 -3.73863024 0.00015800000000000002 0.038337 0.003157
16000 8.500070700000002 3.28701708 -3.7441630800000003 0.00016299999999999998 0.03728 0.001022
16020 8.496480240000002 3.2924027700000003 -3.74581116 0.000149 0.036206 0.003159
16040 8.51130315 3.2913531 -3.7691589600000004 0.001196 0.033002 0.004239
16060 8.489897730000001 3.2717429100000004 -3.7558369799999998 0.002263 0.032999 0.004246
16080 8.49109455 3.2977884600000005 -3.742515 -0.003071 0.035139 0.006343
16100 8.47641879 3.2804247600000003 -3.7380220200000003 0.00122 0.03939 0.005299
16120 8.49798117 3.28013046 -3.74610546 0.002282 0.038321 0.005308
16140 8.49798117 3.28162158 -3.7411710300000003 0.00334 0.035125 0.004251
16160 8.49962925 3.29075469 -3.7374236100000005 0.000153 0.039393 0.005292
16180 8.48196144 3.3040766700000006 -3.7380220200000003 -0.000904 0.039406 0.003148
16200 8.4972258 3.2823769499999997 -3.74146533 0.001225 0.039394 0.004231
16220 8.497677060000001 3.2998878000000005 -3.76571565 0.001225 0.039394 0.004231
16240 8.51489361 3.28132728 -3.7441630800000003 0.00015800000000000002 0.038337 0.003157
16260 8.48210859 3.294198 -3.74057262 0.002292 0.036207 0.001038
16280 8.48870091 3.29015628 -3.7652742000000003 0.002311 0.041529 0.002099
16300 8.508006990000002 3.2672597400000005 -3.76751088 -0.0008849999999999998 0.043667 0.003143
16320 8.48510064 3.2850648900000006 -3.73383315 -0.0008939999999999998 0.040475 0.002078
16340 8.518336920000001 3.2935995900000004 -3.75942744 0.00016299999999999998 0.039402 0.0031550000000000003
16360 8.507408580000002 3.30797124 -3.7453599000000004 0.000173 0.041533 0.003153
16380 8.482412700000001 3.2768343 -3.73009554 0.000168 0.039406 0.0020870000000000003
16400 8.48001906 3.2660629200000004 -3.7187159400000005 0.002292 0.038329 0.003172
16420 8.5114503 3.2793849000000006 -3.7570338 0.001225 0.038333 0.003164
16440 8.50666302 3.2763830400000002 -3.73578534 0.001225 0.038333 0.003164
16460 8.51534487 3.28013046 -3.73158666 -0.001966 0.041536 0.0042060000000000005
16480 8.47746846 3.2774327100000002 -3.7562882400000004 -0.000904 0.039406 0.003148
16500 8.46894357 3.28102317 -3.74012136 0.000149 0.036206 0.003159
16520 8.50336686 3.303027 -3.76676532 0.00015800000000000002 0.038337 0.003157
16540 8.4969315 3.30079032 -3.7479105 0.00015800000000000002 0.039398 0.004224
16560 8.4972258 3.2968957500000005 -3.72784905 0.000153 0.037271 0.003158
16580 8.47237707 3.27563748 -3.7279962000000006 -0.000904 0.038345 0.002081
16600 8.484207930000002 3.2799833100000004 -3.75255063 0.001244 0.040472 0.001025
16620 8.500070700000002 3.27833523 -3.7419165899999998 -0.000904 0.038345 0.002081
16640 8.494832160000001 3.2795320500000003 -3.7549442700000006 0.002302 0.039399 0.002102
16660 8.49812832 3.2624626500000002 -3.74581116 0.003364 0.037269 0.001044
16680 8.49214422 3.27773682 -3.7595844000000005 0.003368 0.038334 0.001043
16700 8.4883968 3.2630610600000005 -3.7613796300000004 0.000182 0.041541 0.001016
16720 8.508006990000002 3.2790807900000005 -3.7501471800000004 0.000192 0.044733 0.0020800000000000003
16740 8.49738276 3.2829753600000005 -3.7402685100000004 0.000187 0.041545 -5.2e-05
16760 8.493782490000001 3.2736951000000003 -3.75374745 0.000177 0.040476 0.001018
16780 8.50456368 3.30467508 -3.75733791 0.001244 0.040472 0.001025
16800 8.48465919 3.2885082000000003 -3.7564353900000005 -0.000904 0.039406 0.003148
16820 8.479116540000001 3.25857789 -3.7470079800000002 -0.000889 0.041541 0.002077
16840 8.489897730000001 3.29734701 -3.75374745 -0.001961 0.04154 0.003138
16860 8.490044880000001 3.2955517800000003 -3.7263481200000004 0.00015800000000000002 0.038337 0.003157
16880 8.498275470000001 3.26037312 -3.75269778 -0.000909 0.036218 0.001015
16900 8.48899521 3.2828282100000004 -3.7610755200000003 -0.001956 0.039422000000000006 -6.4e-05
16920 8.50426938 3.2702517900000005 -3.75255063 -0.00088 0.041549 -5.9e-05
16940 8.49274263 3.27773682 -3.74311341 0.00016299999999999998 0.038341 0.002088
16960 8.50321971 3.2745878100000003 -3.7510497000000003 0.00015800000000000002 0.037276 0.00209
16980 8.4852576 3.28102317 -3.7619780400000002 0.002292 0.037268 0.002105
17000 8.496333089999998 3.2711445000000006 -3.7393758000000004 0.002302 0.04046 0.003169
17020 8.49618594 3.2814744300000003 -3.7479105 0.003368 0.040456 0.003176
17040 8.50112037 3.2894107200000002 -3.7501471800000004 0.003368 0.039395 0.002109
17060 8.498726730000001 3.2935995900000004 -3.74655672 0.00444 0.040457 0.002116
17080 8.498422620000001 3.28895946 -3.7383261300000004 0.000182 0.04048 -5.1e-05
17100 8.500070700000002 3.3010846200000006 -3.74431023 -0.0008699999999999999 0.04368 -6.2e-05
17120 8.48569905 3.2693492699999998 -3.73877739 -0.000866 0.045806 0.001003
17140 8.49752991 3.2935995900000004 -3.7503041400000003 -0.003009 0.043683 0.000991
17160 8.491241700000002 3.30198714 -3.74940162 -0.000889 0.04048 0.00101
17180 8.50396527 3.30706872 -3.7519522200000006 0.000192 0.043672 0.001014
17200 8.489299319999999 3.27249828 -3.7390716900000003 0.001263 0.043672 -4.7e-05
17220 8.48660157 3.2971900500000006 -3.7748487600000002 0.000173 0.039411 0.001019
17240 8.49678435 3.3138081900000005 -3.7368252 0.001249 0.042598 0.002091
17260 8.5319532 3.2992893899999998 -3.72574971 0.000197 0.043676 -5.5e-05
17280 8.490044880000001 3.3012317700000002 -3.72455289 0.000206 0.044745 -0.001124
17300 8.46235125 3.2718998700000004 -3.7341372600000002 -0.0008609999999999999 0.044749 -0.001132
17320 8.478066870000001 3.27353814 -3.72979143 -0.001932 0.04581 0.000996
17340 8.491545810000002 3.2744406600000002 -3.74850891 -0.000875 0.042614 -6.1e-05
17360 8.50307256 3.29015628 -3.7224633600000003 0.001249 0.041537 0.001024
17380 8.52192738 3.2718998700000004 -3.7516481100000005 0.002302 0.039399 0.002102
17400 8.477919720000001 3.2955517800000003 -3.7571907600000003 0.0033590000000000004 0.038326 0.003179
17420 8.47746846 3.29615019 -3.7534433400000005 0.000129 0.034067 0.005298
17440 8.486748720000001 3.2921084700000005 -3.77140545 -0.002004 0.035136 0.00635
17460 8.48899521 3.3141123000000006 -3.7480576500000002 0.00012 0.03512 0.008502
17480 8.486003160000001 3.3058719 -3.7419165899999998 -0.000952 0.034058 0.008495
17500 8.46849231 3.2858202600000004 -3.7444671900000004 0.000115 0.032993 0.007436
17520 8.51040063 3.29285403 -3.72754494 0.00012 0.031937 0.005301
17540 8.505162089999999 3.2935995900000004 -3.74356467 0.0012109999999999998 0.035137 0.003168
17560 8.51054778 3.2967486000000004 -3.7483519500000004 -0.001956 0.041544 0.00207
17580 8.512352819999998 3.2784823800000003 -3.7360796400000003 -0.001956 0.041544 0.00207
17600 8.483305410000002 3.26141298 -3.7486560600000005 0.000173 0.040472 0.002086
17620 8.51354964 3.25992186 -3.75255063 0.000177 0.040476 0.001018
17640 8.510704740000001 3.27309669 -3.72979143 0.001263 0.044733 0.00102
17660 8.502317190000001 3.2883610500000007 -3.72574971 0.001273 0.046864 0.001017
17680 8.51025348 3.3025855500000003 -3.7241016300000003 0.001263 0.043672 -4.7e-05
17700 8.47507482 3.3169572 -3.7381789800000003 0.003397 0.041543 -0.002166
17720 8.492889779999999 3.306470310000001 -3.7196184600000004 0.005493 0.034074 -0.001074
17740 8.506506060000001 3.2998878000000005 -3.7365309000000004 0.004425999999999999 0.034078 -0.001081
17760 8.518189770000001 3.31949799 -3.7323420300000003 0.004411 0.031943 -1e-05
17780 8.47597734 3.3156034200000004 -3.7368252 0.002258 0.030872000000000007 0.003181
17800 8.48390382 3.3224900400000004 -3.74281911 0.003296 0.02766 0.006397
17820 8.46878661 3.3217444800000004 -3.7646757900000005 0.003301 0.030847000000000006 0.008529
17840 8.47657575 3.33401679 -3.74386878 -0.000933 0.036197 0.0063560000000000005
17860 8.482412700000001 3.33042633 -3.7344315600000004 -0.003057 0.038335 0.006339
17880 8.512499970000002 3.28221999 -3.7359324899999997 -0.00198 0.039401 0.005277
17900 8.52491943 3.25198557 -3.7510497000000003 -0.0030280000000000003 0.043666 0.005264
17920 8.51728725 3.2449518000000004 -3.76032996 -0.001956 0.043666 0.004203
17940 8.52491943 3.2515343100000003 -3.7697573699999998 -0.0008939999999999998 0.042597 0.004212
17960 8.49348819 3.25363365 -3.74640957 -0.0008990000000000002 0.040471 0.003147
17980 8.489897730000001 3.2699476800000005 -3.7383261300000004 0.001244 0.040472 0.001025
18000 8.4997764 3.2956989300000004 -3.7302426900000003 0.003373 0.039399 0.001041
18020 8.48151018 3.3307206300000005 -3.7181175300000002 0.0033880000000000004 0.041534 -3e-05
18040 8.4707388 3.34269864 -3.7353340800000003 0.0044740000000000005 0.045791000000000005 -2.7e-05
18060 8.48375667 3.3156034200000004 -3.7314395100000004 0.004493 0.051114 0.001034
18080 8.54063505 3.3256390500000004 -3.74670387 0.0023350000000000003 0.048978 0.004226
18100 8.508006990000002 3.32263719 -3.73278348 -0.000889 0.044724 0.005278
18120 8.50755573 3.33341838 -3.74371182 -0.004109000000000001 0.039413 0.004194
18140 8.491545810000002 3.3344680500000003 -3.74954877 -0.007315 0.040481 0.006306
18160 8.458456680000001 3.2736951000000003 -3.74386878 -0.008381999999999999 0.038362 0.004164999999999999
18180 8.477017200000002 3.27773682 -3.72290481 -0.007319 0.038354 0.005241
18200 8.51130315 3.248091 -3.7550914200000003 -0.0041 0.041543 0.004190999999999999
18220 8.518788180000001 3.2486894100000003 -3.7034515800000003 0.00016299999999999998 0.039402 0.0031550000000000003
18240 8.50815414 3.26081457 -3.73667805 0.0044020000000000005 0.031934 0.0021260000000000003
18260 8.5026213 3.27309669 -3.7583875800000004 0.008645 0.025532 0.0010960000000000002
18280 8.47866528 3.29494356 -3.7520993700000003 0.01076 0.021264 0.001116
18300 8.48390382 3.3168002400000005 -3.7598787000000002 0.008631 0.024458 0.0032340000000000003
18320 8.50755573 3.3172515000000002 -3.742515 0.0033060000000000003 0.026608 0.003194
18340 8.48719998 3.3193508400000002 -3.7353340800000003 -0.000947 0.030879000000000007 0.004227000000000001
18360 8.471778660000002 3.32458938 -3.7474592400000004 -0.005186 0.036225 0.003122
18380 8.4881025 3.3283269900000003 -3.73578534 -0.006233 0.039429 0.002042
18400 8.483305410000002 3.2913531 -3.73009554 -0.008362 0.040501 0.002026
18420 8.45247258 3.26111868 -3.7308411 -0.005152 0.042621 0.002046
18440 8.476870049999999 3.24315657 -3.74640957 -0.001956 0.042605 0.003136
18460 8.5256748 3.24121419 -3.7949102100000003 -0.000889 0.042602 0.003144
18480 8.56024524 3.2648562900000004 -3.7859242500000003 -0.00088 0.044732 0.003141
18500 8.55680193 3.2910588 -3.7432703700000003 -0.0008699999999999999 0.046863 0.003139
18520 8.466392970000001 3.32263719 -3.7558369799999998 0.000206 0.047928 0.002076
18540 8.465049 3.32593335 -3.73548123 0.000192 0.047916 0.005281
18560 8.49962925 3.3326728200000004 -3.69790893 -0.0008699999999999999 0.050046 0.006339
18580 8.527617180000002 3.33416394 -3.66033663 -0.005123 0.054317 0.007372
18600 8.54603055 3.3374601000000004 -3.6500067000000005 -0.009415 0.049006 0.007349
18620 8.5430385 3.2934524400000003 -3.6600423300000005 -0.0073 0.046859 0.009503
18640 8.528519700000002 3.29584608 -3.7053939600000003 -0.009424 0.050058 0.010552
18660 8.514442350000001 3.2528880900000003 -3.7347356700000005 -0.006261999999999999 0.042586 0.011652
18680 8.487651240000002 3.25647855 -3.75314904 -0.00199 0.044697 0.012747
18700 8.464597740000002 3.2452559100000005 -3.7748487600000002 -0.000947 0.040428 0.013828
18720 8.48854395 3.22579287 -3.78233379 -0.002047 0.031914 0.012763
18740 8.50097322 3.24629577 -3.78248094 -0.005243 0.029808 0.009539
18760 8.46130158 3.26111868 -3.79235961 -0.005205 0.034086 0.005261
18780 8.46414648 3.2717429100000004 -3.7958029200000003 -0.001995 0.036205 0.005281
18800 8.47222992 3.29629734 -3.7829322000000003 -0.003062 0.033026 0.002073
18820 8.484207930000002 3.31859547 -3.7510497000000003 -0.003066 0.033022 0.003141
18840 8.502022890000001 3.3268358700000005 -3.74042547 -0.004124 0.034095 0.002064
18860 8.47058184 3.3271301700000007 -3.7483519500000004 -0.004109000000000001 0.03623 0.000993
18880 8.44364358 3.33850977 -3.7558369799999998 -0.003033 0.037295 -6.9e-05
18900 8.435560140000002 3.29629734 -3.78383472 -0.0040950000000000005 0.039425 0.000989
18920 8.47942065 3.2979454200000005 -3.79072134 -0.001966 0.039414 0.002072
18940 8.49962925 3.30423363 -3.7570338 -0.000918 0.03621 0.003152
18960 8.49229137 3.2876154900000003 -3.73218507 0.002273 0.034068 0.003177
18980 8.51295123 3.27204702 -3.7613796300000004 0.000149 0.038328 0.005293
19000 8.487798390000002 3.2953948200000003 -3.69536814 0.00015800000000000002 0.039398 0.004224
19020 8.49947229 3.2665043700000003 -3.68982549 0.00016299999999999998 0.039402 0.0031550000000000003
19040 8.537643 3.3224900400000004 -3.7519522200000006 0.003373 0.041521 0.003175
19060 8.542587240000001 3.2910588 -3.6410305500000004 0.0033880000000000004 0.044717 0.003171
19080 8.54452962 3.2894107200000002 -3.61647612 0.003392 0.045782 0.00317
19100 8.5635414 3.25827378 -3.70883727 0.001249 0.045781 0.005291
19120 8.56908405 3.2546833200000003 -3.7073363400000003 -0.00299 0.051127 0.004186
19140 8.549768160000001 3.2656116600000002 -3.7190200500000006 -0.005128 0.050069 0.004173
19160 8.53419969 3.26530755 -3.7522465200000004 -0.005123 0.047951 0.000971
19180 8.505466200000003 3.25782252 -3.7426719600000005 -0.001928 0.046875 0.000995
19200 8.502022890000001 3.3025855500000003 -3.7450656 0.000182 0.041541 0.001016
19220 8.50082607 3.3057247500000004 -3.75374745 0.0033590000000000004 0.036204 0.001045
19240 8.47478052 3.30318396 -3.7344315600000004 0.003368 0.036212 -0.001091
19260 8.47582038 3.3018301800000005 -3.7226105100000004 0.0033590000000000004 0.037265 0.002112
19280 8.475221970000002 3.3356648700000004 -3.7411710300000003 0.003344 0.036191 0.00425
19300 8.462949660000001 3.32084196 -3.7390716900000003 0.0012109999999999998 0.035137 0.003168
19320 8.46713853 3.2921084700000005 -3.77080704 0.000134 0.034071 0.004229999999999999
19340 8.49169296 3.3232356000000003 -3.7845802800000006 0.002258 0.031933 0.004248
19360 8.48959362 3.3129154800000005 -3.7471551300000003 0.002239 0.028733 0.00532
19380 8.48076462 3.2921084700000005 -3.7450656 -0.000957 0.028749 0.004229
19400 8.491241700000002 3.28342662 -3.72710349 -0.003095 0.030874 0.007416
19420 8.46579456 3.2626196100000002 -3.71646945 -0.005195 0.036216000000000005 0.005258
19440 8.484355080000002 3.2645619900000002 -3.7235032200000004 -0.006253 0.038351 0.005248
19460 8.499177990000002 3.2500431899999995 -3.70793475 -0.005186 0.037286 0.004189
19480 8.531207640000002 3.2669556300000004 -3.7372764600000004 0.000134 0.035132 0.005297
19500 8.53539651 3.26635722 -3.7479105 -0.001971 0.04047 0.004207
19520 8.50097322 3.26621007 -3.72949713 -0.001947 0.044736 0.003134
19540 8.534650950000001 3.2733909900000002 -3.7254554100000004 -0.001947 0.042614 0.001
19560 8.52866685 3.3073728300000003 -3.72560256 0.003344 0.037252 0.0053170000000000005
19580 8.518788180000001 3.3043807800000002 -3.70254906 0.009722 0.031902999999999994 0.005368
19600 8.51279427 3.30467508 -3.6914735700000003 0.0065260000000000006 0.03298 0.005344
19620 8.5256748 3.3015358800000003 -3.70374588 0.0076209999999999984 0.037245 0.00321
19640 8.5145895 3.33207441 -3.6922191300000002 0.007626000000000002 0.039372 0.004275999999999999
19660 8.4969315 3.29599323 -3.68563662 0.007606999999999998 0.035111 0.004281
19680 8.497824210000001 3.3073728300000003 -3.70853316 0.004411 0.037248 0.005324000000000001
19700 8.508752549999999 3.27219417 -3.7145270700000004 0.00122 0.03939 0.005299
19720 8.5228299 3.2976413100000004 -3.7293401700000004 -0.003038 0.041535 0.005267
19740 8.501571629999999 3.28342662 -3.7372764600000004 -0.0041 0.041543 0.004190999999999999
19760 8.51175441 3.28357377 -3.75538572 -0.005157 0.044738 0.005248
19780 8.499177990000002 3.26052027 -3.75478731 -0.0041140000000000005 0.038347000000000006 0.004195
19800 8.48510064 3.2618642400000004 -3.73278348 -0.005176 0.040477 0.005253
19820 8.48105892 3.2626196100000002 -3.74356467 -0.007281 0.046876 0.005229999999999999
19840 8.490044880000001 3.28072887 -3.7217079900000005 -0.007291 0.044746 0.005233
19860 8.490348990000001 3.25573299 -3.7492544700000003 -0.009439 0.042619 0.006289
19880 8.51504076 3.30318396 -3.7672165800000004 -0.009434 0.044745 0.007354
19900 8.48854395 3.29195151 -3.72874176 -0.005167000000000001 0.043669 0.0063170000000000006
19920 8.50666302 3.31007058 -3.7279962000000006 0.000153 0.03621 0.002091
19940 8.47567323 3.3153091199999998 -3.7571907600000003 0.003354 0.035138 0.001047
19960 8.480460509999999 3.3082655400000003 -3.70853316 0.005488 0.03407 -5e-06
19980 8.49543057 3.29015628 -3.7242585900000003 0.006579000000000001 0.034087 -0.005339
20000 8.508752549999999 3.2825241000000003 -3.7224633600000003 0.007665000000000002 0.039406 -0.00427
20020 8.50935096 3.2626196100000002 -3.71497833 0.006603 0.038353 -0.006412
20040 8.528519700000002 3.26006901 -3.7312923600000003 0.007665000000000002 0.035162 -0.008537000000000001
20060 8.52522354 3.26006901 -3.7423678500000004 0.006631000000000001 0.042622 -0.008554
20080 8.513696790000001 3.26171709 -3.74356467 0.004478 0.042613 -0.004296
20100 8.524772279999999 3.2826712500000004 -3.74176944 0.004445 0.038339 -0.001086
20120 8.51848407 3.2795320500000003 -3.7266522300000005 0.0033590000000000004 0.035143 -2.2e-05
20140 8.491388850000002 3.28013046 -3.7211095800000002 0.004411 0.036187 0.004257
20160 8.505466200000003 3.2832696600000006 -3.73294044 0.002287 0.038325 0.00424
20180 8.52103467 3.2775798600000003 -3.73578534 0.000144 0.03408 0.002094
20200 8.533758240000001 3.2856633000000004 -3.7175191200000004 -0.003057 0.034091 0.002071
20220 8.49334104 3.30811839 -3.7107796500000005 -0.00521 0.030899 0.003129
20240 8.486150310000001 3.2879097900000005 -3.7390716900000003 -0.004133 0.031964 0.0020670000000000003
20260 8.491388850000002 3.294198 -3.7281433500000003 -0.003023 0.040487 0.000995
20280 8.50142448 3.2744406600000002 -3.71228058 -0.010462 0.049027 0.003069
20300 8.514295200000001 3.2897050200000004 -3.72455289 -0.009396 0.047962 0.002009
20320 8.512499970000002 3.30003495 -3.73982706 -0.001923 0.04794 0.000993
20340 8.538545520000001 3.2989852800000006 -3.7323420300000003 0.001263 0.044733 0.00102
20360 8.53435665 3.27563748 -3.7483519500000004 0.00445 0.041526 0.001046
20380 8.538545520000001 3.29000913 -3.74985288 0.00765 0.042576 0.002135
20400 8.519985 3.2844664800000003 -3.71797038 0.0034020000000000005 0.045791000000000005 0.001033
20420 8.525821950000001 3.22025022 -3.7235032200000004 0.006579000000000001 0.038331 -0.001071
20440 8.52132897 3.25318239 -3.7284474600000004 0.0076310000000000015 0.037254 0.001074
20460 8.480460509999999 3.2876154900000003 -3.71362455 0.0033490000000000004 0.036195 0.003182
20480 8.49468501 3.3138081900000005 -3.7221592500000003 0.001215 0.037263 0.004234
20500 8.46519615 3.31111044 -3.70285317 0.001191 0.032998 0.005307
20520 8.497824210000001 3.3178499100000005 -3.7314395100000004 0.002268 0.036186 0.006379
20540 8.500227660000002 3.32488368 -3.70285317 0.0044020000000000005 0.036179 0.006394
20560 8.48151018 3.28626171 -3.7170678600000002 0.007582999999999999 0.034028 0.008555
20580 8.52386976 3.3115617 -3.69446562 0.008655 0.032968 0.006428
20600 8.49184011 3.3082655400000003 -3.74581116 0.011855 0.031896 0.005383
20620 8.519533740000002 3.28221999 -3.75793632 0.009717 0.028716 0.003236
20640 8.531060490000002 3.2772855600000006 -3.76451883 0.012903 0.02657 0.004329
20660 8.47313244 3.27130146 -3.7077876000000005 0.005483 0.037249 0.004263
20680 8.473878000000001 3.2352202800000005 -3.73294044 -0.011505 0.052235 0.000921
20700 8.47732131 3.26905497 -3.72156084 -0.013638999999999998 0.054364 0.00304
20720 8.48390382 3.28910661 -3.75614109 -0.01152 0.053283 0.005192
20740 8.499177990000002 3.2974941600000003 -3.7486560600000005 -0.010467 0.050083 0.005204
20760 8.51594328 3.2747447700000003 -3.74581116 -0.013697 0.045825 0.007323
20780 8.49752991 3.3233925600000003 -3.69716337 -0.011577 0.041561 0.006275
20800 8.46909072 3.33760725 -3.71886309 -0.005186 0.039408 0.006323
20820 8.494989120000001 3.3295238100000004 -3.7363837500000003 0.000134 0.033010000000000005 0.003163
20840 8.493939450000001 3.2939037000000004 -3.7254554100000004 0.006520999999999999 0.02767 0.001078
20860 8.50530924 3.31275852 -3.6907280100000004 0.008645 0.027654 0.00323
20880 8.48495349 3.30198714 -3.74012136 0.010788 0.027655 0.001108
20900 8.54378406 3.24689418 -3.70225476 0.009717 0.027655 0.002169
20920 8.54797293 3.2694964200000003 -3.7065907800000004 0.010788 0.028716 0.002175
20940 8.53315983 3.30392952 -3.7402685100000004 0.008669 0.030859 0.001089
20960 8.512499970000002 3.32997507 -3.71137806 0.006540000000000001 0.034053 0.003207
20980 8.482412700000001 3.3232356000000003 -3.7131831 0.00334 0.035125 0.004251
21000 8.46594171 3.31770276 -3.75359049 0.002278 0.037255 0.005309
21020 8.489446470000003 3.2873113800000002 -3.76871751 0.001215 0.038324 0.0053
21040 8.52103467 3.2915100600000007 -3.75942744 -0.001985 0.039397 0.006345
21060 8.49887388 3.2645619900000002 -3.7200599100000002 -0.007315 0.040481 0.006306
21080 8.45321814 3.2055842700000006 -3.75119685 -0.007315 0.041542 0.007373
21100 8.50082607 3.2401645200000004 -3.73189077 -0.007324 0.039411 0.0073760000000000015
21120 8.50307256 3.2693492699999998 -3.7071891900000002 -0.005176 0.040477 0.005253
21140 8.51908248 3.2621683500000005 -3.7170678600000002 -0.006224 0.044742 0.00524
21160 8.50711428 3.28701708 -3.70988694 -0.002994 0.04794 0.002054
21180 8.52537069 3.30228144 -3.7224633600000003 -0.002975 0.052201 0.002049
21200 8.53675029 3.2977884600000005 -3.6929745 -0.001923 0.046879 -7.4e-05
21220 8.523428310000002 3.32219574 -3.6964178100000002 0.004469 0.043665 -0.001093
21240 8.52791148 3.31575057 -3.6895311900000003 0.007665000000000002 0.041528 -0.002136
21260 8.475378930000002 3.31859547 -3.7359324899999997 0.006603 0.041536 -0.003212
21280 8.480460509999999 3.3154562700000003 -3.7411710300000003 0.00554 0.042605 -0.003221
21300 8.482559850000001 3.2924027700000003 -3.71797038 0.005526 0.04047 -0.00215
21320 8.498275470000001 3.2817785400000004 -3.73698216 0.003364 0.035147000000000005 -0.00109
21340 8.509802220000001 3.2883610500000007 -3.7296442800000005 0.002292 0.035146 -2.9e-05
21360 8.491388850000002 3.27429351 -3.7441630800000003 0.00122 0.035146 0.001032
21380 8.4909474 3.2702517900000005 -3.7381789800000003 0.000153 0.035149 0.001024
21400 8.46923787 3.30512634 -3.76152678 -0.000909 0.037279 0.002082
21420 8.489299319999999 3.26710278 -3.75823062 -0.000913 0.037275 0.003151
21440 8.48734713 3.2624626500000002 -3.7564353900000005 -0.003038 0.039413 0.003133
21460 8.50171878 3.28806675 -3.7462624200000003 -0.005167000000000001 0.042608 0.00525
21480 8.485551899999999 3.2939037000000004 -3.7396701 -0.003018 0.041552 0.000994
21500 8.48121588 3.2927068800000003 -3.7314395100000004 0.000168 0.037284 -4.7e-05
21520 8.491241700000002 3.2927068800000003 -3.742515 0.0033490000000000004 0.031951 -0.001086
21540 8.52491943 3.25752822 -3.75074559 0.001239 0.036224 -0.002174
21560 8.57133054 3.2786295300000003 -3.7393758000000004 0.003378 0.037282 -0.002161
21580 8.54093916 3.27503907 -3.6952111800000003 0.003373 0.036216000000000005 -0.002159
21600 8.49573468 3.2739894000000005 -3.7194615 -0.0008939999999999998 0.038353 -5.5e-05
21620 8.51219586 3.2837209200000004 -3.7223064000000003 -0.001932 0.044749 -7.099999999999999e-05
21640 8.51699295 3.27623589 -3.7170678600000002 -0.004013 0.055413 -0.001167
21660 8.540036640000002 3.2985438300000003 -3.74296626 -0.002937 0.055418 -0.003296
21680 8.53315983 3.31066899 -3.7119764699999998 0.00024900000000000004 0.05115 -0.004337
21700 8.52073056 3.33296712 -3.71512548 0.00556 0.045805 -0.004293
21720 8.4909474 3.28910661 -3.74281911 0.006645999999999999 0.049001 -0.005357
21740 8.50426938 3.27563748 -3.7205111700000004 0.001321 0.05115 -0.005397
21760 8.50935096 3.2840250300000005 -3.71722482 -0.000837 0.047953 -0.003272
21780 8.53330698 3.27204702 -3.73158666 0.000192 0.04155 -0.00112
21800 8.50695732 3.26470914 -3.7083860100000003 0.000187 0.041545 -5.2e-05
21820 8.51339268 3.2486894100000003 -3.7196184600000004 0.000201 0.044741 -5.600000000000001e-05
21840 8.48375667 3.2747447700000003 -3.74086692 -0.002994 0.044757 -0.001146
21860 8.48181429 3.29405085 -3.74970573 -0.001947 0.041553 -6.7e-05
21880 8.48196144 3.2985438300000003 -3.74131818 0.000168 0.037284 -4.7e-05
21900 8.50052196 3.3018301800000005 -3.69312165 0.001244 0.039411 -4.2e-05
21920 8.483305410000002 3.28072887 -3.7528449299999997 0.001249 0.041537 0.001024
21940 8.517885660000001 3.30093747 -3.75359049 -0.001947 0.041553 -6.7e-05
21960 8.52087771 3.3028798500000005 -3.7181175300000002 -0.0041 0.040482 0.003124
21980 8.47942065 3.3224900400000004 -3.7335388500000004 0.000173 0.03835 -4.8e-05
22000 8.46909072 3.2844664800000003 -3.7368252 0.001244 0.041533 0.002092
22020 8.48001906 3.25752822 -3.74176944 -0.000904 0.040467 0.004215
22040 8.49363534 3.2736951000000003 -3.6964178100000002 -0.003042 0.037287 0.0020670000000000003
22060 8.51309838 3.2566257 -3.70988694 -0.000904 0.038345 0.002081
22080 8.514442350000001 3.2913531 -3.7380220200000003 0.00015800000000000002 0.036215 0.001023
22100 8.510106330000001 3.2913531 -3.7353340800000003 0.001191 0.031937 0.00424
22120 8.5171401 3.2883610500000007 -3.7483519500000004 0.000105 0.030863 0.007439
22140 8.49079044 3.30228144 -3.74012136 0.000115 0.034054 0.008503
22160 8.4883968 3.30423363 -3.72754494 -0.000937 0.039376 0.010625
22180 8.46758979 3.32368686 -3.71797038 -0.0020280000000000003 0.034053 0.010624
22200 8.48495349 3.32458938 -3.72874176 0.00223 0.030847000000000006 0.00959
22220 8.49184011 3.3281798400000002 -3.7194615 0.004386999999999999 0.036166 0.009598
22240 8.52447798 3.30991362 -3.70599237 0.002268 0.037247 0.007445999999999999
22260 8.505907650000001 3.32159733 -3.70914138 0.000129 0.036189 0.0074319999999999985
22280 8.51175441 3.2906075400000003 -3.72710349 0.000115 0.031932 0.006369
22300 8.5404879 3.2744406600000002 -3.7034515800000003 0.000134 0.037254 0.007431
22320 8.55306432 3.28357377 -3.70673793 -0.001995 0.037266 0.006348
22340 8.53539651 3.30003495 -3.70195065 -0.002004 0.035136 0.00635
22360 8.50441653 3.30093747 -3.68623503 -0.000928 0.037262 0.006355
22380 8.486150310000001 3.2964444900000003 -3.71856879 -0.003047 0.040466 0.006336
22400 8.49198726 3.28776264 -3.7411710300000003 -0.006243 0.041542 0.006312
22420 8.53075638 3.3117088500000005 -3.7236601800000004 -0.006224 0.045803 0.006307
22440 8.489142359999999 3.30617601 -3.7224633600000003 -0.0008939999999999998 0.043658 0.005279
22460 8.50950792 3.36006234 -3.6857837700000005 0.000168 0.041528 0.004221
22480 8.51534487 3.37697478 -3.72395448 0.003344 0.037252 0.0053170000000000005
22500 8.47118025 3.34583784 -3.7166166 0.006516 0.030849 0.005347
22520 8.4735837 3.31021773 -3.71168217 0.0065260000000000006 0.031919 0.004278
22540 8.52058341 3.3057247500000004 -3.6848910600000004 0.00333 0.034056 0.005321
22560 8.5114503 3.32413812 -3.68683344 0.001187 0.031933 0.005308
22580 8.475221970000002 3.3179970600000006 -3.70090098 0.000129 0.035128 0.006365
22600 8.500070700000002 3.3224900400000004 -3.7263481200000004 -0.000937 0.035132 0.006358
22620 8.50066911 3.3045279300000003 -3.72710349 0.000125 0.035124 0.007432999999999999
22640 8.482559850000001 3.3036254100000004 -3.7390716900000003 0.000129 0.033006 0.004231
22660 8.47762542 3.3043807800000002 -3.73069395 0.002263 0.032999 0.004246
22680 8.463852180000002 3.2903034300000003 -3.71392866 -0.000909 0.040462 0.005283
22700 8.502317190000001 3.2997406500000004 -3.7646757900000005 -0.005176 0.039416 0.004186
22720 8.52747003 3.2977884600000005 -3.69626085 -0.003062 0.03727 0.00634
22740 8.51773851 3.28477059 -3.7314395100000004 0.000125 0.035124 0.007432999999999999
22760 8.506506060000001 3.28746834 -3.7170678600000002 -0.000928 0.037262 0.006355
22780 8.5083111 3.2774327100000002 -3.6988114500000004 -0.002009 0.03407 0.006352
22800 8.510851890000001 3.2698005300000004 -3.7053939600000003 -0.002009 0.035131 0.0074189999999999985
22820 8.505760500000001 3.2763830400000002 -3.70404999 0.00011 0.031928 0.007437
22840 8.53360128 3.3138081900000005 -3.7073363400000003 -0.00099 0.025536 0.008506
22860 8.5026213 3.3169572 -3.72125673 0.001144 0.025529 0.008520999999999999
22880 8.49303693 3.3421002300000002 -3.7200599100000002 0.00011 0.032989 0.008504000000000001
22900 8.51190156 3.3257862 -3.7226105100000004 -0.000928 0.038323 0.007422
22920 8.478066870000001 3.31620183 -3.73548123 -0.003033 0.0426 0.005265
22940 8.50052196 3.31455375 -3.7359324899999997 -0.004071 0.047935000000000005 0.004183
22960 8.509949370000001 3.30512634 -3.7254554100000004 -0.0008609999999999999 0.047932 0.002069
22980 8.51639454 3.3015358800000003 -3.7470079800000002 0.001263 0.044733 0.00102
23000 8.49169296 3.27039894 -3.71003409 0.004459 0.043657 0.001043
23020 8.501571629999999 3.26530755 -3.71137806 0.00765 0.042576 0.002135
23040 8.51025348 3.3082655400000003 -3.71527263 0.006564 0.036197 -1e-06
23060 8.497824210000001 3.29584608 -3.7082388600000002 0.0076310000000000015 0.036193 7.000000000000002e-06
23080 8.50426938 3.28806675 -3.7266522300000005 0.006593000000000001 0.042588 -9e-06
23100 8.53135479 3.29165721 -3.7242585900000003 0.002306 0.040464 0.002101
23120 8.50920381 3.2939037000000004 -3.7211095800000002 0.001196 0.033002 0.004239
23140 8.491388850000002 3.28955787 -3.7529920800000003 -0.000942 0.034067 0.006359
23160 8.49752991 3.32069481 -3.71467422 -0.004148 0.035135 0.008472
23180 8.486150310000001 3.31605468 -3.70419714 -0.004157 0.031943 0.007408
23200 8.52627321 3.3528814200000006 -3.7598787000000002 -0.005243 0.027686 0.007405
23220 8.50845825 3.33341838 -3.73294044 -0.0031100000000000004 0.028739 0.008487
23240 8.4969315 3.32548209 -3.71392866 -0.005234 0.029816 0.007403
23260 8.46579456 3.2873113800000002 -3.72874176 -0.004157 0.030882 0.006340999999999999
23280 8.496333089999998 3.2711445000000006 -3.7402685100000004 -0.005205 0.034086 0.005261
23300 8.531060490000002 3.2744406600000002 -3.72590667 -0.004133 0.034086 0.0042
23320 8.475526080000002 3.25513458 -3.7690118100000003 -0.001961 0.039418 0.001004
23340 8.48734713 3.2707030500000003 -3.7598787000000002 0.000197 0.042615 -0.001121
23360 8.486307270000001 3.26740689 -3.7646757900000005 0.001268 0.043676 -0.001115
23380 8.50845825 3.2588721900000004 -3.7372764600000004 0.004464 0.041539 -0.002158
23400 8.50246434 3.2766871500000003 -3.70075383 0.006612000000000001 0.043666 -0.003214
23420 8.502170040000001 3.28431933 -3.7194615 0.008759999999999999 0.045794 -0.00427
23440 8.49602898 3.3217444800000004 -3.7226105100000004 0.0076739999999999985 0.042597 -0.003206
23460 8.49812832 3.3280326900000006 -3.7166166 0.008736 0.040467 -0.004264
23480 8.50785984 3.3193508400000002 -3.7214136900000003 0.006606999999999999 0.04154 -0.00428
23500 8.48824965 3.30527349 -3.70988694 0.002354 0.042629 -0.006448000000000001
23520 8.48585601 3.30811839 -3.69985131 0.000192 0.037306 -0.005388
23540 8.49363534 3.29494356 -3.70914138 -0.005138 0.042633 -0.001159
23560 8.50935096 3.2858202600000004 -3.71991276 -0.007281 0.043693 0.00203
23580 8.526871620000001 3.30198714 -3.74760639 -0.005167000000000001 0.041547 0.004184
23600 8.51728725 3.2876154900000003 -3.7305468000000004 -0.0041140000000000005 0.038347000000000006 0.004195
23620 8.49558753 3.2986909800000004 -3.7293401700000004 -0.004109000000000001 0.037291000000000005 0.00206
23640 8.502915600000001 3.3114145500000003 -3.7266522300000005 -0.001947 0.042614 0.001
23660 8.50142448 3.2927068800000003 -3.7242585900000003 -0.002994 0.044757 -0.001146
23680 8.484355080000002 3.2656116600000002 -3.73248918 -0.004057 0.045826 -0.001155
23700 8.477919720000001 3.2784823800000003 -3.7642245300000003 -0.004033 0.050091 -0.002229
23720 8.4997764 3.2885082000000003 -3.7723079700000004 -0.00509 0.053286 -0.001172
23740 8.5174344 3.2684565600000006 -3.7411710300000003 -0.006161 0.051164 -0.002245
23760 8.49573468 3.27039894 -3.74146533 -0.00509 0.053286 -0.001172
23780 8.478223830000001 3.2837209200000004 -3.74760639 -0.002947 0.054348 -0.002227
23800 8.51414805 3.2609715300000004 -3.77680095 -0.000798 0.057537 -0.002216
23820 8.505162089999999 3.2832696600000006 -3.7293401700000004 -0.000784 0.057549 -0.00542
23840 8.489897730000001 3.32698302 -3.72574971 0.0013449999999999998 0.056477 -0.005404
23860 8.491388850000002 3.30527349 -3.7749959100000003 0.005603 0.054331 -0.005372
23880 8.518935330000001 3.3193508400000002 -3.7622723400000004 0.002402 0.054342 -0.005394
23900 8.529559560000001 3.3123072600000003 -3.7082388600000002 0.0034590000000000003 0.05433 -0.00325
23920 8.56368855 3.2974941600000003 -3.7065907800000004 0.001321 0.05115 -0.005397
23940 8.53135479 3.3187524300000004 -3.7241016300000003 0.005584 0.05007 -0.005365999999999999
23960 8.50785984 3.2965916400000004 -3.7167735600000014 -0.000822 0.046905 -0.007543000000000002
23980 8.48315826 3.3093152100000003 -3.70300032 0.003416 0.042621 -0.005372
24000 8.478822240000001 3.2976413100000004 -3.71392866 0.002325 0.036237 -0.00644
24020 8.486150310000001 3.28641867 -3.6934159500000003 0.002345 0.041559 -0.005378
24040 8.47432926 3.2669556300000004 -3.7459583100000002 -0.001942 0.038374 -0.004336
24060 8.491388850000002 3.28431933 -3.7520993700000003 -0.005143 0.039446 -0.003291
24080 8.490044880000001 3.2804247600000003 -3.77140545 -0.003014 0.039434 -0.002208
24100 8.49439071 3.29165721 -3.78936756 -0.007305 0.033062 -0.003298
24120 8.4735837 3.29883813 -3.7791945900000004 -0.00409 0.037308 -0.002213
24140 8.47282833 3.30093747 -3.7281433500000003 -0.001947 0.040492 -0.001134
24160 8.47942065 3.3033311100000002 -3.74356467 0.003364 0.033025 -0.003223
24180 8.478969390000001 3.34704447 -3.73009554 0.001244 0.034106 -0.005376
24200 8.49798117 3.33521361 -3.7082388600000002 -0.0008560000000000001 0.040509 -0.0064670000000000005
24220 8.46773694 3.32383401 -3.71826468 0.002354 0.041568 -0.007514
24240 8.49602898 3.3057247500000004 -3.6952111800000003 0.001263 0.037306 -0.006448000000000001
24260 8.51324553 3.30213429 -3.71587104 0.001254 0.037298000000000005 -0.004312
24280 8.53435665 3.2921084700000005 -3.70434429 0.000187 0.039423 -0.002186
24300 8.509949370000001 3.29015628 -3.6857837700000005 -0.006243 0.037298000000000005 0.002045
24320 8.56413981 3.30063336 -3.72021687 0.004406 0.028756 -0.002143
24340 8.51549202 3.30512634 -3.6736586100000004 -0.003999 0.060730999999999986 0.000962
24360 8.52656751 3.3063231600000003 -3.66916563 -0.017787 0.078889 0.000843
24380 8.5026213 3.3153091199999998 -3.6778474800000005 -0.039162 0.06938 -0.000362
24400 8.5458834 3.33296712 -3.6706665600000004 -0.027441000000000004 0.06826499999999999 0.001857
24420 8.514746460000001 3.3150050100000006 -3.6465633900000003 -0.023179 0.065063 -0.000245
24440 8.51114619 3.30423363 -3.71093661 -0.00718 0.068186 0.004135
24460 8.49184011 3.3169572 -3.6950640300000006 -0.004028 0.059644 0.006305
24480 8.50082607 3.3295238100000004 -3.6922191300000002 -0.004109000000000001 0.043657 0.008461
24500 8.509949370000001 3.3416489700000005 -3.69162072 -0.000928 0.038323 0.007422
24520 8.502022890000001 3.32488368 -3.68623503 -0.0019760000000000003 0.043649 0.008476000000000001
24540 8.45321814 3.38445981 -3.6905710500000004 -0.003023 0.050036 0.010597
24560 8.508909509999999 3.3373129500000003 -3.6866862900000004 -0.005171 0.047909 0.011653
24580 8.52716592 3.32727732 -3.7094356800000003 -0.004138 0.039387 0.010603
24600 8.52462513 3.32743428 -3.71302614 0.001235 0.048952 0.011696
24620 8.498275470000001 3.3337126800000005 -3.70629648 0.001254 0.051091 0.009557
24640 8.497824210000001 3.3314760000000003 -3.733686 0.003378 0.04577 0.006374
24660 8.49423375 3.3362632800000003 -3.7196184600000004 0.004416 0.039374 0.00639
24680 8.46445059 3.33655758 -3.67965252 0.002263 0.036182 0.007447
24700 8.486454420000001 3.30677442 -3.70554111 0.005469 0.034053 0.004267
24720 8.449480529999999 3.2844664800000003 -3.6922191300000002 0.009736 0.031916 0.002164
24740 8.51579613 3.2711445000000006 -3.7812841200000005 0.008655 0.031907 0.005361
24760 8.55291717 3.33521361 -3.80060001 0.004368 0.0266 0.004268999999999999
24780 8.60096655 3.3531757200000003 -3.6595910700000003 9.1e-05 0.025545 0.005309
24800 8.379574470000001 3.3733843200000004 -3.55076874 -0.000976 0.025549 0.005302
24820 8.490044880000001 3.1996001700000005 -3.70090098 0.000101 0.027676 0.005306
24840 8.34410151 3.4405926300000003 -3.66842007 5.8e-05 0.019149 0.006385
24860 8.5547124 3.3724916100000004 -3.7217079900000005 0.001091 0.014872 0.009603
24880 8.5114503 3.4159008600000003 -3.65779584 -0.001033 0.01701 0.009585
24900 8.49887388 3.43221489 -3.647613060000001 -0.004190999999999999 0.025547 0.008484
24920 8.46878661 3.39718338 -3.69102231 -0.005219 0.03089 0.005265
24940 8.49334104 3.3495852600000005 -3.70314747 -0.004152 0.031947 0.006339
24960 8.512352819999998 3.34434672 -3.70090098 -0.005214 0.034077 0.007397
24980 8.46115443 3.3319174499999997 -3.6646824600000003 -0.004128 0.037274 0.006333
25000 8.46070317 3.35587347 -3.62051784 -0.005181 0.041534 0.007388
25020 8.5345038 3.3718833900000003 -3.6911694600000002 0.000182 0.045785 0.0052840000000000005
25040 8.57147769 3.38565663 -3.58758567 0.005516 0.044705 0.004254
25060 8.534650950000001 3.336410430000001 -3.54328371 0.006587999999999999 0.043645 0.002127
25080 8.537643 3.31889958 -3.5763630300000004 0.008688 0.034059 1.7e-05
25100 8.57072232 3.33655758 -3.5988181200000002 0.012975 0.036183 -0.002092
25120 8.575519410000002 3.3441995700000002 -3.62426526 0.011913 0.038313 -0.001034
25140 8.5692312 3.3197922900000005 -3.5988181200000002 0.010817 0.032986 3.3e-05
25160 8.5752153 3.3424043400000003 -3.6389312100000004 0.010808 0.031916 0.001103
25180 8.52522354 3.3120129600000006 -3.6121401 0.009722 0.027659 0.001101
25200 8.52147612 3.3455435400000004 -3.65330286 0.009707 0.026585 0.0032380000000000004
25220 8.532551609999999 3.34150182 -3.6437184900000004 0.005445 0.027665 0.003207
25240 8.494989120000001 3.34569069 -3.65270445 0.001182 0.028746 0.003176
25260 8.508752549999999 3.3424043400000003 -3.66018948 -0.002033 0.028744 0.006358
25280 8.49588183 3.34015785 -3.6519588900000004 -0.004172 0.026625 0.005278
25300 8.4795678 3.3175556100000003 -3.68204616 -0.004162 0.027695 0.004208
25320 8.51922963 3.3410505600000007 -3.69177768 -0.0031 0.027687 0.0052840000000000005
25340 8.49318408 3.3425514900000004 -3.6763563599999998 0.002215 0.022346 0.00426
25360 8.5086054 3.3410505600000007 -3.71048535 0.002215 0.022346 0.00426
25380 8.49738276 3.3132097800000007 -3.72275766 0.001163 0.026607 0.005315
25400 8.49318408 3.28641867 -3.6642312000000006 9.6e-05 0.02661 0.005308
25420 8.477772569999999 3.30048621 -3.71003409 -0.0041670000000000006 0.026629000000000003 0.00421
25440 8.50351401 3.2986909800000004 -3.67470828 0.000101 0.027676 0.005306
25460 8.50771269 3.32413812 -3.6895311900000003 0.002234 0.027668 0.005321
25480 8.49602898 3.36979386 -3.67770033 0.004386999999999999 0.031922000000000006 0.005331
25500 8.51534487 3.3792212700000004 -3.6751595400000006 0.003325 0.03193 0.004255
25520 8.515187910000002 3.3455435400000004 -3.68833437 0.006531 0.031923 0.0032090000000000005
25540 8.502022890000001 3.3465932100000004 -3.6615334500000003 0.007612000000000002 0.035115 0.003213
25560 8.52043626 3.33805851 -3.65225319 0.00443 0.039387 0.0031850000000000003
25580 8.51504076 3.3271301700000007 -3.66633054 0.0033490000000000004 0.037256 0.004249
25600 8.522231490000001 3.33595917 -3.64776021 0.005454 0.029796 0.0032049999999999995
25620 8.517591359999999 3.31994925 -3.67530669 0.006540000000000001 0.035114 0.004274
25640 8.54767863 3.3268358700000005 -3.67081371 0.005497 0.037261 0.001059
25660 8.54842419 3.30811839 -3.66827292 0.002287 0.034081 -2.8000000000000006e-05
25680 8.5256748 3.2930011800000005 -3.6616806 0.00334 0.035125 0.004251
25700 8.52462513 3.30677442 -3.6814477500000002 0.001196 0.034063 0.005306
25720 8.50501494 3.2997406500000004 -3.6685672200000004 -0.000942 0.031945 0.004225
25740 8.51114619 3.3132097800000007 -3.67501239 -0.000923 0.037267 0.005287
25760 8.48899521 3.3434442000000004 -3.6887758200000005 0.00122 0.038329 0.004232
25780 8.49348819 3.3275814300000004 -3.6994098600000003 0.002292 0.036207 0.001038
25800 8.508006990000002 3.3579630000000003 -3.70135224 0.002321 0.04366 0.002097
25820 8.517885660000001 3.3322215600000007 -3.71137806 -0.000875 0.042614 -6.1e-05
25840 8.49064329 3.33491931 -3.70764045 0.001259 0.041546 -0.001113
25860 8.47432926 3.3382056600000003 -3.72440574 0.00234 0.043677 -0.002176
25880 8.46923787 3.3223428900000003 -3.7178232300000005 -0.0008560000000000001 0.044753 -0.0022
25900 8.49678435 3.3343209000000003 -3.73458852 0.00445 0.036221 -0.004288
25920 8.487798390000002 3.3455435400000004 -3.70195065 0.005516 0.036217 -0.004281
25940 8.48375667 3.3247365300000005 -3.7050996600000006 0.00234 0.042616 -0.003243
25960 8.49947229 3.30887376 -3.72395448 -0.000842 0.045827 -0.004337
25980 8.521780230000001 3.2971900500000006 -3.72605382 -0.001913 0.044766 -0.004344
26000 8.500227660000002 3.33940248 -3.7082388600000002 0.000225 0.045823 -0.00433
26020 8.46744264 3.3326728200000004 -3.72320892 -0.004028 0.049034 -0.004364
26040 8.45636715 3.2841721800000006 -3.7194615 -0.001923 0.046879 -7.4e-05
26060 8.50426938 3.3217444800000004 -3.7374236100000005 -0.002985 0.045826 -0.002216
26080 8.49903084 3.3407562600000005 -3.71407581 -0.007209 0.056489 -0.001191
26100 8.491241700000002 3.33970659 -3.7441630800000003 -0.006138 0.057551 -0.001185
26120 8.493782490000001 3.34704447 -3.7170678600000002 -0.005099 0.050095 -0.002236
26140 8.495136270000001 3.30797124 -3.7056980700000004 -0.0008560000000000001 0.044753 -0.0022
26160 8.48315826 3.28806675 -3.7143799200000003 0.003421 0.046869 -0.002173
26180 8.516090430000002 3.30168303 -3.70793475 0.002354 0.047934 -0.001113
26200 8.534955060000001 3.3124642200000003 -3.6594439199999997 0.0023350000000000003 0.043673 -0.001108
26220 8.509802220000001 3.3028798500000005 -3.7283003100000003 0.00233 0.043668 -4e-05
26240 8.5114503 3.33551772 -3.72021687 -0.0008609999999999999 0.047932 0.002069
26260 8.486748720000001 3.3265317600000004 -3.7344315600000004 0.000192 0.043672 0.001014
26280 8.52357546 3.3126113700000004 -3.7250041500000006 -0.0008699999999999999 0.045802 0.002072
26300 8.49363534 3.3307206300000005 -3.71692071 0.000206 0.046867 0.00101
26320 8.48854395 3.3281798400000002 -3.7335388500000004 -0.001928 0.046875 0.000995
26340 8.50456368 3.3242852700000003 -3.7127318400000004 -0.001942 0.04474 0.002066
26360 8.508006990000002 3.35183175 -3.7211095800000002 0.000177 0.041537 0.002084
26380 8.52207453 3.34943811 -3.72919302 0.000192 0.042611 -5.3e-05
26400 8.50097322 3.33595917 -3.72440574 0.000201 0.041558 -0.003257
26420 8.477017200000002 3.30318396 -3.70928853 -0.001937 0.042622 -0.001136
26440 8.46624582 3.3129154800000005 -3.7233560700000004 -0.003009 0.044744 0.002058
26460 8.510999040000002 3.3036254100000004 -3.7065907800000004 -0.003018 0.041552 0.000994
26480 8.50426938 3.30766713 -3.7134774 -0.001942 0.042618 -6.8e-05
26500 8.45756397 3.31485786 -3.71512548 -0.001928 0.045814 -7.2e-05
26520 8.486150310000001 3.32847414 -3.7217079900000005 0.003412 0.045799 -0.001103
26540 8.476870049999999 3.33595917 -3.7200599100000002 0.003407 0.044734 -0.001102
26560 8.46474489 3.35661903 -3.7178232300000005 0.00765 0.041515 0.001068
26580 8.45801523 3.349134 -3.72290481 0.008684 0.034054 0.001085
26600 8.475221970000002 3.3614063100000005 -3.7053939600000003 0.0076209999999999984 0.036184 0.002143
26620 8.5114503 3.3663505500000004 -3.7279962000000006 0.0033490000000000004 0.037256 0.004249
26640 8.48480634 3.37697478 -3.65404842 0.005464 0.03511 0.006403
26660 8.502022890000001 3.3465932100000004 -3.67740603 0.003311 0.030856 0.006393
26680 8.49932514 3.33940248 -3.69027675 0.005445 0.030848 0.006408
26700 8.50142448 3.32084196 -3.7097397900000004 0.0022440000000000003 0.032982 0.008519
26720 8.48734713 3.3548238 -3.68384139 -0.0031 0.03087 0.008485
26740 8.52821559 3.33581202 -3.6895311900000003 -0.004157 0.031943 0.007408
26760 8.48001906 3.3184483200000003 -3.70105794 -0.003095 0.032996 0.00955
26780 8.46490185 3.35841426 -3.6895311900000003 0.00011 0.03405 0.009571
26800 8.51414805 3.3337126800000005 -3.69192483 -0.002014 0.036188 0.009554
26820 8.509949370000001 3.3477900300000005 -3.6811436400000006 -0.006253 0.040473 0.007382
26840 8.512499970000002 3.35108619 -3.67620921 -0.006219 0.047929 0.007373
26860 8.48870091 3.33281997 -3.71003409 -0.0041 0.043665 0.006325
26880 8.51668884 3.31620183 -3.6863821800000003 0.001191 0.034059 0.006374
26900 8.506358910000001 3.30706872 -3.69865449 0.00543 0.028714 0.007479
26920 8.49962925 3.29285403 -3.6994098600000003 0.0075590000000000015 0.02658 0.006428
26940 8.534650950000001 3.3118658100000005 -3.6781515900000006 0.002239 0.030855 0.007454
26960 8.495136270000001 3.32503083 -3.6863821800000003 0.001163 0.028729 0.007449
26980 8.55156339 3.3197922900000005 -3.7020978 0.002234 0.02979 0.007455
27000 8.501571629999999 3.35542221 -3.66796881 0.00544 0.031905 0.008543
27020 8.502768450000001 3.3952410000000004 -3.64926114 0.007578 0.035085000000000005 0.01069
27040 8.50307256 3.39254325 -3.6702153 0.0022440000000000003 0.035104 0.010653
27060 8.503670970000002 3.40257888 -3.6500067000000005 0.000115 0.037237 0.011704
27080 8.46594171 3.4027260300000006 -3.67501239 0.001172 0.032981 0.00958
27100 8.4536694 3.39509385 -3.6925232400000003 -0.004124 0.041522 0.009532
27120 8.48166714 3.38161491 -3.68997264 -0.007295 0.045803 0.007368
27140 8.507261430000002 3.37697478 -3.70075383 -0.004104 0.0426 0.006326
27160 8.524772279999999 3.32114607 -3.6815949000000003 -0.001985 0.041519 0.008479
27180 8.5086054 3.2967486000000004 -3.68803026 -0.000942 0.03725 0.00956
27200 8.489740770000001 3.2882139 -3.68652933 0.001148 0.029777 0.01172
27220 8.491545810000002 3.28162158 -3.6929745 0.005406 0.027631 0.011753
27240 8.503670970000002 3.29314833 -3.70793475 0.0033060000000000003 0.035095999999999995 0.011729
27260 8.53435665 3.3332712300000003 -3.6768076200000004 0.00012 0.038303 0.011702
27280 8.508909509999999 3.34733877 -3.68025093 -0.000947 0.036184 0.009561
27300 8.51279427 3.36305439 -3.6556965 0.0012109999999999998 0.039381 0.007436
27320 8.48076462 3.3901496100000004 -3.68264457 0.0033490000000000004 0.038317 0.005315
27340 8.480617470000002 3.4007738400000003 -3.70988694 0.00655 0.037245 0.0042710000000000005
27360 8.49258567 3.3932888100000005 -3.67410987 0.007593000000000002 0.032976 0.005352
27380 8.534052540000001 3.3644081700000004 -3.7089844199999997 0.005411 0.023392 0.006417
27400 8.48346237 3.3482412900000003 -3.66183756 0.003272 0.022334 0.006404000000000001
27420 8.46909072 3.3395594400000004 -3.67530669 0.002234 0.025546 0.003188
27440 8.505162089999999 3.35272446 -3.69716337 -0.003076 0.033013 0.005277
27460 8.46280251 3.3133569300000003 -3.6778474800000005 -0.005214 0.034077 0.007397
27480 8.4881025 3.30602886 -3.7145270700000004 -0.000937 0.034071 0.005291
27500 8.497824210000001 3.3163489800000003 -3.71766627 -0.004148 0.033013 0.006338
27520 8.50426938 3.27713841 -3.69776178 -0.000966 0.029801 0.007432999999999999
27540 8.506358910000001 3.2814744300000003 -3.7444671900000004 0.00223 0.027664 0.006389
27560 8.52491943 3.35302857 -3.7402685100000004 0.0043630000000000006 0.026595 0.005338
27580 8.50771269 3.3564718800000004 -3.69476973 0.001182 0.031929 0.006377000000000001
27600 8.48870091 3.3434442000000004 -3.73294044 0.002268 0.031942 0.002111
27620 8.48585601 3.3383626200000003 -3.7046484 0.002287 0.038325 0.00424
27640 8.46474489 3.32847414 -3.6633286800000002 0.003325 0.03193 0.004255
27660 8.49214422 3.3286311 -3.6964178100000002 0.007573000000000002 0.027654 0.00429
27680 8.54752167 3.32279415 -3.68398854 0.006534999999999999 0.034049 0.004275
27700 8.53060923 3.3326728200000004 -3.7167735600000014 0.0033490000000000004 0.036195 0.003182
27720 8.51639454 3.33521361 -3.6784458900000003 0.001191 0.031937 0.00424
27740 8.47732131 3.3323687100000003 -3.6646824600000003 0.004382 0.029795 0.004265
27760 8.486454420000001 3.31919388 -3.70195065 0.002258 0.032994 0.005315
27780 8.51384394 3.30797124 -3.6836942400000003 0.001196 0.033002 0.004239
27800 8.53929108 3.32488368 -3.70883727 -0.003033 0.041539 0.004198
27820 8.53180605 3.30048621 -3.7047955500000005 -0.0040950000000000005 0.041547 0.003123
27840 8.50666302 3.2918043600000004 -3.69596655 -0.005176 0.038355 0.003119
27860 8.51384394 3.3066272700000003 -3.7393758000000004 -0.001995 0.037266 0.006348
27880 8.49932514 3.33042633 -3.72754494 -0.000947 0.035123 0.008494
27900 8.47133721 3.3257862 -3.7064436300000003 -0.000937 0.035132 0.006358
27920 8.4969315 3.3295238100000004 -3.7226105100000004 0.001201 0.037251 0.007437999999999998
27940 8.502317190000001 3.3277285800000005 -3.7024019100000003 0.004378 0.030852 0.0064
27960 8.48105892 3.31904673 -3.68773596 0.0075689999999999985 0.027649 0.005359
27980 8.50486779 3.31395534 -3.7142229600000003 0.006516 0.030849 0.005347
28000 8.49318408 3.3256390500000004 -3.7326363300000005 0.006534999999999999 0.034049 0.004275
28020 8.51384394 3.3235397100000004 -3.71976561 0.002302 0.04046 0.003169
28040 8.505466200000003 3.3090209100000005 -3.7359324899999997 -0.001952 0.044732 0.004202
28060 8.49573468 3.29629734 -3.7381789800000003 -0.001961 0.043662 0.0052710000000000005
28080 8.457858270000001 3.3045279300000003 -3.7368252 -0.00198 0.03834 0.00421
28100 8.46758979 3.29584608 -3.7233560700000004 0.00016299999999999998 0.041524 0.005289
28120 8.48660157 3.3193508400000002 -3.75074559 -0.000918 0.039393 0.006352
28140 8.499177990000002 3.34449387 -3.7610755200000003 0.00012 0.034059 0.007435
28160 8.50681017 3.3313190400000003 -3.73383315 -0.003057 0.038335 0.006339
28180 8.47926369 3.29120595 -3.7360796400000003 -0.000913 0.039397 0.0052840000000000005
28200 8.48406078 3.28132728 -3.7293401700000004 -0.000909 0.03834 0.003149
28220 8.505162089999999 3.3268358700000005 -3.7441630800000003 0.002282 0.036199 0.003174
28240 8.502915600000001 3.2886651600000003 -3.7396701 0.001225 0.039394 0.004231
28260 8.514442350000001 3.3033311100000002 -3.73114521 0.00122 0.038329 0.004232
28280 8.486454420000001 3.3253349400000003 -3.7233560700000004 -0.000904 0.039406 0.003148
28300 8.50935096 3.34569069 -3.7492544700000003 -0.000904 0.039406 0.003148
28320 8.49528342 3.34179612 -3.7353340800000003 -0.000913 0.039397 0.0052840000000000005
28340 8.473426740000003 3.30602886 -3.73218507 0.0012109999999999998 0.036198 0.004235
28360 8.48899521 3.2995836899999995 -3.7422207 0.002292 0.03939 0.004238
28380 8.5171401 3.2943451500000003 -3.73158666 0.00123 0.040459 0.004229999999999999
28400 8.50321971 3.30602886 -3.72679938 0.000149 0.037267 0.004226
28420 8.49528342 3.2927068800000003 -3.74550705 0.001201 0.035129 0.005304
28440 8.48360952 3.3055776 -3.7570338 0.000139 0.037259 0.006363000000000001
28460 8.486748720000001 3.29090184 -3.7534433400000005 -0.00198 0.03834 0.00421
28480 8.47612449 3.2985438300000003 -3.76810929 -0.000904 0.039406 0.003148
28500 8.50321971 3.3203907 -3.7503041400000003 0.000144 0.035141000000000006 0.003161
28520 8.48660157 3.3114145500000003 -3.7339803000000003 0.002258 0.031933 0.004248
28540 8.45771112 3.2814744300000003 -3.7471551300000003 0.00015800000000000002 0.037276 0.00209
28560 8.49423375 3.32503083 -3.74775354 0.000173 0.039411 0.001019
28580 8.519533740000002 3.3172515000000002 -3.7312923600000003 0.000139 0.035137 0.004229
28600 8.50771269 3.30198714 -3.74176944 0.002254 0.029807 0.003182
28620 8.52087771 3.2997406500000004 -3.77006148 0.002268 0.034064 0.0042450000000000005
28640 8.491388850000002 3.2943451500000003 -3.7407197700000006 0.00122 0.038329 0.004232
28660 8.466697080000001 3.2814744300000003 -3.73383315 0.002302 0.04046 0.003169
28680 8.486307270000001 3.2910588 -3.72650508 0.00122 0.037268 0.003165
28700 8.49662739 3.3010846200000006 -3.75793632 0.0033490000000000004 0.035134 0.002115
28720 8.49334104 3.2853689999999998 -3.7420637400000003 0.0033490000000000004 0.036195 0.003182
28740 8.49992355 3.28596741 -3.73278348 0.00444 0.040457 0.002116
28760 8.4969315 3.30467508 -3.7263481200000004 0.000173 0.041533 0.003153
28780 8.48181429 3.3082655400000003 -3.7489503600000003 -0.000913 0.037275 0.003151
28800 8.48899521 3.32743428 -3.7208152800000005 -0.000913 0.036214 0.002084
28820 8.49019203 3.30138873 -3.76332201 0.000168 0.040467 0.003154
28840 8.47268118 3.30991362 -3.72694653 -0.001971 0.04047 0.004207
28860 8.507261430000002 3.306470310000001 -3.7390716900000003 -0.00198 0.037279 0.003143
28880 8.49363534 3.2992893899999998 -3.7390716900000003 -0.0019760000000000003 0.039405 0.004209
28900 8.49334104 3.2918043600000004 -3.75478731 -0.00198 0.039401 0.005277
28920 8.494989120000001 3.28776264 -3.7396701 -0.001971 0.039409 0.00314
28940 8.4795678 3.2894107200000002 -3.7501471800000004 0.000173 0.040472 0.002086
28960 8.474025150000001 3.28462344 -3.71766627 0.001254 0.041542 -4.4e-05
28980 8.50066911 3.2868601200000005 -3.7723079700000004 0.002316 0.041534 0.001031
29000 8.50336686 3.30766713 -3.7576322100000006 0.001235 0.039403 0.002095
29020 8.514295200000001 3.3196451400000004 -3.75179526 0.001235 0.039403 0.002095
29040 8.51339268 3.3313190400000003 -3.74371182 0.001235 0.039403 0.002095
29060 8.49318408 3.2980925700000006 -3.7279962000000006 0.001225 0.038333 0.003164
29080 8.493782490000001 3.3094721700000003 -3.72275766 0.002278 0.036194 0.004242
29100 8.50441653 3.29285403 -3.7483519500000004 0.001225 0.037272 0.002097
29120 8.51549202 3.2888123100000004 -3.72574971 0.000177 0.041537 0.002084
29140 8.494086600000001 3.2793849000000006 -3.73294044 -0.000909 0.037279 0.002082
29160 8.50411242 3.30467508 -3.7642245300000003 0.000139 0.034076 0.0031620000000000003
29180 8.49573468 3.3184483200000003 -3.78667962 0.000144 0.035141000000000006 0.003161
29200 8.4883968 3.3027327000000004 -3.76826625 0.000153 0.038332 0.004225
29220 8.46878661 3.30003495 -3.7510497000000003 -0.0008990000000000002 0.040471 0.003147
29240 8.470287540000001 3.3024285900000003 -3.7341372600000002 -0.001971 0.04047 0.004207
29260 8.47237707 3.29314833 -3.7283003100000003 -0.0008990000000000002 0.03941 0.0020800000000000003
29280 8.502768450000001 3.30617601 -3.76676532 -0.0008990000000000002 0.038349 0.001013
29300 8.51190156 3.3196451400000004 -3.74461434 0.001244 0.040472 0.001025
29320 8.47866528 3.29374674 -3.7411710300000003 0.002321 0.042599 0.00103
29340 8.48346237 3.28626171 -3.76482294 0.003373 0.039399 0.001041
29360 8.492889779999999 3.2995836899999995 -3.75898599 0.004411 0.034065 0.002124
29380 8.4767229 3.2748919200000004 -3.75554268 0.0044020000000000005 0.032996 0.003193
29400 8.501865930000001 3.2682996 -3.75374745 0.002273 0.034068 0.003177
29420 8.49363534 3.2885082000000003 -3.75449301 -0.000889 0.041541 0.002077
29440 8.486905680000001 3.2934524400000003 -3.78173538 -0.001966 0.040475 0.003139
29460 8.50171878 3.2989852800000006 -3.75179526 0.000144 0.037263 0.005294
29480 8.47612449 3.2811801300000005 -3.75374745 0.002249 0.031925 0.006384
29500 8.4997764 3.30527349 -3.73338189 0.004382 0.031917 0.006399
29520 8.509949370000001 3.3118658100000005 -3.75449301 0.001191 0.034059 0.006374
29540 8.47717416 3.3096193200000004 -3.71991276 0.002273 0.03619 0.005311
29560 8.486905680000001 3.2980925700000006 -3.7420637400000003 0.002273 0.034068 0.003177
29580 8.50771269 3.30527349 -3.75239367 -0.000913 0.038336 0.004217
29600 8.50785984 3.30079032 -3.7363837500000003 -0.000904 0.039406 0.003148
29620 8.49334104 3.2983868700000003 -3.7224633600000003 0.003364 0.039391 0.0031780000000000003
29640 8.486003160000001 3.3012317700000002 -3.7362267900000004 0.001235 0.038342 0.0010279999999999998
29660 8.497824210000001 3.27563748 -3.7549442700000006 0.003364 0.037269 0.001044
29680 8.476870049999999 3.2943451500000003 -3.7613796300000004 0.002306 0.039403 0.001034
29700 8.501571629999999 3.2976413100000004 -3.75778917 0.000187 0.042606 0.001015
