time Ax Ay Az Gx Gy Gz
20 -7.769441520000001 4.02991857 4.40653428 -0.017993000000000002 0.038387 0.006234
40 -7.69010805 4.0621051800000005 4.4191107 -0.023385 0.036233 0.016881999999999998
60 -7.634877750000001 4.07377908 4.41147852 -0.028767 0.03727 0.028593
80 -7.71825294 4.06255644 4.3385804100000005 -0.040526 0.039412 0.035986000000000004
100 -7.818991830000001 4.03500996 4.261336470000001 -0.042727 0.026627 0.038123
120 -7.87512465 4.060908360000001 4.255048260000001 -0.047038 0.017055 0.038106
140 -7.873025310000001 4.02737778 4.22811 -0.043832 0.014925999999999997 0.034926
160 -7.868983590000001 4.0362067800000005 4.1733211500000005 -0.034173 0.022371 0.029643
180 -7.88933934 4.035157110000001 4.24996668 -0.022404 0.026603 0.026515
200 -7.922124360000001 4.0080618900000005 4.23933264 -0.01386 0.027643 0.025505
220 -7.8463813500000015 3.9999784500000004 4.17706857 -0.005296 0.034005 0.025557
240 -7.87452624 4.044437370000002 4.2366447 0.0043630000000000006 0.04251 0.02134
260 -7.84802943 3.99055104 4.25908998 0.011817 0.04035 0.022463
280 -7.84788228 4.05880902 4.23005238 0.016056 0.035004 0.023568
300 -7.92721575 4.08530583 4.20699888 0.018189 0.032875 0.021449
320 -7.8954804 4.06823643 4.2131399400000005 0.018233000000000003 0.038218 0.017169999999999998
340 -7.8724269 4.008513150000001 4.23289728 0.016146999999999998 0.044634 0.012874000000000002
360 -7.89368517 4.00492269 4.285135530000001 0.015075 0.042512 0.011801
380 -7.885003320000001 4.00762044 4.286930760000001 0.010774 0.03507 0.011781
400 -7.80521859 3.9890501100000004 4.28962851 0.00755 0.030815 0.012832
420 -7.76779344 4.0062666600000005 4.30445142 0.005425 0.032953 0.012814
440 -7.7944374 4.0055211 4.3107396300000005 0.000115 0.038298 0.01277
460 -7.827820830000001 4.02468003 4.31373168 -0.003086 0.039371 0.013815
480 -7.80956442 4.03785486 4.328996040000001 -0.007353 0.038324 0.012718
500 -7.772884830000001 4.04833194 4.30579539 -0.0062770000000000005 0.037268 0.009522
520 -7.793691840000001 4.05357048 4.28438997 -0.004128 0.037274 0.006333
540 -7.797733560000001 4.03770771 4.293071820000001 -0.008409999999999999 0.035154000000000005 0.007373999999999999
560 -7.809260310000001 4.03680519 4.30804188 -0.00199 0.035148 0.003146
580 -7.8086619 4.025876850000001 4.26747753 -0.003066 0.034082999999999995 0.004208
600 -7.801029720000001 4.04458452 4.23753741 0.001196 0.035124 0.006372999999999999
620 -7.8143517000000005 4.035608370000001 4.2776505 0.0033880000000000004 0.0479 0.006372
640 -7.809711570000001 4.06404756 4.30115526 0.003412 0.051104 0.004231
660 -7.80775938 4.08291219 4.3086402900000005 0.003378 0.044709 0.005307
680 -7.787560590000001 4.080518550000001 4.30414731 0.002302 0.038338 0.001035
700 -7.775876879999999 4.09458609 4.31103393 0.002302 0.038338 0.001035
720 -7.740551070000001 4.115991510000001 4.30369605 0.003397 0.043665 -3.2e-05
740 -7.72064658 4.12048449 4.29622083 0.004464 0.044722000000000005 0.001042
760 -7.762260600000001 4.09069152 4.293974340000001 0.003392 0.045782 0.00317
780 -7.7884533000000005 4.1035622400000005 4.28813739 0.002306 0.043647000000000005 0.005301
800 -7.79039568 4.030821090000002 4.299212880000001 0.002282 0.038321 0.005308
820 -7.80775938 4.06674531 4.3294473 -0.000928 0.033018 0.002088
840 -7.8465285 4.03874757 4.3146243900000005 -0.002009 0.030887 0.003151
860 -7.864941870000001 4.07707524 4.33573551 -0.002014 0.033005 0.006353
880 -7.79923449 4.02991857 4.28424282 -0.000937 0.038315 0.009558
900 -7.797733560000001 4.035157110000001 4.29546546 -0.004152 0.038313 0.012741
920 -7.7856084 4.05282492 4.30594254 -0.005248 0.032986 0.013808
940 -7.77438576 4.02154083 4.30235208 -0.0042 0.030844 0.015954
960 -7.782910650000001 4.07631987 4.297564800000001 -0.006348 0.027655 0.015944
980 -7.776033840000001 4.096234170000001 4.2728632200000005 -0.012788 0.017034 0.013775999999999998
1000 -7.792799130000001 4.0978822500000005 4.25654919 -0.009573 0.014913 0.008459999999999999
1020 -7.797282300000001 4.11508899 4.25250747 -0.003047 0.0341 -6.500000000000001e-05
1040 -7.807465080000001 4.108359330000001 4.25834442 0.000206 0.038379 -0.007525
1060 -7.78770774 4.09697973 4.259246940000001 -0.002932 0.036324 -0.023568
1080 -7.77378735 4.060908360000001 4.28319315 0.001354 0.018289 -0.045948
1100 -7.814950110000002 4.03350903 4.323011940000001 0.006689 0.014026 -0.050178
1120 -7.84922625 4.03126254 4.3225606800000005 0.026988 0.026713 -0.043643
1140 -7.838749170000001 4.04204373 4.2858909 0.032346 0.038387 -0.037211
1160 -7.797282300000001 4.02752493 4.273167330000001 0.028117000000000003 0.061778 -0.022315
1180 -7.80775938 4.02767208 4.30340175 0.015272 0.067089 -0.007456999999999998
1200 -7.8465285 4.06554849 4.3004097 0.000336 0.06608 -0.008628
1220 -7.843840560000001 4.1516214300000005 4.23918549 -0.011525 0.040547 -0.006542
1240 -7.763153310000001 4.23933264 4.26013965 -0.01374 0.035177 0.006268
1260 -7.6510348200000005 4.06569564 4.34097405 -0.010534 0.043658 0.013757
1280 -7.75552113 4.13828964 4.31193645 -0.007271 0.058556 0.014828999999999997
1300 -7.806719520000001 4.235290920000001 4.28438997 -0.007219 0.072396 0.016947999999999998
1320 -7.65882396 4.115393100000001 4.37854635 -0.00186 0.079826 0.019113
1340 -7.716153600000001 4.03096824 4.405935870000001 -0.0007650000000000001 0.08515199999999999 0.018045
1360 -7.84353645 4.05911313 4.37211099 0.0077459999999999985 0.072369 0.010644
1380 -7.790699790000001 3.9707937 4.39201548 0.004469 0.051092 0.006375
1400 -7.71285744 3.9457978200000006 4.37599575 -0.001971 0.035164999999999995 -0.001127
1420 -7.83724824 4.04847909 4.3584849000000006 0.000197 0.034127 -0.009656
1440 -7.86120426 3.99339594 4.18140459 0.0065450000000000005 0.006470999999999999 -0.0256
1460 -7.863597899999999 3.9019373100000005 4.0894947 0.003292 -0.011601 -0.032009
1480 -7.945923420000001 3.84475482 4.14248832 0.007597 -0.012643 -0.041591
1500 -7.998171480000001 3.95672616 4.20011226 0.015185 0.004413 -0.051174
1520 -7.880363190000001 4.01480136 4.26118932 0.012114 0.031065 -0.053366
1540 -7.7746800600000014 4.01166216 4.324807170000001 0.014214 0.033149 -0.04374
1560 -7.75836603 4.03111539 4.36806927 0.010942 0.030975 -0.029873
1580 -7.783067610000001 4.04533989 4.3641747 0.00877 0.036253 -0.016009
1600 -7.721990550000001 4.12916634 4.279455540000001 0.015104 0.039354 0.0021920000000000004
1620 -7.7306724 4.13065746 4.264926930000001 0.006506999999999999 0.042512 0.019219
1640 -7.790699790000001 4.20371253 4.28154507 -0.011731 0.027631 0.026588
1660 -7.88904504 4.23873423 4.2270603300000005 -0.021428 0.003177 0.023347
1680 -7.782910650000001 4.19607054 4.187839950000001 -0.026777 -0.003184 0.020113
1700 -7.72798446 4.0261809600000005 4.29367023 -0.024567 0.018097 0.024374
1720 -7.792799130000001 4.07767365 4.34905749 -0.016978999999999998 0.043642 0.023326
1740 -7.81779501 4.096087020000001 4.36896198 -0.013783000000000002 0.03726 0.018016
1760 -7.79907753 3.98232045 4.39186833 -0.012802 0.011716 0.011646
1780 -7.841142810000001 3.8880169200000005 4.344868620000001 -0.007506 -0.00213 0.00636
1800 -7.928863830000001 3.86810262 4.33169379 -0.005291 0.017033 0.0074189999999999985
1820 -7.948317060000001 3.7895245200000005 4.2790042800000005 0.002254 0.031929 0.005316
1840 -7.934995080000001 3.86047044 4.23079794 -0.00842 0.025596 -9.2e-05
1860 -7.990833600000001 4.02991857 4.18903677 -0.011659 0.012841 -0.004371
1880 -7.98095493 4.10536728 4.0899459600000005 -0.003119 0.018121 -4.5e-05
1900 -7.81165395 4.0892004 4.080361590000002 0.008698000000000001 0.034067 -0.002119
1920 -7.7067261899999995 4.03231221 4.17182022 0.008693000000000001 0.029819 -0.005319
1940 -7.8279679799999995 4.006413810000001 4.33932597 0.0044210000000000005 0.02983 -0.00428
1960 -7.9716746700000005 4.06404756 4.41521613 0.003407 0.039429 -0.006436
1980 -7.858359360000001 3.97318734 4.30804188 0.005603 0.060697 0.00103
2000 -7.78471569 3.971088 4.33423458 0.008794 0.060677 0.003188
2020 -7.75013544 3.9832131600000005 4.35998583 0.0066170000000000005 0.051098000000000005 0.0031850000000000003
2040 -7.7625549 3.98755899 4.47015213 0.006636 0.055359000000000005 0.00318
2060 -7.7764752900000005 4.07243511 4.39201548 0.011994 0.059605 0.002144
2080 -7.7170561200000005 4.03934598 4.29441579 0.009832 0.056404 0.005338
2100 -7.710012540000001 3.97228482 4.31792055 0.005493 0.041501 0.0063950000000000005
2120 -7.78321476 3.95133066 4.37479893 0.002278 0.033011 0.001042
2140 -7.8462342000000005 4.10446476 4.38184251 -0.004104 0.035173 -0.001142
2160 -7.77737781 4.05521856 4.34606544 0.002302 0.033033 -0.004299
2180 -7.66600488 3.99055104 4.38453045 0.007606999999999998 0.02344 -0.007454
2200 -7.65119178 3.9790242900000004 4.43557188 0.011894 0.026625 -0.008497
2220 -7.757316360000001 3.9472889400000004 4.48512219 0.011956 0.040473 -0.008514
2240 -7.850423070000001 3.9764835 4.35324636 0.010985 0.057538 -0.012816
2260 -7.827820830000001 3.9957895800000003 4.3123779 -0.000717 0.062914 -0.015041
2280 -7.7863539600000005 3.95687331 4.34800782 -0.005028 0.059708 -0.008657
2300 -7.9040151000000005 3.9691456200000004 4.29711354 -0.009343 0.05649700000000001 -0.001206
2320 -7.882609680000001 4.052069550000001 4.27465845 -0.020088 0.054344 0.013677000000000002
2340 -7.88529762 4.05611127 4.20835266 -0.01794 0.060715 0.016888
2360 -7.79624244 4.056562530000001 4.1851422000000005 -0.004009 0.071332 0.013766999999999998
2380 -7.7089726800000005 4.02108957 4.26328866 0.007804000000000002 0.076664 0.002093
2400 -7.83111699 4.006717920000001 4.3266024000000005 0.01643 0.089448 -0.005340999999999999
2420 -7.87093578 4.07123829 4.352647950000001 0.030404 0.102225 -0.015941999999999998
2440 -7.77752496 3.99339594 4.42808685 0.035801 0.11075 -0.021256
2460 -7.77363039 4.04099406 4.42315242 0.041097 0.105392 -0.018008
2480 -7.7924950200000005 4.05641538 4.388876280000001 0.04103 0.091539 -0.016922
2500 -7.7044797 4.034862810000001 4.35743523 0.031318 0.073438 -0.010558
2520 -7.69010805 3.93936246 4.32645525 0.031207 0.057425 -0.0019920000000000003
2540 -7.7984791200000005 3.97992681 4.3285447800000005 0.027925 0.04357 0.002276
2560 -7.906703040000001 4.07767365 4.31133804 0.023624000000000003 0.042494 0.008656
2580 -7.90296543 4.05895617 4.31986293 0.015056 0.03825 0.011807
2600 -7.727081940000001 3.88098315 4.374504630000001 0.003282 0.034013 0.016003
2620 -7.61646438 3.82499748 4.46701293 -0.005301 0.029757 0.022358000000000003
2640 -7.63008066 3.87918792 4.48871265 -0.009583 0.031881 0.027666000000000003
2660 -7.75642365 3.97453131 4.472104320000001 -0.017099 0.019132 0.025493
2680 -7.7707953000000005 3.95163477 4.42240686 -0.028887 0.006394 0.024359
2700 -7.82812494 3.89983797 4.388425020000001 -0.031068 -0.008495 0.02009
2720 -7.8820112700000005 3.93591915 4.25385144 -0.041756 -0.012719 0.020021
2740 -7.919583570000001 3.96375993 4.168533870000001 -0.037527 -0.018073 0.023262
2760 -8.093367720000002 3.8769414300000005 4.13125587 -0.036455 -0.017011000000000002 0.023268
2780 -8.05490271 4.068089280000001 4.028721750000001 -0.036441 -0.015937 0.02113
2800 -8.02465848 4.02363036 4.09398768 -0.034288 -0.014866999999999997 0.017939
2820 -7.97736447 4.04249499 4.0487832 -0.02683 -0.019145 0.01586
2840 -7.96703454 4.09188834 4.01899023 -0.023581 -0.013809 0.010535
2860 -7.94412819 4.06495008 4.068089280000001 -0.012807 0.0074680000000000015 0.008447
2880 -7.99980975 4.0222863900000005 4.127067 -0.001995 0.043632 0.012749
2900 -8.005950810000002 4.104013500000001 4.10312079 0.00123 0.057435 0.021299
2920 -7.967780100000001 4.17286989 4.0977252900000005 -0.0031 0.046785 0.024487
2940 -7.927510050000001 4.182003 4.12856793 -0.004234 0.031875 0.024499
2960 -7.919132310000001 4.1712218100000005 4.17167307 -0.003181 0.032919 0.028778
2980 -7.872731010000001 4.0635963 4.173625260000001 -0.003172 0.037172 0.030909
3000 -7.89502914 4.17706857 4.229306820000001 1.9e-05 0.038213 0.034134
3020 -7.869582 4.085757090000001 4.32825048 0.007478 0.041362 0.039523
3040 -7.814802960000001 4.0222863900000005 4.286930760000001 0.017137 0.05305 0.038508
3060 -7.78007556 3.9866564700000002 4.27436415 0.024677 0.060515 0.030005
3080 -7.765998210000001 3.9947399100000003 4.37120847 0.033322000000000004 0.0574 0.0022960000000000003
3100 -7.68637044 3.92199876 4.45458366 0.034480000000000004 0.054294000000000016 -0.021193
3120 -7.63696728 3.8067312600000003 4.5321219 0.03991 0.06603200000000001 -0.030784
3140 -7.70986539 3.80763378 4.4878199400000005 0.06698 0.124648 -0.060581
3160 -7.821689580000001 3.9621118500000003 4.42884222 0.113617 0.266278 -0.08821
3180 -7.806562560000001 3.92289147 4.336932330000001 0.015842 0.165209 -0.036421
3200 -7.747741800000001 3.8300888700000004 4.323159090000002 -0.025629 0.041447000000000005 0.04677
3220 -7.81375329 3.9339669600000002 4.2728632200000005 -0.023711000000000003 -0.010741 0.042577
3240 -7.8838065 4.05566982 4.287087720000001 -0.023576 0.006354 0.029737
3260 -7.813449180000001 4.00417713 4.29876162 -0.009367 0.07026900000000001 0.018004
3280 -7.73007399 3.9490841700000003 4.365077220000001 -0.006008 0.09374 0.006247
3300 -7.688312820000001 3.98830455 4.42300527 -0.013543 0.072486 -0.000187
3320 -7.6670545500000005 4.0618010700000005 4.472104320000001 -0.012606 0.045843 0.00199
3340 -7.55853633 4.088150730000001 4.46925942 -0.011678 0.026617 0.013771
3360 -7.5357771300000005 3.9947399100000003 4.43377665 -0.016128 0.0020670000000000003 0.029795
3380 -7.66660329 4.083961860000001 4.41566739 -0.017348 -0.021408 0.040499
3400 -7.6014943200000005 4.21837848 4.41296964 -0.014162 -0.023554 0.041592
3420 -7.442523270000001 4.1576055300000005 4.4800308 -0.014122999999999997 -0.013969999999999998 0.042648
3440 -7.8540135300000005 4.13260965 3.9618077400000002 -0.009789 -0.0033159999999999995 0.038392
3460 -8.70335352 4.50188748 3.6989586 0.000952 0.004138 0.029912
3480 -8.34035409 4.28484123 4.080361590000002 0.004239 0.014814 0.021375
3500 -7.844733270000001 3.8315799900000003 4.111949790000001 0.006478 0.028693 0.011759
3520 -7.82946891 3.78517869 4.20056352 0.003383 0.045774 0.005306
3540 -7.81299792 3.96644787 4.08155841 0.000264 0.062834 0.004194
3560 -7.904613510000001 4.00506984 4.10252238 0.003527 0.073488 0.000999
3580 -7.95536064 4.01480136 4.12317243 0.003540999999999999 0.078806 0.003128
3600 -7.97556924 4.044437370000002 4.1037192000000005 0.004617 0.079871 0.002066
3620 -8.01283743 4.0161453300000005 4.19666895 0.003512 0.07241399999999999 0.003136
3640 -7.958048580000001 4.046389560000001 4.1990724 0.001311 0.05963 0.005274
3660 -7.8483335400000005 4.060309950000001 4.259246940000001 -0.0008849999999999998 0.043667 0.003143
3680 -7.75312749 4.0371093 4.344868620000001 -0.003066 0.031961 0.002074
3700 -7.709571090000001 4.0362067800000005 4.34516292 -0.003095 0.027691000000000004 0.004215999999999999
3720 -7.67439243 4.0639004100000005 4.3767511200000015 -0.002047 0.026609 0.007429000000000002
3740 -7.66076634 4.07916477 4.42569321 -0.001014 0.022332 0.010647
3760 -7.633828080000002 4.07856636 4.42719414 -0.002115 0.01594 0.011715
3780 -7.658519850000001 4.09757814 4.4261444700000006 -0.005301 0.017025 0.009555
3800 -7.6899609 4.07467179 4.36387059 -0.004181 0.026617 0.007414
3820 -7.7363622 4.10326794 4.30773777 -0.005243 0.03193 0.011673
3840 -7.78575555 4.09697973 4.25789316 -0.006281 0.041508 0.014858
3860 -7.86524598 4.0838049000000005 4.21058934 -0.0062770000000000005 0.041512 0.01379
3880 -7.91478648 4.09024026 4.17437082 -0.010558 0.03727 0.012697
3900 -7.93439667 4.08755232 4.14173295 -0.006286 0.03726 0.011659
3920 -7.922124360000001 4.07722239 4.113597870000001 -0.003047 0.043649 0.009537
3940 -7.90176861 4.058661870000002 4.1125482 -0.001956 0.045788 0.006337
3960 -7.908508080000001 4.08006729 4.1733211500000005 0.00123 0.044703 0.008497
3980 -7.894283580000001 4.088150730000001 4.17482208 0.002292 0.044695 0.009573
4000 -7.89174279 4.08800358 4.18080618 0.002278 0.040439 0.00851
4020 -7.809260310000001 4.08515868 4.21687755 0.0033060000000000003 0.035095999999999995 0.011729
4040 -7.788159000000001 4.080214440000001 4.2602868 0.001163 0.032973 0.011716
4060 -7.7799186 4.06569564 4.30445142 -0.000961 0.03405 0.010632
4080 -7.778721780000001 4.07677113 4.342769280000001 -0.004143 0.0362 0.00847
4100 -7.777829070000001 4.13904501 4.3107396300000005 -0.004148 0.034074 0.007405
4120 -7.8161469299999995 4.12482051 4.30385301 -0.004118999999999999 0.036221 0.003129
4140 -7.775582580000001 4.08904344 4.25160495 -0.001952 0.040488 -6.6e-05
4160 -7.78725648 4.0371093 4.3004097 -0.0008609999999999999 0.042627 -0.003265
4180 -7.812252360000001 4.0462326000000015 4.31133804 -0.00088 0.038366 -0.0032600000000000003
4200 -7.799980050000001 4.05940743 4.279151430000001 -0.000889 0.037297 -0.00219
4220 -7.788904560000001 4.06913895 4.24203039 0.002321 0.040477 -0.001104
4240 -7.801176870000001 4.0679421300000005 4.20759729 0.002316 0.041534 0.001031
4260 -7.819737389999999 4.0749759 4.18110048 0.0033880000000000004 0.040473 -0.0010960000000000002
4280 -7.8374052 4.09728384 4.225412250000001 0.0033590000000000004 0.035143 -2.2e-05
4300 -7.825123080000001 4.11628581 4.217475960000001 0.00334 0.033003 0.002117
4320 -7.804620180000001 4.12287813 4.25026098 0.002316 0.03729 -0.003236
4340 -7.775876879999999 4.1296077900000006 4.24996668 0.000197 0.040493 -0.003255
4360 -7.77123675 4.08874914 4.2629845500000005 0.003383 0.04153 0.001039
4380 -7.76450709 4.0757214600000005 4.25729475 0.00234 0.048982 0.003158
4400 -7.785009990000001 4.11240105 4.29412149 0.002349 0.051112 0.003156
4420 -7.810604280000001 4.08515868 4.26956706 0.001239 0.043651 0.005294
4440 -7.8025208400000015 4.096234170000001 4.26253329 0.000168 0.038345 0.00102
4460 -7.75776762 4.10491602 4.24636641 -0.00088 0.036244 -0.005394
4480 -7.7924950200000005 4.06150677 4.28259474 0.003392 0.037294 -0.005365
4500 -7.82213103 4.0778208000000005 4.271067990000001 0.004469 0.041543 -0.0032270000000000003
4520 -7.830518580000001 4.0866498 4.26642786 0.003412 0.044738 -0.00217
4540 -7.8026778000000006 4.104013500000001 4.20895107 0.005536 0.044722000000000005 -1.9e-05
4560 -7.8025208400000015 4.058661870000002 4.245768 0.006593000000000001 0.041527 -0.001075
4580 -7.78575555 4.056866640000001 4.27092084 0.004435000000000001 0.035147000000000005 -0.002151
4600 -7.79967594 4.06883484 4.26209184 0.001239 0.036224 -0.002174
4620 -7.79399595 4.05985869 4.27346163 0.001249 0.041537 0.001024
4640 -7.819443090000001 4.12976475 4.26209184 -0.000889 0.04048 0.00101
4660 -7.876772730000001 4.144577850000001 4.2486129 -0.000904 0.038345 0.002081
4680 -7.82437752 4.1035622400000005 4.197718620000002 0.001239 0.038346 -4e-05
4700 -7.806562560000001 4.0559641200000005 4.23005238 0.003368 0.038334 0.001043
4720 -7.836806790000001 4.1017670100000005 4.2349966199999995 0.003383 0.039408 -0.0010949999999999998
4740 -7.76989278 4.05431604 4.271215140000001 0.003373 0.038338 -2.6e-05
4760 -7.7968408500000015 4.07332782 4.2628374 0.003373 0.04046 0.002108
4780 -7.818991830000001 4.065989940000001 4.267026270000001 0.004454 0.042591 0.001045
4800 -7.837699500000001 4.09039722 4.23933264 0.002311 0.039407 -3.4e-05
4820 -7.838749170000001 4.08111696 4.24038231 0.002287 0.034081 -2.8000000000000006e-05
4840 -7.8055227 4.086198540000001 4.23184761 0.002268 0.031942 0.002111
4860 -7.804767330000001 4.09353642 4.24801449 0.002278 0.035133 0.003176
4880 -7.76614536 4.105965690000001 4.26178773 -0.000909 0.035157 -5.1e-05
4900 -7.801029720000001 4.08425616 4.25490111 0.00016299999999999998 0.03728 0.001022
4920 -7.814646 4.0818625200000005 4.229306820000001 0.001244 0.042594 0.003159
4940 -7.8378466499999995 4.07856636 4.25160495 0.003416 0.050048 0.002096
4960 -7.82767368 4.0576122 4.22002656 0.000201 0.046863 0.002078
4980 -7.83695394 4.052226510000001 4.251310650000001 0.001244 0.041533 0.002092
5000 -7.82123832 4.0576122 4.2366447 0.00445 0.039404 -0.001088
5020 -7.816441230000001 4.052226510000001 4.22825715 0.004454 0.038347000000000006 -0.003223
5040 -7.825123080000001 4.06120266 4.22811 0.007669 0.040471 -0.0042710000000000005
5060 -7.83111699 4.0938405300000005 4.252203360000001 0.006612000000000001 0.043666 -0.003214
5080 -7.812850770000001 4.0995205200000004 4.20475239 0.005536 0.0426 -0.002152
5100 -7.826928120000001 4.09743099 4.22392113 0.004464 0.041539 -0.002158
5120 -7.818991830000001 4.06823643 4.24562085 0.004459 0.040474 -0.002157
5140 -7.82183673 4.08755232 4.2388813800000005 0.002321 0.040477 -0.001104
5160 -7.81868772 4.07916477 4.2400782 0.001244 0.039411 -4.2e-05
5180 -7.82018865 4.0490775 4.248318600000001 0.000177 0.040476 0.001018
5200 -7.82363196 4.09473324 4.2529587300000005 -0.0008990000000000002 0.03941 0.0020800000000000003
5220 -7.892341200000001 4.100118930000001 4.267026270000001 0.00016299999999999998 0.038341 0.002088
5240 -7.82363196 4.0692861 4.202662860000001 0.000153 0.037271 0.003158
5260 -7.8123995100000005 4.04294625 4.22675622 0.001235 0.040464 0.003161
5280 -7.83470745 4.06823643 4.24023516 0.002306 0.040464 0.002101
5300 -7.80177528 4.04369181 4.23588933 0.001225 0.038333 0.003164
5320 -7.7856084 4.0576122 4.2543027 0.000139 0.035137 0.004229
5340 -7.789650120000001 4.06134981 4.258050120000001 0.000153 0.037271 0.003158
5360 -7.81404759 4.098922110000001 4.2090982200000004 -0.0019760000000000003 0.036222 0.001008
5380 -7.839053280000001 4.094134830000001 4.20775425 0.000153 0.03621 0.002091
5400 -7.84712691 4.0757214600000005 4.20924537 0.000153 0.035149 0.001024
5420 -7.822729440000001 4.08844503 4.21254153 0.001225 0.037272 0.002097
5440 -7.8085147500000005 4.08860199 4.22287146 0.003383 0.04153 0.001039
5460 -7.818991830000001 4.06495008 4.22361702 0.001239 0.040468 0.002093
5480 -7.83066573 4.04099406 4.22227305 0.003368 0.040456 0.003176
5500 -7.850874330000001 4.03546122 4.22990523 0.00123 0.037276 0.001029
5520 -7.85745684 4.04713512 4.229758080000002 0.000149 0.036206 0.003159
5540 -7.85776095 4.04833194 4.25415555 -0.000923 0.036206 0.004220000000000001
5560 -7.851924 4.05566982 4.20490935 -0.0008849999999999998 0.042606 0.002076
5580 -7.8222879899999995 4.0701886200000015 4.20041637 0.000192 0.042611 -5.3e-05
5600 -7.82408322 4.0701886200000015 4.22811 -0.001947 0.041553 -6.7e-05
5620 -7.83336348 4.071532590000001 4.219271190000001 -0.0008990000000000002 0.037288 -5.400000000000001e-05
5640 -7.81420455 4.08695391 4.22765874 0.00123 0.035154000000000005 -0.001105
5660 -7.82377911 4.0951845 4.22496099 0.001215 0.031958 -0.001101
5680 -7.81195806 4.07033577 4.2332013900000005 0.00123 0.038337 0.002096
5700 -7.85072718 4.08800358 4.23634059 0.00122 0.03939 0.005299
5720 -7.828723350000001 4.1035622400000005 4.2574419 0.00122 0.03939 0.005299
5740 -7.8203358000000005 4.052226510000001 4.235290920000001 0.00015800000000000002 0.039398 0.004224
5760 -7.83949473 4.06150677 4.2332013900000005 0.001225 0.039394 0.004231
5780 -7.830518580000001 4.0778208000000005 4.207450140000001 0.000153 0.038332 0.004225
5800 -7.84668546 4.034558700000001 4.2107463 0.000149 0.038328 0.005293
5820 -7.82722242 4.09877496 4.21658325 -0.000918 0.039393 0.006352
5840 -7.88335524 4.071081330000001 4.24067661 0.00016299999999999998 0.041524 0.005289
5860 -7.875723060000001 4.10341509 4.2231657600000005 0.000177 0.040476 0.001018
5880 -7.816745340000001 4.04099406 4.17691161 0.002316 0.041534 0.001031
5900 -7.83590427 4.06854054 4.22196894 0.002302 0.039399 0.002102
5920 -7.823180700000001 4.04144532 4.21239438 0.000153 0.035149 0.001024
5940 -7.81315488 4.01899023 4.24217754 0.000149 0.034084 0.001026
5960 -7.82452467 4.03680519 4.253105879999999 0.001206 0.034072000000000005 0.003169
5980 -7.82093421 4.04369181 4.24816164 -0.000942 0.034067 0.006359
6000 -7.866894060000001 4.08171537 4.23155331 -0.000928 0.037262 0.006355
6020 -7.8279679799999995 4.07303352 4.22795304 0.000134 0.037254 0.007431
6040 -7.79563422 4.04204373 4.23199476 -0.000923 0.037267 0.005287
6060 -7.801176870000001 4.06315485 4.221674640000001 0.001201 0.03619 0.006371
6080 -7.843840560000001 4.08425616 4.23648774 0.0012109999999999998 0.035137 0.003168
6100 -7.838602020000001 4.08710106 4.24038231 0.00015800000000000002 0.038337 0.003157
6120 -7.8144988500000006 4.07138544 4.24232469 -0.000904 0.038345 0.002081
6140 -7.85072718 4.08755232 4.21598484 -0.000904 0.038345 0.002081
6160 -7.8541704900000004 4.066598160000001 4.218525629999999 0.001215 0.036202 0.003167
6180 -7.86539313 4.05746505 4.1992195500000005 0.000168 0.044711 0.007421
6200 -7.84039725 4.08605139 4.21089345 0.003378 0.043648 0.004241
6220 -7.85072718 4.049832870000001 4.218074370000001 0.002297 0.042578 0.006371
6240 -7.8493734 4.06255644 4.226157810000001 -0.000909 0.03834 0.003149
6260 -7.8490791 4.06239948 4.22002656 -0.0008939999999999998 0.039414 0.001011
6280 -7.832608110000001 4.06060425 4.23199476 -0.0008990000000000002 0.037288 -5.400000000000001e-05
6300 -7.826624010000001 4.070787030000001 4.20190749 0.001239 0.039407 0.001026
6320 -7.83396189 4.05326637 4.205507760000001 0.00445 0.041526 0.001046
6340 -7.84563579 4.064498820000001 4.241431980000001 0.003378 0.040465 0.00104
6360 -7.853415120000001 4.08246093 4.253704290000001 0.004425999999999999 0.039383 0.004253
6380 -7.825878449999999 4.05581697 4.24382562 0.002282 0.03726 0.004241
6400 -7.81375329 4.06854054 4.24487529 -0.000933 0.035136 0.00529
6420 -7.82243514 4.08260808 4.22825715 -0.000918 0.038332 0.005286
6440 -7.817196600000001 4.04115102 4.24067661 -0.000928 0.037262 0.006355
6460 -7.818089310000001 4.08515868 4.22002656 0.000144 0.038324 0.006361
6480 -7.9270686 4.104317610000002 4.232298870000001 0.000144 0.038324 0.006361
6500 -7.869140550000001 4.0797631800000005 4.202662860000001 -0.002 0.034079000000000005 0.004215
6520 -7.82632971 4.026622410000001 4.22586351 0.000153 0.037271 0.003158
6540 -7.83545301 4.04773353 4.213287090000001 0.000134 0.035132 0.005297
6560 -7.782910650000001 4.0314195 4.2369390000000005 -0.000928 0.03514 0.004221
6580 -7.810908390000001 4.0278192299999995 4.243227210000001 0.001187 0.032994 0.006375
6600 -7.84353645 4.0559641200000005 4.25640204 0.000134 0.035132 0.005297
6620 -7.85297367 4.07961603 4.221370530000001 0.001177 0.032985 0.008512
6640 -7.859252070000001 4.0739262300000005 4.2191240400000005 0.000105 0.034046 0.010639
6660 -7.83425619 4.07138544 4.2312492 -0.002033 0.034049 0.011693
6680 -7.80222654 4.07123829 4.22586351 -0.00309 0.035122 0.010616
6700 -7.805071440000001 4.09039722 4.2167304 -0.003076 0.037257 0.009545
6720 -7.83994599 4.080518550000001 4.23065079 -0.002023 0.035119 0.010623
6740 -7.82018865 4.08365775 4.237243110000001 -0.000947 0.035123 0.008494
6760 -7.85072718 4.06749087 4.217475960000001 -0.000942 0.035128 0.007426
6780 -7.85431764 4.04802783 4.20685173 -0.000937 0.037254 0.008491
6800 -7.86539313 4.0487832 4.1962275 -0.000923 0.042572000000000006 0.010621
6820 -7.852669560000001 4.06554849 4.23634059 -0.0008990000000000002 0.046837 0.009548
6840 -7.8541704900000004 4.06375326 4.211491860000001 -0.003071 0.040444 0.011677
6860 -7.848931950000001 4.05985869 4.20431094 -0.004172 0.03193 0.010612
6880 -7.83396189 4.072131000000001 4.209843780000001 -0.003086 0.031944 0.006347
6900 -7.841594070000001 4.060309950000001 4.20924537 0.000144 0.03408 0.002094
6920 -7.840691550000001 4.08336345 4.22287146 0.0033590000000000004 0.036204 0.001045
6940 -7.84548864 4.07347497 4.237684560000001 0.002292 0.038329 0.003172
6960 -7.827369570000001 4.05087273 4.219575300000001 0.003354 0.041504 0.0074480000000000015
6980 -7.813302030000001 4.0749759 4.24667052 0.0044210000000000005 0.042562 0.008522
7000 -7.812252360000001 4.065989940000001 4.23753741 0.00334 0.03937 0.008519
7020 -7.826624010000001 4.0818625200000005 4.24052946 -0.002014 0.036188 0.009554
7040 -7.83380493 4.0818625200000005 4.24083357 -0.003076 0.037257 0.009545
7060 -7.81135965 4.051176840000001 4.22451954 -0.006281 0.037264 0.010591
7080 -7.809858720000001 4.07916477 4.2510065400000006 -0.00521 0.036204 0.008463
7100 -7.85685843 4.09638132 4.22107623 -0.002009 0.03407 0.006352
7120 -7.915541850000001 4.13904501 4.24157913 0.001177 0.032985 0.008512
7140 -7.805817 4.088297880000001 4.16299122 0.003325 0.037235 0.00959
7160 -7.81404759 4.038453270000001 4.18095333 0.000115 0.036176 0.010637
7180 -7.810908390000001 4.04249499 4.2252651 -0.000961 0.03405 0.010632
7200 -7.80686667 4.02902586 4.235290920000001 -0.000971 0.03298 0.011701
7220 -7.798783230000001 4.041896580000001 4.29711354 -0.002023 0.035119 0.010623
7240 -7.82392626 4.08336345 4.25640204 -0.002033 0.034049 0.011693
7260 -7.821689580000001 4.070787030000001 4.24607211 -0.0041670000000000006 0.032996 0.010611
7280 -7.825280040000001 4.0658427900000005 4.2312492 -0.0063100000000000005 0.030872000000000007 0.010599
7300 -7.7945943600000005 4.09907907 4.22451954 -0.003095 0.035118 0.011684
7320 -7.8200415 4.11704118 4.22002656 -0.00309 0.036183 0.011682
7340 -7.82408322 4.11075297 4.209843780000001 -0.004143 0.035139 0.007404000000000002
7360 -7.81390044 4.08456027 4.21163901 -0.002023 0.035119 0.010623
7380 -7.83425619 4.06554849 4.197267360000001 0.000134 0.042559 0.012765
7400 -7.8800590800000005 4.04967591 4.2291596700000005 -0.005186 0.044713 0.011657
7420 -7.85281671 4.07033577 4.27406004 -0.005219 0.038317 0.012733
7440 -7.8493734 4.057916310000001 4.2574419 -0.005234 0.032999 0.010603
7460 -7.843095 4.0559641200000005 4.2349966199999995 -0.004148 0.031952 0.0052710000000000005
7480 -7.81779501 4.0559641200000005 4.245768 0.001206 0.034072000000000005 0.003169
7500 -7.81045713 4.08769947 4.22631477 0.0033590000000000004 0.040448000000000005 0.005313
7520 -7.81988454 4.09712688 4.24397277 0.0033590000000000004 0.04257 0.007445999999999999
7540 -7.803717659999999 4.11224409 4.2454737 0.000149 0.039389 0.00636
7560 -7.782017939999999 4.11104727 4.25056509 -0.000952 0.032997000000000005 0.007429000000000002
7580 -7.79399595 4.10326794 4.2511635000000005 -0.00309 0.033 0.008482
7600 -7.810604280000001 4.0758784200000004 4.2570004500000005 -0.003081 0.037253 0.010613
7620 -7.82856639 4.088150730000001 4.25564667 -0.00521 0.037265 0.00953
7640 -7.81554852 4.080518550000001 4.22361702 -0.007348 0.036207 0.009516
7660 -7.81884468 4.03919883 4.28199633 -0.005224 0.03513 0.010601
7680 -7.83949473 4.11240105 4.24411992 -0.003076 0.036196 0.008478
7700 -7.8760173600000005 4.140094680000001 4.23813582 -0.000947 0.034062 0.007427
7720 -7.842339630000001 4.09188834 4.22990523 0.001187 0.035116 0.008509000000000001
7740 -7.80132402 4.05132399 4.20775425 0.000115 0.034054 0.008503
7760 -7.82812494 4.08246093 4.25834442 -0.002004 0.035136 0.00635
7780 -7.768391850000001 4.071532590000001 4.28109381 0.000129 0.036189 0.0074319999999999985
7800 -7.74834021 4.05371763 4.298908770000001 -0.000928 0.037262 0.006355
7820 -7.789650120000001 4.07961603 4.2790042800000005 0.000129 0.035128 0.006365
7840 -7.81659819 4.12512462 4.22287146 -0.000923 0.037267 0.005287
7860 -7.809260310000001 4.09248675 4.25669634 -0.002 0.036201 0.0063490000000000005
7880 -7.81420455 4.10161986 4.2454737 -0.004109000000000001 0.039413 0.004194
7900 -7.793691840000001 4.10312079 4.267026270000001 -0.001952 0.039427 -0.001132
7920 -7.8044730300000005 4.1197291200000015 4.25580363 0.000182 0.04048 -5.1e-05
7940 -7.809858720000001 4.0951845 4.24248165 0.002306 0.041525 0.003168
7960 -7.8174909 4.07542716 4.24052946 -0.001942 0.046862 0.0041990000000000005
7980 -7.837552350000001 4.0576122 4.23079794 -0.000913 0.041519 0.007418000000000002
8000 -7.83351063 4.06868769 4.24442403 0.000139 0.035137 0.004229
8020 -7.82123832 4.07363193 4.24487529 -0.000913 0.03197 -0.002184
8040 -7.811055540000001 4.09458609 4.239479790000001 0.003383 0.036225 -0.004296
8060 -7.788600450000001 4.094438940000001 4.245326550000001 0.005536 0.040478 -0.004286
8080 -7.77752496 4.11224409 4.2508593900000005 0.005545 0.044731 -0.002155
8100 -7.80327621 4.1125482 4.25056509 0.004459 0.043657 0.001043
8120 -7.80192243 4.110448860000001 4.25011383 0.003392 0.042599 -3.1e-05
8140 -7.771540860000001 4.12362369 4.25954124 0.003383 0.040469 -2.8000000000000006e-05
8160 -7.7945943600000005 4.09743099 4.26537819 0.002321 0.040477 -0.001104
8180 -7.76779344 4.100423040000001 4.24667052 -0.001947 0.042614 0.001
8200 -7.75867014 4.11479469 4.27032243 -0.001942 0.043679 0.000999
8220 -7.75807173 4.06239948 4.24636641 -0.001966 0.039414 0.002072
8240 -7.814950110000002 4.04174943 4.27077369 0.001215 0.036202 0.003167
8260 -7.81928613 4.16014632 4.22032086 0.002292 0.036207 0.001038
8280 -7.88590584 4.13081442 4.22735463 0.005512 0.039396 -1.2e-05
8300 -7.832912220000001 4.082156820000002 4.224068280000001 0.003378 0.039404 -2.7e-05
8320 -7.78680522 4.04533989 4.229306820000001 0.00016299999999999998 0.036219 -4.5e-05
8340 -7.7739345 4.0957829100000005 4.27092084 0.0033590000000000004 0.037265 0.002112
8360 -7.75552113 4.06165392 4.28948136 0.004425999999999999 0.038322 0.003186
8380 -7.78321476 4.05641538 4.31373168 0.002278 0.036194 0.004242
8400 -7.7945943600000005 4.09668543 4.25849157 0.00122 0.036207 0.002099
8420 -7.79893038 4.1356017000000005 4.25250747 0.000153 0.035149 0.001024
8440 -7.78051701 4.11389217 4.22601066 -0.0019760000000000003 0.037283 0.002075
8460 -7.792799130000001 4.11209694 4.24411992 -0.0008939999999999998 0.039414 0.001011
8480 -7.762859010000001 4.10865363 4.253704290000001 -0.0008939999999999998 0.038353 -5.5e-05
8500 -7.78591251 4.10326794 4.2369390000000005 0.0033590000000000004 0.038326 0.003179
8520 -7.82992017 4.09264371 4.223018610000001 0.001254 0.047908 0.006357
8540 -7.843095 4.08096 4.2252651 0.002325 0.047908 0.005296
8560 -7.856112870000001 4.0559641200000005 4.25056509 0.001244 0.043655 0.004226
8580 -7.828272090000001 4.0689918 4.25984535 0.002287 0.034081 -2.8000000000000006e-05
8600 -7.825878449999999 4.0547673 4.25729475 0.002302 0.034094 -0.003232
8620 -7.779624300000001 4.082156820000002 4.24277595 0.004469 0.039421 -0.00536
8640 -7.8044730300000005 4.0900931100000015 4.24203039 0.005545 0.042609 -0.004289
8660 -7.79938164 4.11345072 4.235595030000001 0.003407 0.043673 -0.002169
8680 -7.81884468 4.1185323 4.24996668 0.002321 0.041538 -3.7e-05
8700 -7.788904560000001 4.11479469 4.237684560000001 0.002311 0.039407 -3.4e-05
8720 -7.7865109200000004 4.0897988100000005 4.239783900000001 0.002302 0.037277 -3.2e-05
8740 -7.769588670000001 4.09069152 4.25176191 0.001244 0.039411 -4.2e-05
8760 -7.77947715 4.08246093 4.26088521 -0.001961 0.04154 0.003138
8780 -7.827369570000001 4.06194822 4.25954124 0.000173 0.042594 0.004220000000000001
8800 -7.8264768600000005 4.054473 4.23798867 0.00123 0.039398 0.003163
8820 -7.80521859 4.07691828 4.28409567 0.001235 0.038342 0.0010279999999999998
8840 -7.86135141 4.11868926 4.233642840000002 0.004435000000000001 0.03833 0.00105
8860 -7.850570220000001 4.15281825 4.26253329 0.002306 0.038342 -3.3e-05
8880 -7.81375329 4.07946888 4.17377241 0.002302 0.037277 -3.2e-05
8900 -7.78740363 4.064793120000001 4.23244602 0.002287 0.037264 0.003173
8920 -7.763908680000001 4.08844503 4.24083357 0.002287 0.036203 0.002106
8940 -7.76914722 4.06703961 4.26733038 0.003368 0.038334 0.001043
8960 -7.79608548 4.08800358 4.2804954 0.002302 0.037277 -3.2e-05
8980 -7.81824627 4.09997178 4.253105879999999 0.00016299999999999998 0.036219 -4.5e-05
9000 -7.81120269 4.115991510000001 4.229306820000001 0.00016299999999999998 0.03728 0.001022
9020 -7.82363196 4.07932173 4.23619344 0.000182 0.041541 0.001016
9040 -7.78605966 4.07003166 4.234094100000001 0.001235 0.039403 0.002095
9060 -7.8086619 4.0863555 4.2366447 0.002302 0.038338 0.001035
9080 -7.82213103 4.07736954 4.23065079 0.002306 0.037281 -0.0011
9100 -7.81868772 4.06868769 4.2349966199999995 0.002282 0.036199 0.003174
9120 -7.835011560000001 4.072278150000001 4.2284043 0.001239 0.043651 0.005294
9140 -7.83305937 4.0679421300000005 4.217475960000001 0.001259 0.04579 0.0031550000000000003
9160 -7.8321666599999995 4.07377908 4.21268868 0.001254 0.043664 0.002089
9180 -7.8144988500000006 4.08695391 4.2234698700000015 0.002292 0.037268 0.002105
9200 -7.81030998 4.08425616 4.23619344 0.002306 0.037281 -0.0011
9220 -7.79818482 4.0797631800000005 4.2252651 0.002306 0.035159 -0.0032340000000000003
9240 -7.81195806 4.100118930000001 4.24801449 0.004459 0.039413 -0.0032240000000000003
9260 -7.822729440000001 4.09338927 4.25520522 0.003397 0.042604 -0.001099
9280 -7.79818482 4.0863555 4.237243110000001 0.003383 0.040469 -2.8000000000000006e-05
9300 -7.78919886 4.0835106 4.2251179500000005 0.003373 0.038338 -2.6e-05
9320 -7.80896601 4.0818625200000005 4.252654620000001 0.003364 0.03833 0.002111
9340 -7.81120269 4.08874914 4.249515420000001 0.00016299999999999998 0.039402 0.0031550000000000003
9360 -7.820482950000001 4.058210610000001 4.2164361 0.000182 0.043663 0.00315
9380 -7.82468163 4.091437080000001 4.24966257 -0.0008939999999999998 0.041536 0.003145
9400 -7.8162940800000005 4.072876560000001 4.23184761 0.000168 0.040467 0.003154
9420 -7.8025208400000015 4.0487832 4.24367847 0.00122 0.035146 0.001032
9440 -7.815842820000001 4.10281668 4.21897689 0.00123 0.034093 -0.002172
9460 -7.88350239 4.15117017 4.239479790000001 0.001249 0.036232 -0.004311
9480 -7.831411290000001 4.088297880000001 4.197718620000002 0.0033880000000000004 0.038351 -0.00323
9500 -7.81524441 4.06299789 4.239479790000001 0.00445 0.039404 -0.001088
9520 -7.79084694 4.0818625200000005 4.23828297 0.0033590000000000004 0.039387 0.004246
9540 -7.77034404 4.0692861 4.239479790000001 0.003344 0.040435000000000006 0.008517
9560 -7.797282300000001 4.04129817 4.25415555 0.003325 0.038296 0.010656
9580 -7.83815076 4.06375326 4.25071224 -0.000947 0.038306 0.011695
9600 -7.854768900000001 4.08710106 4.23739026 -0.003057 0.039396 0.007406
9620 -7.84518453 4.078419210000001 4.225412250000001 -0.006248 0.038355 0.00418
9640 -7.80222654 4.076476830000002 4.2152392800000005 -0.004104 0.035173 -0.001142
9660 -7.79952879 4.08096 4.23289728 -0.001956 0.034117 -0.005398
9680 -7.794888660000001 4.08485457 4.2349966199999995 0.000177 0.033049 -0.00645
9700 -7.816441230000001 4.08530583 4.19233293 0.001235 0.034098 -0.00324
9720 -7.848931950000001 4.09458609 4.21239438 0.001225 0.031967 -0.003237
9740 -7.82572149 4.09398768 4.2150823200000005 0.00123 0.033032 -0.0032380000000000004
9760 -7.8200415 4.05911313 4.20954948 0.001215 0.033019 -3.4e-05
9780 -7.8085147500000005 4.040846910000001 4.2487600500000005 0.000177 0.041537 0.002084
9800 -7.81734375 4.06150677 4.246523370000001 0.0033880000000000004 0.044717 0.003171
9820 -7.837552350000001 4.08695391 4.23334854 0.002311 0.045773 0.006367
9840 -7.80775938 4.05282492 4.2234698700000015 0.00444 0.04364 0.005316
9860 -7.832912220000001 4.07677113 4.239038340000001 0.002325 0.045786 0.0031620000000000003
9880 -7.857309690000001 4.085757090000001 4.24128483 0.003416 0.047926 -3.8e-05
9900 -7.838003610000001 4.095930060000001 4.20849981 0.002325 0.046847 0.004229
9920 -7.8174909 4.100727150000001 4.20071067 0.002321 0.045782 0.004229999999999999
9940 -7.814646 4.10341509 4.194128160000001 0.000173 0.042594 0.004220000000000001
9960 -7.809260310000001 4.1011686 4.18125744 -0.000918 0.037271 0.004219
9980 -7.83126414 4.11135138 4.21044219 0.000129 0.033006 0.004231
10000 -7.82332785 4.08560013 4.2284043 -0.004148 0.030891 0.004204
10020 -7.816745340000001 4.0664412 4.24367847 -0.003071 0.031956 0.0031420000000000003
10040 -7.83006732 4.07557431 4.24457118 -0.003062 0.031965 0.001006
10060 -7.81375329 4.064498820000001 4.2332013900000005 -0.003052 0.031973 -0.001131
10080 -7.78979727 4.04069976 4.27241196 -0.00198 0.033035 -0.001124
10100 -7.79907753 4.05266796 4.25236032 0.002287 0.035142 0.001039
10120 -7.88485617 4.09308516 4.28349726 0.002292 0.038329 0.003172
10140 -7.839053280000001 4.04204373 4.24516959 0.002287 0.039386 0.005307
10160 -7.8203358000000005 4.00970997 4.26328866 0.0033490000000000004 0.040439 0.007449
10180 -7.78680522 4.03725645 4.2508593900000005 0.002268 0.039369 0.009579
10200 -7.808809050000001 4.0288689 4.2400782 0.002268 0.039369 0.009579
10220 -7.82213103 4.06375326 4.21463106 0.002273 0.040434 0.009578
10240 -7.850874330000001 4.063302 4.201466040000001 0.0012109999999999998 0.040442 0.008502
10260 -7.88350239 4.08605139 4.20475239 -0.001985 0.038336 0.005278
10280 -7.86090015 4.1257230300000005 4.17241863 -0.003057 0.036213 0.004205
10300 -7.841142810000001 4.10700555 4.154015070000001 -0.0041140000000000005 0.036225 0.002061
10320 -7.82497593 4.11329376 4.18664313 -0.00198 0.035157 0.001009
10340 -7.823180700000001 4.12721415 4.21882974 -0.003052 0.034095 0.001003
10360 -7.82093421 4.11524595 4.2224202 -0.002 0.031957 0.002082
10380 -7.791749460000001 4.07243511 4.22211609 0.000129 0.031945 0.003165
10400 -7.803717659999999 4.0231791 4.24457118 0.0012109999999999998 0.034076 0.002101
10420 -7.814950110000002 4.01809752 4.26432852 0.000168 0.037284 -4.7e-05
10440 -7.825123080000001 4.0182446700000005 4.267624680000001 0.002292 0.038329 0.003172
10460 -7.83351063 4.02348321 4.27391289 0.0033490000000000004 0.037256 0.004249
10480 -7.8303714300000005 4.032469170000001 4.27376574 0.000173 0.043655 0.005286
10500 -7.8317154 4.052226510000001 4.23634059 0.001249 0.04472 0.004224
10520 -7.8143517000000005 4.08844503 4.22811 -0.001947 0.046858 0.005267
10540 -7.80940746 4.072582260000001 4.20610617 -0.0008939999999999998 0.041536 0.003145
10560 -7.80641541 4.080214440000001 4.22392113 0.000173 0.041533 0.003153
10580 -7.82392626 4.11345072 4.183651080000001 -0.0008939999999999998 0.039414 0.001011
10600 -7.8541704900000004 4.11345072 4.20130908 0.003378 0.039404 -2.7e-05
10620 -7.82408322 4.09907907 4.18559346 0.002302 0.039399 0.002102
10640 -7.836649830000002 4.08485457 4.19098896 0.003368 0.038334 0.001043
10660 -7.853719230000001 4.06060425 4.195923390000001 0.004416 0.037252 0.004256
10680 -7.8703373700000006 4.060309950000001 4.21029504 0.002268 0.034064 0.0042450000000000005
10700 -7.847283870000001 4.072582260000001 4.23603648 -0.000923 0.035145 0.003153
10720 -7.8123995100000005 4.052373660000001 4.224068280000001 0.00016299999999999998 0.039402 0.0031550000000000003
10740 -7.80821064 4.05911313 4.25849157 -0.000909 0.040462 0.005283
10760 -7.80731793 4.07856636 4.278847320000001 -0.000913 0.039397 0.0052840000000000005
10780 -7.81360614 4.03651089 4.27211766 -0.001966 0.039414 0.002072
10800 -7.809711570000001 4.10671125 4.241127870000001 0.000168 0.038345 0.00102
10820 -7.866589950000001 4.063302 4.25834442 -0.000909 0.03834 0.003149
10840 -7.85207115 4.11464754 4.25026098 0.000153 0.038332 0.004225
10860 -7.77498417 4.04952876 4.19802273 0.001215 0.038324 0.0053
10880 -7.82497593 4.046831010000001 4.213287090000001 0.003344 0.036191 0.00425
10900 -7.81195806 4.0547673 4.21613199 0.002278 0.035133 0.003176
10920 -7.8261727500000005 4.05147114 4.201466040000001 0.002268 0.034064 0.0042450000000000005
10940 -7.835158710000001 4.0516281 4.234094100000001 0.000139 0.036198 0.005296
10960 -7.861057110000001 4.064793120000001 4.20939252 -0.000913 0.038336 0.004217
10980 -7.853572080000001 4.08904344 4.219271190000001 0.000153 0.038332 0.004225
11000 -7.84099566 4.09188834 4.19981796 0.001225 0.039394 0.004231
11020 -7.787560590000001 4.09458609 4.213738350000002 0.00015800000000000002 0.037276 0.00209
11040 -7.792946280000001 4.084403310000001 4.24083357 -0.000913 0.039397 0.0052840000000000005
11060 -7.81120269 4.096087020000001 4.241127870000001 -0.0019760000000000003 0.039405 0.004209
11080 -7.83351063 4.08126411 4.24562085 0.000144 0.037263 0.005294
11100 -7.838602020000001 4.0758784200000004 4.23813582 0.000139 0.036198 0.005296
11120 -7.836806790000001 4.06435167 4.24427688 0.002263 0.036182 0.007447
11140 -7.836806790000001 4.02468003 4.22571636 0.000125 0.036185 0.0085
11160 -7.84922625 4.04115102 4.22331291 0.001191 0.034059 0.006374
11180 -7.85685843 4.06703961 4.23244602 -0.000952 0.031936 0.006362
11200 -7.8493734 4.06285074 4.215386430000001 0.001182 0.03299 0.007444
11220 -7.846979760000001 4.072582260000001 4.187839950000001 -0.001995 0.042571 0.011682
11240 -7.843095 4.074230340000001 4.213738350000002 -0.004118999999999999 0.041526 0.008464
11260 -7.81404759 4.0818625200000005 4.20281001 -0.004143 0.039383 0.011671
11280 -7.81045713 4.07736954 4.235438070000002 -0.004157 0.034065 0.009541
11300 -7.8143517000000005 4.0818625200000005 4.23005238 -0.004138 0.035143 0.006335
11320 -7.825123080000001 4.083961860000001 4.23588933 -0.002014 0.030883 0.004219
11340 -7.81779501 4.07243511 4.24681767 0.001196 0.033002 0.004239
11360 -7.80192243 4.046831010000001 4.2284043 0.002278 0.039377 0.007443000000000002
11380 -7.807013820000001 4.05536571 4.2270603300000005 0.002292 0.042573 0.007439
11400 -7.81524441 4.052069550000001 4.25819727 0.001215 0.040446 0.007434
11420 -7.852669560000001 4.03111539 4.220477820000001 0.001172 0.032981 0.00958
11440 -7.837101090000001 4.07123829 4.2234698700000015 -0.000976 0.030854000000000006 0.010636
11460 -7.838445060000001 4.06299789 4.21897689 -0.004157 0.035126 0.010608
11480 -7.83575712 4.05536571 4.21583769 -0.005214 0.038321 0.011665
11500 -7.83815076 4.07557431 4.21403265 -0.003086 0.037249 0.011681
11520 -7.82767368 4.064793120000001 4.2150823200000005 -0.003086 0.035127 0.009547
11540 -7.812252360000001 4.051176840000001 4.2454737 -0.000942 0.034067 0.006359
11560 -7.837101090000001 4.093242120000001 4.23798867 0.000129 0.036189 0.0074319999999999985
11580 -7.90042464 4.12781256 4.2090982200000004 -0.002019 0.036184 0.010622
11600 -7.841289960000001 4.09279086 4.2073029900000005 -0.003095 0.035118 0.011684
11620 -7.838749170000001 4.04278929 4.211943120000002 -0.0031 0.032992 0.010618
11640 -7.8323138100000005 4.07167974 4.2349966199999995 -0.003095 0.032996 0.00955
11660 -7.7998329 4.04369181 4.22196894 -0.003114 0.030857 0.011689
11680 -7.775876879999999 4.034862810000001 4.24277595 -0.004176 0.032987 0.012747
11700 -7.8183934200000005 4.04653671 4.2767577900000004 -0.004176 0.031926 0.01168
11720 -7.83965169 4.071532590000001 4.2487600500000005 -0.004172 0.032991 0.011679
11740 -7.866589950000001 4.09638132 4.24217754 -0.003086 0.035127 0.009547
11760 -7.790994090000001 4.100118930000001 4.211943120000002 -0.003081 0.036192 0.009546
11780 -7.78995423 4.104317610000002 4.21627914 -0.004143 0.037261 0.009537
11800 -7.79563422 4.0923396 4.2291596700000005 -0.002019 0.034062 0.008487999999999999
11820 -7.80222654 4.08800358 4.2610421700000005 -0.002023 0.034058 0.009556
11840 -7.812252360000001 4.08590424 4.225412250000001 -0.000942 0.035128 0.007426
11860 -7.809260310000001 4.08171537 4.24203039 -0.000942 0.036189 0.008493
11880 -7.84668546 4.065989940000001 4.22765874 0.002239 0.036160000000000005 0.012788
11900 -7.83351063 4.06749087 4.2312492 -0.004143 0.041505 0.013805
11920 -7.83470745 4.0799201400000005 4.20775425 -0.006291 0.039377 0.014861
11940 -7.8490791 4.05012717 4.22151768 -0.007387 0.034051 0.015928
11960 -7.832460960000001 4.07303352 4.2234698700000015 -0.007387 0.028746 0.010594
11980 -7.81030998 4.10236542 4.23454536 -0.004162 0.029817000000000007 0.006342
12000 -7.79309343 4.1008743 4.23739026 0.000129 0.033006 0.004231
12020 -7.81360614 4.09757814 4.239479790000001 0.002297 0.041517 0.005304
12040 -7.8023736900000005 4.109850450000001 4.24157913 0.002306 0.044708 0.006368
12060 -7.7924950200000005 4.08844503 4.26628071 0.002282 0.040443 0.007442
12080 -7.8086619 4.09159404 4.270018320000001 -0.000942 0.036189 0.008493
12100 -7.804620180000001 4.096234170000001 4.249368270000001 0.001177 0.032985 0.008512
12120 -7.80791634 4.08530583 4.252654620000001 -0.003081 0.035131 0.008479
12140 -7.799980050000001 4.0799201400000005 4.22496099 -0.004138 0.038326 0.009536
12160 -7.815401370000001 4.0797631800000005 4.2430800600000005 -0.006296 0.035129 0.011661
12180 -7.794888660000001 4.06689246 4.2332013900000005 -0.005229 0.035125 0.011669
12200 -7.818089310000001 4.10671125 4.268674350000001 -0.0041670000000000006 0.034057 0.011678
12220 -7.8086619 4.05147114 4.28828454 -0.002023 0.035119 0.010623
12240 -7.792799130000001 4.149973350000002 4.253400180000001 -0.002023 0.035119 0.010623
12260 -7.83620838 4.13500329 4.23469251 -0.000952 0.035119 0.009562
12280 -7.84608705 4.13245269 4.23753741 -0.0020280000000000003 0.034053 0.010624
12300 -7.79907753 4.07123829 4.2110406 -0.002023 0.034058 0.009556
12320 -7.816892490000001 4.09039722 4.27197051 -0.002023 0.035119 0.010623
12340 -7.7866580700000005 4.0917411900000005 4.283340300000001 -0.000952 0.034058 0.008495
12360 -7.76614536 4.07063988 4.271067990000001 -0.002004 0.037258 0.008484
12380 -7.75462842 4.07272941 4.29576957 -0.001985 0.038336 0.005278
12400 -7.7806739700000005 4.1011686 4.25460681 0.001239 0.038346 -4e-05
12420 -7.80641541 4.13155998 4.2291596700000005 0.002325 0.040481 -0.002172
12440 -7.79713515 4.1128425 4.253400180000001 0.003407 0.042612 -0.003235
12460 -7.7585131800000005 4.1197291200000015 4.253105879999999 0.00234 0.038372 -0.0075099999999999984
12480 -7.765399800000001 4.12362369 4.2369390000000005 0.0033880000000000004 0.03729 -0.004297
12500 -7.803423360000001 4.12362369 4.2748056 0.005526 0.042592000000000005 -1.6e-05
12520 -7.81000587 4.09728384 4.25176191 -0.0008699999999999999 0.044741 0.001005
12540 -7.80222654 4.07916477 4.231396350000001 0.001249 0.041537 0.001024
12560 -7.81659819 4.08111696 4.260738060000001 0.002302 0.035155 -0.002165
12580 -7.79563422 4.08155841 4.27077369 0.001249 0.036232 -0.004311
12600 -7.80402177 4.08006729 4.2688215 0.0034020000000000005 0.039425 -0.005368
12620 -7.79758641 4.095037350000001 4.25040813 0.005545 0.042609 -0.004289
12640 -7.77977145 4.12063164 4.26193488 0.005531 0.043657 -1.7e-05
12660 -7.7806739700000005 4.13904501 4.24846575 0.002325 0.042603 -3.8e-05
12680 -7.759709999999999 4.125870180000001 4.26253329 0.003383 0.04153 0.001039
12700 -7.779624300000001 4.13320806 4.28993262 0.005507 0.038331 -1.1e-05
12720 -7.76525265 4.13125587 4.27406004 0.002306 0.037281 -0.0011
12740 -7.769588670000001 4.12182846 4.24696482 0.001254 0.03942 -0.002178
12760 -7.752529080000001 4.0954788 4.273167330000001 0.001268 0.043676 -0.001115
12780 -7.74040392 4.09862781 4.28917725 0.002321 0.04366 0.002097
12800 -7.77018708 4.117786740000001 4.286783610000001 0.001235 0.039403 0.002095
12820 -7.772884830000001 4.12900938 4.25490111 0.001239 0.038346 -4e-05
12840 -7.79788071 4.055512860000001 4.29007977 0.002311 0.038346 -0.001101
12860 -7.823180700000001 4.14533322 4.2508593900000005 0.003392 0.040477 -0.002165
12880 -7.840250100000001 4.1299119 4.22691318 0.002311 0.039407 -3.4e-05
12900 -7.846979760000001 4.13051031 4.2471217800000005 0.003373 0.038338 -2.6e-05
12920 -7.79668389 4.060908360000001 4.25026098 0.0033590000000000004 0.036204 0.001045
12940 -7.79339754 4.09159404 4.27346163 0.002297 0.037273 0.001037
12960 -7.76570391 4.05955458 4.28962851 0.003354 0.03726 0.00318
12980 -7.76525265 4.05102969 4.25176191 0.002278 0.034072000000000005 0.002109
13000 -7.81120269 4.07916477 4.26328866 0.000149 0.034084 0.001026
13020 -7.8085147500000005 4.13260965 4.25325303 0.002311 0.040468 0.001033
13040 -7.8044730300000005 4.12856793 4.2164361 0.002316 0.040473 -3.6e-05
13060 -7.7724335700000005 4.132158390000001 4.243227210000001 0.002316 0.039412 -0.001103
13080 -7.75178352 4.11508899 4.24891701 0.001249 0.038354 -0.002177
13100 -7.760906820000001 4.12452621 4.25011383 0.003368 0.038334 0.001043
13120 -7.779173040000001 4.12213257 4.26253329 0.001263 0.045794 0.0020870000000000003
13140 -7.806121110000001 4.10551443 4.25624508 0.001283 0.048994 0.001014
13160 -7.8200415 4.100727150000001 4.23873423 0.001254 0.044725 0.003156
13180 -7.83695394 4.09368357 4.23275013 0.002297 0.038334 0.0021030000000000003
13200 -7.823484810000001 4.09533165 4.237684560000001 0.003383 0.036225 -0.004296
13220 -7.8162940800000005 4.07347497 4.24516959 0.004454 0.036225 -0.0053560000000000005
13240 -7.79818482 4.08456027 4.247416080000001 0.0065980000000000006 0.038348 -0.005344
13260 -7.80521859 4.09128993 4.242923100000001 0.007689 0.044732 -0.004277
13280 -7.798783230000001 4.1197291200000015 4.2110406 0.005545 0.045792 -0.001088
13300 -7.805817 4.11868926 4.2487600500000005 0.0033880000000000004 0.042595 0.001037
13320 -7.815401370000001 4.11479469 4.239038340000001 0.004445 0.038339 -0.001086
13340 -7.78156668 4.10730966 4.249211310000001 0.002297 0.037273 0.001037
13360 -7.78351887 4.095930060000001 4.26238614 0.001259 0.042607 -4.6e-05
13380 -7.78351887 4.1065641 4.26238614 -0.00088 0.043671 0.002074
13400 -7.782017939999999 4.09428198 4.25879568 0.002311 0.04259 0.003166
13420 -7.807465080000001 4.07318067 4.27690494 0.00015800000000000002 0.038337 0.003157
13440 -7.781713830000001 4.09083867 4.2366447 0.00122 0.035146 0.001032
13460 -7.785009990000001 4.04414307 4.263435810000001 0.001225 0.036211 0.00103
13480 -7.831862550000001 4.133502360000001 4.235290920000001 0.001235 0.037281 -3.9e-05
13500 -7.837101090000001 4.12287813 4.24621926 0.00016299999999999998 0.038341 0.002088
13520 -7.83441315 4.109850450000001 4.22586351 0.001235 0.038342 0.0010279999999999998
13540 -7.822582290000001 4.05730809 4.232298870000001 0.002297 0.036212 -3e-05
13560 -7.81165395 4.08695391 4.233495690000001 0.0033590000000000004 0.035143 -2.2e-05
13580 -7.7682447 4.07167974 4.24382562 0.002287 0.035142 0.001039
13600 -7.769441520000001 4.052226510000001 4.27541382 0.002297 0.037273 0.001037
13620 -7.79818482 4.07332782 4.25834442 0.001235 0.039403 0.002095
13640 -7.80536574 4.10236542 4.26403422 0.002325 0.041542 -0.001105
13660 -7.83815076 4.10671125 4.220477820000001 0.001259 0.042607 -4.6e-05
13680 -7.8200415 4.13545455 4.21837848 0.002316 0.040473 -3.6e-05
13700 -7.781870790000001 4.099824629999999 4.2131399400000005 0.005526 0.041531 -0.001083
13720 -7.7863539600000005 4.072278150000001 4.25190906 -0.001952 0.039427 -0.001132
13740 -7.803119250000001 4.09308516 4.24098072 0.003407 0.044734 -0.001102
13760 -7.849971810000001 4.09428198 4.24367847 0.003378 0.036221 -0.0032270000000000003
13780 -7.84578294 4.0894947 4.217475960000001 0.003378 0.038343 -0.001094
13800 -7.83575712 4.07796795 4.215386430000001 0.003368 0.041517 0.004243
13820 -7.81868772 4.070787030000001 4.21553358 0.002325 0.043664 0.001029
13840 -7.84578294 4.07916477 4.217780070000001 0.001239 0.04259 0.004227000000000001
13860 -7.82123832 4.09219245 4.24188324 0.001225 0.038333 0.003164
13880 -7.819737389999999 4.08485457 4.22795304 -0.000904 0.037284 0.001014
13900 -7.809858720000001 4.068393390000001 4.2332013900000005 0.001239 0.036224 -0.002174
13920 -7.79893038 4.086502650000001 4.218074370000001 0.0033880000000000004 0.039412 -0.002163
13940 -7.81569567 4.0923396 4.253400180000001 0.003383 0.040469 -2.8000000000000006e-05
13960 -7.82976321 4.09862781 4.25415555 0.0033880000000000004 0.042595 0.001037
13980 -7.803874620000001 4.09488039 4.2349966199999995 0.002297 0.038334 0.0021030000000000003
14000 -7.784862840000001 4.07363193 4.2370861500000006 0.002297 0.037273 0.001037
14020 -7.80192243 4.0920453000000006 4.23753741 0.001215 0.035141000000000006 0.0021
14040 -7.798037669999999 4.0621051800000005 4.2511635000000005 0.000149 0.037267 0.004226
14060 -7.83425619 4.07332782 4.235290920000001 -0.0019760000000000003 0.040466 0.005275
14080 -7.820482950000001 4.054473 4.2426288 0.000153 0.039393 0.005292
14100 -7.82707527 4.1155402500000005 4.217780070000001 0.000153 0.037271 0.003158
14120 -7.8123995100000005 4.06105551 4.26388707 0.00015800000000000002 0.037276 0.00209
14140 -7.80162813 4.08485457 4.225559400000001 0.001235 0.039403 0.002095
14160 -7.82856639 4.082009670000001 4.243374360000002 0.000173 0.039411 0.001019
14180 -7.835011560000001 4.0920453000000006 4.21613199 0.00123 0.038337 0.002096
14200 -7.87392783 4.14024183 4.24846575 0.001225 0.038333 0.003164
14220 -7.8161469299999995 4.064194710000001 4.1851422000000005 0.001235 0.038342 0.0010279999999999998
14240 -7.825574340000001 4.0866498 4.2291596700000005 0.000153 0.03621 0.002091
14260 -7.80911316 4.05880902 4.22287146 0.000149 0.036206 0.003159
14280 -7.790994090000001 4.04563419 4.24681767 -0.000933 0.034075 0.004222999999999999
14300 -7.80775938 4.03934598 4.25654919 0.000144 0.036202 0.004228
14320 -7.834854600000001 4.06569564 4.2426288 0.000149 0.036206 0.003159
14340 -7.8303714300000005 4.0978822500000005 4.22151768 -0.000918 0.037271 0.004219
14360 -7.844733270000001 4.08291219 4.20759729 0.000153 0.037271 0.003158
14380 -7.80132402 4.08096 4.2138855 -0.000913 0.038336 0.004217
14400 -7.798037669999999 4.076476830000002 4.23858708 0.001225 0.039394 0.004231
14420 -7.8123995100000005 4.11524595 4.2270603300000005 0.00016299999999999998 0.039402 0.0031550000000000003
14440 -7.82961606 4.08485457 4.23469251 0.0012109999999999998 0.036198 0.004235
14460 -7.8161469299999995 4.05132399 4.23050364 0.001215 0.037263 0.004234
14480 -7.828870500000001 4.07557431 4.22825715 -0.000918 0.038332 0.005286
14500 -7.8405444 4.06165392 4.2150823200000005 0.000149 0.036206 0.003159
14520 -7.835609970000001 4.05342333 4.23933264 0.000149 0.037267 0.004226
14540 -7.851021480000001 4.05806346 4.24621926 0.000144 0.038324 0.006361
14560 -7.841289960000001 4.07003166 4.20924537 0.000139 0.036198 0.005296
14580 -7.828272090000001 4.07123829 4.2234698700000015 0.000149 0.037267 0.004226
14600 -7.819590240000001 4.0920453000000006 4.211795970000001 -0.000904 0.038345 0.002081
14620 -7.82363196 4.099373370000001 4.211491860000001 0.000168 0.040467 0.003154
14640 -7.81868772 4.09279086 4.21134471 0.000153 0.037271 0.003158
14660 -7.829164800000001 4.0698845100000005 4.22002656 0.00123 0.038337 0.002096
14680 -7.809711570000001 4.0559641200000005 4.23933264 0.000153 0.037271 0.003158
14700 -7.803119250000001 4.064194710000001 4.22811 0.001215 0.037263 0.004234
14720 -7.8317154 4.06913895 4.239038340000001 0.000149 0.036206 0.003159
14740 -7.820639910000001 4.0481847900000005 4.22795304 0.000134 0.035132 0.005297
14760 -7.8303714300000005 4.04967591 4.23634059 0.002278 0.036194 0.004242
14780 -7.82408322 4.04278929 4.24067661 -0.003033 0.0426 0.005265
14800 -7.82408322 4.07796795 4.2348396600000004 0.001244 0.043655 0.004226
14820 -7.826624010000001 4.08874914 4.2110406 -0.001952 0.044732 0.004202
14840 -7.81120269 4.08545298 4.2251179500000005 -0.00088 0.043671 0.002074
14860 -7.8005784600000005 4.07318067 4.23828297 -0.001956 0.039422000000000006 -6.4e-05
14880 -7.81315488 4.086198540000001 4.223018610000001 0.001244 0.039411 -4.2e-05
14900 -7.81120269 4.07751669 4.23574218 0.00123 0.036215 -3.8e-05
14920 -7.838602020000001 4.07512305 4.21972245 0.002306 0.039403 0.001034
14940 -7.82707527 4.0664412 4.23648774 0.00444 0.039396 0.001049
14960 -7.801176870000001 4.05880902 4.23933264 0.003368 0.039395 0.002109
14980 -7.807160970000001 4.07916477 4.22331291 0.002282 0.036199 0.003174
15000 -7.83410904 4.08246093 4.2164361 0.002263 0.035121 0.006379999999999999
15020 -7.848480690000001 4.06404756 4.2351437700000005 -0.000923 0.037267 0.005287
15040 -7.835011560000001 4.08456027 4.22421543 -0.001995 0.037266 0.006348
15060 -7.819590240000001 4.063302 4.213738350000002 -0.001985 0.038336 0.005278
15080 -7.8083577900000005 4.05880902 4.231396350000001 -0.000923 0.037267 0.005287
15100 -7.7968408500000015 4.11030171 4.24098072 0.00016299999999999998 0.039402 0.0031550000000000003
15120 -7.83979884 4.0519224000000005 4.23648774 0.002306 0.041525 0.003168
15140 -7.82363196 4.0758784200000004 4.24756323 0.00122 0.037268 0.003165
15160 -7.803570510000001 4.08500172 4.219271190000001 0.00122 0.037268 0.003165
15180 -7.89158583 4.124074950000001 4.27092084 0.002287 0.037264 0.003173
15200 -7.81509726 4.0900931100000015 4.23260298 0.002273 0.03619 0.005311
15220 -7.81659819 4.04802783 4.22196894 0.00122 0.037268 0.003165
15240 -7.813302030000001 4.0618010700000005 4.2050564999999995 0.001225 0.037272 0.002097
15260 -7.792946280000001 4.049381610000001 4.21837848 -0.000909 0.03834 0.003149
15280 -7.81794216 4.0374036 4.24607211 -0.000913 0.038336 0.004217
15300 -7.8261727500000005 4.07063988 4.229306820000001 -0.000913 0.038336 0.004217
15320 -7.830518580000001 4.07617272 4.24083357 -0.000918 0.037271 0.004219
15340 -7.796389590000001 4.09219245 4.23648774 -0.000913 0.037275 0.003151
15360 -7.81404759 4.085757090000001 4.19996511 0.002292 0.038329 0.003172
15380 -7.803717659999999 4.0923396 4.237684560000001 0.00122 0.038329 0.004232
15400 -7.8055227 4.096234170000001 4.219879410000001 0.001215 0.037263 0.004234
15420 -7.82976321 4.068089280000001 4.219428150000001 0.002268 0.035125 0.005312
15440 -7.832608110000001 4.05641538 4.199670810000001 0.00334 0.037248 0.006385
15460 -7.82901765 4.04144532 4.22885556 0.000144 0.037263 0.005294
15480 -7.83994599 4.058514720000001 4.21553358 0.000149 0.036206 0.003159
15500 -7.84578294 4.06734372 4.2291596700000005 -0.000909 0.039401 0.004215999999999999
15520 -7.8174909 4.06763802 4.224362580000001 -0.003052 0.038339 0.0052710000000000005
15540 -7.7983319700000004 4.07063988 4.21254153 0.000153 0.037271 0.003158
15560 -7.8523752600000005 4.08515868 4.2171816600000005 -0.000904 0.038345 0.002081
15580 -7.841142810000001 4.08456027 4.235595030000001 -0.0008990000000000002 0.03941 0.0020800000000000003
15600 -7.82572149 4.09757814 4.219575300000001 0.00015800000000000002 0.039398 0.004224
15620 -7.82018865 4.09159404 4.20400683 0.000144 0.039385 0.007428
15640 -7.806562560000001 4.0778208000000005 4.2209192700000004 0.001187 0.032994 0.006375
15660 -7.8115068 4.08545298 4.24411992 0.002254 0.031929 0.005316
15680 -7.848480690000001 4.07542716 4.2351437700000005 0.0012109999999999998 0.037259 0.005302
15700 -7.84188837 4.058357760000001 4.2366447 0.00123 0.04152 0.005296
15720 -7.820787060000001 4.07796795 4.20849981 0.00123 0.040459 0.004229999999999999
15740 -7.815842820000001 4.0302226800000005 4.2430800600000005 -0.0040950000000000005 0.043669 0.005257
15760 -7.814646 4.02707367 4.23050364 -0.0008990000000000002 0.042593 0.00528
15780 -7.825574340000001 4.06943325 4.22107623 -0.001971 0.04047 0.004207
15800 -7.826624010000001 4.074230340000001 4.24248165 -0.000913 0.038336 0.004217
15820 -7.8323138100000005 4.0757214600000005 4.22856126 0.001215 0.037263 0.004234
15840 -7.826771160000001 4.0899459600000005 4.2251179500000005 0.002282 0.036199 0.003174
15860 -7.798783230000001 4.08260808 4.223764170000001 0.0033490000000000004 0.035134 0.002115
15880 -7.79084694 4.0878466200000005 4.22466669 0.002287 0.035142 0.001039
15900 -7.810761240000001 4.08171537 4.23619344 0.002278 0.033011 0.001042
15920 -7.86629565 4.0618010700000005 4.227207480000001 0.001206 0.03195 0.001036
15940 -7.842643740000001 4.072278150000001 4.2209192700000004 -0.000918 0.034088 0.001018
15960 -7.8143517000000005 4.06539153 4.20490935 0.000153 0.03621 0.002091
15980 -7.813302030000001 4.0499800200000005 4.23155331 0.001215 0.038324 0.0053
16000 -7.8086619 4.068089280000001 4.243374360000002 0.000139 0.03832 0.007429000000000002
16020 -7.855210350000001 4.09308516 4.24636641 0.001191 0.039364 0.011708
16040 -7.825878449999999 4.0618010700000005 4.20281001 0.000129 0.039372 0.010633
16060 -7.81165395 4.0679421300000005 4.231700460000001 0.002254 0.037234 0.01065
16080 -7.81404759 4.08141126 4.24696482 0.001182 0.036173 0.010644
16100 -7.90026768 4.11209694 4.253704290000001 0.00011 0.037233 0.012772
16120 -7.81360614 4.09398768 4.233495690000001 -0.000976 0.034037 0.013836
16140 -7.791151050000001 4.0658427900000005 4.23439821 -0.001009 0.032946 0.020247
16160 -7.838896320000001 4.080361590000002 4.22211609 -0.002062 0.036145 0.020235
16180 -7.828870500000001 4.07318067 4.2079014 -0.003148 0.031888 0.020233
16200 -7.842339630000001 4.057916310000001 4.20580206 -0.005282 0.029774 0.018085
16220 -7.83081288 4.052226510000001 4.22571636 -0.005267 0.029786 0.01488
16240 -7.8303714300000005 4.10536728 4.25071224 -0.00632 0.029803 0.011668
16260 -7.853719230000001 4.1035622400000005 4.2450224400000005 -0.0052380000000000005 0.029812 0.008471
16280 -7.814950110000002 4.10192397 4.20699888 -0.003095 0.030874 0.007416
16300 -7.783067610000001 4.10716251 4.22196894 -0.004133 0.033025 0.003133
16320 -7.77438576 4.05746505 4.2107463 -0.002 0.031957 0.002082
16340 -7.781870790000001 4.0758784200000004 4.23065079 -0.003071 0.030895 0.002075
16360 -7.81569567 4.06509723 4.25864853 -0.002 0.033018 0.003148
16380 -7.79967594 4.0371093 4.269419910000001 -0.003057 0.034091 0.002071
16400 -7.83829791 4.03201791 4.24756323 -0.003066 0.034082999999999995 0.004208
16420 -7.83934758 4.01944149 4.23813582 -0.000928 0.03514 0.004221
16440 -7.8264768600000005 4.03651089 4.24277595 0.000139 0.037259 0.006363000000000001
16460 -7.82437752 4.04069976 4.20924537 0.001191 0.037242 0.009575
16480 -7.823033550000001 4.06404756 4.211491860000001 -0.000952 0.038302 0.012763
16500 -7.828272090000001 4.08844503 4.19831703 0.001206 0.039377 0.008504000000000001
16520 -7.829321760000001 4.07347497 4.1891839200000005 0.001191 0.040425 0.012775
16540 -7.82408322 4.07691828 4.1995138500000015 0.003311 0.042527 0.018128
16560 -7.847735129999999 4.10312079 4.217475960000001 -0.000937 0.049986 0.021294
16580 -7.853572080000001 4.12541892 4.22017371 -0.002009 0.049985 0.022355
16600 -7.824230370000001 4.13574885 4.227207480000001 -0.0031100000000000004 0.041471 0.02129
16620 -7.81420455 4.120327530000001 4.235595030000001 -0.005258 0.034039 0.017011000000000002
16640 -7.809858720000001 4.12287813 4.24726893 -0.0052380000000000005 0.031934 0.010605
16660 -7.8203358000000005 4.113597870000001 4.268674350000001 -0.0052380000000000005 0.029812 0.008471
16680 -7.81524441 4.1155402500000005 4.23603648 -0.003105 0.030866 0.009553
16700 -7.79593833 4.117933890000001 4.24277595 -0.005234 0.031938 0.009537
16720 -7.793691840000001 4.10057019 4.25236032 -0.003095 0.030874 0.007416
16740 -7.791749460000001 4.0897988100000005 4.243374360000002 -0.003105 0.028743 0.0074189999999999985
16760 -7.803717659999999 4.0977252900000005 4.253105879999999 -0.0041670000000000006 0.028751 0.006343
16780 -7.79010138 4.091437080000001 4.2330444300000005 -0.004172 0.028747 0.007412
16800 -7.7863539600000005 4.0698845100000005 4.23634059 -0.009511 0.029823 0.009509
16820 -7.784411580000001 4.049381610000001 4.2426288 -0.006296 0.033007 0.009528
16840 -7.81195806 4.06194822 4.28169222 -0.006296 0.035129 0.011661
16860 -7.794143100000001 4.05387459 4.2929246700000006 -0.005219 0.037256 0.011666
16880 -7.7856084 4.03051698 4.25040813 -0.002014 0.037249 0.01062
16900 -7.80956442 4.06823643 4.26837024 -0.000937 0.039376 0.010625
16920 -7.79024853 4.02558255 4.23798867 0.000153 0.042576 0.008492
16940 -7.8183934200000005 4.06734372 4.27690494 0.000149 0.043633 0.010627
16960 -7.788904560000001 4.163138370000001 4.22691318 0.0012109999999999998 0.042564 0.010636
16980 -7.85161989 4.13455203 4.22945397 0.002268 0.04043 0.010646
17000 -7.82392626 4.13679852 4.1876928 0.000125 0.038307 0.010634
17020 -7.81360614 4.10671125 4.22675622 0.000125 0.038307 0.010634
17040 -7.827369570000001 4.10760396 4.219428150000001 -0.002 0.040445 0.010616
17060 -7.781713830000001 4.10625999 4.231700460000001 -0.004138 0.040448000000000005 0.01167
17080 -7.801480980000001 4.08530583 4.23679185 -0.004143 0.038322 0.010604
17100 -7.821081360000001 4.102218270000001 4.263730110000001 -0.005229 0.035125 0.011669
17120 -7.799980050000001 4.13320806 4.2486129 -0.004152 0.036191 0.010607
17140 -7.78950297 4.15595745 4.23873423 -0.0020280000000000003 0.035114 0.011691
17160 -7.78770774 4.1396434200000005 4.247416080000001 -0.000947 0.035123 0.008494
17180 -7.7537259 4.120327530000001 4.26253329 -0.002014 0.034066 0.00742
17200 -7.757022060000001 4.10147271 4.261336470000001 -0.000957 0.036176 0.011697
17220 -7.76779344 4.10132556 4.266879120000001 0.000125 0.039368 0.011701
17240 -7.776779400000001 4.07482875 4.281250770000001 -0.004128 0.040457 0.009533
17260 -7.78591251 4.08844503 4.29007977 -0.002023 0.034058 0.009556
17280 -7.80775938 4.060457100000002 4.283046 -0.002019 0.03194 0.006354
17300 -7.788159000000001 4.07318067 4.27989699 -0.00198 0.034096 -5.8e-05
17320 -7.7808211200000015 4.0878466200000005 4.28977566 0.000173 0.03835 -4.8e-05
17340 -7.771992120000001 4.078419210000001 4.2574419 0.0033880000000000004 0.040473 -0.0010960000000000002
17360 -7.77632814 4.1118026400000005 4.257147600000001 0.003397 0.043665 -3.2e-05
17380 -7.783067610000001 4.12976475 4.261483620000002 0.003407 0.043673 -0.002169
17400 -7.7856084 4.151317320000001 4.26628071 0.0044740000000000005 0.042608 -0.003228
17420 -7.76494854 4.1276654100000005 4.25864853 0.004464 0.039417 -0.004292
17440 -7.78336191 4.12302528 4.25205621 0.003378 0.038343 -0.001094
17460 -7.8023736900000005 4.10895774 4.27436415 0.002302 0.037277 -3.2e-05
17480 -7.79653674 4.12242687 4.25595078 0.000173 0.039411 0.001019
17500 -7.80911316 4.11090012 4.23065079 -0.000909 0.03834 0.003149
17520 -7.78156668 4.12452621 4.2574419 0.001225 0.038333 0.003164
17540 -7.784411580000001 4.1156874000000006 4.27077369 0.001235 0.040464 0.003161
17560 -7.7806739700000005 4.1068584 4.259246940000001 0.002316 0.041534 0.001031
17580 -7.7866580700000005 4.13828964 4.25190906 0.002321 0.040477 -0.001104
17600 -7.757022060000001 4.07557431 4.27032243 0.003383 0.040469 -2.8000000000000006e-05
17620 -7.78950297 4.1239278 4.30115526 0.002321 0.041538 -3.7e-05
17640 -7.78919886 4.219575300000001 4.23993105 0.002306 0.038342 -3.3e-05
17660 -7.7746800600000014 4.159547910000001 4.24786734 0.002297 0.036212 -3e-05
17680 -7.77003993 4.1294606400000005 4.263131700000001 0.003378 0.038343 -0.001094
17700 -7.76211345 4.1035622400000005 4.29591672 0.003383 0.039408 -0.0010949999999999998
17720 -7.76211345 4.10416065 4.28034825 0.001259 0.039424 -0.003246
17740 -7.75896444 4.095930060000001 4.29622083 0.002316 0.03729 -0.003236
17760 -7.77363039 4.07856636 4.29426864 0.0033880000000000004 0.038351 -0.00323
17780 -7.789650120000001 4.10312079 4.25968839 0.001259 0.038363 -0.004313
17800 -7.77408165 4.1210829 4.2568434900000005 0.0033880000000000004 0.041534 -3e-05
17820 -7.78366602 4.15057176 4.2487600500000005 0.0044740000000000005 0.045791000000000005 -2.7e-05
17840 -7.741149480000001 4.145627520000001 4.23574218 0.002354 0.048995 -4.6e-05
17860 -7.75282338 4.12077879 4.241127870000001 0.003407 0.046856 0.001032
17880 -7.75807173 4.13155998 4.27241196 0.00123 0.039398 0.003163
17900 -7.79084694 4.13021601 4.2602868 0.002306 0.035159 -0.0032340000000000003
17920 -7.832460960000001 4.10416065 4.26777183 0.002325 0.036237 -0.00644
17940 -7.7983319700000004 4.106407140000001 4.24067661 0.003407 0.038368 -0.007503
17960 -7.797439260000001 4.096234170000001 4.259394090000002 0.00554 0.041544 -0.004287
17980 -7.7915925 4.080214440000001 4.27197051 0.0034020000000000005 0.042608 -0.002167
18000 -7.79055264 4.10147271 4.26044376 0.002316 0.039412 -0.001103
18020 -7.78022271 4.11718833 4.25834442 0.003364 0.036208 -2.3e-05
18040 -7.78680522 4.13859375 4.24067661 0.002306 0.037281 -0.0011
18060 -7.751028150000001 4.16269692 4.225559400000001 0.002325 0.040481 -0.002172
18080 -7.771089600000002 4.13814249 4.269272760000001 0.003407 0.043673 -0.002169
18100 -7.76869596 4.149973350000002 4.25954124 0.0044740000000000005 0.045791000000000005 -2.7e-05
18120 -7.75926855 4.1412915 4.27960269 0.0033880000000000004 0.042595 0.001037
18140 -7.77183516 4.11718833 4.253400180000001 0.002316 0.040473 -3.6e-05
18160 -7.76869596 4.08769947 4.27960269 0.003373 0.038338 -2.6e-05
18180 -7.8001271999999995 4.110154560000001 4.27690494 0.003378 0.039404 -2.7e-05
18200 -7.785009990000001 4.09398768 4.2599925 0.005516 0.038339 -0.002147
18220 -7.807465080000001 4.05266796 4.2776505 0.003392 0.039416 -0.0032310000000000004
18240 -7.82123832 4.1556631500000005 4.27661064 0.0033880000000000004 0.040473 -0.0010960000000000002
18260 -7.8279679799999995 4.1433810300000005 4.23828297 0.00445 0.039404 -0.001088
18280 -7.8317154 4.16389374 4.22960112 0.003373 0.038338 -2.6e-05
18300 -7.790994090000001 4.10716251 4.2224202 0.001235 0.03622 -0.001106
18320 -7.784862840000001 4.1210829 4.2351437700000005 0.000173 0.03835 -4.8e-05
18340 -7.76375172 4.1035622400000005 4.249368270000001 0.001239 0.038346 -4e-05
18360 -7.743248820000002 4.09398768 4.26178773 0.001239 0.040468 0.002093
18380 -7.77902589 4.09159404 4.27016547 0.004445 0.0394 -1.9e-05
18400 -7.80791634 4.09877496 4.24516959 0.001244 0.036228 -0.003242
18420 -7.825574340000001 4.09922622 4.22825715 0.00123 0.037276 0.001029
18440 -7.78216509 4.0920453000000006 4.25355714 0.001254 0.043664 0.002089
18460 -7.76764629 4.102218270000001 4.258050120000001 0.001273 0.046864 0.001017
18480 -7.763908680000001 4.095037350000001 4.27720905 0.0034020000000000005 0.046852 0.0021
18500 -7.77259053 4.09862781 4.2827418900000005 0.004454 0.04153 -2.2e-05
18520 -7.810604280000001 4.12182846 4.25834442 0.003383 0.038347000000000006 -0.0021620000000000003
18540 -7.8174909 4.10341509 4.2152392800000005 0.002321 0.037294 -0.004304
18560 -7.810908390000001 4.11120423 4.229306820000001 0.002311 0.038346 -0.001101
18580 -7.803874620000001 4.09683258 4.22795304 0.0033880000000000004 0.041534 -3e-05
18600 -7.79593833 4.10341509 4.26178773 0.0044740000000000005 0.04473 -0.001094
18620 -7.780369860000001 4.09638132 4.23603648 0.005536 0.043661 -0.001086
18640 -7.78022271 4.07467179 4.23469251 0.003392 0.041538 -0.001098
18660 -7.794888660000001 4.09293801 4.231396350000001 0.002311 0.038346 -0.001101
18680 -7.816892490000001 4.10910489 4.24172628 -0.0008939999999999998 0.038353 -5.5e-05
18700 -7.825280040000001 4.10521032 4.233799800000001 0.000173 0.039411 0.001019
18720 -7.79189661 4.11314661 4.23424125 0.001239 0.040468 0.002093
18740 -7.792799130000001 4.11449058 4.22885556 0.001239 0.040468 0.002093
18760 -7.788600450000001 4.09997178 4.23784152 0.002311 0.039407 -3.4e-05
18780 -7.79579118 4.086502650000001 4.249211310000001 0.002306 0.038342 -3.3e-05
18800 -7.83590427 4.08500172 4.25355714 0.003368 0.038334 0.001043
18820 -7.81120269 4.11090012 4.23439821 0.002311 0.039407 -3.4e-05
18840 -7.790699790000001 4.051176840000001 4.24172628 0.001244 0.040472 0.001025
18860 -7.81135965 4.100727150000001 4.2599925 0.001244 0.040472 0.001025
18880 -7.835609970000001 4.132158390000001 4.24696482 0.001239 0.038346 -4e-05
18900 -7.85161989 4.117786740000001 4.255499520000001 0.001225 0.036211 0.00103
18920 -7.80596415 4.074230340000001 4.1936769 0.00122 0.036207 0.002099
18940 -7.800725610000001 4.0954788 4.2332013900000005 0.001215 0.036202 0.003167
18960 -7.77797622 4.08470742 4.2270603300000005 0.001225 0.037272 0.002097
18980 -7.78620681 4.05880902 4.23454536 0.00123 0.038337 0.002096
19000 -7.81928613 4.068393390000001 4.24562085 0.001235 0.039403 0.002095
19020 -7.818089310000001 4.08111696 4.218525629999999 0.000177 0.039415 -4.9e-05
19040 -7.83724824 4.1061128400000015 4.23574218 0.002316 0.040473 -3.6e-05
19060 -7.79923449 4.10625999 4.20864696 0.003378 0.040465 0.00104
19080 -7.79713515 4.104013500000001 4.20775425 0.002311 0.039407 -3.4e-05
19100 -7.773336090000001 4.09338927 4.22182179 -0.000913 0.036214 0.002084
19120 -7.785314100000001 4.072278150000001 4.2426288 0.000149 0.036206 0.003159
19140 -7.83396189 4.08844503 4.24098072 -0.000913 0.037275 0.003151
19160 -7.82901765 4.07827206 4.2450224400000005 -0.000904 0.037284 0.001014
19180 -7.82976321 4.07662398 4.2110406 0.001225 0.036211 0.00103
19200 -7.83695394 4.08889629 4.22032086 0.002297 0.037273 0.001037
19220 -7.81120269 4.07063988 4.22017371 0.00016299999999999998 0.038341 0.002088
19240 -7.81988454 4.06823643 4.21163901 -0.0008990000000000002 0.040471 0.003147
19260 -7.82468163 4.06943325 4.227207480000001 -0.001971 0.04047 0.004207
19280 -7.82408322 4.094134830000001 4.22765874 -0.000909 0.03834 0.003149
19300 -7.83156825 4.09428198 4.21268868 0.00015800000000000002 0.037276 0.00209
19320 -7.803874620000001 4.09159404 4.22211609 0.002292 0.036207 0.001038
19340 -7.821081360000001 4.09848066 4.2191240400000005 0.002292 0.037268 0.002105
19360 -7.814802960000001 4.08530583 4.231700460000001 0.00122 0.036207 0.002099
19380 -7.83470745 4.06703961 4.24411992 -0.00198 0.036218 0.002076
19400 -7.83111699 4.09997178 4.24067661 0.000144 0.035141000000000006 0.003161
19420 -7.795035810000001 4.079017620000001 4.24188324 -0.000904 0.042589 0.006348
19440 -7.80956442 4.076476830000002 4.22196894 0.001249 0.045781 0.005291
19460 -7.813449180000001 4.08006729 4.23813582 0.000192 0.045794 0.003147
19480 -7.82437752 4.09877496 4.22811 -0.001966 0.041536 0.0042060000000000005
19500 -7.8264768600000005 4.0920453000000006 4.2171816600000005 -0.0008849999999999998 0.041545 0.001009
19520 -7.81988454 4.082313780000001 4.2110406 -0.0008990000000000002 0.037288 -5.400000000000001e-05
19540 -7.823180700000001 4.0951845 4.21403265 0.00016299999999999998 0.036219 -4.5e-05
19560 -7.829321760000001 4.08739536 4.24098072 0.002306 0.039403 0.001034
19580 -7.82812494 4.082009670000001 4.21583769 0.004435000000000001 0.039391 0.002117
19600 -7.8002743500000005 4.07722239 4.241127870000001 0.005502 0.039388 0.002124
19620 -7.81120269 4.060309950000001 4.24756323 0.0033590000000000004 0.038326 0.003179
19640 -7.830969840000002 4.08456027 4.24217754 0.002282 0.036199 0.003174
19660 -7.823180700000001 4.08141126 4.2311020500000005 -0.000923 0.037267 0.005287
19680 -7.8481765800000005 4.069737360000001 4.22032086 -0.003052 0.037278 0.004204
19700 -7.82332785 4.07677113 4.2212233800000005 0.00015800000000000002 0.040459 0.00529
19720 -7.822582290000001 4.07138544 4.202662860000001 0.001225 0.039394 0.004231
19740 -7.829164800000001 4.09473324 4.24023516 0.000149 0.037267 0.004226
19760 -7.82901765 4.099373370000001 4.25879568 0.00015800000000000002 0.038337 0.003157
19780 -7.82856639 4.088150730000001 4.23784152 0.001225 0.038333 0.003164
19800 -7.82392626 4.10236542 4.249211310000001 0.001215 0.035141000000000006 0.0021
19820 -7.79563422 4.058357760000001 4.22856126 0.00122 0.037268 0.003165
19840 -7.80911316 4.07198385 4.239783900000001 0.001215 0.036202 0.003167
19860 -7.832608110000001 4.08904344 4.23199476 0.0012109999999999998 0.036198 0.004235
19880 -7.88350239 4.14323388 4.2270603300000005 0.0012109999999999998 0.036198 0.004235
19900 -7.82722242 4.08096 4.20640047 -0.000928 0.03514 0.004221
19920 -7.806719520000001 4.06749087 4.21583769 -0.002 0.036201 0.0063490000000000005
19940 -7.8185405700000015 4.088150730000001 4.203555570000001 -0.003057 0.036213 0.004205
19960 -7.8083577900000005 4.060309950000001 4.21268868 -0.000918 0.037271 0.004219
19980 -7.82408322 4.05342333 4.25026098 0.001225 0.038333 0.003164
20000 -7.83305937 4.05536571 4.237243110000001 0.00016299999999999998 0.039402 0.0031550000000000003
20020 -7.8228864 4.0838049000000005 4.224362580000001 -0.000913 0.038336 0.004217
20040 -7.81928613 4.09907907 4.23289728 0.000144 0.037263 0.005294
20060 -7.80162813 4.091437080000001 4.2167304 0.001201 0.03619 0.006371
20080 -7.80282495 4.10057019 4.21687755 0.002282 0.03726 0.004241
20100 -7.809858720000001 4.07827206 4.23199476 0.001206 0.036194 0.005303
20120 -7.81375329 4.08275523 4.2171816600000005 -0.000918 0.03621 0.003152
20140 -7.83365778 4.07452464 4.21703451 0.000149 0.038328 0.005293
20160 -7.8600074399999995 4.058661870000002 4.22287146 0.000149 0.038328 0.005293
20180 -7.854464790000001 4.05012717 4.209843780000001 0.000153 0.039393 0.005292
20200 -7.83396189 4.04923446 4.2079014 0.00016299999999999998 0.039402 0.0031550000000000003
20220 -7.84188837 4.066294050000001 4.205350800000001 0.001235 0.040464 0.003161
20240 -7.83590427 4.080361590000002 4.20835266 0.001225 0.038333 0.003164
20260 -7.839053280000001 4.095037350000001 4.21058934 0.000144 0.036202 0.004228
20280 -7.839053280000001 4.09039722 4.20895107 -0.000933 0.033014 0.003156
20300 -7.828419240000001 4.095930060000001 4.22571636 0.001206 0.035133 0.004236
20320 -7.82018865 4.09728384 4.2107463 0.002282 0.038321 0.005308
20340 -7.80282495 4.082156820000002 4.21613199 -0.0008939999999999998 0.044719 0.006346
20360 -7.80327621 4.08111696 4.25011383 0.002316 0.043656 0.003165
20380 -7.8185405700000015 4.0957829100000005 4.21568073 0.001249 0.042598 0.002091
20400 -7.835609970000001 4.074073380000001 4.25475396 0.000182 0.039419 -0.001117
20420 -7.830969840000002 4.05926028 4.22735463 -0.001952 0.039427 -0.001132
20440 -7.82363196 4.05536571 4.21732881 -0.001966 0.037292 -6.2e-05
20460 -7.82767368 4.0499800200000005 4.22691318 0.000149 0.037267 0.004226
20480 -7.836649830000002 4.07003166 4.1936769 -0.000928 0.037262 0.006355
20500 -7.826771160000001 4.0835106 4.21867278 0.00334 0.038309 0.0074519999999999986
20520 -7.812252360000001 4.07617272 4.20130908 0.002263 0.038304000000000005 0.009581
20540 -7.808809050000001 4.10057019 4.21792722 0.001187 0.036177 0.009576
20560 -7.795192770000001 4.076476830000002 4.2224202 -0.000966 0.034045 0.0117
20580 -7.80761223 4.08260808 4.2234698700000015 0.000115 0.035115 0.00957
20600 -7.818991830000001 4.086198540000001 4.24457118 -0.000937 0.038315 0.009558
20620 -7.81360614 4.07946888 4.220477820000001 -0.000942 0.03725 0.00956
20640 -7.834560300000001 4.066146900000001 4.22256735 -0.000957 0.035115 0.010631
20660 -7.82961606 4.070482920000001 4.22601066 -0.000942 0.034067 0.006359
20680 -7.82452467 4.06674531 4.22421543 -0.004152 0.031947 0.006339
20700 -7.82018865 4.0797631800000005 4.22077212 -0.003086 0.033005 0.007414
20720 -7.83979884 4.09638132 4.2107463 -0.002019 0.034062 0.008487999999999999
20740 -7.81195806 4.04802783 4.21239438 -0.004157 0.034065 0.009541
20760 -7.82497593 4.08874914 4.26612375 -0.003086 0.034066 0.008481
20780 -7.84533168 4.10671125 4.21493517 -0.0020280000000000003 0.032992 0.009558
20800 -7.892184240000001 4.117786740000001 4.24052946 -0.002033 0.032988 0.010626
20820 -7.83965169 4.0838049000000005 4.21283583 -0.0020280000000000003 0.034053 0.010624
20840 -7.7770737 4.07871351 4.2209192700000004 -0.0031 0.035114 0.012752
20860 -7.798037669999999 4.0899459600000005 4.21134471 -0.0020280000000000003 0.035114 0.011691
20880 -7.80686667 4.05252081 4.22466669 -0.0031 0.034053 0.011685
20900 -7.8541704900000004 4.06120266 4.217475960000001 -0.0041670000000000006 0.032996 0.010611
20920 -7.848931950000001 4.06239948 4.22151768 -0.00309 0.035122 0.010616
20940 -7.82243514 4.074230340000001 4.2164361 -0.002014 0.03831 0.011687
20960 -7.835305860000001 4.08500172 4.21553358 -0.00309 0.036183 0.011682
20980 -7.82722242 4.09159404 4.23679185 -0.002023 0.035119 0.010623
21000 -7.804620180000001 4.074230340000001 4.21763292 -0.003095 0.034057 0.010617
21020 -7.7764752900000005 4.08470742 4.23244602 -0.0031 0.034053 0.011685
21040 -7.828419240000001 4.09683258 4.24172628 -0.004162 0.035122 0.011676
21060 -7.844733270000001 4.10521032 4.235438070000002 -0.0031100000000000004 0.032983 0.012755
21080 -7.84353645 4.100118930000001 4.22825715 -0.005248 0.031925 0.012741
21100 -7.840691550000001 4.082009670000001 4.213591200000001 -0.005243 0.032991 0.01274
21120 -7.8264768600000005 4.08470742 4.2191240400000005 -0.004172 0.032991 0.011679
21140 -7.8441348600000005 4.07243511 4.19398101 -0.004176 0.034048 0.013813999999999998
21160 -7.82408322 4.07138544 4.20431094 -0.00309 0.033 0.008482
21180 -7.83934758 4.08545298 4.21627914 -0.002023 0.03618 0.01169
21200 -7.838602020000001 4.09188834 4.219428150000001 0.001177 0.03829 0.013846
21220 -7.83336348 4.12077879 4.23574218 -0.00521 0.04257 0.014864
21240 -7.804620180000001 4.078419210000001 4.23753741 -0.005224 0.038313 0.013801
21260 -7.77618099 4.079017620000001 4.241431980000001 -0.004181 0.034044 0.014882
21280 -7.79923449 4.109409 4.2540084 -0.0052380000000000005 0.032995 0.011672
21300 -7.8025208400000015 4.08126411 4.26552534 -0.004143 0.035139 0.007404000000000002
21320 -7.81824627 4.10955615 4.23918549 -0.003081 0.03407 0.007412
21340 -7.7984791200000005 4.08141126 4.24052946 -0.000952 0.03618 0.010629
21360 -7.7944374 4.095037350000001 4.24636641 -0.000937 0.040437 0.011692
21380 -7.806121110000001 4.07751669 4.23199476 -0.002004 0.040441000000000005 0.011685
21400 -7.79608548 4.09398768 4.241127870000001 -0.002009 0.036192 0.008485
21420 -7.812703620000001 4.08500172 4.22466669 -0.002033 0.032988 0.010626
21440 -7.8062682599999995 4.10925204 4.21089345 -0.0041670000000000006 0.032996 0.010611
21460 -7.8264768600000005 4.08500172 4.2284043 -0.00842 0.036206 0.010577
21480 -7.819443090000001 4.10252238 4.235438070000002 -0.007358 0.036198 0.011653
21500 -7.818089310000001 4.11120423 4.23918549 -0.005229 0.036187 0.012736
21520 -7.7924950200000005 4.11104727 4.24367847 -0.005224 0.036191 0.011668
21540 -7.795192770000001 4.104317610000002 4.26013965 -0.004162 0.036183 0.012743
21560 -7.7863539600000005 4.1061128400000015 4.24188324 -0.003086 0.036188 0.010614
21580 -7.79084694 4.0835106 4.24786734 -0.000933 0.03938 0.009557
21600 -7.79220072 4.08739536 4.2629845500000005 -0.003057 0.039396 0.007406
21620 -7.798783230000001 4.09458609 4.23933264 -0.003086 0.036188 0.010614
21640 -7.78620681 4.06674531 4.267026270000001 0.000105 0.032985 0.009572
21660 -7.8062682599999995 4.15176858 4.26792879 -0.004124 0.038339 0.006331
21680 -7.7682447 4.14921798 4.22765874 0.000105 0.032985 0.009572
21700 -7.825574340000001 4.14667719 4.234094100000001 -0.004181 0.031922000000000006 0.012749
21720 -7.8083577900000005 4.08096 4.231700460000001 -0.006267 0.038338 0.008453
21740 -7.802972100000001 4.0778208000000005 4.2568434900000005 0.000168 0.041528 0.004221
21760 -7.784862840000001 4.0957829100000005 4.2688215 0.002297 0.036212 -3e-05
21780 -7.7547755700000005 4.07093418 4.2628374 0.002311 0.039407 -3.4e-05
21800 -7.78111542 4.072278150000001 4.27645368 0.003392 0.04366 0.001036
21820 -7.78127238 4.10865363 4.24891701 0.002316 0.040473 -3.6e-05
21840 -7.784862840000001 4.14966924 4.24038231 0.002316 0.038351 -0.002169
21860 -7.776033840000001 4.1611959899999995 4.25624508 0.003383 0.036225 -0.004296
21880 -7.768391850000001 4.139790570000001 4.2312492 0.00233 0.036241 -0.007508
21900 -7.757316360000001 4.11943482 4.25864853 0.001249 0.037293 -0.003244
21920 -7.76779344 4.118238 4.28109381 0.004445 0.0394 -1.9e-05
21940 -7.80596415 4.10296383 4.2716664 -0.001942 0.043679 0.000999
21960 -7.80536574 4.1077609200000005 4.25774601 0.001263 0.042611 -0.001114
21980 -7.798037669999999 4.10446476 4.26673197 0.004464 0.041539 -0.002158
22000 -7.797439260000001 4.115991510000001 4.2400782 0.003421 0.042625 -0.00644
22020 -7.809711570000001 4.0806657 4.25475396 0.005555 0.041556 -0.007492
22040 -7.78007556 4.10536728 4.273608780000001 0.007689 0.04261 -0.006409999999999999
22060 -7.768990260000001 4.12646859 4.2366447 0.006622 0.043675 -0.005351
22080 -7.773031980000001 4.1213772 4.2570004500000005 0.004483 0.044739 -0.0032310000000000004
22100 -7.77618099 4.13081442 4.25954124 0.004459 0.042596 -2.3e-05
22120 -7.75282338 4.13500329 4.284694080000001 0.005512 0.039396 -1.2e-05
22140 -7.7562666899999995 4.13545455 4.25849157 0.00444 0.037274 -0.001085
22160 -7.75791477 4.10236542 4.28065236 0.002316 0.03729 -0.003236
22180 -7.7567179500000005 4.09159404 4.291276590000001 0.001249 0.037293 -0.003244
22200 -7.772884830000001 4.108055220000001 4.27420719 0.001254 0.040481 -0.001111
22220 -7.7646542400000005 4.07377908 4.27585527 0.002311 0.040468 0.001033
22240 -7.750282590000001 4.1037192000000005 4.24098072 0.00444 0.039396 0.001049
22260 -7.78231224 4.13469918 4.24188324 0.002311 0.038346 -0.001101
22280 -7.76914722 4.11240105 4.25609793 0.0033880000000000004 0.039412 -0.002163
22300 -7.7826163500000005 4.13545455 4.2486129 0.0033880000000000004 0.039412 -0.002163
22320 -7.79818482 4.15416222 4.23679185 0.004459 0.041535 -0.00109
22340 -7.741149480000001 4.13485614 4.27510971 0.003378 0.039404 -2.7e-05
22360 -7.75222497 4.100423040000001 4.26987117 0.003373 0.038338 -2.6e-05
22380 -7.785461250000001 4.17212433 4.2656823 0.00443 0.036204 -1.5e-05
22400 -7.787560590000001 4.1893408800000005 4.25954124 0.002306 0.039403 0.001034
22420 -7.79399595 4.1387409 4.27541382 0.002316 0.040473 -3.6e-05
22440 -7.80327621 4.09353642 4.27720905 0.001249 0.039415 -0.00111
22460 -7.79399595 4.0818625200000005 4.27570812 0.002316 0.039412 -0.001103
22480 -7.783067610000001 4.07482875 4.264926930000001 0.002311 0.038346 -0.001101
22500 -7.766900730000001 4.07452464 4.25415555 0.000182 0.037297 -0.003251
22520 -7.78321476 4.08710106 4.2528017700000005 0.004459 0.040474 -0.002157
22540 -7.78111542 4.15117017 4.24457118 0.005531 0.042596 -0.001084
22560 -7.78950297 4.1396434200000005 4.2486129 0.003416 0.045804 -0.002171
22580 -7.81824627 4.13620011 4.25415555 0.00234 0.044738 -0.001109
22600 -7.772139270000001 4.1415858000000005 4.2284043 0.003373 0.04046 0.002108
22620 -7.7706383400000005 4.104768870000001 4.24411992 0.001239 0.038346 -4e-05
22640 -7.768548810000001 4.126017330000002 4.27855302 0.000173 0.036228 -0.002182
22660 -7.78575555 4.0954788 4.23858708 0.003383 0.036225 -0.004296
22680 -7.80896601 4.11913071 4.27077369 0.004464 0.041539 -0.002158
22700 -7.8162940800000005 4.104768870000001 4.242923100000001 0.004469 0.043665 -0.001093
22720 -7.80956442 4.095037350000001 4.23993105 0.0044740000000000005 0.04473 -0.001094
22740 -7.787109330000002 4.091437080000001 4.23648774 0.004459 0.041535 -0.00109
22760 -7.795035810000001 4.100727150000001 4.2543027 0.003354 0.036199 0.002113
22780 -7.7856084 4.09083867 4.2685272 0.00123 0.038337 0.002096
22800 -7.79039568 4.114941840000001 4.248318600000001 0.000173 0.039411 0.001019
22820 -7.781713830000001 4.130363160000001 4.22870841 0.001254 0.041542 -4.4e-05
22840 -7.780369860000001 4.11749244 4.26448548 0.001254 0.041542 -4.4e-05
22860 -7.774228800000001 4.10416065 4.24607211 0.002316 0.040473 -3.6e-05
22880 -7.79788071 4.11838515 4.2511635000000005 0.001244 0.039411 -4.2e-05
22900 -7.809260310000001 4.11464754 4.26193488 0.001239 0.039407 0.001026
22920 -7.7746800600000014 4.10057019 4.2426288 0.0033880000000000004 0.040473 -0.0010960000000000002
22940 -7.795339920000001 4.078115100000001 4.23828297 0.003383 0.040469 -2.8000000000000006e-05
22960 -7.81703964 4.10881059 4.25236032 0.002316 0.040473 -3.6e-05
22980 -7.783960320000001 4.0658427900000005 4.26582945 0.005512 0.039396 -1.2e-05
23000 -7.80536574 4.09279086 4.2827418900000005 0.00443 0.036204 -1.5e-05
23020 -7.79788071 4.147726860000001 4.245768 0.00444 0.039396 0.001049
23040 -7.82497593 4.1472756 4.242923100000001 0.002306 0.039403 0.001034
23060 -7.81210521 4.141889910000001 4.22331291 0.000173 0.03835 -4.8e-05
23080 -7.795035810000001 4.09188834 4.22451954 0.001239 0.038346 -4e-05
23100 -7.802972100000001 4.09428198 4.22601066 0.001244 0.03835 -0.001109
23120 -7.81734375 4.0954788 4.261640580000001 0.002316 0.040473 -3.6e-05
23140 -7.7998329 4.06943325 4.2748056 0.002311 0.037285000000000006 -0.002168
23160 -7.79713515 4.09128993 4.28319315 0.00016299999999999998 0.036219 -4.5e-05
23180 -7.816745340000001 4.09128993 4.23035649 0.004425999999999999 0.037261 0.00212
23200 -7.8123995100000005 4.10925204 4.23275013 0.001244 0.042594 0.003159
23220 -7.796988 4.12781256 4.197267360000001 0.001254 0.043664 0.002089
23240 -7.801480980000001 4.109409 4.22287146 -0.0008849999999999998 0.042606 0.002076
23260 -7.77902589 4.10580873 4.243227210000001 0.00015800000000000002 0.037276 0.00209
23280 -7.781713830000001 4.11314661 4.2290027100000005 0.001235 0.037281 -3.9e-05
23300 -7.82332785 4.095930060000001 4.23858708 0.001244 0.039411 -4.2e-05
23320 -7.838749170000001 4.09848066 4.22885556 0.002311 0.039407 -3.4e-05
23340 -7.80775938 4.07662398 4.224362580000001 0.003392 0.042599 -3.1e-05
23360 -7.79399595 4.07707524 4.22601066 0.0033880000000000004 0.042595 0.001037
23380 -7.83380493 4.07452464 4.25415555 0.003378 0.040465 0.00104
23400 -7.82392626 4.0799201400000005 4.2234698700000015 0.003364 0.03833 0.002111
23420 -7.81824627 4.08860199 4.23275013 0.001225 0.036211 0.00103
23440 -7.80521859 4.1125482 4.22466669 0.00016299999999999998 0.038341 0.002088
23460 -7.80806349 4.109850450000001 4.23603648 0.00016299999999999998 0.039402 0.0031550000000000003
23480 -7.804767330000001 4.10536728 4.22451954 0.001225 0.039394 0.004231
23500 -7.80940746 4.114049130000001 4.22571636 0.003368 0.041517 0.004243
23520 -7.798783230000001 4.109409 4.23679185 0.00123 0.039398 0.003163
23540 -7.80192243 4.0978822500000005 4.23334854 -0.000928 0.036201 0.005288
23560 -7.814950110000002 4.0866498 4.24562085 0.0033590000000000004 0.037265 0.002112
23580 -7.828870500000001 4.072278150000001 4.20415398 0.00016299999999999998 0.038341 0.002088
23600 -7.809711570000001 4.07347497 4.26059091 0.001225 0.039394 0.004231
23620 -7.822582290000001 4.09817655 4.19847399 0.00015800000000000002 0.038337 0.003157
23640 -7.8023736900000005 4.05895617 4.22256735 0.000144 0.036202 0.004228
23660 -7.830518580000001 4.07871351 4.234094100000001 -0.000918 0.03621 0.003152
23680 -7.82213103 4.11299946 4.23439821 0.00015800000000000002 0.037276 0.00209
23700 -7.864343460000001 4.1474227500000005 4.2430800600000005 -0.000923 0.034084 0.002086
23720 -7.819138980000001 4.09638132 4.18664313 0.000134 0.033010000000000005 0.003163
23740 -7.8083577900000005 4.06569564 4.23215172 -0.000923 0.035145 0.003153
23760 -7.8025208400000015 4.07767365 4.24038231 0.003373 0.039399 0.001041
23780 -7.78875741 4.06150677 4.24786734 -0.000918 0.03621 0.003152
23800 -7.795035810000001 4.04369181 4.25160495 0.001239 0.041529 0.00316
23820 -7.815999780000001 4.065244379999999 4.23963675 0.00122 0.036207 0.002099
23840 -7.82213103 4.091437080000001 4.2251179500000005 0.00015800000000000002 0.038337 0.003157
23860 -7.814802960000001 4.09563576 4.20715584 0.000144 0.036202 0.004228
23880 -7.807160970000001 4.1038663500000006 4.21627914 0.001215 0.036202 0.003167
23900 -7.797282300000001 4.08800358 4.21463106 -0.000923 0.036206 0.004220000000000001
23920 -7.80956442 4.072582260000001 4.22361702 0.00015800000000000002 0.038337 0.003157
23940 -7.81988454 4.09024026 4.27346163 0.001235 0.039403 0.002095
23960 -7.82243514 4.07827206 4.24277595 0.000173 0.040472 0.002086
23980 -7.835609970000001 4.07528001 4.22856126 0.002297 0.040456 0.004237
24000 -7.82018865 4.08679695 4.235595030000001 0.000149 0.036206 0.003159
24020 -7.8264768600000005 4.070482920000001 4.2224202 -0.001985 0.037275 0.004211
24040 -7.83605142 4.09039722 4.219879410000001 0.00122 0.03939 0.005299
24060 -7.79893038 4.05431604 4.21209027 -0.001985 0.038336 0.005278
24080 -7.828419240000001 4.08320649 4.22780589 -0.0008990000000000002 0.041532 0.004213000000000001
24100 -7.826771160000001 4.07751669 4.22392113 0.00122 0.036207 0.002099
24120 -7.82961606 4.111949790000001 4.21044219 0.002282 0.035138 0.002107
24140 -7.817196600000001 4.0894947 4.21254153 0.0033490000000000004 0.037256 0.004249
24160 -7.829164800000001 4.098029400000001 4.20340842 -0.000904 0.041528 0.005282
24180 -7.81360614 4.09039722 4.21283583 -0.000904 0.040467 0.004215
24200 -7.814950110000002 4.07528001 4.208794110000001 -0.0040950000000000005 0.041547 0.003123
24220 -7.82767368 4.0621051800000005 4.23933264 -0.000889 0.041541 0.002077
24240 -7.83126414 4.06270359 4.2486129 -0.0008939999999999998 0.039414 0.001011
24260 -7.79893038 4.04458452 4.245326550000001 0.002316 0.039412 -0.001103
24280 -7.8462342000000005 4.1197291200000015 4.20176034 0.001239 0.039407 0.001026
24300 -7.83410904 4.04174943 4.22675622 -0.000913 0.036214 0.002084
24320 -7.81135965 4.09817655 4.21254153 0.0033590000000000004 0.039387 0.004246
24340 -7.825878449999999 4.082313780000001 4.22002656 0.004425999999999999 0.040444 0.00532
24360 -7.82183673 4.082156820000002 4.22196894 0.0012109999999999998 0.036198 0.004235
24380 -7.80402177 4.09458609 4.231700460000001 0.00012 0.031937 0.005301
24400 -7.822729440000001 4.08096 4.2454737 0.001206 0.036194 0.005303
24420 -7.82243514 4.08860199 4.23065079 0.000153 0.039393 0.005292
24440 -7.80416892 4.06883484 4.22077212 -0.00198 0.040462 0.006344
24460 -7.81390044 4.09069152 4.2152392800000005 -0.000928 0.036201 0.005288
24480 -7.828723350000001 4.071532590000001 4.23798867 -0.000904 0.039406 0.003148
24500 -7.828419240000001 4.07482875 4.21448391 0.001235 0.039403 0.002095
24520 -7.844438970000001 4.07677113 4.22870841 0.002287 0.037264 0.003173
24540 -7.79923449 4.06823643 4.25325303 0.0012109999999999998 0.035137 0.003168
24560 -7.823484810000001 4.088150730000001 4.22211609 0.0044020000000000005 0.034057 0.00426
24580 -7.801029720000001 4.09563576 4.23603648 0.001201 0.035129 0.005304
24600 -7.8144988500000006 4.05581697 4.21627914 -0.000933 0.035136 0.00529
24620 -7.81000587 4.0806657 4.229306820000001 -0.000947 0.035123 0.008494
24640 -7.83949473 4.08695391 4.23079794 -0.003081 0.03407 0.007412
24660 -7.878715110000001 4.11718833 4.24098072 -0.003066 0.035144 0.005275
24680 -7.812252360000001 4.09338927 4.22466669 -0.003081 0.03407 0.007412
24700 -7.7915925 4.078419210000001 4.22571636 -0.002 0.036201 0.0063490000000000005
24720 -7.792946280000001 4.07946888 4.220477820000001 -0.00199 0.036209 0.004213000000000001
24740 -7.805669850000001 4.04653671 4.2052036500000005 0.000139 0.037259 0.006363000000000001
24760 -7.821081360000001 4.06689246 4.24397277 0.001201 0.037251 0.007437999999999998
24780 -7.82572149 4.06823643 4.24352151 0.001191 0.036181 0.008508
24800 -7.8462342000000005 4.11733548 4.21823133 0.001182 0.035112 0.009577
24820 -7.81165395 4.0897988100000005 4.21823133 0.001177 0.034046 0.009579
24840 -7.782017939999999 4.07063988 4.23334854 -0.003081 0.035131 0.008479
24860 -7.79204376 4.10536728 4.205507760000001 -0.003071 0.037261 0.008477
24880 -7.815999780000001 4.09219245 4.231396350000001 -0.002009 0.037253 0.009552
24900 -7.81764786 4.08904344 4.239479790000001 -0.003071 0.037261 0.008477
24920 -7.823180700000001 4.0799201400000005 4.24786734 -0.002004 0.036197 0.007417
24940 -7.843840560000001 4.06134981 4.23454536 0.00012 0.03512 0.008502
24960 -7.819590240000001 4.0600058400000005 4.229758080000002 -0.003095 0.034057 0.010617
24980 -7.810162830000001 4.05387459 4.2291596700000005 -0.002019 0.033001 0.007421
25000 -7.83320652 4.06823643 4.22211609 -0.00309 0.033 0.008482
25020 -7.83410904 4.07452464 4.19457942 0.001177 0.032985 0.008512
25040 -7.835305860000001 4.094438940000001 4.21448391 0.000125 0.039368 0.011701
25060 -7.8579081 4.12347654 4.213591200000001 -0.003071 0.041505 0.012744
25080 -7.81524441 4.10446476 4.22870841 -0.00309 0.037244 0.012749
25100 -7.80911316 4.080812850000001 4.2209192700000004 -0.0041670000000000006 0.032996 0.010611
25120 -7.821081360000001 4.07916477 4.229758080000002 -0.004148 0.034074 0.007405
25140 -7.82018865 4.07916477 4.22990523 -0.001995 0.035144 0.004214
25160 -7.82363196 4.0923396 4.249368270000001 -0.000909 0.039401 0.004215999999999999
25180 -7.847735129999999 4.08485457 4.22765874 -0.000913 0.040458 0.006351
25200 -7.81299792 4.080812850000001 4.24038231 0.002282 0.040443 0.007442
25220 -7.80207939 4.072278150000001 4.25190906 -0.000928 0.038323 0.007422
25240 -7.82497593 4.06913895 4.22002656 -0.000961 0.03405 0.010632
25260 -7.821689580000001 4.07946888 4.24411992 -0.002033 0.030866 0.008492
25280 -7.84293804 4.08769947 4.229758080000002 -0.0031 0.031931 0.009551
25300 -7.83575712 4.10252238 4.213591200000001 -0.004143 0.037261 0.009537
25320 -7.809711570000001 4.08456027 4.22451954 -0.003071 0.038322 0.009543
25340 -7.79923449 4.09533165 4.224068280000001 -0.002014 0.036188 0.009554
25360 -7.79039568 4.0951845 4.24846575 -0.002023 0.034058 0.009556
25380 -7.82437752 4.07332782 4.23634059 -0.000952 0.034058 0.008495
25400 -7.82901765 4.089641850000001 4.2209192700000004 -0.004148 0.035135 0.008472
25420 -7.820787060000001 4.083961860000001 4.24816164 -0.002014 0.036188 0.009554
25440 -7.820787060000001 4.07946888 4.22765874 -0.002014 0.037249 0.01062
25460 -7.8002743500000005 4.0863555 4.25789316 -0.003086 0.035127 0.009547
25480 -7.8174909 4.1097033000000005 4.231396350000001 -0.0020280000000000003 0.032992 0.009558
25500 -7.812703620000001 4.08155841 4.219271190000001 -0.0031 0.034053 0.011685
25520 -7.816441230000001 4.0866498 4.2568434900000005 -0.002019 0.036184 0.010622
25540 -7.80536574 4.14697149 4.23858708 -0.004172 0.03193 0.010612
25560 -7.837101090000001 4.13545455 4.2543027 -0.006291 0.033011 0.008459999999999999
25580 -7.812703620000001 4.10147271 4.21658325 -0.004152 0.03513 0.00954
25600 -7.81030998 4.072278150000001 4.229758080000002 -0.004148 0.036196 0.009539
25620 -7.82572149 4.07677113 4.252203360000001 -0.004152 0.036191 0.010607
25640 -7.788600450000001 4.07662398 4.26358296 -0.002009 0.038314 0.010619
25660 -7.77034404 4.06674531 4.26642786 -0.000947 0.037245 0.010628
25680 -7.81255647 4.06703961 4.26448548 -0.002009 0.037253 0.009552
25700 -7.80761223 4.13245269 4.24891701 -0.003086 0.036188 0.010614
25720 -7.80911316 4.14024183 4.18694724 -0.000957 0.035115 0.010631
25740 -7.77977145 4.12871508 4.20176034 -0.003095 0.032996 0.00955
25760 -7.781713830000001 4.08605139 4.226157810000001 -0.003081 0.035131 0.008479
25780 -7.777829070000001 4.10716251 4.242923100000001 -0.002009 0.033009 0.005285
25800 -7.78575555 4.11240105 4.27181355 -0.004152 0.033008 0.007406
25820 -7.8264768600000005 4.082009670000001 4.26328866 0.00012 0.037242 0.010635
25840 -7.83396189 4.09069152 4.2426288 -0.0052 0.043639 0.013794999999999998
25860 -7.819443090000001 4.09848066 4.23334854 -0.006267 0.044704 0.014854
25880 -7.80641541 4.085757090000001 4.244718330000001 -0.000952 0.039363 0.01383
25900 -7.8001271999999995 4.08739536 4.253704290000001 -0.002009 0.036192 0.008485
25920 -7.815842820000001 4.100118930000001 4.2330444300000005 0.001215 0.038324 0.0053
25940 -7.81734375 4.10580873 4.24128483 0.00123 0.039398 0.003163
25960 -7.81569567 4.11209694 4.24667052 0.00122 0.038329 0.004232
25980 -7.79055264 4.12213257 4.237243110000001 0.002302 0.04046 0.003169
26000 -7.77273768 4.1118026400000005 4.25954124 0.000173 0.040472 0.002086
26020 -7.79788071 4.1065641 4.2730103700000015 0.002306 0.039403 0.001034
26040 -7.787109330000002 4.11389217 4.26628071 0.000173 0.037289 -0.001115
26060 -7.778721780000001 4.11075297 4.252203360000001 0.001235 0.035159 -0.002173
26080 -7.771992120000001 4.08545298 4.2610421700000005 0.000173 0.037289 -0.001115
26100 -7.80132402 4.10326794 4.26059091 -0.003018 0.03943 -0.00114
26120 -7.784862840000001 4.10416065 4.2570004500000005 0.000182 0.042602 0.002083
26140 -7.791445350000001 4.11135138 4.25789316 0.00016299999999999998 0.038341 0.002088
26160 -7.79204376 4.10625999 4.24382562 0.002306 0.039403 0.001034
26180 -7.810908390000001 4.108055220000001 4.24367847 0.003364 0.03833 0.002111
26200 -7.809260310000001 4.100423040000001 4.25236032 0.004445 0.040461 0.001047
26220 -7.78995423 4.12916634 4.24816164 0.00445 0.040465 -2.1e-05
26240 -7.778123370000001 4.11928767 4.25011383 0.001254 0.040481 -0.001111
26260 -7.769588670000001 4.11584436 4.24516959 0.003368 0.037273 -2.4e-05
26280 -7.777230660000001 4.114343430000001 4.27510971 0.003368 0.038334 0.001043
26300 -7.789051710000001 4.1255660700000005 4.259246940000001 0.001235 0.039403 0.002095
26320 -7.78979727 4.058514720000001 4.27436415 0.002321 0.041538 -3.7e-05
26340 -7.778721780000001 4.15715427 4.27376574 0.000173 0.03835 -4.8e-05
26360 -7.791298200000001 4.13500329 4.24038231 -0.0008939999999999998 0.037292 -0.0011220000000000002
26380 -7.7944374 4.11749244 4.27720905 0.001244 0.039411 -4.2e-05
26400 -7.796389590000001 4.08365775 4.23963675 0.000177 0.038354 -0.001116
26420 -7.788904560000001 4.11389217 4.283644410000001 0.002311 0.038346 -0.001101
26440 -7.767047880000001 4.11389217 4.2650838900000005 0.00445 0.038343 -0.002154
26460 -7.7845587300000005 4.106407140000001 4.26238614 0.004445 0.037278 -0.002153
26480 -7.7766322500000005 4.1213772 4.2716664 0.005502 0.038327 0.001058
26500 -7.77752496 4.14473481 4.26912561 0.004435000000000001 0.040452 0.003184
26520 -7.75042974 4.1532597 4.24980972 -0.003033 0.0426 0.005265
26540 -7.750282590000001 4.17018195 4.2574419 0.00016299999999999998 0.040463 0.004222
26560 -7.7368134600000005 4.1330511 4.2490641600000005 -0.000909 0.037279 0.002082
26580 -7.7607596700000006 4.10491602 4.261336470000001 0.000182 0.038358 -0.002184
26600 -7.776926550000001 4.10895774 4.279151430000001 0.001254 0.038359 -0.0032450000000000005
26620 -7.803874620000001 4.09488039 4.26432852 0.004454 0.04153 -2.2e-05
26640 -7.804924290000001 4.09114278 4.25834442 0.003383 0.04153 0.001039
26660 -7.790994090000001 4.094438940000001 4.2685272 0.003397 0.043665 -3.2e-05
26680 -7.789650120000001 4.08710106 4.26987117 0.003392 0.042599 -3.1e-05
26700 -7.79579118 4.080812850000001 4.26956706 0.004445 0.040461 0.001047
26720 -7.79923449 4.0957829100000005 4.26582945 0.003373 0.038338 -2.6e-05
26740 -7.786952370000001 4.11000741 4.25385144 0.00016299999999999998 0.03728 0.001022
26760 -7.77018708 4.131412830000001 4.25669634 -0.0008990000000000002 0.037288 -5.400000000000001e-05
26780 -7.7529803400000015 4.14921798 4.263730110000001 0.000177 0.039415 -4.9e-05
26800 -7.77139371 4.13739693 4.2790042800000005 0.00016299999999999998 0.038341 0.002088
26820 -7.7682447 4.15117017 4.26432852 0.000168 0.038345 0.00102
26840 -7.78575555 4.12362369 4.24846575 0.000173 0.039411 0.001019
26860 -7.799980050000001 4.12213257 4.23753741 0.002321 0.040477 -0.001104
26880 -7.80775938 4.098922110000001 4.255499520000001 0.0033880000000000004 0.040473 -0.0010960000000000002
26900 -7.81509726 4.09757814 4.23963675 0.002311 0.039407 -3.4e-05
26920 -7.79967594 4.09922622 4.255048260000001 0.002302 0.038338 0.001035
26940 -7.791445350000001 4.099373370000001 4.27211766 0.002287 0.037264 0.003173
26960 -7.78770774 4.13620011 4.24038231 0.003344 0.034069 0.002116
26980 -7.772884830000001 4.08006729 4.24397277 0.002287 0.035142 0.001039
27000 -7.805071440000001 4.10730966 4.25864853 0.002302 0.038338 0.001035
27020 -7.79893038 4.17241863 4.24816164 0.001235 0.039403 0.002095
27040 -7.813302030000001 4.13081442 4.22466669 0.000177 0.039415 -4.9e-05
27060 -7.82363196 4.130363160000001 4.2540084 0.000192 0.04155 -0.00112
27080 -7.77947715 4.095037350000001 4.26612375 0.003397 0.041543 -0.002166
27100 -7.7824692 4.09024026 4.27061673 0.003392 0.042599 -3.1e-05
27120 -7.7808211200000015 4.07318067 4.26178773 0.003383 0.038347000000000006 -0.0021620000000000003
27140 -7.79339754 4.06674531 4.25325303 0.003383 0.038347000000000006 -0.0021620000000000003
27160 -7.814646 4.08096 4.27092084 0.005512 0.039396 -1.2e-05
27180 -7.82497593 4.1037192000000005 4.24248165 0.003378 0.042587 0.003174
27200 -7.8023736900000005 4.117786740000001 4.22211609 0.000173 0.042594 0.004220000000000001
27220 -7.781713830000001 4.142037060000002 4.2191240400000005 0.001235 0.040464 0.003161
27240 -7.76405583 4.1210829 4.21283583 -0.000904 0.037284 0.001014
27260 -7.75013544 4.11704118 4.242923100000001 0.000187 0.038362 -0.003253
27280 -7.78800204 4.12152435 4.249211310000001 0.002321 0.039416 -0.002171
27300 -7.810761240000001 4.11883641 4.25849157 0.004459 0.040474 -0.002157
27320 -7.82901765 4.09907907 4.247720190000001 0.004464 0.0426 -0.001092
27340 -7.83081288 4.1116456800000005 4.23424125 0.0033880000000000004 0.041534 -3e-05
27360 -7.7845587300000005 4.069737360000001 4.24980972 0.002311 0.040468 0.001033
27380 -7.792642170000001 4.05911313 4.24667052 0.003368 0.039395 0.002109
27400 -7.81703964 4.08111696 4.261336470000001 0.002292 0.036207 0.001038
27420 -7.79967594 4.096087020000001 4.26328866 0.002302 0.037277 -3.2e-05
27440 -7.803874620000001 4.11240105 4.25444985 0.000168 0.037284 -4.7e-05
27460 -7.799980050000001 4.11389217 4.25205621 0.000173 0.040472 0.002086
27480 -7.798037669999999 4.115393100000001 4.25325303 0.002302 0.04046 0.003169
27500 -7.78127238 4.11913071 4.2602868 0.002297 0.039395 0.00317
27520 -7.78321476 4.110448860000001 4.26612375 0.002311 0.040468 0.001033
27540 -7.797282300000001 4.08724821 4.26537819 0.002321 0.040477 -0.001104
27560 -7.80207939 4.07123829 4.2599925 0.001249 0.039415 -0.00111
27580 -7.82018865 4.08365775 4.2348396600000004 0.002306 0.039403 0.001034
27600 -7.80775938 4.0938405300000005 4.25654919 0.001235 0.038342 0.0010279999999999998
27620 -7.822729440000001 4.09862781 4.2574419 0.00015800000000000002 0.037276 0.00209
27640 -7.807160970000001 4.11704118 4.20895107 0.00122 0.036207 0.002099
27660 -7.79220072 4.08456027 4.21658325 0.002302 0.037277 -3.2e-05
27680 -7.78515714 4.07528001 4.23679185 0.00123 0.037276 0.001029
27700 -7.8222879899999995 4.12646859 4.23244602 0.002297 0.036212 -3e-05
27720 -7.83965169 4.114941840000001 4.257147600000001 0.001244 0.040472 0.001025
27740 -7.859703330000001 4.12826382 4.241127870000001 0.000168 0.038345 0.00102
27760 -7.78995423 4.066598160000001 4.23215172 0.002311 0.039407 -3.4e-05
27780 -7.798037669999999 4.0923396 4.25385144 0.003373 0.04046 0.002108
27800 -7.79010138 4.07542716 4.25040813 0.002302 0.038338 0.001035
27820 -7.7944374 4.05521856 4.26657501 0.002306 0.038342 -3.3e-05
27840 -7.81135965 4.07063988 4.26044376 0.002297 0.035151 -0.001097
27860 -7.81509726 4.096087020000001 4.239479790000001 0.002287 0.034081 -2.8000000000000006e-05
27880 -7.81000587 4.13469918 4.24621926 0.000149 0.036206 0.003159
27900 -7.7968408500000015 4.1128425 4.22870841 0.001201 0.037251 0.007437999999999998
27920 -7.77003993 4.10700555 4.2131399400000005 0.000144 0.038324 0.006361
27940 -7.77123675 4.10266953 4.22211609 0.000139 0.036198 0.005296
27960 -7.789051710000001 4.09817655 4.248318600000001 0.000149 0.036206 0.003159
27980 -7.843840560000001 4.10252238 4.24067661 0.002287 0.039386 0.005307
28000 -7.83979884 4.0954788 4.231396350000001 0.002297 0.039395 0.00317
28020 -7.837552350000001 4.0760255700000005 4.2400782 0.0012109999999999998 0.037259 0.005302
28040 -7.825123080000001 4.08724821 4.25011383 0.000144 0.036202 0.004228
28060 -7.80956442 4.07363193 4.24397277 0.001196 0.035124 0.006372999999999999
28080 -7.79309343 4.09128993 4.2309549 0.000129 0.033006 0.004231
28100 -7.82812494 4.09398768 4.24786734 -0.001995 0.033022 0.0020800000000000003
28120 -7.82392626 4.1011686 4.2252651 -0.001985 0.037275 0.004211
28140 -7.83949473 4.1061128400000015 4.21972245 -0.001985 0.035153 0.002078
28160 -7.813302030000001 4.107456810000001 4.2351437700000005 -0.00198 0.037279 0.003143
28180 -7.81000587 4.095930060000001 4.23215172 0.00016299999999999998 0.038341 0.002088
28200 -7.801029720000001 4.1017670100000005 4.22945397 -0.000875 0.047919 0.005274
28220 -7.792946280000001 4.09248675 4.25864853 0.001268 0.046859 0.002085
28240 -7.8183934200000005 4.106407140000001 4.23603648 0.000201 0.04368 -0.001123
28260 -7.814950110000002 4.09428198 4.24696482 0.001254 0.03942 -0.002178
28280 -7.81734375 4.07946888 4.24023516 0.001273 0.039437 -0.006451
28300 -7.821081360000001 4.07272941 4.22825715 0.002345 0.038376 -0.008579
28320 -7.841289960000001 4.08889629 4.22735463 0.003407 0.038368 -0.007503
28340 -7.800882570000001 4.09848066 4.22811 0.004488000000000001 0.04156 -0.007499
28360 -7.79084694 4.080361590000002 4.1995138500000015 0.003412 0.042616 -0.004304
28380 -7.79010138 4.0938405300000005 4.234094100000001 0.006593000000000001 0.043649 0.001058
28400 -7.801029720000001 4.08739536 4.20715584 0.005502 0.041510000000000005 0.004258
28420 -7.82946891 4.0923396 4.23035649 0.002278 0.039377 0.007443000000000002
28440 -7.8441348600000005 4.086198540000001 4.23244602 0.001201 0.039373000000000005 0.009572
28460 -7.8219838799999994 4.10461191 4.21299279 0.000134 0.040437 0.010631
28480 -7.8144988500000006 4.05536571 4.239783900000001 0.000139 0.041503 0.01063
28500 -7.794888660000001 4.0618010700000005 4.2370861500000006 0.001201 0.040434 0.010639
28520 -7.81868772 4.09458609 4.24756323 0.000129 0.038311000000000005 0.009566
28540 -7.80940746 4.10281668 4.23784152 0.000125 0.037246 0.009567
28560 -7.8320097 4.09563576 4.23394695 0.00012 0.03512 0.008502
28580 -7.815842820000001 4.08904344 4.2510065400000006 -0.002009 0.033009 0.005285
28600 -7.82482878 4.118090850000001 4.23019953 -0.002004 0.033014 0.004217
28620 -7.79234787 4.109850450000001 4.21568073 -0.002014 0.030883 0.004219
28640 -7.791298200000001 4.08470742 4.21687755 -0.000933 0.034075 0.004222999999999999
28660 -7.82946891 4.098922110000001 4.237684560000001 0.000134 0.034071 0.004229999999999999
28680 -7.837552350000001 4.114049130000001 4.241431980000001 -0.000933 0.034075 0.004222999999999999
28700 -7.828272090000001 4.05311922 4.22062497 -0.001985 0.036214 0.003144
28720 -7.81045713 4.09338927 4.246523370000001 -0.000913 0.036214 0.002084
28740 -7.842486780000001 4.10296383 4.247720190000001 -0.003042 0.035164999999999995 -6.6e-05
28760 -7.87422213 4.16090169 4.2568434900000005 -0.001961 0.038357 -6.3e-05
28780 -7.79309343 4.093242120000001 4.2090982200000004 0.000168 0.038345 0.00102
28800 -7.775876879999999 4.08275523 4.23275013 0.003373 0.038338 -2.6e-05
28820 -7.78111542 4.09488039 4.25595078 0.001239 0.038346 -4e-05
28840 -7.7884533000000005 4.0749759 4.24516959 0.00123 0.037276 0.001029
28860 -7.786952370000001 4.05730809 4.25864853 0.002302 0.039399 0.002102
28880 -7.7998329 4.0481847900000005 4.24846575 0.001235 0.040464 0.003161
28900 -7.810604280000001 4.049832870000001 4.24188324 0.003354 0.040443 0.006381
28920 -7.85116863 4.071532590000001 4.2309549 0.003344 0.039374 0.00745
28940 -7.82452467 4.06734372 4.21134471 0.000153 0.039393 0.005292
28960 -7.803874620000001 4.052373660000001 4.20460524 -0.000913 0.039397 0.0052840000000000005
28980 -7.795192770000001 4.04742942 4.20670458 0.000149 0.039389 0.00636
29000 -7.848931950000001 4.07482875 4.219428150000001 0.00123 0.042581 0.006363000000000001
29020 -7.849971810000001 4.08515868 4.2209192700000004 -0.001985 0.038336 0.005278
29040 -7.83410904 4.07437749 4.19862114 -0.002004 0.034075 0.005283
29060 -7.827369570000001 4.0957829100000005 4.2052036500000005 0.001215 0.036202 0.003167
29080 -7.8323138100000005 4.095037350000001 4.19218578 0.001215 0.035141000000000006 0.0021
29100 -7.844586120000001 4.10252238 4.21882974 -0.000942 0.030884 0.003159
29120 -7.827369570000001 4.12332939 4.21837848 0.00012 0.031937 0.005301
29140 -7.8228864 4.11733548 4.224362580000001 -0.000942 0.035128 0.007426
29160 -7.82437752 4.11135138 4.24203039 -0.00199 0.039392 0.007412999999999999
29180 -7.827369570000001 4.10625999 4.231700460000001 -0.000913 0.041519 0.007418000000000002
29200 -7.81315488 4.118090850000001 4.241127870000001 -0.003076 0.036196 0.008478
29220 -7.80596415 4.10027589 4.24846575 -0.004133 0.036208 0.006334
29240 -7.813302030000001 4.09128993 4.24397277 -0.003066 0.037266 0.007408
29260 -7.79938164 4.0818625200000005 4.25954124 0.000139 0.037259 0.006363000000000001
29280 -7.801480980000001 4.10910489 4.22990523 -0.000942 0.03725 0.00956
29300 -7.7984791200000005 4.074230340000001 4.22691318 0.001196 0.037246 0.008506
29320 -7.81703964 4.06689246 4.233495690000001 0.002263 0.037243 0.008514
29340 -7.805071440000001 4.0635963 4.23394695 0.000125 0.036185 0.0085
29360 -7.813302030000001 4.085757090000001 4.22211609 -0.002019 0.034062 0.008487999999999999
29380 -7.812252360000001 4.06689246 4.21163901 -0.0031 0.03087 0.008485
29400 -7.793240580000001 4.05971154 4.241431980000001 -0.005214 0.030894 0.004197
29420 -7.821081360000001 4.06255644 4.2366447 -0.0052 0.034089999999999995 0.004193
29440 -7.83006732 4.08769947 4.20999093 -0.003066 0.037266 0.007408
29460 -7.8261727500000005 4.07063988 4.208794110000001 -0.000918 0.038332 0.005286
29480 -7.81030998 4.07736954 4.22675622 -0.000913 0.040458 0.006351
29500 -7.801176870000001 4.0758784200000004 4.24996668 0.001201 0.037251 0.007437999999999998
29520 -7.82976321 4.0701886200000015 4.23963675 0.00012 0.036181 0.009568
29540 -7.829321760000001 4.085757090000001 4.20295716 0.000115 0.036176 0.010637
29560 -7.83396189 4.0917411900000005 4.2290027100000005 -0.000957 0.037237 0.012764
29580 -7.85161989 4.14263547 4.205350800000001 -0.000952 0.03618 0.010629
29600 -7.81779501 4.0995205200000004 4.21792722 -0.000971 0.034041 0.012768
29620 -7.791749460000001 4.08860199 4.211943120000002 -0.0031100000000000004 0.032983 0.012755
29640 -7.803570510000001 4.105661580000001 4.205350800000001 -0.0031100000000000004 0.032983 0.012755
29660 -7.823484810000001 4.06943325 4.235595030000001 -0.004172 0.036174 0.01488
29680 -7.84712691 4.10147271 4.24427688 -0.003105 0.039354 0.018088
29700 -7.8462342000000005 4.09264371 4.2284043 -0.0031100000000000004 0.037227 0.017022
29720 -7.87452624 4.10716251 4.24128483 -0.003119 0.036158 0.018092
29740 -7.8203358000000005 4.054473 4.22196894 -0.003105 0.03511 0.01382
29760 -7.7998329 4.071081330000001 4.239479790000001 -0.004172 0.032991 0.011679
29780 -7.789650120000001 4.05880902 4.22691318 -0.00309 0.031938999999999995 0.0074150000000000015
29800 -7.81135965 4.06225233 4.239783900000001 -0.005234 0.028755000000000006 0.006336
29820 -7.82722242 4.05895617 4.26238614 -0.005219 0.028768 0.003131
29840 -7.841142810000001 4.11030171 4.248318600000001 -0.005219 0.027707 0.002064
29860 -7.82992017 4.13230554 4.22691318 -0.00521 0.033020999999999995 0.005261999999999999
29880 -7.8002743500000005 4.114343430000001 4.218525629999999 -0.005214 0.031955000000000004 0.005264
29900 -7.794888660000001 4.10716251 4.219575300000001 -0.005224 0.031947 0.0074
29920 -7.777672110000001 4.10671125 4.23648774 -0.005229 0.031942 0.008468
29940 -7.78620681 4.088150730000001 4.229306820000001 -0.004157 0.031943 0.007408
29960 -7.8026778000000006 4.12213257 4.252203360000001 -0.004148 0.035135 0.008472
29980 -7.803570510000001 4.07722239 4.253704290000001 -0.000923 0.037267 0.005287
30000 -7.79788071 4.0607514 4.23454536 -0.000923 0.04045 0.008487
30020 -7.821532620000001 4.07243511 4.213738350000002 0.005459 0.042532 0.014939
30040 -7.84293804 4.05926028 4.22451954 0.000134 0.047864 0.018099
30060 -7.812850770000001 4.082313780000001 4.234094100000001 -0.004148 0.046806 0.020207
30080 -7.810908390000001 4.076476830000002 4.226157810000001 -0.000971 0.04359 0.02237
30100 -7.79399595 4.0835106 4.26088521 -0.006334 0.037217 0.022341
30120 -7.80222654 4.10236542 4.2284043 -0.002023 0.039363 0.014891
30140 -7.7799186 4.10027589 4.239038340000001 -0.002023 0.037241 0.012757
30160 -7.79938164 4.12496766 4.2351437700000005 -0.000947 0.037245 0.010628
30180 -7.7945943600000005 4.10057019 4.2349966199999995 0.000134 0.038315 0.008498
30200 -7.809260310000001 4.08336345 4.25789316 -0.002 0.037262 0.007416
30220 -7.81569567 4.11030171 4.27032243 0.000139 0.036198 0.005296
30240 -7.857162540000001 4.11419628 4.253400180000001 -0.003071 0.031956 0.0031420000000000003
30260 -7.830518580000001 4.1061128400000015 4.2366447 -0.005219 0.028768 0.003131
30280 -7.80686667 4.109850450000001 4.23439821 -0.007358 0.02771 0.003118
30300 -7.791151050000001 4.145627520000001 4.243227210000001 -0.008395999999999999 0.034106 0.003102
30320 -7.825878449999999 4.13605296 4.251310650000001 -0.004133 0.034086 0.0042
30340 -7.7944374 4.13574885 4.24128483 -0.003057 0.035152 0.003138
30360 -7.7863539600000005 4.14548037 4.23828297 0.00016299999999999998 0.039402 0.0031550000000000003
30380 -7.78351887 4.13665137 4.23439821 0.002316 0.042595 0.002098
30400 -7.77977145 4.13320806 4.253105879999999 0.005531 0.043657 -1.7e-05
30420 -7.79309343 4.12048449 4.25968839 0.005526 0.042592000000000005 -1.6e-05
30440 -7.81315488 4.10910489 4.234094100000001 0.006587999999999999 0.041523 -7.000000000000002e-06
30460 -7.783960320000001 4.09114278 4.25819727 0.008722 0.043637 0.002141
30480 -7.77049119 4.0897988100000005 4.27960269 0.005502 0.042571 0.005325
30500 -7.7724335700000005 4.07093418 4.26837024 0.002292 0.041512 0.006372
30520 -7.75807173 4.05536571 4.27720905 -0.0008939999999999998 0.041536 0.003145
30540 -7.78022271 4.07033577 4.26238614 0.001249 0.045781 0.005291
30560 -7.7486345100000005 4.02962427 4.2926205600000005 0.001235 0.042586 0.005295
30580 -7.785314100000001 4.104317610000002 4.29247341 0.00123 0.038337 0.002096
30600 -7.778123370000001 4.1703291 4.26328866 0.000153 0.03621 0.002091
30620 -7.794143100000001 4.12886223 4.2351437700000005 0.000168 0.036223000000000005 -0.001113
30640 -7.8143517000000005 4.12092594 4.23993105 0.000173 0.036228 -0.002182
