time Ax Ay Az Gx Gy Gz
20 -7.031033010000001 5.742361980000001 3.8285879400000002 -0.106346 0.032505 -0.044582
40 -7.105569389999999 5.789214540000001 3.7625764500000005 -0.189786 -0.01621 -0.044034
60 -6.986574090000001 5.75448714 3.66064074 -0.249818 -0.082039 -0.046505
80 -6.979834620000001 5.819743260000001 3.55899933 -0.308659 -0.123358 -0.052203999999999987
100 -6.968906280000001 5.940396450000001 3.5316098100000004 -0.341746 -0.132804 -0.058833
120 -7.028786520000001 5.95357128 3.5248703400000005 -0.29467 -0.117995 -0.073478
140 -7.10781588 5.95297287 3.54597165 -0.203838 -0.08635 -0.073952
160 -7.12158912 6.20324559 3.63698883 -0.110829 -0.022844 -0.05202
180 -6.930588419999999 6.03739773 3.62276433 -0.025384 0.035299000000000004 -0.014109
200 -6.83030079 6.01659072 3.5220254399999997 0.029978 0.064711 0.041787
220 -6.843917070000001 5.93650188 3.3792212700000004 0.040555 0.110215 0.108032
240 -6.92594829 5.9242295700000005 3.3072256800000006 0.008578 0.15703699999999998 0.148342
260 -7.065760409999999 5.87931939 3.34898685 -0.023471 0.15074500000000002 0.15133
280 -7.02699129 5.686072200000001 3.53489616 -0.018343 0.079455 0.12582000000000002
300 -7.005880169999999 5.472018 3.7047955500000005 0.009261 0.015579 0.091912
320 -7.093601189999999 5.19793641 3.9627102600000006 0.04973 -0.022823 0.069811
340 -7.364386620000001 5.1651612 4.168533870000001 0.16796 -0.050993 0.085628
360 -7.6710962700000005 5.32158165 4.1788638 0.314794 -0.102785 0.12304
380 -7.72124499 5.3652950100000005 4.014654210000001 0.227374 -0.089692 0.121344
400 -7.5678165900000005 5.44627656 3.81511881 0.042898 -0.108064 0.080555
420 -7.297472610000001 5.50001574 3.69790893 -0.035088999999999995 -0.15350899999999998 0.057636
440 -7.082368740000001 5.501055600000001 3.63698883 0.009763 -0.134529 0.067539
460 -6.881793480000001 5.4705268799999995 3.6199194300000004 0.132787 -0.022193 0.10671
480 -6.96381489 5.538784860000001 3.5983668600000005 0.243019 0.107172 0.160725
500 -7.077885570000001 5.64356547 3.5251646400000003 0.28886100000000003 0.114409 0.175991
520 -7.089706620000001 5.72799033 3.3736884300000005 0.257812 0.066674 0.152335
540 -7.002888120000001 5.68099062 3.26052027 0.179883 -0.004184 0.090992
560 -7.04419803 5.742205020000001 3.60854964 0.063834 -0.041760000000000005 -0.001637
580 -6.97653846 5.80957029 3.9019373100000005 -0.067069 -0.049504 -0.08265800000000001
600 -6.8570919 5.788164870000001 4.132158390000001 -0.117086 -0.034364 -0.095846
620 -6.81892119 5.87558178 4.27615938 -0.085052 0.00905 -0.05829
640 -6.802450200000001 6.0731748 4.27601223 -0.042435 0.038558 -0.015301
660 -6.6286660500000005 6.13648854 4.036952340000001 -0.013769 0.031968 0.009477
680 -6.38137557 6.27884145 3.6554022 -0.008535 0.009579 0.009542
700 -6.345451350000001 6.277644629999999 3.4822066500000006 -0.033149 -0.025417 -0.008745000000000001
720 -6.49424943 6.2180685 3.4530219000000004 -0.018218 -0.031839 -0.013973
740 -6.80081193 6.048169110000001 3.64342419 -0.004205 0.001131 -0.012849
760 -7.20616113 6.0671808899999995 3.7862283600000004 -0.011577 0.017158 -0.018263
780 -7.51886469 6.061795200000001 3.92543226 0.008655 0.0032600000000000003 -0.023445
800 -7.39806435 5.91420375 3.98830455 0.052367 -0.006468000000000001 -0.026331
820 -7.172189100000001 5.80074129 3.85583031 0.05988300000000001 -0.003268 -0.033761
840 -6.9629221800000005 5.6393766 3.7247000400000005 0.054583000000000007 -3.7e-05 -0.038075
860 -6.78733299 5.635177919999999 3.61678023 0.017324000000000003 0.013959 -0.042626
880 -6.72760971 5.58308682 3.56498343 0.0056170000000000005 0.024636 -0.038448
900 -6.71937912 5.688769949999999 3.5760589200000004 0.009918 0.039505 -0.03096
920 -6.877751760000001 5.702091930000001 3.6751595400000006 0.022706 0.044752 -0.022331
940 -6.847811640000001 5.75733204 3.75853473 0.005679 0.048033 -0.028864
960 -6.881636520000001 5.88605886 3.85014051 -0.002774 0.061929 -0.033214
980 -6.82281576 5.94713592 3.8130194700000004 -0.012342 0.068358 -0.034357
1000 -6.8038039800000005 6.013294560000001 3.84729561 -0.021958 0.074745 -0.024818
1020 -6.79706451 6.06478725 3.81660993 -0.028364 0.07688500000000001 -0.021661
1040 -6.82865271 5.95985949 3.9031341299999998 -0.017728999999999998 0.073635 -0.01731
1060 -6.781348889999999 6.02168211 3.9246867 -0.013494999999999998 0.067224 -0.016204
1080 -6.76054188 6.00207192 3.9411576900000003 -0.007094 0.068263 -0.015092
1100 -6.750516060000001 5.95566081 3.8556831600000003 -0.006056000000000001 0.058684 -0.018277
1120 -6.78254571 5.935305060000001 3.88322964 -0.00075 0.04803 -0.022499
1140 -6.793022790000001 5.9080626899999995 3.85882236 0.006698000000000001 0.044804 -0.021375
1160 -6.861133620000001 5.859120600000001 3.84805098 0.014181 0.051157 -0.018126
1180 -6.896312280000001 5.84714259 3.82200543 0.016238 0.040471 -0.011689
1200 -6.8804397 5.8405502700000005 3.75090255 0.023605 0.023379 -0.006274
1220 -6.92130816 5.84025597 3.72395448 0.028901 0.019083000000000003 -0.001959
1240 -6.931481130000001 5.84788815 3.72096243 0.021433 0.021231 0.000123
1260 -6.98013873 5.805224460000001 3.7190200500000006 0.011841 0.026578 0.003253
1280 -6.9528865500000006 5.77663812 3.71482137 0.003301 0.027664 0.005329
1300 -6.97818654 5.761972170000001 3.73009554 -0.001005 0.02234 0.00851
1320 -7.003035270000001 5.77783494 3.7583875800000004 -0.005301 0.017025 0.009555
1340 -6.98822217 5.80672539 3.7326363300000005 -0.007449 0.013836 0.009544
1360 -6.97968747 5.81106141 3.73863024 -0.009587 0.012778 0.009531
1380 -6.96397185 5.794453080000001 3.71378151 -0.011692 0.015994 0.006307
1400 -6.99150852 5.807922210000001 3.77006148 -0.018055 0.018173 -0.000149
1420 -6.990164550000001 5.80806936 3.7690118100000003 -0.024432 0.018217 -0.005535
1440 -6.968906280000001 5.83531173 3.74970573 -0.029757 0.019305000000000003 -0.006642
1460 -6.9528865500000006 5.855373180000001 3.76781499 -0.02658 0.015028 -0.005546
1480 -6.90573969 5.87768112 3.74401593 -0.018065 0.011798 -0.004414
1500 -6.875348310000001 5.876484300000001 3.7236601800000004 -0.013797 0.010722 -0.005451
1520 -6.86008395 5.869744830000001 3.72889872 -0.014874 0.007534999999999998 -0.006523
1540 -6.885982350000001 5.901323220000001 3.73338189 -0.016955 0.017138 -0.008686
1560 -6.93193239 5.87872098 3.76078122 -0.004128 0.025603 -0.005403
1580 -6.95828205 5.87304099 3.78817074 -0.006261999999999999 0.028793 -0.002217
1600 -6.93582696 5.85103716 3.7833834600000005 -0.007334 0.028792 -0.001156
1620 -6.93477729 5.86376073 3.7847274300000002 -0.009487 0.0256 -9.9e-05
1640 -6.91068393 5.84384643 3.7753000200000004 -0.005205 0.02772 -0.00114
1660 -6.909477300000001 5.866595820000001 3.76167393 -0.005181 0.033046 -0.001147
1680 -6.90753492 5.817800879999999 3.7845802800000006 -0.001947 0.03837 -0.0032670000000000004
1700 -6.890769629999999 5.80253652 3.8167668900000002 -0.003009 0.039439 -0.003276
1720 -6.9388190100000005 5.811218370000001 3.8459516400000004 -0.0008609999999999999 0.043688 -0.002198
1740 -6.9210040500000005 5.79639546 3.88666314 0.0066170000000000005 0.048976 0.001052
1760 -6.8861295 5.83755822 3.83413059 0.007679000000000002 0.050029 0.003194
1780 -6.897960360000001 5.801634000000001 3.83427774 0.006626000000000001 0.05535 0.005316
1800 -6.894065790000001 5.8267868400000005 3.84729561 0.004507 0.059614 0.006364
1820 -6.898853070000001 5.81825214 3.8725956000000004 0.011975 0.058527 0.00535
1840 -6.939123120000001 5.82139134 3.86706276 0.014103999999999997 0.057454999999999985 0.005365999999999999
1860 -6.929087490000001 5.81375916 3.84789402 0.013041999999999998 0.058523 0.005357
1880 -6.9388190100000005 5.81794803 3.85044462 0.015166 0.059569 0.008575
1900 -6.930284310000001 5.81450472 3.8645121600000003 0.01618 0.049969 0.010731
1920 -6.95109132 5.7910097700000005 3.88098315 0.017228 0.047826 0.012878
1940 -6.95888046 5.7869680500000005 3.8863688400000003 0.019386 0.053145000000000005 0.012886000000000002
1960 -6.9757929 5.78801772 3.87783414 0.018338 0.056349 0.011806
1980 -6.94196802 5.769153090000001 3.8534366700000002 0.016228 0.059561 0.009651
2000 -6.94809927 5.78756646 3.8552319 0.011966 0.05958 0.008553
2020 -6.901845120000001 5.779777320000001 3.8314328400000006 0.010913 0.06384 0.009608
2040 -6.9325308 5.805224460000001 3.8077809300000003 0.005608 0.068128 0.007429000000000002
2060 -6.92475147 5.831574120000001 3.8146675500000002 -0.002927 0.06815800000000001 0.0073700000000000015
2080 -6.90155082 5.84010882 3.7938605400000003 -0.010419 0.068163 0.012659
2100 -6.929391600000001 5.84339517 3.80763378 -0.013634 0.073466 0.021175
2120 -6.93283491 5.83441902 3.79655829 -0.015806 0.074501 0.030773
2140 -6.931785240000001 5.82289227 3.7878764400000002 -0.014768 0.07235 0.035055
2160 -6.939564570000001 5.834713320000001 3.7892204100000004 -0.011568 0.07446 0.037212
2180 -6.9252027300000005 5.82662988 3.78742518 -0.009415 0.076592 0.035087
2200 -6.918610409999999 5.795345790000001 3.79625418 -0.011515 0.076629 0.027595
2220 -6.921455310000001 5.78786076 3.7601828100000003 -0.006185 0.068118 0.020166
2240 -6.94900179 5.824834650000001 3.75478731 -0.001899 0.062815 0.010588
2260 -6.956035560000001 5.83786233 3.75269778 0.000254 0.060703 0.004197
2280 -6.977735280000001 5.82813081 3.7715526000000006 0.004512 0.051131 -0.003239
2300 -6.98358204 5.78621268 3.76810929 0.013028 0.040474 -0.009575
2320 -6.985073160000001 5.823186570000001 3.79056438 0.023706 0.040445 -0.011637
2340 -6.961872510000001 5.829474780000001 3.7901229300000003 0.037604000000000005 0.044666 -0.013681
2360 -6.92879319 5.82918048 3.7567395 0.045101 0.051031 -0.013637
2380 -6.88208778 5.815260090000001 3.7432703700000003 0.043015 0.061692 -0.013665
2400 -6.88837599 5.863603770000001 3.73548123 0.0419 0.05847 -0.0061920000000000005
2420 -6.88867029 5.873482439999999 3.74356467 0.034442 0.062748 -0.004113
2440 -6.85978965 5.842953720000001 3.74371182 0.032293 0.065926 0.002278
2460 -6.89391864 5.86764549 3.7720038600000003 0.039733 0.063752 0.006605
2480 -6.891672150000001 5.8685480100000005 3.75942744 0.038661 0.063752 0.007666
2500 -6.8769963899999995 5.836959810000001 3.7374236100000005 0.035480000000000005 0.068024 0.007638
2520 -6.89436009 5.83800948 3.7351869300000002 0.034418000000000004 0.06591 0.004429
2540 -6.931186830000001 5.83980471 3.73698216 0.034408 0.05953500000000001 0.000164
2560 -6.911723790000001 5.82648273 3.7356283800000005 0.032246 0.055273 0.002291
2580 -6.9070836600000005 5.8146616799999995 3.7522465200000004 0.031227 0.06592999999999999 0.00227
2600 -6.97758813 5.79744513 3.6967121100000004 0.024854 0.070222 8.4e-05
2620 -7.012168379999999 5.811365520000001 3.70314747 0.010951 0.058569 -0.0042710000000000005
2640 -7.009627590000001 5.814210419999999 3.7444671900000004 0.002373 0.045829 -0.0075200000000000015
2660 -6.975498600000001 5.86061172 3.71018124 0.001268 0.036249 -0.008583
2680 -6.97189833 5.873786550000001 3.67410987 0.001292 0.037332 -0.012857
2700 -6.93896616 5.838912 3.66617358 -0.000851 0.033087 -0.015003
2720 -6.901845120000001 5.8109142600000006 3.6534500100000002 -0.003009 0.026707 -0.016079
2740 -6.9289403400000005 5.84219835 3.6612391500000006 -0.00088 0.027756 -0.013929
2760 -6.97490019 5.873482439999999 3.6833901300000003 0.001287 0.036266 -0.012856
2780 -6.985073160000001 5.872884030000001 3.6529987500000005 0.002349 0.037319 -0.010714
2800 -6.965767080000001 5.859120600000001 3.60345825 -0.002975 0.036286 -0.013954
2820 -6.94555848 5.82618843 3.58174872 -0.005109000000000001 0.032049 -0.018237
2840 -6.927890669999999 5.867194230000001 3.55765536 -0.005128 0.026727 -0.019298
2860 -6.90678936 5.90088177 3.55990185 -0.005138 0.023535 -0.020362
2880 -6.908584590000001 5.9004305100000005 3.5718700500000002 -0.004079999999999999 0.023523 -0.018218
2900 -6.941369610000001 5.956416180000001 3.58040475 -0.005147 0.023527 -0.018226
2920 -6.988663620000001 5.963145840000001 3.5986709700000006 -0.006243 0.020322 -0.015025
2940 -6.99226389 5.936805990000001 3.60749997 -0.007334 0.017121 -0.012892
2960 -7.02384228 5.923631159999999 3.61947798 -0.0062770000000000005 0.016048 -0.011815
2980 -7.06171869 5.877229860000001 3.6368416800000003 -0.004124 0.021363 -0.010738
3000 -7.040009159999999 5.84714259 3.6426786300000003 -0.004104 0.025624 -0.010744
3020 -7.048995120000001 5.85013464 3.6419232600000004 -0.000875 0.032004000000000005 -0.010729
3040 -7.03118016 5.84683848 3.60450792 -0.001932 0.033078 -0.011806
3060 -7.019055000000001 5.817055320000001 3.60570474 -0.0008460000000000001 0.037335 -0.011804
3080 -7.024293540000001 5.82169545 3.5703789300000004 -0.001908 0.037343 -0.01288
3100 -7.005134610000001 5.81211108 3.57621588 0.0044740000000000005 0.039425 -0.006429000000000001
3120 -7.00183845 5.826031469999999 3.57710859 0.004459 0.037291000000000005 -0.005358
3140 -7.00528176 5.813464860000001 3.6301022100000004 0.008759999999999999 0.047916 -0.002137
3160 -7.00843077 5.82064578 3.647613060000001 0.006631000000000001 0.05111 -1.9e-05
3180 -7.01486613 5.81810499 3.6757579500000004 0.000206 0.042623 -0.003258
3200 -6.9900174 5.83186842 3.6676745100000003 0.001259 0.039424 -0.003246
3220 -7.00019037 5.826335580000001 3.71137806 0.005545 0.042609 -0.004289
3240 -6.98567157 5.8290333300000015 3.68174205 0.005531 0.040474 -0.003218
3260 -7.00423209 5.83951041 3.6904239000000003 0.0044210000000000005 0.031952 -0.002147
3280 -6.97968747 5.854774770000001 3.6715690800000003 0.008693000000000001 0.033002 -0.002118
3300 -7.00498746 5.83142697 3.7049427 0.005502 0.033022 -0.004277
3320 -6.978039389999999 5.8204986299999995 3.6512035200000006 0.005497 0.033017000000000005 -0.0032090000000000005
3340 -6.993156600000001 5.84474895 3.66542802 0.001235 0.035159 -0.002173
3360 -6.993755010000001 5.79115692 3.6500067000000005 0.001263 0.035184 -0.008582
3380 -6.9496002 5.78067984 3.62575638 -0.003004 0.034138 -0.009679
3400 -7.01006904 5.792206590000001 3.61723149 -0.006219 0.032014 -0.00863
3420 -7.04659167 5.813906310000001 3.6615334500000003 -0.006243 0.026688 -0.008624
3440 -7.0338681 5.814955980000001 3.6136312200000003 -0.006257 0.024553 -0.007553
3460 -7.049740679999999 5.82454035 3.63383982 -0.00088 0.032 -0.009661
3480 -7.05108465 5.81211108 3.6359391600000004 -0.003014 0.033068 -0.008609
3500 -7.027736850000001 5.8146616799999995 3.64237452 -0.007286 0.029896 -0.010771
3520 -7.051683060000001 5.79773943 3.6295037999999997 -0.012644 0.024588 -0.010802
3540 -7.052585580000001 5.8146616799999995 3.64177611 -0.011573 0.027772 -0.008662000000000001
3560 -7.05557763 5.82198975 3.6486627300000003 -0.007286 0.033079000000000004 -0.007571
3580 -7.02908082 5.80208526 3.6458178300000004 -0.003018 0.035186 -0.005407
3600 -7.00034733 5.803733340000001 3.62919969 -0.0008939999999999998 0.03517 -0.003256
3620 -7.01635725 5.82289227 3.63204459 -0.001971 0.034104 -0.002194
3640 -7.027736850000001 5.83217253 3.6269532 -0.0008990000000000002 0.036227 -0.001121
3660 -7.01486613 5.79385467 3.63847995 0.000168 0.036223000000000005 -0.001113
3680 -7.027884000000001 5.79983877 3.6546468300000003 0.001225 0.03515 -3.6e-05
3700 -7.01606295 5.79773943 3.6556965 0.001249 0.039415 -0.00111
3720 -7.044953400000001 5.82139134 3.67231464 0.002325 0.043664 0.001029
3740 -7.0464445200000005 5.76047124 3.6811436400000006 0.001268 0.044737 -4.8e-05
3760 -7.040754720000001 5.7666123 3.6797996700000004 0.002287 0.037264 0.003173
3780 -7.035074730000001 5.78218077 3.6727659000000004 0.000144 0.036202 0.004228
3800 -7.027432740000001 5.779777320000001 3.64926114 0.000149 0.038328 0.005293
3820 -7.0325241300000005 5.789508840000001 3.66722325 0.0033590000000000004 0.04257 0.007445999999999999
3840 -7.042402800000001 5.774097330000001 3.68264457 -0.000913 0.036214 0.002084
3860 -7.061414580000001 5.773646070000001 3.67171623 -0.006248 0.031989 -0.002221
3880 -7.05588174 5.77424448 3.67530669 -0.003038 0.033047 -0.003268
3900 -7.053036840000001 5.77798209 3.6588455100000004 -0.003047 0.031978 -0.002199
3920 -7.049436570000001 5.76570978 3.6934159500000003 -0.002014 0.026639 -4.8e-05
3940 -7.03776267 5.760324090000001 3.67410987 -0.003076 0.027708 -5.7e-05
3960 -7.043756580000001 5.75178939 3.6544996800000003 -0.005205 0.026659 -0.002207
3980 -7.036565850000001 5.773341960000001 3.65899266 -0.011596 0.029873 -0.001188
4000 -7.05497922 5.7809741400000005 3.65524524 -0.010525 0.028812 -0.003315
4020 -7.035221880000001 5.77558845 3.6486627300000003 -0.008357999999999999 0.032018 -0.007576999999999999
4040 -7.02623592 5.7532903200000005 3.6736586100000004 -0.0073 0.032005 -0.005433
4060 -7.045993260000001 5.773646070000001 3.6536069700000002 -0.005219 0.024524 -0.001136
4080 -7.025490360000001 5.798936250000001 3.64641624 -0.004186 0.021307 0.003148
4100 -7.03222983 5.82378498 3.6531557100000005 -0.005219 0.025585 -6.9e-05
4120 -7.033720949999999 5.79744513 3.69910575 -0.012663 0.028815 -0.002262
4140 -7.04315817 5.76616104 3.6803980800000002 -0.01694 0.023517 -0.00549
4160 -7.0540767 5.765562630000001 3.6799468200000005 -0.014826 0.017126 -0.007603
4180 -7.04091168 5.7814254 3.6697640400000004 -0.008468 0.009639 -0.005413
4200 -7.04435499 5.7754413 3.68429265 -0.003124 0.012811 -0.004311
4220 -7.040313270000001 5.76884898 3.6706665600000004 -0.002019 0.022391 -0.003247
4240 -7.02354798 5.785467120000001 3.6782987400000002 -0.000933 0.029831 -4.5e-05
4260 -7.031631419999999 5.751043830000001 3.66782166 -0.005181 0.035168 0.000987
4280 -7.03911645 5.78127825 3.6824876100000004 -0.005167000000000001 0.039425 0.00205
4300 -7.0718916599999995 5.76721071 3.67934841 -0.006176 0.05009 -0.000107
4320 -7.043452470000001 5.711519340000001 3.6827917200000004 -0.001928 0.047936 0.002062
4340 -7.046895780000001 5.7109209299999995 3.6657223200000004 0.004454 0.051079 0.00958
4360 -7.02579447 5.7464037 3.6528516000000004 0.000177 0.043659 0.004218
4380 -7.022792610000001 5.75448714 3.67201053 0.0033590000000000004 0.039387 0.004246
4400 -7.018907850000001 5.748346080000001 3.6845869500000004 0.00443 0.040448000000000005 0.004252000000000001
4420 -7.06440663 5.74086105 3.70090098 0.0044210000000000005 0.037257 0.003188
4440 -7.06964517 5.726489399999999 3.7356283800000005 0.002282 0.036199 0.003174
4460 -7.08955947 5.74684515 3.75538572 0.000153 0.038332 0.004225
4480 -7.08760728 5.729932710000001 3.78712107 0.001249 0.042598 0.002091
4500 -7.0624642500000006 5.699698290000001 3.7679621400000003 0.000201 0.045802 0.001011
4520 -7.04988783 5.71466835 3.7703557800000005 0.002321 0.04366 0.002097
4540 -7.034917770000001 5.74624674 3.75434586 -0.001961 0.038357 -6.3e-05
4560 -7.009627590000001 5.7694572 3.71886309 -0.003042 0.036226 0.001001
4580 -6.98851647 5.75448714 3.6895311900000003 -0.000909 0.031974 -0.003252
4600 -6.98447475 5.74760052 3.7024019100000003 -0.003076 0.025586 -0.002191
4620 -7.0224983100000005 5.733376020000001 3.70300032 -0.007319 0.026683 -0.006495
4640 -7.03567314 5.73532821 3.71048535 -0.017978 0.024607 -0.010839
4660 -7.040754720000001 5.74624674 3.69312165 -0.027566000000000004 0.028897000000000006 -0.009844
4680 -7.0662018600000005 5.7492486000000005 3.70599237 -0.028604 0.036354 -0.008792
4700 -7.058873790000001 5.72199642 3.7065907800000004 -0.026451 0.040607 -0.008783
4720 -7.06396518 5.7314336400000006 3.7124277300000004 -0.020055 0.040581 -0.0076700000000000015
4740 -7.04195154 5.7148155 3.7395229500000005 -0.014763 0.034158 -0.00442
4760 -7.008872220000001 5.71706199 3.68293887 -0.009463 0.027743 -0.0033060000000000003
4780 -6.997198320000001 5.76630819 3.6627302700000004 -0.011611 0.025616000000000003 -0.00225
4800 -6.989713290000001 5.77229229 3.68563662 -0.009468 0.026678 -0.003305
4820 -7.012766790000001 5.78022858 3.69790893 -0.009482 0.024543 -0.002234
4840 -7.033720949999999 5.7725964 3.7347356700000005 -0.005219 0.023463 -0.002203
4860 -7.040009159999999 5.7811311000000005 3.73758057 -0.002052 0.025544 0.00743
4880 -7.0421085 5.7709483200000005 3.7491073200000002 -0.006314999999999999 0.031929 0.012734
4900 -7.08296715 5.73172794 3.74057262 -0.015907 0.048947 0.0276
4920 -7.043305320000001 5.708076030000001 3.7381789800000003 -0.030766 0.062861 0.024274
4940 -7.053635250000001 5.707183320000001 3.74356467 -0.043492 0.077828 0.022029
4960 -7.0063314299999995 5.70867444 3.7347356700000005 -0.043444 0.085297 0.018815
4980 -7.023989429999999 5.714521199999999 3.6943184700000002 -0.042363 0.074696 0.004949
5000 -7.022949570000001 5.656583340000001 3.7014993900000004 -0.030699 0.055493 0.001851
5020 -7.045846110000001 5.63758137 3.71213343 -0.017998 0.030956 -0.000165
5040 -7.0385180400000005 5.6736527400000005 3.73997421 -0.003129 0.018112 0.002091
5060 -7.067849939999999 5.70118941 3.7383261300000004 0.005368 0.013804 0.006429000000000001
5080 -7.10916966 5.73397443 3.7691589600000004 0.0064540000000000005 0.013818 0.002164
5100 -7.15826871 5.7314336400000006 3.8061328500000005 0.009669 0.015941 0.001115
5120 -7.19718498 5.71825881 3.835474560000001 0.006483 0.018087 2.2e-05
5140 -7.15856301 5.65942824 3.8455003800000003 0.007564 0.02234 0.001092
5160 -7.131016530000001 5.63637474 3.7968525900000003 0.00222 0.023411 0.004258
5180 -7.09628913 5.64356547 3.7779977700000003 -0.005267 0.021298 0.006345
5200 -6.949453050000001 5.69250756 3.70673793 -0.009506 0.026644 0.005241
5220 -6.915922470000001 5.73412158 3.6735114600000003 -0.010544 0.030917 0.003091
5240 -6.90019704 5.73397443 3.6724617900000003 -0.011601 0.027746 -0.002253
5260 -6.973693560000001 5.7314336400000006 3.6872847 -0.012649 0.027767 -0.006533
5280 -6.978039389999999 5.7176604 3.69656496 -0.012654 0.025641000000000004 -0.007599
5300 -7.02699129 5.735622510000001 3.7296442800000005 -0.006257 0.024553 -0.007553
5320 -7.0464445200000005 5.764061700000001 3.75434586 -0.000966 0.016008 -0.006437000000000001
5340 -7.06605471 5.723801460000001 3.8197589400000003 0.006468000000000001 0.009586 -0.005308
5360 -7.052732730000001 5.69491101 3.8197589400000003 0.010736 0.010632 -0.004212
5380 -7.0540767 5.688622800000001 3.8230452900000005 0.010755 0.013832 -0.0052840000000000005
5400 -7.068448350000001 5.70388716 3.7830793500000004 0.0075590000000000015 0.015969999999999998 -0.004241
5420 -7.05797127 5.691614850000001 3.79625418 0.005459 0.021312 -0.006399
5440 -7.05497922 5.70134637 3.76991433 0.007578 0.022353 -0.002112
5460 -7.0284824100000005 5.6736527400000005 3.75823062 0.0065260000000000006 0.029797000000000008 0.002144
5480 -7.00843077 5.648656860000001 3.73338189 0.005473 0.035118 0.004266
5500 -7.024744800000001 5.689074060000001 3.73038984 -0.000923 0.037267 0.005287
5520 -7.02309672 5.727843180000001 3.72784905 -0.0008990000000000002 0.040471 0.003147
5540 -7.03222983 5.733523170000001 3.7449086400000007 -0.001942 0.043679 0.000999
5560 -7.02579447 5.6914677 3.788622 -0.003033 0.039417 0.002065
5580 -7.01845659 5.686072200000001 3.78907326 -0.004133 0.035147000000000005 0.005267
5600 -7.034025060000001 5.69281167 3.82963761 -0.005214 0.030894 0.004197
5620 -7.05228147 5.68667061 3.8311287300000005 -0.008405 0.029853 0.000971
5640 -7.035221880000001 5.68427697 3.8290392 -0.013706 0.032023 -0.00441
5660 -7.045993260000001 5.6458119600000005 3.8458044900000004 -0.010501 0.030956 -0.006522
5680 -7.065760409999999 5.6197664099999995 3.85193574 -0.011592 0.025633 -0.006523
5700 -7.02833526 5.63817978 3.86181441 -0.012692 0.017119 -0.007587999999999998
5720 -7.04225565 5.63742441 3.8221525800000005 -0.012721 0.011788 -0.006513
5740 -7.0325241300000005 5.6684142 3.7919181600000003 -0.01485 0.0118 -0.007595999999999999
5760 -7.05557763 5.68487538 3.8079280800000004 -0.013769 0.014991999999999997 -0.007593000000000002
5780 -7.04615022 5.70254319 3.80897775 -0.008429 0.0171 -0.006490000000000001
5800 -7.06949802 5.723948610000001 3.8040433200000003 -0.008434 0.017095 -0.005422
5820 -7.07563908 5.716463580000001 3.76511724 -0.007391 0.01707 -7.4e-05
5840 -7.044649290000001 5.67889128 3.77680095 -0.012711 0.012858 -0.007582999999999999
5860 -7.050633390000001 5.676644790000001 3.77963604 -0.011649 0.01285 -0.006506999999999999
5880 -7.025039100000001 5.671857510000001 3.80268954 -0.009506 0.018156 -0.003294
5900 -7.01771103 5.682785850000001 3.8049360300000004 -0.007348 0.026658 -8.499999999999999e-05
5920 -7.012913940000001 5.69190915 3.83128569 -0.002014 0.0277 0.001019
5940 -7.01771103 5.70374001 3.8146675500000002 0.000115 0.026627 0.001035
5960 -7.02699129 5.682628889999999 3.83293377 0.0033350000000000003 0.030877 0.001052
5980 -7.0440508799999995 5.695656570000001 3.8260471500000004 0.007654999999999999 0.043641 0.002134
6000 -7.0280311499999994 5.69250756 3.83562171 0.014122999999999997 0.060655 0.004294
6020 -7.025490360000001 5.682628889999999 3.8302360200000005 0.017381 0.072366 0.003233
6040 -7.01231553 5.670062280000001 3.84341085 0.015272 0.07345499999999999 -0.001056
6060 -7.06770279 5.675143860000001 3.86001918 0.012081 0.073475 -0.003214
6080 -6.98956614 5.660183610000001 3.8321784 0.016309999999999998 0.075548 0.007495
6100 -7.04270691 5.66212599 3.87125163 0.026964 0.072315 0.007573000000000002
6120 -7.025186250000001 5.66542215 3.8627169300000004 0.034403 0.070141 0.011901
6140 -7.009323480000001 5.6498536800000005 3.8464029 0.038661 0.067996 0.011933
6160 -7.0130709 5.64191739 3.87274275 0.035461 0.06800700000000001 0.011911
6180 -7.037468370000001 5.66616771 3.8865159900000004 0.030145 0.069104 0.008668
6200 -7.07772861 5.66212599 3.9362134500000003 0.029083 0.069112 0.007592
6220 -7.07772861 5.65284573 3.95567649 0.029098 0.071246 0.006520999999999999
6240 -7.09809417 5.64925527 3.9704895900000006 0.030193 0.076573 0.005454
6260 -7.07803272 5.62065912 3.97034244 0.029131 0.076581 0.004378
6280 -7.075187820000001 5.629497929999999 3.9531258900000004 0.028045 0.074446 0.006509999999999999
6300 -7.06725153 5.64026931 3.8898121500000005 0.024859 0.07871399999999999 0.00755
6320 -7.0563231900000005 5.65299288 3.83726979 0.031323000000000004 0.079808 -0.005225
6340 -6.9907629600000005 5.6627244 3.8077809300000003 0.025926 0.077649 0.006490999999999999
6360 -7.00423209 5.639975010000001 3.7959598800000003 0.028064 0.07976799999999999 0.007571
6380 -7.02204705 5.663322810000001 3.79955034 0.029107 0.07656 0.009719
6400 -7.03627155 5.65882983 3.8019439800000003 0.028016000000000003 0.07335900000000001 0.011852
6420 -7.028933670000001 5.65598493 3.7878764400000002 0.030136000000000007 0.072278 0.014005000000000002
6440 -7.04015631 5.680235250000001 3.8188564200000004 0.02694 0.07229400000000001 0.012913999999999998
6460 -7.06112028 5.69550942 3.81751245 0.025849 0.06803200000000001 0.01398
6480 -7.05557763 5.666913270000001 3.81032172 0.02262 0.062713 0.015033
6500 -7.05992346 5.685925050000001 3.7878764400000002 0.019419 0.060602 0.012877
6520 -7.059315240000001 5.6990998799999995 3.7702086300000004 0.021587 0.06699 0.011815
6540 -7.072647030000001 5.69011392 3.76751088 0.020462 0.057394000000000014 0.015024
6560 -7.079082390000001 5.6835314100000005 3.7423678500000004 0.016247 0.063822 0.009646
6580 -7.12144197 5.62589766 3.7453599000000004 0.014133 0.065968 0.007492
6600 -7.043599620000001 5.72589099 3.75793632 0.008803 0.06386900000000001 0.004253
6620 -7.07653179 5.67140625 3.70988694 0.002378 0.056442999999999986 0.002081
6640 -7.104529530000001 5.68742598 3.69446562 -0.001918 0.050066 0.002059
6660 -7.068154050000001 5.68128492 3.69836019 -0.00619 0.047955000000000005 0.000964
6680 -7.059315240000001 5.68412982 3.70090098 -0.006224 0.040498 0.000973
6700 -7.069350870000001 5.71556106 3.65509809 -0.007295 0.036254 -0.002234
6720 -7.0781798700000005 5.723948610000001 3.68862867 -0.001966 0.034109 -0.003262
6740 -7.0680069 5.72844159 3.65240034 0.000129 0.025579 -0.003237
6760 -7.061865840000001 5.73083523 3.6766506600000004 0.005449 0.024487 -0.001062
6780 -7.10288145 5.70988107 3.6612391500000006 0.0033350000000000003 0.028755000000000006 -0.001082
6800 -7.1117104499999995 5.715718020000001 3.65105637 0.001225 0.03515 -3.6e-05
6820 -7.07504067 5.71062663 3.6471618 -0.005191 0.033038 0.00099
6840 -7.069350870000001 5.692664520000001 3.6455235300000006 -0.006301 0.023454 0.000994
6860 -7.04046042 5.69759895 3.62471652 -0.003114 0.021308 0.0020870000000000003
6880 -7.03551618 5.6993941800000005 3.6160346700000003 -0.002019 0.026635 0.00102
6900 -7.043305320000001 5.679783990000001 3.6238140000000003 -0.000913 0.034092000000000004 -5e-05
6920 -7.0205461200000014 5.714217090000001 3.5950707000000004 -0.006224 0.038376 -0.001161
6940 -7.02384228 5.72095656 3.5820528300000003 -0.005191 0.034099000000000004 0.002056
6960 -7.036565850000001 5.76810342 3.5802576000000004 -0.005253 0.022372 0.004208
6980 -7.023243870000001 5.7708011699999995 3.59028342 -0.004239 0.012773 0.006363000000000001
7000 -7.0563231900000005 5.76226647 3.6642312000000006 -0.004258 0.010633 0.008502
7020 -7.112014560000001 5.76301203 3.70914138 -0.0021100000000000003 0.014883 0.00958
7040 -7.16320314 5.7547814399999995 3.70419714 -0.001 0.023405 0.008509000000000001
7060 -7.18146936 5.77185084 3.6803980800000002 -0.004181 0.026617 0.007414
7080 -7.177574790000001 5.71615947 3.67410987 -0.005219 0.029829 0.004198
7100 -7.131173490000001 5.6776944600000006 3.6440226000000004 -0.007324 0.034106 0.002042
7120 -7.10377416 5.661821880000001 3.62905254 -0.005167000000000001 0.041547 0.004184
7140 -7.11066078 5.66047791 3.61678023 0.000182 0.044724 0.004217
7160 -7.07758146 5.6990998799999995 3.6458178300000004 0.00233 0.04579 0.002094
7180 -7.08776424 5.69895273 3.6405792900000002 0.000187 0.043667 0.002082
7200 -7.08401682 5.73427854 3.6579429900000004 0.001239 0.039407 0.001026
7220 -7.096593240000001 5.751642240000001 3.64626909 0.001235 0.038342 0.0010279999999999998
7240 -7.07653179 5.7410082 3.6342910800000006 0.002297 0.038334 0.0021030000000000003
7260 -7.0771302 5.739968340000001 3.65031081 0.010808 0.037221 0.006437000000000001
7280 -7.08686172 5.71271616 3.68652933 0.034216 0.028596 0.011953
7300 -7.1100623700000005 5.70957696 3.72455289 0.05874 0.027436 0.014262
7320 -7.10228304 5.70957696 3.71587104 0.072619 0.033762 0.018624
7340 -7.09614198 5.692664520000001 3.72290481 0.084344 0.040079 0.027243
7360 -7.08267285 5.68517949 3.7170678600000002 0.063026 0.048659 0.031356
7380 -7.06081617 5.72215338 3.69417132 -0.003038 0.055328 0.019136
7400 -7.043599620000001 5.725743840000001 3.6836942400000003 -0.073321 0.053567 -0.012331
7420 -7.06725153 5.72424291 3.66482961 -0.123353 0.049597 -0.041518
7440 -7.04135313 5.72484132 3.6781515900000006 -0.114751 0.052809 -0.053212
7460 -7.0343193600000005 5.72170212 3.6715690800000003 -0.073244 0.026049 -0.057161
7480 -7.044649290000001 5.72828463 3.67231464 -0.039287 -0.002879 -0.045136
7500 -7.06081617 5.72110371 3.6811436400000006 0.0064730000000000005 -0.0020800000000000003 -0.018112
7520 -7.056028889999999 5.7314336400000006 3.66348564 0.041646 0.020048 0.012016
7540 -7.040607570000001 5.72768622 3.62606049 0.037345 0.028521 0.027998
7560 -7.056921600000001 5.738163300000001 3.5308544400000006 0.012874000000000002 0.039276 0.02354
7580 -7.03582029 5.7053880900000005 3.5959732200000003 0.023505 0.037083 0.030027
7600 -7.04390373 5.639975010000001 3.7462624200000003 0.106629 0.015491 0.029567000000000006
7620 -7.10347986 5.60509065 3.84520608 0.095061 0.032657 0.009168
7640 -7.20826047 5.6946069 3.78712107 -0.07335 0.00898 -0.05073
7660 -7.243586280000001 5.7785805 3.6844398000000003 -0.15321600000000002 0.012574 -0.081203
7680 -7.221729600000001 5.80701969 3.5777070000000006 -0.126501 0.061326 -0.041555
7700 -7.150028310000001 5.81690817 3.5384964300000004 -0.012448 0.086301 0.00728
7720 -7.10512794 5.88546045 3.5235263700000004 0.067438 0.07848 0.029212
7740 -7.034770620000001 5.723497350000001 3.66033663 0.070466 0.045424 0.034617
7760 -6.92999001 5.62500495 3.69102231 0.02338 0.005142 0.025794
7780 -6.91652088 5.550753060000001 3.65330286 -0.009693 -0.014901 0.005293
7800 -6.96381489 5.58248841 3.60106461 -0.009468 0.021373 -0.008639
7820 -7.073843850000001 5.65538652 3.6169273800000004 -0.005056000000000001 0.055438 -0.006516
7840 -7.105275090000001 5.72065245 3.7083860100000003 -0.0008320000000000001 0.053263 0.000994
7860 -7.00004322 6.0990633899999995 3.6169273800000004 0.00975 0.039356 0.006427
7880 -7.13296872 5.846995440000001 3.7845802800000006 0.012898 0.029749 0.008598
7900 -7.358245560000001 5.464238669999999 3.93726312 0.0075590000000000015 0.02658 0.006428
7920 -7.490876760000001 5.719004370000001 3.90088764 0.004368 0.028722 0.006403
7940 -7.10602065 5.664519629999999 3.8475997200000003 0.004416 0.038313 0.005323
7960 -6.855590970000001 5.68128492 3.6122872500000005 0.003373 0.042582 0.004242
7980 -6.85514952 5.70988107 3.5672299200000004 -0.000904 0.035162 -0.00112
8000 -6.87625083 5.65509222 3.5923827600000005 -0.0008990000000000002 0.034105 -0.003255
8020 -7.070243580000001 5.59970496 3.63758724 -0.000918 0.031966 -0.001116
8040 -7.21544139 5.68128492 3.6934159500000003 -0.005205 0.029842 0.000994
8060 -7.2706815 5.6953524600000005 3.73294044 -0.004162 0.024512 0.001008
8080 -7.18551108 5.672603070000001 3.69656496 -0.003071 0.027712 -0.001125
8100 -7.09628913 5.65284573 3.6675273600000002 -0.000947 0.025574 -0.001108
8120 -7.03536903 5.68712187 3.682193310000001 -0.005243 0.018137 -0.002196
8140 -7.06980213 5.70074796 3.6958194000000004 -0.007411 0.010687 -0.002202
8160 -7.134459840000001 5.705839350000001 3.71228058 -0.009535 0.011764 -0.003286
8180 -7.15452129 5.709272850000001 3.724857 -0.008458 0.01283 -0.004348
8200 -7.130418120000001 5.71615947 3.7068948900000005 -0.011644 0.013915 -0.006508
8220 -7.08132888 5.723203050000001 3.7166166 -0.011659 0.008597 -0.008638
8240 -7.05856968 5.68068651 3.70195065 -0.011668 0.004345 -0.010769
8260 -7.08132888 5.70733047 3.71228058 -0.011678 0.0022140000000000003 -0.010767
8280 -7.0680069 5.69400849 3.64641624 -0.012716 0.006487000000000001 -0.012916
8300 -7.049436570000001 5.662871550000001 3.6694697400000003 -0.015907 0.007568000000000002 -0.014008
8320 -7.05347829 5.6541897 3.67905411 -0.012726 0.011784 -0.005445
8340 -7.050790350000001 5.66811009 3.7047955500000005 -0.015883 0.013955 -0.012947
8360 -7.055283330000001 5.704485570000001 3.6756108000000003 -0.016955 0.016077 -0.009753
8380 -7.05767697 5.70852729 3.66692895 -0.019079 0.020337 -0.007637
8400 -7.0623171000000005 5.680088100000001 3.67875 -0.019084 0.024577 -0.002301
8420 -7.072647030000001 5.670062280000001 3.6992529 -0.01694 0.0267 -0.002289
8440 -7.09150185 5.690270880000001 3.6929745 -0.015864 0.028827 -0.002284
8460 -7.085066490000001 5.7031416 3.7071891900000002 -0.012678 0.024559 -0.003325
8480 -7.10437257 5.706879209999999 3.73548123 -0.011606 0.02562 -0.003319
8500 -7.076384640000001 5.68053936 3.72620097 -0.011611 0.026677 -0.001184
8520 -7.06471074 5.676948899999999 3.69776178 -0.010539 0.030921 0.002023
8540 -7.09001073 5.676644790000001 3.72904587 -0.009463 0.033048 0.0020280000000000003
8560 -7.093601189999999 5.67889128 3.73548123 -0.004133 0.035147000000000005 0.005267
8580 -7.08192729 5.68099062 3.72620097 -0.004143 0.029834 0.002069
8600 -7.02369513 5.63832693 3.7652742000000003 -0.003076 0.02983 0.002077
8620 -7.09389549 5.639219639999999 3.79072134 -0.000952 0.031936 0.006362
8640 -7.121294820000001 5.660929169999999 3.7901229300000003 -0.0062770000000000005 0.031963 0.004188
8660 -7.10737443 5.64925527 3.77515287 -0.007348 0.029841000000000006 0.003115
8680 -7.162751879999999 5.65523937 3.80868345 -0.007339 0.030910000000000007 0.002046
8700 -7.073843850000001 5.636826 3.80299365 -0.004143 0.030895 0.003136
8720 -7.087008870000001 5.64641037 3.79640133 -0.007348 0.029841000000000006 0.003115
8740 -7.12981971 5.66242029 3.81017457 -0.005224 0.027703 0.003133
8760 -7.09584768 5.65523937 3.81062583 -0.004157 0.029821 0.005274
8780 -7.11680184 5.65882983 3.8136178800000002 -0.002009 0.031948000000000004 0.004218
8800 -7.0771302 5.648499899999999 3.8107729800000003 0.00012 0.031937 0.005301
8820 -7.076688750000001 5.620207860000001 3.8475997200000003 0.0033200000000000005 0.031925 0.005323
8840 -7.01695566 5.6339811 3.82589019 0.006540000000000001 0.037236 0.006407
8860 -7.06112028 5.64041646 3.7975981500000002 0.009779 0.044686 0.005352
8880 -7.081171919999999 5.64266295 3.80359206 0.011946 0.051075 0.004291
8900 -7.084615230000001 5.628742560000001 3.78727803 0.013037 0.055336 0.003225
8920 -7.09494516 5.62904667 3.79266372 0.01519 0.060651 0.004301
8940 -7.07698305 5.634432360000001 3.79565577 0.015219 0.068103 0.00536
8960 -7.07772861 5.62844826 3.80508318 0.014141999999999997 0.068099 0.007489
8980 -7.09628913 5.6393766 3.79775511 0.017329 0.067014 0.009649
9000 -7.083565560000001 5.641171830000001 3.8116755 0.022644 0.063795 0.010759
9020 -7.0718916599999995 5.624102430000001 3.81436344 0.022644 0.06591699999999999 0.012892
9040 -7.080573510000001 5.63713011 3.8260471500000004 0.022649 0.06804299999999999 0.013958000000000002
9060 -7.0853706 5.6393766 3.85104303 0.022653 0.065925 0.010756
9080 -7.09539642 5.62739859 3.8375739 0.021596 0.064877 0.007545
9100 -7.106324760000001 5.6498536800000005 3.83981058 0.021615 0.068077 0.0064730000000000005
9120 -7.124286870000001 5.63263713 3.86017614 0.023792 0.077657 0.006476000000000001
9140 -7.11979389 5.620060710000001 3.8700548100000014 0.026959 0.074433 0.010775
9160 -7.100782110000001 5.607042840000001 3.8622656699999998 0.024792 0.07016599999999999 0.013969999999999998
9180 -7.10228304 5.61392946 3.8826214200000004 0.029055 0.07120800000000001 0.016135
9200 -7.08027921 5.62904667 3.82784238 0.029059 0.071212 0.015067
9220 -7.08776424 5.66766864 3.7952045100000005 0.02694 0.07229400000000001 0.012913999999999998
9240 -7.114555350000001 5.680088100000001 3.83128569 0.026945 0.071237 0.010779
9260 -7.07653179 5.659732350000001 3.8068882200000003 0.024811 0.07018300000000001 0.009697
9280 -7.069203720000001 5.65928109 3.7901229300000003 0.019472 0.070198 0.010728
9300 -7.071744510000001 5.66302851 3.76183089 0.018419 0.070214 0.007515999999999998
9320 -7.070694840000001 5.6311362 3.76183089 0.019496 0.07128 0.0064540000000000005
9340 -7.066653120000001 5.619168 3.74521275 0.017362 0.071287 0.006439
9360 -7.074736560000001 5.6311362 3.7690118100000003 0.017343 0.067026 0.006445
9380 -7.087312980000001 5.62589766 3.76377327 0.017324000000000003 0.063826 0.007517
9400 -7.078778280000001 5.6513448 3.74131818 0.017319 0.062761 0.007518
9420 -7.08941232 5.65014798 3.6964178100000002 0.016219 0.058491 0.010721
9440 -7.124885280000001 5.663921220000001 3.7279962000000006 0.016233 0.060626 0.00965
9460 -7.125336540000001 5.68697472 3.7221592500000003 0.016222999999999998 0.05849500000000001 0.009652
9480 -7.1118576000000004 5.6776944600000006 3.6920719800000006 0.014071 0.053180999999999985 0.008576
9500 -7.09809417 5.67994095 3.71362455 0.013022999999999998 0.057445 0.008563
9520 -7.099585290000001 5.67350559 3.70988694 0.014103999999999997 0.058516 0.006433
9540 -7.109316810000001 5.65748586 3.70869012 0.009827 0.055339 0.005339
9560 -7.09748595 5.657034600000001 3.68204616 0.006622 0.053224 0.004251
9580 -7.087008870000001 5.66227314 3.6718633800000005 0.004459 0.04684 0.004244
9600 -7.10707032 5.671857510000001 3.67171623 0.003373 0.042582 0.004242
9620 -7.088509800000001 5.670660689999999 3.6612391500000006 -0.001971 0.038348 0.002074
9640 -7.10512794 5.695656570000001 3.6697640400000004 -0.006261999999999999 0.033037000000000004 0.00205
9660 -7.09584768 5.7179547 3.6351936 -0.00842 0.028779 0.003109
9680 -7.094650860000001 5.71556106 3.6443169 -0.0062770000000000005 0.027719 -7.900000000000001e-05
9700 -7.1299766700000005 5.707634580000001 3.63847995 -0.002047 0.021304 0.002095
9720 -7.131320639999999 5.69625498 3.63383982 5.8e-05 0.018088 0.005318
9740 -7.12563084 5.69520531 3.64776021 8.1e-05 0.024476 0.006379
9760 -7.14150342 5.69730465 3.64596498 0.000101 0.030859 0.008506999999999999
9780 -7.13760885 5.698354320000001 3.6161818200000004 -0.005234 0.027694 0.005268999999999999
9800 -7.139855340000001 5.71406994 3.61932102 -0.007363 0.025584 0.002052
9820 -7.1301238200000014 5.6971575 3.5929811700000003 -0.008395999999999999 0.029861 -0.001165
9840 -7.128328590000001 5.6815890300000005 3.59582607 -0.008386 0.034114 0.000966
9860 -7.11066078 5.68443393 3.5869872600000003 -0.003038 0.038352 0.002066
9880 -7.080426360000001 5.6776944600000006 3.56737707 -0.001985 0.036214 0.003144
9900 -7.072794180000001 5.68772028 3.5714187900000005 -0.003047 0.035161000000000005 0.001002
9920 -7.090756290000001 5.72304609 3.5624426400000004 -0.005176 0.034111 -0.001148
9940 -7.06201299 5.67454545 3.56737707 -0.004124 0.031973 -7e-05
9960 -7.06201299 5.6995511400000005 3.6051063300000004 -0.006272 0.031968 0.00312
9980 -7.087460129999999 5.71975974 3.61513215 -0.002 0.034079000000000005 0.004215
10000 -7.10752158 5.75014131 3.63698883 -0.000909 0.037279 0.002082
10020 -7.1636544 5.74729641 3.64237452 -0.000913 0.037275 0.003151
10040 -7.18924869 5.72904 3.65600061 0.0012109999999999998 0.036198 0.004235
10060 -7.181910810000001 5.716463580000001 3.6702153 0.002278 0.034072000000000005 0.002109
10080 -7.14284739 5.6773903500000005 3.6489668400000004 0.00123 0.037276 0.001029
10100 -7.11694899 5.68218744 3.62366685 0.001239 0.038346 -4e-05
10120 -7.083565560000001 5.69864862 3.6182713500000006 -0.001961 0.038357 -6.3e-05
10140 -7.112907270000001 5.71302027 3.63534075 -0.003052 0.034095 0.001003
10160 -7.09779006 5.69700054 3.6323487 -0.005195 0.031972 0.000991
10180 -7.098535620000001 5.68083366 3.63608631 -0.005186 0.033042 -7.900000000000001e-05
10200 -7.11365283 5.7148155 3.6323487 -0.003057 0.034091 0.002071
10220 -7.122334680000001 5.69190915 3.6063031500000005 -0.003047 0.035161000000000005 0.001002
10240 -7.112014560000001 5.704789679999999 3.6061461900000005 -0.003042 0.035164999999999995 -6.6e-05
10260 -7.11141615 5.68427697 3.6301022100000004 -0.00199 0.035148 0.003146
10280 -7.12458117 5.686072200000001 3.64626909 -0.001985 0.034092000000000004 0.001011
10300 -7.12458117 5.70867444 3.65270445 -0.001985 0.035153 0.002078
10320 -7.128475740000001 5.68847565 3.6386369100000002 -0.000918 0.03621 0.003152
10340 -7.1292213 5.68831869 3.64342419 0.002282 0.036199 0.003174
10360 -7.100487810000001 5.69595087 3.64327704 -0.000928 0.03514 0.004221
10380 -7.1263764 5.711676300000001 3.6286012800000003 -0.000933 0.035136 0.00529
10400 -7.118597070000001 5.7154139100000005 3.62051784 -0.00198 0.036218 0.002076
10420 -7.11964674 5.7014935200000005 3.6324958499999997 -0.004128 0.033030000000000004 0.002065
10440 -7.10497098 5.70134637 3.6456706800000003 -0.003071 0.031956 0.0031420000000000003
10460 -7.09779006 5.6995511400000005 3.64476816 -0.003076 0.030891 0.003144
10480 -7.106923170000001 5.690712330000001 3.6269532 -0.003062 0.033026 0.002073
10500 -7.1172531 5.716757879999999 3.63698883 -0.00521 0.030899 0.003129
10520 -7.132664610000001 5.69445975 3.6465633900000003 -0.004162 0.026634 0.003141
10540 -7.106167800000001 5.700443850000001 3.66108219 -0.003095 0.025569 0.002082
10560 -7.130575080000001 5.692664520000001 3.6655751700000003 -0.004138 0.028777 -6.6e-05
10580 -7.12458117 5.6893683600000005 3.6312990300000005 -0.006261999999999999 0.031976 0.000984
10600 -7.12682766 5.69281167 3.6504579600000002 -0.009468 0.029861 -0.000104
10620 -7.1232372 5.675752080000001 3.6565990200000003 -0.010496 0.034143 -0.00439
10640 -7.13505825 5.69190915 3.6564420600000003 -0.006219 0.035197000000000006 -0.00543
10660 -7.118891370000001 5.701944780000001 3.64956525 -0.008381999999999999 0.028813 -0.005437
10680 -7.127426070000001 5.675752080000001 3.66782166 -0.00842 0.023474 -0.002225
10700 -7.126533360000001 5.67889128 3.63907836 -0.004152 0.02452 -0.001129
10720 -7.10737443 5.66302851 3.64776021 -0.003052 0.031973 -0.001131
10740 -7.103028600000001 5.667217379999999 3.6489668400000004 -0.0008939999999999998 0.038353 -5.5e-05
10760 -7.1263764 5.68667061 3.6630343800000005 0.000173 0.041533 0.003153
10780 -7.11425124 5.71661073 3.66018948 -0.000933 0.035136 0.00529
10800 -7.1200980000000005 5.68682757 3.66528087 -0.005224 0.028764 0.0042
10820 -7.115605020000001 5.682628889999999 3.6705194100000003 0.000149 0.035145 0.002092
10840 -7.11979389 5.67320148 3.68174205 0.005483 0.03831 0.00533
10860 -7.108414290000001 5.68831869 3.6515076300000002 0.005435 0.032962 0.010678
10880 -7.1280244800000006 5.69101644 3.6408834000000003 0.006492 0.029767 0.009621
10900 -7.10377416 5.686072200000001 3.67470828 0.002273 0.03619 0.005311
10920 -7.10168463 5.683982670000001 3.6863821800000003 -0.001952 0.043671 0.003135
10940 -7.096446090000001 5.70733047 3.63339837 -0.001942 0.04474 0.002066
10960 -7.09943814 5.72170212 3.6405792900000002 0.001215 0.038324 0.0053
10980 -7.094798010000001 5.6990998799999995 3.6597382200000004 0.005469 0.036175 0.006401
11000 -7.13701044 5.6510505 3.6437184900000004 0.006534999999999999 0.037232 0.007475
11020 -7.143141689999999 5.63907249 3.69312165 0.004416 0.038313 0.005323
11040 -7.134763950000001 5.625152100000001 3.71392866 0.005493 0.039379 0.004261
11060 -7.15377573 5.63503077 3.72994839 0.005478 0.036183 0.004265
11080 -7.13356713 5.624102430000001 3.68803026 0.004397 0.032991 0.004261
11100 -7.106167800000001 5.636227590000001 3.68353728 0.000139 0.033015 0.002095
11120 -7.0841639700000005 5.70374001 3.65928696 -0.00198 0.037279 0.003143
11140 -7.09764291 5.739517080000001 3.64746591 -0.005147 0.042625 0.000978
11160 -7.1280244800000006 5.7113721900000005 3.6736586100000004 -0.007305 0.039428 0.0031030000000000003
11180 -7.10781588 5.654640960000001 3.69776178 -0.008401 0.03304 0.003104
11200 -7.141944870000001 5.628291300000001 3.7193143500000003 -0.009472 0.029857 0.000964
11220 -7.13655918 5.65164891 3.69985131 -0.009472 0.028796 -0.000103
11240 -7.1232372 5.69311578 3.7166166 -0.010544 0.024551 -0.00331
11260 -7.096593240000001 5.7109209299999995 3.6872847 -0.010568 0.018164 -0.004370000000000001
11280 -7.08027921 5.7032887500000005 3.6597382200000004 -0.009496 0.017103 -0.006498
11300 -7.10108622 5.704034310000001 3.6309949200000005 -0.013759 0.018184 -0.006529000000000001
11320 -7.086714570000001 5.68802439 3.6564420600000003 -0.013769 0.019236000000000003 -0.003325
11340 -7.08910821 5.68517949 3.66842007 -0.00953 0.017074000000000002 0.00098
11360 -7.12757322 5.70433842 3.69790893 -0.005261999999999999 0.017059 0.00101
11380 -7.11740025 5.69326293 3.6967121100000004 -0.000995 0.018105 0.002106
11400 -7.128475740000001 5.685032340000001 3.6782987400000002 -0.008444 0.021331 0.000982
11420 -7.1257779900000005 5.64909831 3.6709706700000004 -0.015878 0.025631 -0.00228
11440 -7.10362701 5.66346996 3.68862867 -0.014802 0.026697 -0.0033420000000000004
11460 -7.100330850000001 5.664225330000001 3.6784458900000003 -0.013721 0.029889 -0.003339
11480 -7.092845820000001 5.65778016 3.6782987400000002 -0.007334 0.029854 -8.9e-05
11500 -7.08611616 5.680392210000001 3.6615334500000003 -0.005224 0.026642 0.002066
11520 -7.100634960000001 5.681432070000001 3.6664776900000002 -0.006296 0.027702 0.004193
11540 -7.088804100000001 5.701944780000001 3.6498595500000004 -0.007367 0.027702 0.005254
11560 -7.081024770000001 5.66302851 3.6485155800000006 -0.004172 0.029808 0.008478
11580 -7.09195311 5.658084270000001 3.6938672100000005 -0.000971 0.031919 0.010635
11600 -7.10228304 5.68412982 3.7061395200000002 0.003296 0.036148 0.014932
11620 -7.12053945 5.70179763 3.71617515 0.00223 0.041457 0.020259
11640 -7.118597070000001 5.700443850000001 3.7519522200000006 -0.002 0.052116 0.022352
11660 -7.14165057 5.69011392 3.7390716900000003 -0.008362 0.059599 0.02123
11680 -7.12398276 5.65538652 3.7309882500000002 -0.016888 0.06176 0.021167
11700 -7.110817740000001 5.626054620000001 3.74356467 -0.020117 0.052196000000000006 0.017952000000000003
11720 -7.150028310000001 5.639975010000001 3.7538946 -0.019036 0.047961 0.010488
11740 -7.099134030000001 5.62589766 3.72784905 -0.011549 0.049013 0.007334
11760 -7.09779006 5.64895116 3.7214136900000003 -0.013658000000000002 0.037371 -0.009757
11780 -7.1172531 5.648804010000001 3.73189077 -0.010467 0.024619 -0.020401
11800 -7.09180596 5.65030494 3.7065907800000004 -0.006233 0.020331 -0.017161000000000003
11820 -7.10707032 5.64266295 3.7026962100000005 -0.001928 0.023533 -0.022476
11840 -7.094346750000001 5.642819909999999 3.7339803000000003 0.005593 0.038408 -0.019238
11860 -7.11141615 5.622454350000001 3.7595844000000005 0.00456 0.04799 -0.017121
11880 -7.140453750000001 5.62889952 3.80044305 0.00134 0.050106 -0.010737
11900 -7.184608560000001 5.64715593 3.82829364 -0.001908 0.047953 -0.002211
11920 -7.19448723 5.6396709000000005 3.82140702 -0.003009 0.045805 0.003125
11940 -7.21304775 5.617372770000001 3.8064369600000005 -0.000875 0.051102 0.008473999999999999
11960 -7.18236207 5.59012059 3.7778408100000003 0.004478 0.058528 0.011707
11980 -7.16709771 5.57575875 3.7453599000000004 0.005521 0.054259 0.012788
12000 -7.09898688 5.63877819 3.6878831100000005 0.004416 0.046801 0.013858
12020 -7.018005330000001 5.6495495700000005 3.6857837700000005 -0.00309 0.037244 0.012749
12040 -6.91652088 5.67918558 3.6312990300000005 -0.01162 0.031973 0.006287
12060 -6.8433186599999996 5.691762000000001 3.5799534900000003 -0.013735 0.031998 0.002
12080 -6.91875756 5.734572840000001 3.5887824900000003 -0.01262 0.037342 -0.003341
12100 -6.955133040000001 5.7175132500000005 3.6565990200000003 -0.012587 0.041616 -0.006551
12120 -6.968906280000001 5.7034359 3.7252984500000004 -0.00941 0.036278 -0.006522
12140 -7.139855340000001 5.705839350000001 3.8586752100000004 -0.009439 0.029887 -0.006514
12160 -7.100782110000001 5.6613804299999995 3.8740965300000005 -0.009472 0.021369 -0.007571
12180 -7.14853719 5.62589766 3.9501338400000003 -0.008444 0.011782 -0.008620000000000001
12200 -7.17682923 5.60329542 3.92767875 5.8e-05 0.008539 -0.004283
12220 -7.204071600000001 5.63323554 3.8577825 0.002191 0.014898 0.002133
12240 -7.159161419999999 5.63203872 3.7718567100000007 0.009664 0.021242 0.007518
12260 -7.152726060000001 5.61512628 3.67006815 0.008588 0.020176 0.008579999999999999
12280 -7.15242195 5.61556773 3.61632897 7.2e-05 0.021284 0.005314
12300 -7.16559678 5.626800179999999 3.5959732200000003 -0.008409999999999999 0.031971 0.004173
12320 -7.16485122 5.5959673500000005 3.62651175 -0.011553 0.042643 0.002001
12340 -7.166195190000001 5.57755398 3.62321559 -0.012591 0.047977 0.000919
12360 -7.16664645 5.5904247 3.66932259 -0.010467 0.0469 0.002003
12380 -7.144044210000001 5.6079355500000005 3.7133302500000003 -0.006214 0.047934 0.006305
12400 -7.13086938 5.626653030000001 3.7250041500000006 -0.008353 0.053242 0.012692
12420 -7.1292213 5.66107632 3.7690118100000003 -0.008409999999999999 0.045764 0.018042
12440 -7.12757322 5.671857510000001 3.77604558 -0.005261999999999999 0.037218 0.02128
12460 -7.1001837000000005 5.679342540000001 3.75374745 -0.001014 0.038247 0.026649000000000003
12480 -7.039263600000001 5.660782020000001 3.7576322100000006 0.001134 0.048862 0.034128
12500 -7.0048305 5.65913394 3.7504512900000004 0.003268 0.056282000000000006 0.041611
12520 -7.03417221 5.65942824 3.7532961900000004 0.003282 0.059477 0.041607
12540 -7.0680069 5.66975817 3.7782920700000004 0.000101 0.052078999999999986 0.029844
12560 -7.114104090000001 5.65210017 3.81571722 -0.006301 0.037247 0.014863
12580 -7.10467668 5.654640960000001 3.80568159 -0.010587 0.022391 0.00417
12600 -7.11844992 5.604345090000001 3.82918635 -0.01064 0.011734 0.005252000000000001
12620 -7.102577340000001 5.61032919 3.7672165800000004 -0.004287 0.003181 0.007444
12640 -7.103175750000001 5.628291300000001 3.75150096 0.002086 -0.002172 0.008563
12660 -7.11964674 5.6175199199999994 3.74461434 0.00421 -0.002188 0.010714
12680 -7.089853770000001 5.57470908 3.7308411 0.003191 0.004224 0.006426
12700 -7.10752158 5.57171703 3.69701622 -0.005272 0.014928 0.001012
12720 -7.14898845 5.558395050000001 3.7112309100000003 -0.01374 0.024567 -0.0044
12740 -7.16754897 5.60823966 3.78353061 -0.017969 0.030982 -0.006575
12760 -7.16949135 5.644909439999999 3.7969997400000004 -0.012606 0.035233 -0.008679000000000001
12780 -7.13161494 5.6336868 3.75255063 -0.003004 0.03626 -0.007545
12800 -7.14928275 5.58308682 3.76511724 0.001239 0.035163 -0.0032409999999999995
12820 -7.141944870000001 5.572913850000001 3.7753000200000004 0.000168 0.034101 -0.003247
12840 -7.11799866 5.588325360000001 3.75614109 -0.002 0.028774 -0.001119
12860 -7.071597360000001 5.61901104 3.7390716900000003 0.000115 0.023444 -0.002166
12880 -7.00857792 5.650452090000001 3.6934159500000003 -0.007339 0.024544 -0.0043560000000000005
12900 -6.958429199999999 5.692066110000001 3.66722325 -0.011606 0.02562 -0.003319
12920 -6.986574090000001 5.7133145700000005 3.69417132 -0.010534 0.026682 -0.003312
12940 -7.02025182 5.72828463 3.71797038 -0.008395999999999999 0.027739 -0.0032990000000000003
12960 -7.078327020000001 5.720201189999999 3.7612324800000003 -0.007358 0.024527 -8.3e-05
12980 -7.0883626500000005 5.66571645 3.79116279 -0.006324000000000001 0.016006 -0.001133
13000 -7.10721747 5.648656860000001 3.8645121600000003 -0.007391 0.016009 -0.00114
13020 -7.15362858 5.628742560000001 3.8893608900000003 -0.0052380000000000005 0.021324 -6.4e-05
13040 -7.13086938 5.614076610000001 3.84939495 -0.004157 0.023455 -0.001127
13060 -7.10288145 5.64385977 3.8757446100000004 -0.000942 0.02664 -0.001109
13080 -7.07892543 5.65284573 3.83128569 0.003344 0.030886 -0.001084
13100 -7.04135313 5.63907249 3.7673637300000005 0.005516 0.036217 -0.004281
13120 -7.0480926 5.622905610000001 3.76063407 0.0044740000000000005 0.043669 -0.002161
13140 -7.07353974 5.6359332900000005 3.7673637300000005 0.006659999999999999 0.056441 -0.001094
13160 -7.077434310000001 5.650452090000001 3.7685605500000006 0.003498 0.063913 -0.002194
13180 -7.090756290000001 5.61137886 3.7958029200000003 0.007759999999999999 0.064955 -2.9e-05
13200 -7.084468080000001 5.619462300000001 3.7830793500000004 0.012009 0.06174 0.001073
13220 -7.09838847 5.620207860000001 3.78652266 0.017338 0.06383899999999999 0.004312
13240 -7.070243580000001 5.63562918 3.79924623 0.019467 0.063827 0.0053950000000000005
13260 -7.06739868 5.62335687 3.7946061 0.018415 0.068088 0.006451
13280 -7.0452477 5.63428521 3.8058385500000003 0.017357 0.0681 0.004307
13300 -7.049436570000001 5.6308419 3.80718252 0.013095 0.067058 0.002142
13320 -7.07578623 5.630096340000001 3.8269398600000004 0.015233000000000003 0.06599400000000001 2.2e-05
13340 -7.081171919999999 5.63338269 3.8381723100000005 0.014166 0.065998 1.4e-05
13360 -7.071440399999999 5.65269858 3.87484209 0.016267 0.062778 0.004306
13380 -7.106619060000001 5.64805845 3.8645121600000003 0.017305 0.059565 0.007522
13400 -7.10916966 5.63742441 3.88247427 0.016222999999999998 0.059556 0.010719
13420 -7.0771302 5.60823966 3.87888381 0.018362 0.060614 0.010733
13440 -7.089853770000001 5.5877269499999995 3.8636194500000003 0.018352 0.057423 0.009669
13460 -7.1421018300000005 5.58099729 3.89938671 0.020505 0.060615 0.008611
13480 -7.1158993200000005 5.63053779 3.87738288 0.019443 0.061684 0.008603
13500 -7.105275090000001 5.63727726 3.8428124400000003 0.018372 0.06274500000000001 0.01073
13520 -7.095994830000001 5.6377285200000005 3.7998446400000003 0.017319 0.063822 0.008584999999999999
13540 -7.06605471 5.619462300000001 3.8290392 0.016243 0.061695000000000014 0.008579999999999999
13560 -7.086714570000001 5.61302694 3.8079280800000004 0.017309 0.060631 0.007520999999999998
13580 -7.077434310000001 5.6223072 3.7761927300000004 0.016243 0.06275599999999999 0.009647
13600 -7.08432093 5.5959673500000005 3.79235961 0.015171 0.06275599999999999 0.010708
13620 -7.096887540000001 5.614370910000001 3.7628707500000003 0.01409 0.059564 0.010704
13640 -7.079523840000001 5.61273264 3.7845802800000006 0.011951 0.057445 0.009624
13660 -7.09255152 5.614076610000001 3.77515287 0.013028 0.059572 0.009629
13680 -7.106324760000001 5.62455369 3.7601828100000003 0.01087 0.056375 0.011754
13700 -7.090903440000001 5.622905610000001 3.75538572 0.011908 0.052102 0.013903
13720 -7.093601189999999 5.63129316 3.7631748600000003 0.015104 0.053147 0.016061000000000002
13740 -7.105873500000001 5.622454350000001 3.74655672 0.014047 0.055281 0.016051
13760 -7.10512794 5.63428521 3.73667805 0.012989 0.054233 0.01284
13780 -7.10243019 5.6276928900000005 3.7470079800000002 0.01618 0.052091 0.012865
13800 -7.10781588 5.622905610000001 3.76676532 0.010851 0.052114 0.011759
13820 -7.1232372 5.641014870000001 3.7528449299999997 0.016176 0.051026 0.012866
13840 -7.11799866 5.64505659 3.75074559 0.017242 0.053144 0.015007
13860 -7.10752158 5.63787567 3.70928853 0.016194999999999998 0.056348 0.013928
13880 -7.10497098 5.64041646 3.7224633600000003 0.010851 0.055297000000000006 0.01496
13900 -7.108865550000001 5.64969672 3.7309882500000002 0.003378 0.053197 0.013841999999999998
13920 -7.11709614 5.654336850000001 3.7133302500000003 -0.004104 0.046844 0.010594
13940 -7.127426070000001 5.66002665 3.7142229600000003 -0.008401 0.039406 0.009505
13960 -7.11216171 5.6393766 3.72125673 -0.01163 0.035148 0.011624
13980 -7.105873500000001 5.6675116800000005 3.7026962100000005 -0.026585 0.033061 0.013659
14000 -7.110209520000001 5.651943210000001 3.70015542 -0.070188 0.052436 0.001579
14020 -7.1001837000000005 5.64401673 3.6848910600000004 -0.125382 0.097443 -0.017024
14040 -7.099134030000001 5.64311421 3.6863821800000003 -0.17106500000000002 0.117933 -0.039802
14060 -7.10976807 5.6832273 3.6994098600000003 -0.237038 0.11089 -0.086187
14080 -7.115300909999999 5.670356580000001 3.69177768 -0.328615 0.156987 -0.07940900000000001
14100 -7.12354131 5.67110214 3.6799468200000005 -0.28054 0.221601 -0.028949000000000006
14120 -7.118597070000001 5.64686163 3.6908751600000005 -0.214634 0.16174000000000002 -0.034821
14140 -7.13655918 5.686376310000001 3.64596498 -0.113814 0.031471 -0.045701
14160 -7.11096489 5.67110214 3.64043214 -0.037441 -0.071046 -0.049309
14180 -7.126229250000001 5.66571645 3.66018948 -0.032198000000000004 -0.07432899999999999 -0.032176
14200 -7.117694550000001 5.664519629999999 3.6579429900000004 -0.06416000000000001 -0.049776 -0.017476
14220 -7.128779850000001 5.669012610000001 3.62261718 -0.099228 0.001399 0.00251
14240 -7.103332710000001 5.643712620000001 3.6229114800000004 -0.070173 0.077912 0.023979
14260 -7.07219577 5.64326136 3.6139353300000003 -0.005954999999999999 0.12986099999999998 0.03077
14280 -7.0501919399999995 5.6414661299999995 3.6295037999999997 0.057989 0.112602 0.029103
14300 -7.0307289 5.6598795 3.63115188 0.082412 0.075279 0.017571
14320 -7.09344423 5.68412982 3.6709706700000004 0.069466 0.040182 0.014321
14340 -7.14119931 5.64385977 3.8000016 0.027667 -0.000161 0.016217
14360 -7.1299766700000005 5.58743265 3.7142229600000003 -0.024667 -0.021249 0.007331999999999998
14380 -7.3009159200000004 5.795502750000001 3.6613863 -0.054348 0.011917 -0.002531
14400 -7.81404759 6.09458022 3.8736452700000004 -0.050816 0.07055499999999999 -0.017537
14420 -7.36812423 5.582939669999999 4.00716918 -0.036755 0.107812 -0.022828
14440 -7.112612970000001 5.624102430000001 3.8673570600000002 -0.032560000000000006 0.097123 -0.017443
14460 -7.078327020000001 5.616774360000001 3.6896783400000004 -0.043468 0.056629 -0.004649
14480 -7.03058175 5.654336850000001 3.4509225600000004 -0.058644000000000016 0.010845 0.002781
14500 -6.9847788600000005 5.5528524 3.40017543 -0.04166 -0.006267 0.005058
14520 -6.825807810000001 5.3931357900000005 3.4453897200000005 -0.002153 0.007417 0.011726
14540 -6.856493490000001 5.31485199 3.65225319 0.021361 0.023289 0.018279
14560 -7.15811175 5.347931310000001 3.76991433 0.020314 0.034981 0.025734
14580 -7.38115191 5.357358720000001 3.9348694800000006 0.0075299999999999985 0.041408 0.027773000000000003
14600 -7.56751248 5.341790250000001 3.9332214000000003 0.0 0.029708 0.029872000000000006
14620 -7.58188413 5.49387468 3.7832363100000004 -0.006435 0.021213 0.02877
14640 -7.395817860000001 5.50420461 3.7332347400000003 -0.005368 0.020148 0.02771
14660 -7.0645635900000014 5.55299955 3.74686083 -0.004277 0.020165 0.022377
14680 -6.9469024500000005 5.658084270000001 3.78712107 -0.009602 0.019132 0.019136
14700 -6.904542870000001 5.70852729 3.8455003800000003 -0.017093999999999998 0.015953 0.021225
14720 -6.9353757 5.722898939999999 3.9050765100000002 -0.028858 0.014908 0.026485
14740 -6.989713290000001 5.6495495700000005 3.9130128 -0.027791000000000003 0.019148 0.030760000000000006
14760 -7.072647030000001 5.521862610000001 3.8261943 -0.023543 0.019116 0.035062
14780 -7.22098404 5.448071790000001 3.74655672 -0.019319 0.009514 0.035104
14800 -7.28579871 5.43998835 3.65809014 -0.017214 0.003115 0.035127
14820 -7.31468916 5.418730080000001 3.6064503 -0.013994 0.006304 0.034077
14840 -7.3389394800000005 5.41049949 3.7103382000000003 -0.013932 0.01803 0.031926
14860 -7.3928258100000015 5.42920716 3.7952045100000005 -0.011712 0.030831 0.025516
14880 -7.399859580000001 5.41858293 3.8145204000000006 -0.006314999999999999 0.040417 0.021269
14900 -7.388784090000001 5.433405840000001 3.8061328500000005 -0.002004 0.046807 0.018086
14920 -7.287898050000001 5.4548112600000005 3.7356283800000005 0.003364 0.052123 0.01598
14940 -7.18640379 5.46228648 3.74386878 0.008688 0.051035 0.017087
14960 -7.1278773300000005 5.490431370000001 3.78742518 0.011894 0.051028 0.016041
14980 -7.09883973 5.53129983 3.843558 0.011903 0.053158 0.016038
15000 -7.1117104499999995 5.52261798 3.8559774600000005 0.007612000000000002 0.049969 0.018149
15020 -7.113211379999999 5.488940250000001 3.8387707200000003 -0.005205 0.045757 0.016996999999999998
15040 -7.1757795600000005 5.4862425 3.8209557600000004 -0.016969 0.034101 0.011588
15060 -7.2235248300000015 5.513779169999999 3.8146675500000002 -0.026552 0.030969 0.004048
15080 -7.184314260000001 5.54058009 3.7895245200000005 -0.025456 0.026747000000000003 -0.006620999999999999
15100 -7.168294530000001 5.54072724 3.80852649 -0.01472 0.03844 -0.009766
15120 -7.105726350000001 5.512582350000001 3.81900357 -0.0008320000000000001 0.043714 -0.008608
15140 -7.07922954 5.50449891 3.89459943 0.010865 0.042578 -0.001047
15160 -7.097191649999999 5.50989441 3.8965516200000003 0.014032 0.038293 0.0021850000000000003
15180 -7.1203923 5.52785652 3.90762711 0.011922 0.040443 -0.001037
15200 -7.143445800000001 5.52874923 3.91406247 0.003426 0.047934 -0.002174
15220 -7.10152767 5.50974726 3.88412235 0.000197 0.045798 0.002079
15240 -7.094346750000001 5.5283077800000004 3.83293377 0.007587999999999998 0.031911 0.005353
15260 -7.117694550000001 5.55330366 3.8293335 0.011836 0.030818 0.008589
15280 -7.10737443 5.58248841 3.83248251 0.005497 0.037261 0.001059
15300 -7.10183178 5.570520210000001 3.8538879300000004 -0.005099 0.041607 -0.010771
15320 -7.13386143 5.545220220000001 3.91151187 -0.012543 0.038471 -0.019365
15340 -7.15033242 5.54656419 3.8910089700000006 -0.015787 0.026773 -0.021509
15360 -7.14569229 5.52470751 3.84221403 -0.014754 0.019312 -0.021492
15380 -7.1260821000000005 5.5160256599999995 3.8007471600000002 -0.014773 0.018234 -0.018286
15400 -7.11949959 5.498661960000001 3.7703557800000005 -0.014802 0.015026 -0.015078
15420 -7.06396518 5.471870850000001 3.7850315400000003 -0.012711 0.009675 -0.010783
15440 -7.06590756 5.50016289 3.8375739 -0.017016999999999997 0.001168 -0.010803
15460 -7.0853706 5.525757179999999 3.8811303 -0.013821 -0.00097 -0.011846
15480 -7.114555350000001 5.55868935 3.9044781 -0.005234 0.007534999999999998 -0.015001
15500 -7.140296790000001 5.58548046 3.9378615300000006 -0.003023 0.020328 -0.019275
15520 -7.139855340000001 5.56303518 3.9522331800000003 -0.01041 0.040586 -0.017216
15540 -7.1203923 5.58503901 3.90777426 -0.020007 0.046989 -0.01195
15560 -7.14748752 5.61826548 3.8052401400000004 -0.022208 0.036327 -0.007679000000000002
15580 -7.180713990000001 5.5781523900000005 3.7820394900000003 -0.025442 0.026759 -0.009826
15600 -7.159465530000001 5.50570554 3.78967167 -0.013692 0.026731 -0.012949
15620 -7.15152924 5.48354475 3.8145204000000006 0.000259 0.041609 -0.016075
15640 -7.15691493 5.49926037 3.8128723200000003 0.021726 0.071358 -0.014895
15660 -7.104823830000001 5.507500770000001 3.82035735 0.035719 0.099006 -0.014832
15680 -7.10857125 5.5221667199999995 3.7829322000000003 0.04646 0.118131 -0.011577
15700 -7.09539642 5.49985878 3.78053856 0.060348 0.132954 -0.000817
15720 -7.108414290000001 5.520665790000001 3.80808504 0.074251 0.14460599999999998 0.0035380000000000008
15740 -7.124434020000001 5.473214820000001 3.8426554800000003 0.080638 0.139266 0.001453
15760 -7.13880567 5.516781030000001 3.9034284300000004 0.078432 0.115867 -0.00601
15780 -7.16784327 5.560484580000001 3.8986411500000004 0.079485 0.102058 -0.016666999999999998
15800 -7.161555060000001 5.597458469999999 3.87783414 0.075222 0.099955 -0.019899
15820 -7.19209359 5.584136490000001 3.9161520000000003 0.056033000000000006 0.100035 -0.023238
15840 -7.187002199999999 5.527110960000001 3.9324758400000004 0.048555 0.100052 -0.021153
15860 -7.12204038 5.464837080000001 3.9163089600000003 0.068763 0.103109 -0.003925
15880 -7.118292960000001 5.43683934 3.8706532200000003 0.067634 0.087142 -0.0060490000000000006
15900 -7.1175474 5.463189 3.87813825 -0.029642 0.021529 -0.030145
15920 -7.11125919 5.4663281999999995 3.88322964 -0.082196 -0.050684 -0.041102
15940 -7.06994928 5.48729217 3.8925099 -0.096253 -0.077326 -0.026211
15960 -7.069350870000001 5.50585269 3.9987816300000003 -0.056879 -0.06588300000000001 0.008232999999999999
15980 -7.09748595 5.53115268 4.0339602900000004 -0.022687 -0.037308 0.025527
16000 -7.08611616 5.521862610000001 4.04144532 -0.004497999999999999 -0.017166 0.034174
16020 -7.09269867 5.4833976 4.05387459 0.007271 -0.004445 0.039581
16040 -7.115457870000001 5.401670490000001 4.065989940000001 0.005138 -0.008681 0.035298
16060 -7.13641203 5.3849051999999995 4.040542800000001 0.025403 -0.024672 0.020505
16080 -7.167696120000001 5.45001417 3.9442968900000004 0.031982 -0.014987 -0.009371
16100 -7.14823308 5.53922631 3.8031408000000004 -0.014826 -0.017887 -0.04281
16120 -7.123384350000001 5.56227981 3.6967121100000004 -0.05009 -0.050706 -0.06331
16140 -7.16799042 5.4805527000000005 3.6925232400000003 -0.075613 -0.032507 -0.063512
16160 -7.2178448400000015 5.459892840000001 3.66198471 -0.105428 -0.004765 -0.0488
16180 -7.218737550000001 5.48489853 3.63998088 -0.113929 0.02288 -0.028599
16200 -7.193888820000001 5.50659825 3.6080983800000004 -0.09362 0.048308 -0.011398
16220 -7.18041969 5.50659825 3.59342262 -0.034943 0.06401799999999999 0.005015
16240 -7.40525508 5.51408328 3.6408834000000003 0.007759999999999999 0.069199 0.004238
16260 -7.431594929999999 5.42456703 3.56050026 0.046215 0.073351 -0.001908
16280 -7.45359876 5.45345748 3.54283245 0.063333 0.086066 0.000332
16300 -7.474258620000001 5.47127244 3.5580968100000003 0.062348 0.089326 -0.014634
16320 -7.44910578 5.360350770000001 3.6220187700000004 0.039049 0.118208 -0.024448
16340 -7.41961692 5.3130469499999995 3.75314904 0.034916 0.15866 -0.013846
16360 -7.25690826 5.34898098 3.7395229500000005 0.092627 0.207355 0.0132
16380 -7.17697638 5.46228648 3.7390716900000003 0.12571500000000002 0.223167 0.026229
16400 -7.09584768 5.623209719999999 3.71287899 0.131876 0.161393 0.017806
16420 -6.97040721 5.80597983 3.74012136 0.096248 0.061407 0.011276
16440 -7.021899899999999 5.75673363 3.8928042 0.056486 -0.008737 0.004679
16460 -7.02144864 5.6853266399999995 4.03500996 0.045717 -0.023643 0.0121
16480 -7.03911645 5.68667061 4.09533165 0.057486 -0.0056170000000000005 0.022841
16500 -7.080426360000001 5.464837080000001 4.17616605 0.077905 0.034762 0.030410000000000006
16520 -7.100330850000001 5.417533260000001 4.068393390000001 0.077977 0.054985 0.034657
16540 -7.134459840000001 5.365589310000001 3.99848733 0.052319 0.042296 0.033426
16560 -7.1157521699999995 5.33774853 3.9814179300000005 0.024461 0.013638999999999998 0.031132
16580 -7.138207260000001 5.338346939999999 3.93936246 0.003014 -0.017153 0.024612
16600 -7.19628246 5.394332610000001 3.8784325500000003 -0.001259 -0.019265 0.023517
16620 -7.279363350000001 5.39029089 3.83442489 0.005306 0.016932 0.023516
16640 -7.415879310000001 5.362901370000001 3.8082321900000005 0.005516 0.063803 0.023458
16660 -7.4862366300000005 5.313802320000001 3.79072134 -0.001851 0.07346799999999999 0.010575
16680 -7.456747770000001 5.16201219 3.91540644 -0.015706 0.060797 -0.005529
16700 -7.3227726 5.10319143 3.89086182 -0.020026 0.050155 -0.004477
16720 -7.18640379 5.197190850000001 3.80508318 -0.016825 0.041656 -0.01299
16740 -7.103332710000001 5.444030070000001 3.68922708 -0.025547 0.00014099999999999998 -0.012997
16760 -7.10497098 5.57980047 3.57681429 -0.015041999999999996 -0.025506 -0.002209
16780 -7.17203214 5.5919256299999995 3.5094490200000004 -0.007612000000000002 -0.020261 0.011723
16800 -7.3625913899999995 5.607042840000001 3.5592936300000004 -0.008674 -0.013887 0.017049
16820 -7.50554271 5.57800524 3.6943184700000002 -0.018271000000000003 -0.010666 0.019114
16840 -7.5258984600000005 5.469624360000001 3.7788904800000003 -0.032073000000000004 0.003235 0.017932
16860 -7.44671214 5.41184346 3.80897775 -0.032006 0.018149 0.017913
16880 -7.29223407 5.441332320000001 3.7522465200000004 -0.030910000000000007 0.020293 0.013645
16900 -7.17667227 5.456900790000001 3.7320379200000002 -0.03092 0.014979 0.010447
16920 -7.121137860000001 5.40855711 3.67501239 -0.025562 0.02347 0.013678
16940 -7.115457870000001 5.45345748 3.6485155800000006 -0.018098 0.024501 0.015865999999999998
16960 -7.11680184 5.492981970000001 3.5774127 -0.010678 0.012761 0.014864
16980 -7.12053945 5.51782089 3.5763630300000004 -0.008583 -0.002135 0.008489
17000 -7.12981971 5.52156831 3.6531557100000005 -0.008597 -0.009575 0.004225
17020 -7.0997324399999995 5.5383336000000005 3.68518536 -0.007520999999999998 -0.00957 0.002096
17040 -7.142248980000001 5.59566324 3.7302426900000003 -0.003225 -0.003193 0.002118
17060 -7.16530248 5.648499899999999 3.77170956 0.002167 0.00851 0.001072
17080 -7.216343910000001 5.75388873 3.7034515800000003 -0.000961 0.021318 -0.00217
17100 -7.229665890000001 5.690270880000001 3.6351936 -0.011582 0.026702 -0.007593000000000002
17120 -7.21679517 5.57440497 3.6613863 -0.011534 0.033111 -0.011873
17140 -7.199725770000001 5.53338936 3.65928696 -0.0073 0.0267 -0.010767
17160 -7.25451462 5.510639970000001 3.68293887 0.001201 0.020275 -0.009632
17180 -7.30211274 5.4805527000000005 3.7471551300000003 0.018233000000000003 0.015937 -0.005234
17200 -7.301965590000001 5.4091555200000005 3.77455446 0.028901 0.013778 -0.007293000000000002
17220 -7.26633567 5.38160904 3.78023445 0.043818 0.009464 -0.007184
17240 -7.23655251 5.36589342 3.78383472 0.059811 0.007278 -0.007069
17260 -7.178026050000001 5.382511560000001 3.75074559 0.057649 0.004077 -0.003875
17280 -7.188355980000001 5.433405840000001 3.7181175300000002 0.04377 0.005178 -0.000769
17300 -7.158867120000001 5.478610320000001 3.67201053 0.03314 0.015859 0.001279
17320 -7.156767780000001 5.528150820000001 3.69955701 0.031092 0.037163 0.0033740000000000003
17340 -7.177574790000001 5.567224050000001 3.7226105100000004 0.025811 0.053144 0.00759
17360 -7.175034000000001 5.57980047 3.7504512900000004 0.00877 0.060656 0.008529
17380 -7.17742764 5.57724987 3.79655829 -0.010448 0.057527 0.008399
17400 -7.1973321299999995 5.57739702 3.8505917700000003 -0.016907 0.044767 0.00837
17420 -7.197783390000001 5.530397310000001 3.91061916 -0.012663 0.03412 0.003072
17440 -7.172189100000001 5.463189 3.9134640600000004 -0.0073430000000000014 0.025601 -0.002221
17460 -7.13521521 5.501212560000001 3.89340261 -0.002009 0.020277 -0.007518
17480 -7.10512794 5.52306924 3.8784325500000003 -0.003086 0.014967 -0.010723
17500 -7.08327126 5.56303518 3.80763378 -0.0020280000000000003 0.010711 -0.012847
17520 -7.112014560000001 5.58248841 3.78608121 0.001196 0.013904 -0.014965
17540 -7.122187530000001 5.529347639999999 3.7990990800000004 -0.001966 0.021377 -0.016064
17560 -7.14119931 5.50899189 3.7761927300000004 -0.0008609999999999999 0.027773000000000003 -0.018201
17580 -7.170089760000001 5.508697590000001 3.7986478200000002 -0.003014 0.025641000000000004 -0.016077
17600 -7.17637797 5.5440234 3.78697392 0.000187 0.030935 -0.010721
17620 -7.1995786200000005 5.4777078 3.7913197500000004 0.005574 0.04794 -0.005364
17640 -7.22906748 5.44312755 3.85029747 0.010951 0.060691 -0.002138
17660 -7.21095822 5.40286731 3.91571055 0.017348 0.061726 4.2e-05
17680 -7.19463438 5.391340560000001 3.91540644 0.015181 0.053215 -0.00103
17700 -7.200177030000001 5.44238199 3.8956491000000004 0.011946 0.046831 2.3e-05
17720 -7.19493849 5.48414316 3.84490197 0.011937 0.0447 2.6e-05
17740 -7.18625664 5.495522760000001 3.82664556 0.012999 0.041509 -0.002099
17760 -7.134165540000001 5.51692818 3.7703557800000005 0.014075 0.03727 -0.008495
17780 -7.104823830000001 5.564526300000001 3.7157238900000005 0.010908 0.03625 -0.017062
17800 -7.12757322 5.5859317200000005 3.72650508 0.006645999999999999 0.033086000000000004 -0.02136
17820 -7.13909997 5.581742850000001 3.73997421 0.003445 0.028853 -0.02565
17840 -7.17263055 5.6019514500000005 3.75973155 0.001297 0.024604 -0.026728
17860 -7.18401015 5.585333310000001 3.7955086200000006 -0.0008460000000000001 0.024603 -0.024607
17880 -7.173827370000001 5.5203714900000005 3.85044462 -0.000837 0.030977 -0.020342
17900 -7.17368022 5.49207945 3.87170289 0.002349 0.033075 -0.014981
17920 -7.13730474 5.48713521 3.8598720300000005 0.005526 0.030921 -0.011751
17940 -7.128779850000001 5.48863614 3.87634302 0.005516 0.030912 -0.009615
17960 -7.188199020000001 5.488783290000001 3.89490354 0.003416 0.038377 -0.009639
17980 -7.22412324 5.46842754 3.92453955 0.002354 0.04369 -0.005381
18000 -7.2362484 5.469173100000001 3.9095694900000004 0.00444 0.037274 -0.001085
18020 -7.184608560000001 5.46333615 3.8766373200000004 0.005483 0.034066 0.001063
18040 -7.18146936 5.469771510000001 3.80119842 0.008655 0.029785 0.0032270000000000003
18060 -7.16844168 5.506902360000001 3.7889163000000003 0.016137000000000002 0.027649 -0.002059
18080 -7.19628246 5.545818629999999 3.788622 0.008698000000000001 0.028762 -0.007454
18100 -7.20331623 5.56378074 3.79041723 0.002325 0.031993 -0.010707
18120 -7.20331623 5.56782246 3.75538572 -0.006166 0.039488 -0.012912
18140 -7.172336250000001 5.54656419 3.7613796300000004 -0.006142 0.041632 -0.01612
18160 -7.17427863 5.50090845 3.77903763 -0.007228 0.038435 -0.015055
18180 -7.1555709599999995 5.490735480000001 3.7676678400000005 -0.008329000000000001 0.030982 -0.015053
18200 -7.15751334 5.498220510000001 3.7868267700000002 -0.007319 0.021378 -0.011829
18220 -7.1856582300000005 5.476216679999999 3.8290392 -0.00309 0.016024 -0.008588
18240 -7.200628290000001 5.45600808 3.8459516400000004 0.005445 0.017055 -0.007461
18260 -7.199274510000001 5.456900790000001 3.8416156200000002 0.007587999999999998 0.020239 -0.006382
18280 -7.1973321299999995 5.45360463 3.8495421 0.0044020000000000005 0.026629000000000003 -0.003208
18300 -7.2097614 5.42516544 3.8366713800000003 0.001201 0.030885000000000006 0.001037
18320 -7.184157300000001 5.410352340000001 3.79161405 0.004386999999999999 0.034044 0.007465
18340 -7.16185917 5.4428332500000005 3.78608121 0.008679000000000001 0.038294 0.006421
18360 -7.152274800000001 5.42068227 3.75478731 0.008693000000000001 0.042551 0.007484
18380 -7.1555709599999995 5.42427273 3.7892204100000004 0.010808 0.041465 0.010705
18400 -7.16695056 5.41543392 3.84864939 0.006534999999999999 0.036171 0.006409000000000001
18420 -7.15826871 5.451515100000001 3.83293377 0.001196 0.034063 0.005306
18440 -7.19987292 5.5238148 3.80748663 0.000134 0.029827 -3.7e-05
18460 -7.26394203 5.53489029 3.81631563 -0.006281 0.023471 -0.003279
18480 -7.2690334199999995 5.50045719 3.8464029 -0.009492 0.01923 -0.005432
18500 -7.2233776800000005 5.48998011 3.8555360100000002 -0.009492 0.018169 -0.006499
18520 -7.21649106 5.48803773 3.81571722 -0.010539 0.021372 -0.0075790000000000015
18540 -7.19688087 5.48758647 3.8136178800000002 -0.01585 0.022473 -0.01189
18560 -7.19718498 5.46842754 3.78967167 -0.019045 0.02355 -0.011914
18580 -7.17742764 5.44357881 3.79116279 -0.016897 0.027799 -0.010836
18600 -7.193888820000001 5.410352340000001 3.7868267700000002 -0.012644 0.025649 -0.009735
18620 -7.20197226 5.39612784 3.81107709 -0.009477 0.022425 -0.005436
18640 -7.2362484 5.38594506 3.8238006600000003 -0.00842 0.020291 -0.005425999999999999
18660 -7.244184690000001 5.359301100000001 3.87484209 -0.008405 0.024548 -0.0043630000000000006
18680 -7.268886270000001 5.37696891 3.91735863 -0.005186 0.029859 -0.003279
18700 -7.27127991 5.419779750000001 3.9044781 0.001215 0.031958 -0.001101
18720 -7.27307514 5.44522689 3.8725956000000004 0.0012109999999999998 0.033015 0.001034
18740 -7.24389039 5.47261641 3.8567328300000003 -0.003047 0.035161000000000005 0.001002
18760 -7.225025760000001 5.487890580000001 3.81870927 -0.009434 0.037318 -0.000114
18780 -7.1916423300000005 5.4765109800000005 3.78113697 -0.010501 0.036261 -0.001188
18800 -7.22308338 5.49102978 3.79804941 -0.010515 0.033065 -0.001184
18820 -7.175034000000001 5.49102978 3.79072134 -0.009472 0.026674 -0.0022370000000000003
18840 -7.2015210000000005 5.4765109800000005 3.82244688 -0.0073430000000000014 0.026662 -0.001154
18860 -7.1772706799999995 5.47036992 3.8260471500000004 -0.006272 0.027724 -0.001148
18880 -7.202717820000001 5.469173100000001 3.8317271400000004 -0.007334 0.027731 -0.002223
18900 -7.206465240000001 5.4401355 3.8526911100000003 -0.007329 0.028797000000000007 -0.002225
18920 -7.206013980000001 5.40690903 3.8805318900000003 -0.011587 0.02882 -0.004391
18940 -7.22682099 5.4208294200000005 3.8627169300000004 -0.008372 0.029883 -0.0065060000000000005
18960 -7.21230219 5.41843578 3.86585613 -0.0041 0.031994 -0.005411
18980 -7.19807769 5.4313065 3.8775398400000003 0.000153 0.033027 -0.001109
19000 -7.21694232 5.43056094 3.87125163 0.008684 0.034054 0.001085
19020 -7.218737550000001 5.391340560000001 3.8687010300000004 0.009746 0.03829 0.006428
19040 -7.20002988 5.3789112900000005 3.87094752 0.008703 0.044681 0.007481
19060 -7.1795171700000004 5.39837433 3.89010645 0.0044740000000000005 0.05534 0.009574
19080 -7.17907572 5.398227179999999 3.86436501 0.007722 0.065982 0.009583
19100 -7.188199020000001 5.38998678 3.87783414 0.015205000000000003 0.073396 0.013899000000000002
19120 -7.188051870000001 5.36828706 3.87888381 0.023711000000000003 0.07334 0.020368
19140 -7.183715850000001 5.39598069 3.8826214200000004 0.02794 0.069047 0.024676
19160 -7.188355980000001 5.40750744 3.8585280600000003 0.031121 0.06371399999999999 0.023637
19180 -7.213646160000001 5.420378159999999 3.87125163 0.025801 0.06374500000000001 0.020395
19200 -7.2302643 5.417082000000001 3.8275382700000002 0.017281 0.062727 0.016064
19220 -7.2194831100000005 5.41214757 3.87813825 0.014103999999999997 0.063821 0.011767
19240 -7.232059530000001 5.420378159999999 3.87154593 0.006640999999999999 0.059607000000000014 0.006379
19260 -7.236846810000001 5.420378159999999 3.8883112200000003 0.000216 0.053242 0.005274
19280 -7.21768788 5.413942800000001 3.89026341 -0.004061 0.047943 0.002047
19300 -7.21544139 5.4208294200000005 3.9164561100000004 0.000187 0.041545 -5.2e-05
19320 -7.1973321299999995 5.395382280000001 3.9002892300000003 -0.004079999999999999 0.038377 -0.003282
19340 -7.1916423300000005 5.4149924700000005 3.87918792 -0.005138 0.040511 -0.003292
19360 -7.205415570000001 5.416336439999999 3.9164561100000004 -0.0008609999999999999 0.043688 -0.002198
19380 -7.246882439999999 5.413638689999999 3.9212433900000003 0.002321 0.042599 0.00103
19400 -7.25721237 5.376370500000001 3.91735863 0.003392 0.045782 0.00317
19420 -7.259007600000001 5.34912813 3.93936246 0.006622 0.050041 0.00105
19440 -7.262293950000001 5.31529344 3.9562749 0.010918 0.057478 0.002139
19460 -7.2530136899999995 5.33131317 3.95896284 0.012004 0.067041 0.007475
19480 -7.21080126 5.34657753 3.9421975500000004 0.020529 0.069124 0.011805
19500 -7.236846810000001 5.3880444 3.9182513400000003 0.024778 0.069093 0.016108
19520 -7.228469070000001 5.4208294200000005 3.90148605 0.031155 0.065866 0.018293
19540 -7.21259649 5.4109507500000005 3.8471484600000005 0.027945 0.062685 0.017206
19560 -7.19419293 5.43804597 3.83293377 0.023653 0.059496 0.019317
19580 -7.200177030000001 5.4545071499999995 3.8238006600000003 0.014061 0.060599 0.01818
19600 -7.218286290000001 5.44792464 3.8002959000000005 0.011932 0.06273300000000001 0.019231
19620 -7.1934375600000005 5.46768198 3.8118226500000003 0.018324 0.063763 0.022479
19640 -7.18027254 5.44163643 3.8070353700000004 0.022577 0.061613 0.02358
19660 -7.2043659 5.436996300000001 3.82035735 0.026844 0.066903 0.028944
19680 -7.18087095 5.45256477 3.81856212 0.024667 0.05944500000000001 0.031075
19700 -7.199274510000001 5.463041850000001 3.7826379 0.025691 0.048793 0.030027
19720 -7.234158870000001 5.43384729 3.8137650300000003 0.010755 0.043541 0.024588
19740 -7.246882439999999 5.435201070000001 3.86316819 0.0033159999999999995 0.042531 0.01706
19760 -7.241643900000001 5.40750744 3.84745257 -0.0041140000000000005 0.042591 0.008462
19780 -7.23849489 5.394332610000001 3.8684067300000002 -0.009444 0.036248 0.000956
19800 -7.21529424 5.35181607 3.87469494 -0.008381999999999999 0.028813 -0.005437
19820 -7.209604440000001 5.37202467 3.8812774500000002 -0.016916 0.023538 -0.010831
19840 -7.2447831 5.388495659999999 3.85957773 -0.023322 0.019312 -0.014075
19860 -7.24552866 5.41648359 3.85328952 -0.020141 0.01504 -0.014047
19880 -7.252415280000001 5.42741193 3.8167668900000002 -0.01695 0.013959 -0.012955
19900 -7.225624170000001 5.41528677 3.8284407900000006 -0.016944999999999998 0.017146 -0.010823
19920 -7.23490443 5.399119890000001 3.81017457 -0.015874 0.022452 -0.006548999999999999
19940 -7.2178448400000015 5.416336439999999 3.79041723 -0.010544 0.024551 -0.00331
19960 -7.2015210000000005 5.434749810000001 3.7538946 -0.000937 0.031949 0.003157
19980 -7.20048114 5.447022120000001 3.76511724 0.005454 0.037223 0.010673
20000 -7.211105370000001 5.44103802 3.75239367 0.018247 0.043536 0.0193
20020 -7.22098404 5.45914728 3.75913314 0.025739 0.054141 0.02468
20040 -7.252866540000001 5.44687497 3.7988047800000007 0.031102 0.063697 0.027909
20060 -7.281756990000001 5.46543549 3.75568983 0.027887 0.061573 0.028958
20080 -7.28265951 5.469624360000001 3.7480576500000002 0.018285 0.056302 0.023556
20100 -7.27008309 5.506451100000001 3.70015542 0.00445 0.054258 0.013848
20120 -7.271878320000001 5.508697590000001 3.71392866 -0.005128 0.05113 0.00524
20140 -7.2489719699999995 5.528150820000001 3.6709706700000004 -0.014744 0.042663 -0.00015800000000000002
20160 -7.225771320000001 5.51767374 3.66796881 -0.012659 0.026698000000000003 -0.005464
20180 -7.17667227 5.517379439999999 3.6591398100000005 -0.016964 0.013946 -0.00975
20200 -7.154374140000001 5.50061415 3.67126497 -0.013797 0.005417 -0.010786
20220 -7.16695056 5.47636383 3.71213343 -0.011649 0.006484 -0.012908
20240 -7.19688087 5.481896669999999 3.75853473 -0.015897 0.01076 -0.012943
20260 -7.1917992900000005 5.489538659999999 3.75733791 -0.015888 0.016073 -0.009746
20280 -7.180115580000001 5.4572049 3.79445895 -0.009501 0.01816 -0.0043630000000000006
20300 -7.224574500000001 5.444030070000001 3.80464173 -0.000985 0.021296 0.00317
20320 -7.2129006 5.433405840000001 3.80254239 0.010769 0.030821 0.008582
20340 -7.1974792800000005 5.405408100000001 3.82170132 0.015066 0.041442 0.012871
20360 -7.187002199999999 5.41947564 3.81107709 0.010822 0.048905 0.014968
20380 -7.22008152 5.37053355 3.86706276 0.008707 0.052113 0.013881
20400 -7.2453815100000005 5.38070652 3.86181441 0.006593000000000001 0.054259 0.011727
20420 -7.29837513 5.40406413 3.8606175900000004 0.004469 0.053214 0.008509000000000001
20440 -7.33040478 5.44312755 3.8148147000000003 0.0023350000000000003 0.048978 0.004226
20460 -7.31813247 5.4965724300000005 3.7743975 0.001239 0.039407 0.001026
20480 -7.32172293 5.5104928200000005 3.71617515 -0.000909 0.033035 -0.0021850000000000003
20500 -7.25556429 5.506451100000001 3.67201053 -0.004109000000000001 0.031986 -0.003274
20520 -7.20092259 5.503900500000001 3.6643783500000002 -0.006229 0.034128 -0.00436
20540 -7.16231043 5.50599984 3.6398337300000003 -0.005162 0.035185 -0.003286
20560 -7.14119931 5.49358038 3.63668472 -0.001985 0.028787 -0.004324000000000001
20580 -7.132370310000001 5.48743932 3.67530669 -0.003062 0.027721 -0.003262
20600 -7.15826871 5.48998011 3.72560256 -0.003062 0.027721 -0.003262
20620 -7.20675954 5.492677860000001 3.76751088 -0.003081 0.026643 -5.600000000000001e-05
20640 -7.25556429 5.50540143 3.8142162900000005 -0.0052380000000000005 0.025568 0.004204
20660 -7.25705541 5.472920520000001 3.83128569 -0.0052380000000000005 0.025568 0.004204
20680 -7.25721237 5.4401355 3.86166726 -0.006291 0.027706 0.003125
20700 -7.24957038 5.4025632 3.8941481700000002 -0.007329 0.03198 0.000976
20720 -7.232059530000001 5.36873832 3.88577043 -0.006253 0.033046 -8.6e-05
20740 -7.26454044 5.37082785 3.8914602300000003 -0.006257 0.034102 0.002049
20760 -7.256457000000001 5.41319724 3.81316662 -0.003071 0.031956 0.0031420000000000003
20780 -7.22906748 5.43968424 3.75314904 -0.004143 0.029834 0.002069
20800 -7.21544139 5.46797628 3.7314395100000004 -0.005224 0.025581 0.000999
20820 -7.1895528 5.49117693 3.70105794 -0.007363 0.02134 -0.002215
20840 -7.18879743 5.504950170000001 3.70314747 -0.010573 0.01816 -0.003302
20860 -7.203914640000001 5.48444727 3.72574971 -0.012702 0.01711 -0.005452
20880 -7.1958410100000005 5.46244344 3.7491073200000002 -0.013754 0.02031 -0.005463
20900 -7.20316908 5.448071790000001 3.77470161 -0.014811 0.026688 -0.001206
20920 -7.2242802 5.45795046 3.76961022 -0.020127000000000003 0.032029 -0.000182
20940 -7.24343913 5.48983296 3.77515287 -0.024399 0.036283 0.005124
20960 -7.22382894 5.46558264 3.80553444 -0.036106 0.044838 0.007168000000000002
20980 -7.212449340000001 5.464238669999999 3.7818825300000003 -0.043526 0.056578 0.008169
21000 -7.21739358 5.47725654 3.7646757900000005 -0.039225 0.060837 0.004989
21020 -7.20780921 5.46992847 3.77680095 -0.037187 0.036341000000000005 0.00183
21040 -7.22038563 5.445079740000001 3.7770952500000003 -0.022347 0.012861 -0.000173
21060 -7.2034731899999995 5.413040280000001 3.7922124600000005 -0.010645 0.00112 -0.004349
21080 -7.218737550000001 5.407958699999999 3.8001487500000004 -0.006348 0.005374 -0.006461
21100 -7.210359810000001 5.40466254 3.79476306 -0.004196 0.009628 -0.006451
21120 -7.2302643 5.443284510000001 3.80209113 -0.010616 0.008572 -0.00329
21140 -7.22892033 5.448964500000001 3.79072134 -0.012764 0.007506 -0.001167
21160 -7.226075430000001 5.457352050000001 3.7803914100000005 -0.014874 0.011779 -0.002255
21180 -7.214695830000001 5.44028265 3.7749959100000003 -0.011601 0.022441 -0.007587000000000002
21200 -7.2178448400000015 5.45795046 3.7877194800000002 -0.012625 0.032033 -0.007606999999999998
21220 -7.20571968 5.46797628 3.77365194 -0.009424 0.034143 -0.005451
21240 -7.21125252 5.4607953600000005 3.78233379 -0.008362 0.034135000000000006 -0.004375
21260 -7.216343910000001 5.461393770000001 3.8082321900000005 -0.007267 0.040523 -0.004376
21280 -7.2251729099999995 5.473214820000001 3.8297847600000003 -0.007256999999999999 0.042654 -0.004378
21300 -7.26035157 5.472920520000001 3.8574783900000003 -0.003004 0.039443 -0.004344
21320 -7.286397120000001 5.43056094 3.8711044800000005 -0.001971 0.031982 -0.004328
21340 -7.293735000000001 5.40241605 3.8893608900000003 0.002273 0.030885000000000006 -2.4e-05
21360 -7.30586016 5.3652950100000005 3.90777426 0.007626000000000002 0.034067 -0.001059
21380 -7.281609840000001 5.34343833 3.8703491100000003 0.007669 0.038349 -0.006405
21400 -7.34836689 5.48579124 3.86032329 0.001263 0.040489 -0.003248
21420 -7.13850156 5.46244344 3.7564353900000005 0.005502 0.035144 -0.002143
21440 -7.15662063 5.510787120000001 3.7562882400000004 0.007626000000000002 0.034067 -0.001059
21460 -7.11964674 5.504950170000001 3.76047711 0.011922 0.041504 3e-05
21480 -7.134459840000001 5.4628947 3.79820637 0.010865 0.054249 0.010689
21500 -7.1576703 5.463041850000001 3.80419047 0.009841 0.052169000000000014 -0.001066
21520 -7.18401015 5.433552990000001 3.8455003800000003 0.006606999999999999 0.047906 0.002121
21540 -7.196733720000001 5.3946269099999995 3.89804274 0.001225 0.040455 0.005298
21560 -7.202276370000001 5.37457527 3.9164561100000004 0.008664 0.036159 0.007492
21580 -7.22008152 5.3890940700000005 3.95567649 0.008655 0.03509 0.008561
21600 -7.213950270000001 5.43100239 3.96076788 0.001168 0.031916 0.009581
21620 -7.206318090000001 5.43145365 3.9335157 0.000101 0.030859 0.008506999999999999
21640 -7.2355028400000005 5.39717751 3.89983797 -0.005224 0.028764 0.0042
21660 -7.21139967 5.38729884 3.9037325400000005 -0.008425 0.026653 0.002043
21680 -7.20197226 5.385650760000001 3.8910089700000006 -0.005234 0.024511 0.002068
21700 -7.1817636600000005 5.404358429999999 3.8645121600000003 -0.0031100000000000004 0.022373 0.002086
21720 -7.183264590000001 5.42472399 3.8529854100000005 -0.004162 0.025573 0.002075
21740 -7.1795171700000004 5.399276850000001 3.8826214200000004 -0.002019 0.027696 0.0020870000000000003
21760 -7.18535412 5.35601475 3.89969082 -0.000961 0.025562 0.002097
21780 -7.2069165 5.359301100000001 3.89759148 -0.004148 0.028769 0.002071
21800 -7.21185093 5.39882559 3.8868201000000004 -0.00521 0.030899 0.003129
21820 -7.22158245 5.391634860000001 3.8814246000000003 -0.007339 0.031971 0.003112
21840 -7.24463595 5.42441988 3.8875656600000004 -0.001995 0.035144 0.004214
21860 -7.240290120000001 5.400620820000001 3.9193010100000003 -0.006272 0.033029 0.004187
21880 -7.257506670000001 5.385650760000001 3.92963094 -0.002009 0.029826 0.002084
21900 -7.375609260000001 5.40615366 3.95792298 -0.003066 0.0309 0.001007
21920 -7.18146936 5.4009151200000005 3.8799334800000005 -0.000933 0.031952999999999995 0.002089
21940 -7.21724643 5.41932849 3.86795547 0.0044210000000000005 0.037257 0.003188
21960 -7.198234650000001 5.41887723 3.85328952 0.002282 0.036199 0.003174
21980 -7.209604440000001 5.41843578 3.81945483 0.003354 0.03726 0.00318
22000 -7.222033710000001 5.426960670000001 3.8158643700000003 0.00443 0.038326 0.002118
22020 -7.233707610000001 5.40136638 3.82499748 0.005502 0.041510000000000005 0.004258
22040 -7.238043630000001 5.379362550000001 3.8529854100000005 0.006569 0.043628 0.006399
22060 -7.23505158 5.372780040000001 3.8564287200000003 0.00765 0.04682 0.006403
22080 -7.204964310000001 5.38744599 3.8761860599999998 0.005516 0.047888 0.007455
22100 -7.188355980000001 5.411549160000001 3.85313256 0.00444 0.044701 0.006383
22120 -7.2093101399999995 5.42382147 3.86511057 0.003354 0.038321 0.004247
22140 -7.238200590000001 5.419181340000001 3.91511214 -0.000937 0.033010000000000005 0.004224
22160 -7.2447831 5.418730080000001 3.9240882900000003 -0.0020280000000000003 0.027687 0.004222999999999999
22180 -7.23505158 5.419632600000001 3.95537238 0.001148 0.02235 0.004252000000000001
22200 -7.218737550000001 5.397471810000001 3.9522331800000003 0.00222 0.021289 0.002125
22220 -7.20675954 5.3871516900000005 3.9143567700000004 -0.000952 0.02557 -3.9e-05
22240 -7.2015210000000005 5.3937342 3.9004363800000004 -0.00521 0.027716 -7.2e-05
22260 -7.188051870000001 5.394332610000001 3.9080685600000002 -0.012678 0.028803 0.000943
22280 -7.18924869 5.41274598 3.89041056 -0.016964 0.026678 0.003052
22300 -7.166499300000001 5.39029089 3.8663073900000002 -0.015902 0.02667 0.004128
22320 -7.17996843 5.413942800000001 3.8666115000000003 -0.007353 0.031958 0.0063170000000000006
22340 -7.18625664 5.391791820000001 3.91211028 0.000129 0.038311000000000005 0.009566
22360 -7.20571968 5.38115778 3.9303765000000004 0.001196 0.04149 0.012774
22380 -7.242536610000001 5.34882402 3.9420504 -0.003057 0.045762 0.013807
22400 -7.23700377 5.368581360000001 3.9410007300000003 -0.006224 0.052169000000000014 0.012708
22420 -7.246882439999999 5.389388370000001 3.93860709 -0.007267 0.057499 0.012694
22440 -7.26080283 5.38430679 3.92499081 -0.001932 0.057481 0.012732
22460 -7.24224231 5.37472242 3.91181598 0.003373 0.050009 0.01171
22480 -7.2432919799999995 5.39837433 3.8923529400000003 0.011879 0.04571 0.013911
22500 -7.20916299 5.39598069 3.89699307 0.007578 0.034024 0.009623
22520 -7.2069165 5.399424000000001 3.8823271200000002 0.008612 0.025502 0.008573
22540 -7.18520697 5.4067520700000005 3.8583809100000006 0.009654 0.019111000000000003 0.007520999999999998
22560 -7.1813123999999995 5.40196479 3.8779812900000006 0.005401 0.0202 0.005353
22580 -7.168588830000001 5.42112372 3.86001918 0.00223 0.027664 0.006389
22600 -7.1699426100000005 5.42187909 3.8317271400000004 -0.00199 0.034087 0.002079
22620 -7.19479134 5.40301446 3.88067904 -0.006253 0.035168 0.002048
22640 -7.213950270000001 5.38998678 3.8989452600000005 -0.009448 0.033061 -0.001177
22660 -7.21589265 5.39358705 3.92663889 -0.008386 0.033053 -0.000101
22680 -7.23894615 5.3789112900000005 3.9555293400000004 -0.007334 0.031976 0.002044
22700 -7.218737550000001 5.39014374 3.9294739800000005 -0.005214 0.029833 0.00313
22720 -7.198234650000001 5.425763850000001 3.9143567700000004 -0.004138 0.03196 0.003135
22740 -7.17637797 5.415139620000001 3.92035068 -0.003057 0.035152 0.003138
22760 -7.21320471 5.387750100000001 3.95163477 -0.003018 0.043674 0.003128
22780 -7.253769060000001 5.3590068 3.9648096000000006 -0.0041 0.042604 0.005258
22800 -7.26035157 5.32098324 3.9778274700000003 -0.003057 0.039396 0.007406
22820 -7.26977898 5.33610045 3.96465264 -0.001985 0.041519 0.008479
22840 -7.2295187400000005 5.332657139999999 3.9350166300000002 -0.00088 0.050037 0.008476000000000001
22860 -7.20331623 5.3470287899999995 3.9031341299999998 -0.001904 0.057506 0.006322
22880 -7.137157590000001 5.391938970000001 3.86047044 -0.009424 0.054302 0.014819999999999996
22900 -7.18341174 5.44522689 3.8441564100000005 -0.012611 0.051143 0.008392
22920 -7.07339259 5.43145365 3.81990609 -0.012678 0.037291000000000005 0.009478
22940 -7.164105660000001 5.441783580000001 3.86197137 -0.011683 0.021308 0.009505
22960 -7.1895528 5.4446284799999995 3.8987883 -0.007439 0.015967 0.009542
22980 -7.19538975 5.407958699999999 3.94474815 -0.008482 0.023419 0.011661
23000 -7.21799199 5.404211280000001 3.95567649 -0.010587 0.028757 0.010571
23020 -7.24493025 5.41289313 3.93427107 -0.0063100000000000005 0.032994 0.012732
23040 -7.22158245 5.40241605 3.9350166300000002 -0.009487 0.037271 0.011636
23060 -7.21799199 5.40930267 3.91675041 -0.009487 0.034088 0.008436
23080 -7.19883306 5.38655328 3.9086767800000004 -0.009501 0.029831 0.007373
23100 -7.172336250000001 5.40571221 3.89295135 -0.012702 0.029842 0.007351000000000002
23120 -7.1917992900000005 5.39612784 3.89175453 -0.012697 0.033030000000000004 0.009483
23140 -7.184157300000001 5.407654590000001 3.8829255300000005 -0.010549 0.037279 0.010561
23160 -7.18355889 5.36978799 3.93860709 -0.010549 0.037279 0.010561
23180 -7.19149518 5.362450110000001 3.94384563 -0.006286 0.035138 0.009525
23200 -7.21708947 5.3766648 3.92783571 -0.007363 0.033011 0.00952
23220 -7.21259649 5.36978799 3.9686943600000006 -0.013763999999999998 0.033033 0.009476
23240 -7.20751491 5.394479760000001 3.96166059 -0.016964 0.033045 0.009453
23260 -7.20706365 5.404211280000001 3.9487898700000006 -0.012687 0.033038 0.007347
23280 -7.21335186 5.403161610000001 3.9448953 -0.008401 0.039406 0.009505
23300 -7.188051870000001 5.40406413 3.9143567700000004 -0.009472 0.03304 0.004164
23320 -7.206465240000001 5.44941576 3.91406247 -0.008391 0.033049 0.000967
23340 -7.148684340000001 5.4506125800000005 3.88577043 -0.01164 0.023468 0.002025
23360 -7.16664645 5.413942800000001 3.9125615400000004 -0.009539 0.017065 0.003116
23380 -7.18714935 5.382060300000001 3.94355133 -0.007411 0.014931 0.002066
23400 -7.196135310000001 5.3790682499999996 3.96061092 -0.0041670000000000006 0.019202 -0.003258
23420 -7.23056841 5.40466254 3.93936246 -0.003066 0.023473 -0.006461
23440 -7.222484970000001 5.42068227 3.93905835 -0.005219 0.018158 -0.007537
23460 -7.21708947 5.397923070000001 3.9332214000000003 -0.011625 0.01181 -0.012915
23480 -7.227566550000001 5.387750100000001 3.93741027 -0.008395999999999999 0.017129 -0.013967
23500 -7.18041969 5.39029089 3.9787299900000006 0.001273 0.032010000000000004 -0.013919
23520 -7.1816165100000005 5.42441988 3.95462682 0.008727 0.035154000000000005 -0.007462000000000002
23540 -7.1856582300000005 5.392537379999999 3.9471417900000003 0.017218 0.034025 0.001145
23560 -7.1958410100000005 5.399119890000001 3.9522331800000003 0.01828 0.038261 0.006488
23580 -7.172787510000001 5.40810585 3.9469946399999998 0.012965 0.041479 0.005379
23600 -7.14748752 5.41004823 3.9612093300000004 0.006587999999999999 0.047889 0.006394
23620 -7.162604730000001 5.40136638 3.9640542300000003 0.008727 0.050008 0.007474
23640 -7.1596126799999995 5.42411577 3.9535771500000005 0.006587999999999999 0.050011 0.008528
23660 -7.170835320000001 5.40750744 3.9490841700000003 0.005507 0.044697 0.006391
23680 -7.1739843300000015 5.3928316800000005 3.96465264 0.0065450000000000005 0.039363 0.007473
23700 -7.16530248 5.37262308 3.97768032 0.004397 0.036174 0.007462000000000002
23720 -7.14509388 5.376223350000001 4.008513150000001 -0.000947 0.034062 0.007427
23740 -7.164998370000001 5.429060010000001 3.9737857500000002 -0.0020280000000000003 0.029809 0.006357
23760 -7.16231043 5.457352050000001 3.94534656 -0.003114 0.025552 0.006355
23780 -7.15062672 5.45136795 3.8925099 -0.0041670000000000006 0.025568 0.003143
23800 -7.12967256 5.42007405 3.92499081 -0.006291 0.025584 0.000991
23820 -7.15242195 5.389241220000001 3.96061092 -0.006296 0.02558 0.00206
23840 -7.14823308 5.376066389999999 3.99834018 -0.005229 0.026637 0.003134
23860 -7.171286580000001 5.4289128600000005 3.9941415000000005 -0.003105 0.02556 0.004218
23880 -7.16949135 5.395382280000001 3.9612093300000004 -0.00309 0.027695 0.003148
23900 -7.138207260000001 5.35271859 3.9704895900000006 -0.000947 0.029818 0.00316
23920 -7.14538818 5.325770520000001 3.98710773 -0.000942 0.033006 0.005292
23940 -7.18027254 5.33640456 4.04713512 0.0033490000000000004 0.039378 0.006382
23960 -7.204218750000001 5.357957129999999 4.05911313 0.003368 0.0447 0.007444
23980 -7.1795171700000004 5.309760600000001 4.08006729 0.004445 0.047888 0.008515
24000 -7.187306310000001 5.32397529 4.08006729 0.001244 0.047899 0.008493
24020 -7.18341174 5.367688650000001 4.00762044 0.001259 0.048973 0.006355
24040 -7.18655094 5.385797909999999 3.98277171 0.00233 0.050034 0.006361
24060 -7.176525120000001 5.39268453 3.95747172 0.005526 0.047897 0.005318
24080 -7.15736619 5.4025632 3.96465264 0.005512 0.045762 0.006389
24100 -7.162751879999999 5.400620820000001 3.96989118 0.00444 0.04364 0.005316
24120 -7.15347162 5.39837433 3.96046377 0.001249 0.042598 0.002091
24140 -7.16530248 5.38789725 3.96256311 -0.000889 0.039419 -5.7e-05
24160 -7.18745346 5.37861699 3.95328285 -0.000889 0.035174000000000004 -0.004324000000000001
24180 -7.18505982 5.378469840000001 3.9640542300000003 -0.004085 0.037312 -0.003281
24200 -7.190298360000001 5.38385553 3.9594141000000005 -0.009434 0.036257 -0.001181
24220 -7.174877040000001 5.39418546 3.97199052 -0.014754 0.03841 -0.002289
24240 -7.187904720000001 5.4106466399999995 3.9796226999999997 -0.014773 0.033088 -0.00335
24260 -7.1551197 5.386102020000001 4.00387302 -0.013721 0.028828 -0.004406
24280 -7.1817636600000005 5.3847482399999995 4.00762044 -0.007305 0.034123 -0.002231
24300 -7.184608560000001 5.363499780000001 4.01090679 0.000168 0.041528 0.004221
24320 -7.1639487 5.36484375 4.01554692 0.0033590000000000004 0.04257 0.007445999999999999
24340 -7.15662063 5.385650760000001 4.01839182 0.004416 0.042557 0.00959
24360 -7.166048040000001 5.3871516900000005 4.02108957 0.008693000000000001 0.047856 0.012818
24380 -7.175926710000001 5.368581360000001 4.05507141 0.005502 0.042571 0.005325
24400 -7.176230820000001 5.357358720000001 4.05297207 0.006555 0.042554 0.008537000000000001
24420 -7.15751334 5.3561619 4.02707367 0.005516 0.044705 0.004254
24440 -7.17427863 5.39119341 4.04548704 0.001254 0.042603 0.001022
24460 -7.153177320000001 5.376370500000001 4.01674374 -0.001937 0.043683 -7e-05
24480 -7.15602222 5.391634860000001 4.0055211 -0.000851 0.047941 -6.7e-05
24500 -7.13027097 5.385503610000001 3.9508794000000003 -0.001918 0.045822 -0.002209
24520 -7.15377573 5.379362550000001 3.9877061400000002 -0.005152 0.040499 -8.8e-05
24540 -7.16918724 5.3929886400000004 3.98351727 -0.006243 0.034115 -0.001156
24560 -7.16320314 5.4287657099999995 3.9691456200000004 -0.01373 0.026697 -0.004403
24580 -7.17054102 5.4224775 3.99009978 -0.015844999999999998 0.029905 -0.00549
24600 -7.171286580000001 5.39987526 4.013006130000001 -0.009463 0.030926 -0.000106
24620 -7.17054102 5.38729884 3.98741184 0.000134 0.034071 0.004229999999999999
24640 -7.18041969 5.373525600000001 3.98351727 0.002263 0.035121 0.006379999999999999
24660 -7.16739201 5.364098189999999 3.98112363 -0.000928 0.038323 0.007422
24680 -7.17263055 5.36618772 3.9808195200000003 -0.000918 0.042576 0.009553
24700 -7.1696385000000005 5.36798295 3.99219912 0.0012109999999999998 0.042564 0.010636
24720 -7.1867079 5.37218163 3.9748354200000002 0.000105 0.036168 0.012773
24740 -7.168294530000001 5.369032620000001 3.9796226999999997 -0.003105 0.032988 0.011686
24760 -7.178026050000001 5.36843421 3.97498257 -0.0031 0.03087 0.008485
24780 -7.192996110000001 5.32547622 4.00327461 -0.002019 0.030879000000000007 0.005287
24800 -7.1798212800000005 5.339700720000001 4.03321473 -0.002 0.033018 0.003148
24820 -7.12278594 5.328919530000001 4.02977142 -0.005195 0.033033 0.002058
24840 -7.18895439 5.38160904 4.01180931 -0.007339 0.028788 -8.8e-05
24860 -7.174435590000001 5.421280680000001 4.0023819000000005 -0.008439 0.022396 0.000981
24880 -7.16439996 5.399276850000001 3.9754338300000005 -0.007406 0.017058 0.003131
24900 -7.141052159999999 5.40585936 3.9817220400000006 -0.010606 0.01813 0.004176
24920 -7.137756 5.40705618 3.9800739600000004 -0.011683 0.019186 0.007370999999999998
24940 -7.12249164 5.37472242 3.98681343 -0.008482 0.018114 0.006327
24960 -7.161103800000001 5.401817639999999 3.99923289 -0.002071 0.020222 0.006369
24980 -7.180713990000001 5.405260950000001 3.9881574000000004 0.001144 0.024468 0.007454
25000 -7.186109490000001 5.42472399 3.97663065 0.005416 0.028701 0.010683
25020 -7.188051870000001 5.39762877 3.98456694 0.005425 0.032953 0.012814
25040 -7.1654496299999995 5.35945806 3.9793284 0.001191 0.036181 0.008508
25060 -7.17682923 5.353621110000001 4.0002825600000005 -0.001956 0.041544 0.00207
25080 -7.17967413 5.28895359 4.01539977 -0.005133 0.043699 -0.00116
25100 -7.216343910000001 5.322631320000001 4.02558255 -0.006181 0.04372 -0.00544
25120 -7.2185904 5.31065331 4.00162653 -0.005109000000000001 0.042659 -0.007568000000000002
25140 -7.22636973 5.3374542300000005 3.9805252200000005 -0.005133 0.039455 -0.0054280000000000005
25160 -7.168745790000001 5.36259726 3.9561277500000003 -0.004071 0.037325 -0.006486
25180 -7.169785650000001 5.37771447 3.95776602 -0.0030280000000000003 0.034117 -0.004338
25200 -7.1359607700000005 5.389241220000001 3.9628574100000002 -0.001985 0.03197 -0.001123
25220 -7.149586860000001 5.4025632 3.9649567500000003 0.002263 0.031938 0.00318
25240 -7.15122513 5.39866863 3.9969864000000004 0.004397 0.032991 0.004261
25260 -7.1578174500000005 5.408253 4.00357872 0.0012109999999999998 0.03832 0.006369
25280 -7.1479387800000005 5.39148771 4.017195 -0.000937 0.036193 0.007425
25300 -7.144642620000001 5.36453964 4.04294625 -0.002004 0.036197 0.007417
25320 -7.159906980000001 5.34882402 4.0101612300000005 -0.002019 0.033001 0.007421
25340 -7.154070030000001 5.36259726 3.9866564700000002 0.001182 0.03299 0.007444
25360 -7.1421018300000005 5.401670490000001 3.9899526300000003 0.0033159999999999995 0.031921 0.006392
25380 -7.162006320000001 5.41200042 4.00506984 0.005464 0.032988 0.004268999999999999
25400 -7.16904009 5.3823546 3.99803607 0.003344 0.034069 0.002116
25420 -7.17308181 5.341338990000001 4.05581697 0.001201 0.031945999999999995 0.002104
25440 -7.183863 5.31799119 4.068393390000001 0.001196 0.029819 0.001038
25460 -7.186109490000001 5.30916219 4.06569564 0.005464 0.029805 0.001068
25480 -7.197783390000001 5.35257144 4.06165392 0.010788 0.029777 0.003242
25500 -7.206318090000001 5.36154759 4.06404756 0.018233000000000003 0.027608 0.006501000000000001
25520 -7.19419293 5.37502653 4.0362067800000005 0.024624 0.026516 0.007615999999999999
25540 -7.158867120000001 5.385650760000001 3.9999784500000004 0.027839 0.032884 0.010835
25560 -7.122638790000001 5.418730080000001 3.99055104 0.027887 0.040353 0.0076209999999999984
25580 -7.1379031500000005 5.4051138000000005 4.01255487 0.028944 0.041402 0.010831
25600 -7.125336540000001 5.385650760000001 3.99055104 0.033226 0.046705 0.012991
25620 -7.13610792 5.36544216 4.02962427 0.03436 0.062676 0.014047
25640 -7.127426070000001 5.377420170000001 4.0231791 0.029112 0.079747 0.011852
25660 -7.17068817 5.35646601 4.05611127 0.028093 0.087221 0.00863
25680 -7.175926710000001 5.347931310000001 4.08171537 0.032351 0.08189199999999999 0.005462
25700 -7.199274510000001 5.35077621 4.0951845 0.03658 0.075477 0.007635999999999999
25720 -7.204218750000001 5.338199790000001 4.055512860000001 0.039752 0.07119600000000001 0.0098
25740 -7.1739843300000015 5.34597912 4.023336060000001 0.045072 0.07116499999999999 0.013041999999999998
25760 -7.13686329 5.350619250000001 4.00597236 0.042914 0.06690700000000001 0.014101
25780 -7.14254328 5.3630485199999995 3.98950137 0.04078 0.065854 0.013019
25800 -7.12563084 5.376517649999999 3.9899526300000003 0.037599 0.06694299999999999 0.009791
25820 -7.14569229 5.376370500000001 3.99249342 0.036556 0.070151 0.007643
25840 -7.16185917 5.369032620000001 4.01345739 0.040833 0.073327 0.008737
25860 -7.170393870000001 5.35257144 4.026926520000001 0.044043 0.076508 0.009824
25880 -7.16185917 5.34238866 4.058357760000001 0.044019 0.074365 0.013031
25900 -7.16918724 5.362146 4.03905168 0.038671 0.071187 0.012998
25920 -7.16185917 5.36453964 4.05880902 0.032260000000000004 0.071201 0.015088999999999997
25940 -7.1557181100000005 5.37816573 4.07167974 0.032264999999999995 0.074388 0.017222
25960 -7.166499300000001 5.36589342 4.078115100000001 0.033317 0.07437200000000001 0.020434
25980 -7.128927000000001 5.373525600000001 4.05716094 0.033303 0.071176 0.020438
26000 -7.12727892 5.3792154 4.05806346 0.03437 0.070111 0.019378
26020 -7.146889110000001 5.4066049199999995 4.08590424 0.036503 0.069043 0.018326
26040 -7.15093083 5.406310620000001 4.07631987 0.037575 0.072227 0.020466
26060 -7.20675954 5.405260950000001 4.07946888 0.036499 0.07222200000000001 0.022595
26080 -7.22727225 5.37682176 4.102218270000001 0.035456 0.07543 0.020447
26100 -7.2115566300000005 5.34657753 4.09907907 0.032264999999999995 0.07651000000000001 0.019355
26120 -7.18505982 5.3447823 4.05357048 0.026921 0.073338 0.018254
26140 -7.132066200000001 5.3561619 4.0200399 0.021563 0.064847 0.015022999999999996
26160 -7.11740025 5.386102020000001 3.99189501 0.015142 0.060608 0.014983000000000003
26180 -7.155865260000001 5.43609378 3.9353207400000003 0.011937 0.059554 0.014962
26200 -7.15362858 5.45675364 3.94025517 0.009817 0.061696 0.013876
26220 -7.20211941 5.44343166 3.9392055000000004 0.00234 0.057470000000000014 0.011693
26240 -7.197930540000001 5.410352340000001 3.94070643 -0.006229 0.04686 0.008442
26260 -7.158867120000001 5.39612784 3.9619647000000002 -0.007281 0.045815 0.004163
26280 -7.16590089 5.41169631 3.98291886 -0.0072 0.05755900000000001 -0.0022600000000000003
26300 -7.15466844 5.40899856 3.9740898600000003 -0.007142 0.066098 -0.006544
26320 -7.158415860000001 5.419779750000001 3.9454937100000005 -0.00287 0.066087 -0.0075819999999999985
26340 -7.18146936 5.44238199 3.90851982 0.0013310000000000002 0.051159 -0.007534000000000002
26360 -7.17937002 5.436996300000001 3.8669058 -0.006243 0.031993 -0.0032890000000000003
26380 -7.19419293 5.4446284799999995 3.8315799900000003 -0.010616 0.009633 -0.002223
26400 -7.167244860000001 5.410195379999999 3.81945483 -0.009645 -0.0053100000000000005 0.004212
26420 -7.17907572 5.42112372 3.84190992 -0.007578 -0.014925999999999997 0.00958
26440 -7.1654496299999995 5.40331857 3.8610688500000006 -0.012922 -0.011733 0.01488
26460 -7.15856301 5.43534822 3.8440092600000004 -0.016065 -0.002121 0.011641
26480 -7.17099228 5.4518094 3.8471484600000005 -0.017108 -0.002096 0.006293
26500 -7.21649106 5.494924350000001 3.8597248800000004 -0.019227 -0.00632 -0.001194
26520 -7.23925026 5.49102978 3.8369754900000004 -0.026624 -0.001986 -0.013002
26540 -7.19807769 5.47785495 3.82110291 -0.027604000000000004 0.00446 -0.025836
26560 -7.213803120000001 5.49881892 3.80104146 -0.025408 0.00663 -0.037574
26580 -7.209006030000001 5.48504568 3.79355643 -0.024289 0.008795 -0.047183
26600 -7.172787510000001 5.508540630000001 3.77335764 -0.026355 0.019473 -0.051484
26620 -7.180713990000001 5.52171546 3.75059844 -0.018806 0.039678 -0.04932
26640 -7.16350725 5.508697590000001 3.7296442800000005 -0.009122 0.060937 -0.046075
26660 -7.15152924 5.494021830000001 3.7411710300000003 -0.003735 0.074758 -0.043919
26680 -7.13326302 5.45495841 3.7540417500000003 0.003714 0.076837 -0.03746
26700 -7.14748752 5.4287657099999995 3.7529920800000003 0.017519999999999997 0.079916 -0.020276
26720 -7.154374140000001 5.42815749 3.76871751 0.029208 0.086199 -0.003111
26740 -7.14165057 5.48489853 3.7854828 0.050488 0.08925599999999999 0.013057
26760 -7.15062672 5.53474314 3.7534433400000005 0.066452 0.092349 0.024915
26780 -7.193594520000001 5.6335396499999995 3.75119685 0.07072 0.097639 0.030279
26800 -7.23865185 5.66886546 3.7365309000000004 0.070686 0.094426 0.034556
26820 -7.256457000000001 5.61871674 3.70599237 0.060003 0.090207 0.033418
26840 -7.21230219 5.5401288300000004 3.6866862900000004 0.047162 0.077485 0.029072000000000008
26860 -7.19419293 5.5238148 3.6956624400000004 0.035393 0.06794700000000001 0.026866
26880 -7.19688087 5.51692818 3.7143799200000003 0.020448 0.057381 0.018229
26900 -7.233256350000001 5.52142116 3.72440574 0.002292 0.047878 0.012773
26920 -7.23655251 5.523363540000001 3.7238073300000005 -0.014797 0.034128 0.003058
26940 -7.228017810000001 5.484741570000001 3.74581116 -0.026561 0.022472 -0.002351
26960 -7.194340080000001 5.41214757 3.7546401600000006 -0.030838 0.015052 -0.007712
26980 -7.1301238200000014 5.400169560000001 3.7613796300000004 -0.029791 0.006543000000000001 -0.011967
27000 -7.128927000000001 5.43100239 3.79161405 -0.030910000000000007 -0.005171 -0.01196
27020 -7.09001073 5.50210527 3.8032879500000005 -0.025629 -0.015847 -0.010841
27040 -7.114555350000001 5.536685520000001 3.8390650200000005 -0.019232 -0.010568 -0.004394
27060 -7.1379031500000005 5.5383336000000005 3.89550195 -0.017103 -0.007397 -0.00011
27080 -7.1717378400000005 5.51333772 3.9763265400000005 -0.023461000000000003 -0.003092 -0.005501
27100 -7.162457580000001 5.49731799 4.01375169 -0.022332 0.00863 -0.007645
27120 -7.186855050000001 5.44357881 4.06344915 -0.020179 0.018189 -0.002301
27140 -7.16050539 5.393430090000001 4.00762044 -0.012793 0.012785 0.010576
27160 -7.13161494 5.353317 3.9727360800000002 -0.007492 0.010615 0.015957
27180 -7.159906980000001 5.3510705100000004 3.92678604 -0.007481999999999998 0.016988999999999997 0.020222
27200 -7.190445510000001 5.33610045 3.89474658 -0.013826 0.029795 0.020161
27220 -7.2334035 5.33370681 3.84221403 -0.022342 0.033025 0.01903
27240 -7.30166148 5.36080203 3.8062799999999997 -0.028729 0.03306 0.015780000000000002
27260 -7.319025180000001 5.344939260000001 3.7697573699999998 -0.020218 0.028765 0.016913
27280 -7.3450805400000005 5.393881350000001 3.69910575 -0.009539 0.027675 0.013785
27300 -7.33609458 5.44163643 3.6021142800000003 0.004349 0.028705 0.010676
27320 -7.33370094 5.475912570000001 3.5453732400000004 0.009722 0.035086 0.008569
27340 -7.30046466 5.50614699 3.5566056900000005 0.015075 0.038267 0.007534000000000002
27360 -7.290742949999999 5.541472800000001 3.5832496500000004 0.016156 0.042521 0.008604
27380 -7.29882639 5.54926194 3.62022354 0.015128 0.049985 0.007519
27400 -7.25840919 5.53983453 3.6465633900000003 0.01409 0.05532 0.006437000000000001
27420 -7.25975316 5.55674697 3.66348564 0.010817 0.043596 0.010702
27440 -7.18924869 5.563182330000001 3.7184216400000003 0.0064730000000000005 0.032933 0.017095
27460 -7.1739843300000015 5.575601790000001 3.7281433500000003 0.006368 0.020107 0.027792
27480 -7.175034000000001 5.57770113 3.71722482 0.004152 0.006249 0.032068
27500 -7.2253200600000005 5.55719823 3.77335764 -0.00655 -0.002232 0.030936
27520 -7.2646974 5.503753350000001 3.81406914 -0.019242 0.00746 0.015879
27540 -7.2554171400000005 5.45525271 3.8318841000000003 -0.027614 0.032038 0.004039
27560 -7.22158245 5.401513530000001 3.84745257 -0.026365 0.064026 -0.004539
27580 -7.199725770000001 5.4286087499999995 3.82708701 -0.01771 0.088506 -0.006645999999999999
27600 -7.236405360000001 5.473214820000001 3.79924623 -0.002769 0.08845800000000001 -0.00761
27620 -7.24552866 5.47636383 3.83592582 0.012052 0.070266 -6e-06
27640 -7.23984867 5.448218939999999 3.84310674 0.016166 0.046773 0.010735
27660 -7.2507672 5.40211194 3.85822395 0.024562 0.026461 0.021502
27680 -7.251816870000001 5.3940285 3.81646278 0.027671 0.014697 0.030085
27700 -7.22277927 5.3730743400000005 3.78817074 0.018079 0.01474 0.027881
27720 -7.1867079 5.385503610000001 3.7788904800000003 0.006435 0.024411 0.017105000000000002
27740 -7.192692 5.405408100000001 3.7513538100000012 -0.010549 0.030913 0.0041600000000000005
27760 -7.159465530000001 5.413638689999999 3.7922124600000005 -0.026461 0.035294 -0.01198
27780 -7.18520697 5.423517360000001 3.79835352 -0.031742 0.038542 -0.020567
27800 -7.20452286 5.472018 3.84221403 -0.023207 0.03639 -0.022641
27820 -7.20048114 5.4768150900000006 3.8690051400000005 -0.020031 0.031053 -0.022612
27840 -7.222328010000001 5.461246620000001 3.87978633 -0.016878 0.023572 -0.019376
27860 -7.23610125 5.485339980000001 3.90897108 -0.01905 0.019302 -0.015113
27880 -7.2293617800000005 5.54072724 3.8898121500000005 -0.015869 0.022456 -0.007617
27900 -7.19479134 5.575601790000001 3.86137296 -0.011596 0.028812 -0.002254
27920 -7.178467500000001 5.56108299 3.8713987800000003 -0.001985 0.036214 0.003144
27940 -7.17054102 5.557639679999999 3.8505917700000003 0.005488 0.039375 0.005329
27960 -7.16140791 5.50899189 3.7941646500000004 0.008684 0.039359 0.00642
27980 -7.12069641 5.44148928 3.72949713 0.009755 0.038299 0.004292
28000 -7.04569896 5.34358548 3.68698059 0.008684 0.037237 0.004286
28020 -7.08132888 5.2898463 3.7302426900000003 0.002258 0.035116 0.0074480000000000015
28040 -7.14928275 5.323828140000001 3.7955086200000006 0.00222 0.030838 0.011726
28060 -7.231166820000001 5.38864281 3.88906659 7.2e-05 0.028711 0.012782
28080 -7.285347450000001 5.472920520000001 3.95238033 -0.001024 0.023384 0.01385
28100 -7.343128350000001 5.5402759800000005 3.9580701300000003 -0.00533 0.013816 0.012764
28120 -7.30181844 5.575601790000001 3.92678604 -0.011755 0.007451 0.011659
28140 -7.235806950000001 5.57755398 3.8863688400000003 -0.019194 0.010686 0.008398000000000001
28160 -7.183863 5.54746671 3.8079280800000004 -0.019108 0.023494 0.001973
28180 -7.118891370000001 5.49088263 3.7791945900000004 -0.020083 0.038433 -0.003394
28200 -7.06755564 5.459000130000001 3.75074559 -0.015754 0.048023 -0.007648999999999999
28220 -7.08955947 5.43400425 3.70704204 -0.008262 0.053323 -0.007604
28240 -7.105275090000001 5.45945139 3.7223064000000003 -0.002942 0.053291 -0.004362
28260 -7.1421018300000005 5.43788901 3.74431023 0.0066170000000000005 0.051098000000000005 0.0031850000000000003
28280 -7.202276370000001 5.510041560000001 3.7979022600000003 0.012951 0.042527 0.00965
28300 -7.2474808500000005 5.55165558 3.8645121600000003 0.015022 0.029733 0.010749
28320 -7.24508721 5.53354632 3.8736452700000004 0.010697 0.021208 0.015003
28340 -7.24583277 5.48698806 3.9013389000000003 0.010693 0.021204 0.016071000000000002
28360 -7.206013980000001 5.4663281999999995 3.9312790200000003 0.007473 0.016954 0.016054
28380 -7.20257067 5.431600800000001 3.9537243 0.004267 0.012717 0.012832
28400 -7.189994250000001 5.40391698 3.9146608800000005 -0.0042 0.020234 0.005286
28420 -7.173827370000001 5.42980557 3.91211028 -0.011596 0.030934 -0.000121
28440 -7.16425281 5.4344456999999995 3.8534366700000002 -0.013692 0.03628 -0.003347
28460 -7.155423810000001 5.41439406 3.8062799999999997 -0.012615 0.036285000000000005 -0.005476
28480 -7.191946440000001 5.441783580000001 3.7829322000000003 -0.0094 0.037348 -0.007591
28500 -7.209908550000001 5.45360463 3.75778917 -0.011496 0.042694 -0.010817
28520 -7.21499994 5.45017113 3.78727803 -0.012543 0.045898 -0.011897
28540 -7.21320471 5.4387915300000005 3.80837934 -0.006171 0.042667 -0.008643999999999999
28560 -7.21454868 5.48040555 3.82708701 0.002306 0.034098 -0.0043
28580 -7.225928280000001 5.4890874 3.82439907 0.009741 0.030859 2.8000000000000006e-05
28600 -7.20780921 5.49207945 3.8125682100000002 0.011875 0.031913 0.00111
28620 -7.20556272 5.464238669999999 3.84490197 0.008712000000000001 0.038324 -0.001056
28640 -7.19283915 5.416336439999999 3.86316819 0.003426 0.047934 -0.002174
28660 -7.16485122 5.4007679699999995 3.9248338500000006 0.001292 0.049003 -0.0011220000000000002
28680 -7.1576703 5.3965791 3.9658494600000003 0.002373 0.049012 -0.004319
28700 -7.1479387800000005 5.436397889999999 3.93681186 0.00024 0.047958 -0.005401
28720 -7.1494298999999994 5.4660339 3.89789559 -0.000889 0.041541 0.002077
28740 -7.1359607700000005 5.49626832 3.90014208 -0.003143 0.025526 0.012764
28760 -7.141944870000001 5.48758647 3.89550195 -0.01174 0.01383 0.014855000000000004
28780 -7.116350580000001 5.508099179999999 3.8537407800000003 -0.01917 0.017072999999999998 0.009458
28800 -7.10647191 5.495522760000001 3.84745257 -0.024404 0.034157 0.004059
28820 -7.118891370000001 5.473214820000001 3.8248503300000003 -0.020055 0.046947 -0.001268
28840 -7.138207260000001 5.47995429 3.82155417 -0.015758 0.049079000000000005 -0.005514
28860 -7.174435590000001 5.44103802 3.8299319100000004 -0.007233 0.04798 -0.004385
28880 -7.19508564 5.4022689 3.8405659500000002 0.004483 0.0458 -0.002164
28900 -7.213950270000001 5.42786319 3.8257430400000003 0.014071 0.046815 0.002175
28920 -7.22652669 5.443284510000001 3.8428124400000003 0.018295 0.043578 0.008618
28940 -7.2588506399999995 5.485644090000001 3.8779812900000006 0.017146 0.030778 0.013967
28960 -7.24552866 5.42546955 3.8977484400000004 0.00642 0.020154 0.016041999999999997
28980 -7.22682099 5.4106466399999995 3.91270869 -0.001067 0.014858 0.014929
29000 -7.18714935 5.407203330000001 3.87453798 -0.005301 0.019147 0.011689
29020 -7.15871016 5.425920810000001 3.93681186 -0.005243 0.029808 0.009539
29040 -7.12668051 5.45420304 3.92169465 -0.004133 0.036208 0.006334
29060 -7.1147025 5.5024093800000005 3.91735863 -0.003018 0.040491 -7.3e-05
29080 -7.1349111 5.490735480000001 3.9176529300000005 -0.006185 0.043715 -0.004372
29100 -7.14014964 5.46857469 3.9273844500000004 -0.004037 0.050087 -0.001161
29120 -7.156169370000001 5.4572049 3.9182513400000003 -0.000851 0.051124 0.003133
29140 -7.1596126799999995 5.435201070000001 3.90851982 -0.003023 0.048975 0.00953
29160 -7.187002199999999 5.4253224 3.9188497500000006 -0.003057 0.04364 0.011673
29180 -7.22277927 5.45316318 3.8811303 -0.007367 0.035129 0.012722
29200 -7.23400191 5.48758647 3.8913032700000003 -0.006281 0.038325 0.011657
29220 -7.2253200600000005 5.52142116 3.8408602500000004 -0.003047 0.042588 0.00847
29240 -7.200177030000001 5.49776925 3.83427774 -0.001952 0.044732 0.004202
29260 -7.160063940000001 5.441332320000001 3.83681853 -0.001928 0.044753 -0.001139
29280 -7.16066235 5.367541500000001 3.82739112 -0.004033 0.050091 -0.002229
29300 -7.13969838 5.32203291 3.86421786 -0.002908 0.06287000000000001 -0.0022370000000000003
29320 -7.17712353 5.32636893 3.8941481700000002 -0.005047 0.062874 -0.001184
29340 -7.23056841 5.38280586 3.92453955 -0.002961 0.053274 -8.9e-05
29360 -7.256309850000001 5.406310620000001 3.9401080200000003 -0.00731 0.038363 0.003104
