time Ax Ay Az Gx Gy Gz
20 -0.92672127 9.47110374 0.36867942 -0.619089 0.335451 -1.032384
40 -1.49614272 9.793087560000002 0.4543011 -0.8564930000000001 0.587019 -1.133709
60 -1.8820386900000001 9.880651620000002 0.7689470400000001 -1.111162 0.7430939999999999 -1.0491620000000002
80 -2.11090599 9.84891627 1.23837516 -1.26625 0.732675 -0.97332
100 -1.91122344 9.863140770000001 1.68250329 -1.462869 0.649261 -0.988473
120 -0.76176612 9.78605379 2.08605726 -1.611016 0.445244 -0.989247
140 -0.14864112000000002 9.999205470000001 1.52577873 -1.618513 0.171724 -0.780645
160 0.0059841 10.49931927 0.44143038000000007 -1.45159 -0.125174 -0.471451
180 0.3013239600000001 9.869272020000002 -0.51343578 -1.14498 -0.506444 -0.229539
200 -0.07543890000000002 9.464815530000001 -0.8104139100000001 -0.8536950000000001 -0.630401 -0.119455
220 -0.36284247000000003 10.266547590000002 -0.33126408 -0.6315149999999999 -0.507857 -0.055035
240 -0.9512757000000001 12.21789393 0.66447054 -0.4698 -0.383733 -0.066883
260 -0.90696393 12.9968766 1.2747506400000002 -0.384301 -0.255625 -0.209592
280 -0.9686394 11.58410907 2.11779261 -0.33565900000000004 -0.196875 -0.29158
300 -1.39180356 11.24267202 2.53034235 -0.276833 -0.181033 -0.308281
320 -1.95822315 11.50552116 2.8636959600000003 -0.165392 -0.32942 -0.326541
340 -2.02633398 11.42439246 2.29307769 0.004294 -0.598288 -0.368808
360 -1.3409092800000002 10.095608340000002 2.17228716 0.191552 -0.964274 -0.381986
380 -1.21127994 8.92174374 2.2210821000000003 0.30177 -1.294118 -0.309223
400 -0.8960355900000001 8.00909982 2.31163821 0.259983 -1.5412370000000002 -0.27928800000000004
420 -1.17669969 7.84712691 2.6571267900000004 0.22533000000000006 -1.703907 -0.32846
440 -1.7866854900000002 7.8200415 3.2591763000000005 0.21420100000000006 -1.814623 -0.336941
460 -2.66325804 8.211323160000001 3.7362267900000004 0.26199 -1.833024 -0.305605
480 -3.3932888100000005 8.21251998 3.67770033 0.4172 -1.917878 -0.265957
500 -3.5968659300000003 7.208564580000001 3.42681939 0.589476 -2.019771 -0.24219
520 -3.6489668400000004 6.59438991 2.8972265400000006 0.760895 -2.087521 -0.231292
540 -3.97034244 6.45367527 2.54665638 0.8581 -2.080327 -0.24985
560 -4.18245426 6.592290570000001 2.45549205 0.931346 -1.948394 -0.273008
580 -4.07751669 6.82056927 2.69035326 0.929922 -1.817253 -0.299892
600 -3.7402685100000004 7.028933670000001 2.9823969600000004 0.929155 -1.584732 -0.371766
620 -3.5893907100000004 7.5974526000000004 3.2796792000000003 1.016352 -1.4909709999999998 -0.451394
640 -3.2918043600000004 7.78096827 3.3959865600000008 1.209025 -1.426354 -0.527043
660 -2.77792713 7.7335173 3.7679621400000003 0.859554 -1.583655 -0.31457
680 -2.2498254 7.754030010000001 3.90777426 0.615739 -1.546176 -0.151815
700 -1.63624914 7.6984956 3.38237028 0.581873 -1.437592 -0.10412
720 -0.5803399800000001 7.81524441 2.79723321 0.443636 -1.367737 -0.137222
740 0.18950957999999998 8.37777924 2.85231636 0.443855 -1.501121 -0.081502
760 0.54950715 8.90932428 2.9776096800000005 0.646304 -1.559349 -0.081082
780 0.9469298700000001 9.37186578 3.06143613 0.631778 -1.230131 -0.080537
800 1.46230803 10.34828451 3.59941653 0.556757 -0.83888 -0.08904
820 1.8935654400000002 12.69240363 3.1181673600000006 0.465795 -0.481471 -0.145681
840 1.32609618 13.704903540000002 3.60420381 0.325614 -0.16433599999999998 -0.211159
860 1.0591955100000001 15.619423140000002 0.19609209 0.207017 0.020428 -0.226111
880 -0.34458605999999997 12.785961600000002 -1.9519447500000002 0.15152100000000002 0.092753 -0.14968
900 -2.1197448 9.35644446 -1.2873270600000002 0.124605 0.119154 -0.068717
920 -2.9238705 8.8120287 -1.0506608100000001 0.144913 0.170045 -0.025911
940 -1.97843175 10.047107700000002 -0.30192237 0.180244 0.218839 -0.0043630000000000006
960 -0.58617693 10.552460040000001 0.28141947 0.148071 0.191216 0.005062
980 -0.16660323000000002 10.206373050000002 0.78975405 0.121102 0.141178 0.020961
1000 0.46149183000000005 9.83245509 1.04946399 0.102721 0.057205 -0.00897
1020 0.39008484000000004 9.7490799 0.90277506 0.042962 0.002229 -0.06166
1040 -0.17019369 10.080039870000002 0.9202859100000002 -0.081492 -0.023532 -0.171455
1060 -0.5236087500000001 10.50410655 1.04677605 -0.195339 -0.08546000000000001 -0.303562
1080 -0.96115437 10.39513707 0.70458363 -0.267939 -0.164828 -0.372333
1100 -0.9812060100000001 9.605226060000001 0.6104272500000001 -0.347318 -0.21162 -0.32369000000000003
1120 -1.0057604400000002 9.09448803 0.5620835700000001 -0.4119 -0.244795 -0.230095
1140 -0.8566680600000001 8.82759717 0.68796549 -0.404604 -0.16858199999999998 -0.114773
1160 -0.8565209100000001 8.776251629999999 0.50774598 -0.33831999999999995 -0.08805299999999999 -0.064207
1180 -1.0553009400000002 9.067696920000001 0.38424789000000004 -0.31828 -0.111671 -0.036263
1200 -1.1335945500000002 9.19792467 0.50265459 -0.329541 -0.086805 -0.117559
1220 -1.02731301 9.39536073 0.8014377600000001 -0.479484 -0.13783800000000002 -0.278774
1240 -0.8809183800000001 9.39775437 1.40677362 -0.589685 -0.170733 -0.481395
1260 -0.9125065800000001 9.65836683 1.8282995100000001 -0.778644 -0.34312800000000004 -0.628841
1280 -1.3760879400000001 10.71636552 1.79132562 -0.93199 -0.404938 -0.755883
1300 -1.63624914 11.005417170000001 1.4076761400000002 -1.000468 -0.299947 -0.845158
1320 -1.34734464 9.52290054 1.3897140300000002 -0.8661129999999999 -0.171145 -0.93732
1340 -1.3632172200000001 8.449480529999999 1.17325638 -0.729358 -0.105665 -0.914016
1360 -1.5167927700000001 7.6208004 1.1017120500000002 -0.727459 -0.080417 -0.8360549999999999
1380 -1.6995628800000002 7.84279089 0.84573972 -0.786679 -0.105097 -0.740297
1400 -2.03845914 7.872279750000001 0.67449636 -0.735575 -0.108553 -0.719639
1420 -2.4578856900000003 8.33317317 1.2742993800000002 -0.65108 0.074787 -0.820765
1440 -2.84138802 8.81786565 1.5539138099999998 -0.6497350000000001 0.104738 -0.852841
1460 -2.9500632 8.74406502 2.5146169200000004 -0.651796 0.017807 -0.956361
1480 -2.7223927199999998 8.25937254 2.7038322 -0.6286470000000001 -0.126856 -1.029722
1500 -2.3872340700000003 8.59168629 2.9806017300000005 -0.712164 -0.17564000000000002 -1.012083
1520 -1.9699068600000003 8.33676363 2.7526271400000004 -0.854167 -0.14765599999999998 -0.960768
1540 -1.9050921900000002 8.25279003 2.3414311800000007 -0.8863120000000001 -0.100984 -0.883072
1560 -1.7205268500000002 8.39379897 2.08890216 -0.753201 0.063738 -0.899445
1580 -1.80914058 8.14261392 2.59949304 -0.763464 -0.05671 -0.872656
1600 -2.2643442 6.50712015 2.7990284400000003 -0.761746 0.042539 -0.918705
1620 -2.23065666 7.11125919 3.3858135899999997 -0.817932 -0.090523 -0.894358
1640 -2.6930510100000005 8.21356965 3.66662484 -0.8227479999999999 0.004385 -0.914809
1660 -3.5188862400000005 8.385558569999999 3.5916273900000006 -0.85585 0.004475 -0.908631
1680 -4.11763959 9.5959458 3.6185754600000006 -0.956149 0.032399000000000004 -0.878389
1700 -3.9116688300000004 9.846522629999999 3.70629648 -1.0464639999999998 0.151876 -0.841786
1720 -3.6784458900000003 8.85888126 3.99653514 -1.201566 0.121286 -0.7830090000000001
1740 -2.6556258600000002 8.37777924 4.04653671 -1.283705 0.133252 -0.773984
1760 -2.49995097 7.3862433 4.016449440000001 -1.44957 0.172533 -0.8627870000000001
1780 -2.8708768800000004 7.84369341 4.2349966199999995 -1.6799400000000002 0.17128 -0.882555
1800 -3.5814544200000005 7.74834021 4.01166216 -1.966286 0.103996 -0.8577629999999999
1820 -3.9908551500000002 8.032143510000001 4.258942830000001 -2.205701 -0.186165 -0.815267
1840 -3.97528668 7.3290608100000005 3.76542135 -2.390963 -0.7355189999999999 -0.736808
1860 -3.64806432 7.57140705 4.50473238 -1.696591 -1.183378 -0.429077
1880 -3.7296442800000005 7.79579118 4.74767703 -0.872612 -0.154967 -0.183221
1900 -3.80433762 8.462204100000001 4.79288151 -0.182372 0.085355 -0.407308
1920 -3.79027008 8.39978307 4.85440983 -0.011245 0.269645 -0.5548310000000001
1940 -3.79670544 7.91374662 4.6502343 0.164722 0.414221 -0.631768
1960 -3.9246867 7.2952261200000015 4.96996182 0.282432 0.484152 -0.6395810000000001
1980 -4.59813339 7.00228971 5.1304338000000005 0.280833 0.465646 -0.539155
2000 -4.957689510000001 6.53436252 5.523363540000001 0.149751 0.322043 -0.47793
2020 -5.1275889 6.07272354 6.64797213 -0.08208700000000001 0.108346 -0.383136
2040 -5.4268135200000005 6.343057710000001 7.948022760000001 -0.33915500000000004 0.035124 -0.231014
2060 -7.15033242 7.509584429999999 9.86044302 -0.499989 -0.029753 -0.117754
2080 -9.48697632 7.82138547 11.419448220000001 -0.48459 -0.130081 -0.083335
2100 -12.068801550000002 3.2355243900000006 9.99695898 -0.389467 -0.137686 -0.128594
2120 -9.06499917 2.5953041700000004 9.04643865 -0.29631 -0.121793 -0.187784
2140 -6.2128299600000005 1.88667882 8.081242560000002 -0.173026 -0.075009 -0.272441
2160 -5.43624093 1.44389466 6.906338100000001 -0.038892 -0.003698 -0.373076
2180 -5.96524518 1.1951130600000002 6.3917055 0.055332000000000006 0.017497 -0.426925
2200 -6.80709033 1.53161568 6.60726063 0.085142 0.000361 -0.429899
2220 -6.93358047 2.24907003 6.66578709 0.130998 0.012916 -0.412503
2240 -6.36790644 2.68257393 6.7916788200000004 0.149996 -0.043568 -0.4229810000000001
2260 -5.59431927 3.0341937600000004 7.09793721 0.096374 -0.134875 -0.453148
2280 -5.068307070000001 3.36979386 6.90619095 -0.005404 -0.216597 -0.440936
2300 -4.92461019 3.95268444 6.557268870000001 -0.047357 -0.20827 -0.35578200000000004
2320 -5.06770866 4.01360454 6.601570830000001 -0.052027 -0.169356 -0.226609
2340 -5.53713678 4.02946731 7.00183845 -0.073388 -0.07699600000000001 -0.128601
2360 -6.01224489 4.25968839 7.61706279 -0.110618 -0.008863 -0.085151
2380 -6.23842425 4.47299703 7.79548707 -0.105164 0.030482 -0.072345
2400 -6.170470379999999 4.312083600000001 7.5458127600000005 -0.069588 0.096469 -0.08820399999999999
2420 -5.74191072 3.8315799900000003 7.1923977 0.061451 0.220936 -0.159019
2440 -5.30242272 3.38969835 7.093297080000001 0.20917600000000006 0.271793 -0.217873
2460 -5.1224975100000005 2.95455618 7.166048040000001 0.283457 -0.002454 -0.16466
2480 -5.1771294 2.79124911 6.937926300000001 0.220819 0.106261 -0.124644
2500 -5.29912656 2.52030672 7.009470629999999 0.094507 0.115875 -0.021921
2520 -5.52515877 2.12931936 6.8850798300000005 0.047644 -0.027017000000000003 0.054847
2540 -5.89399515 1.49269941 7.271878320000001 -0.026211 0.147982 0.045561
2560 -6.324644340000001 1.58999499 7.442827380000001 -0.086812 0.152626 0.002403
2580 -6.637200750000001 2.01660246 7.649239590000001 0.004639 0.198614 -0.121999
2600 -6.72581448 2.7562176 7.659422370000001 0.163191 0.22411 -0.241634
2620 -6.368357700000001 2.8776163500000003 7.779173040000001 0.26350500000000004 0.179223 -0.29215
2640 -5.907915540000001 2.8569564900000004 7.5181191300000005 0.244716 0.091704 -0.234485
2660 -5.46199218 2.80127493 7.3603449 0.09223 -0.029603 -0.13605
2680 -5.25991599 2.5140185100000005 7.216039800000001 -0.058816 -0.12617799999999998 -0.096389
2700 -5.60928933 2.25805599 6.6303141299999995 -0.183603 -0.34735 -0.0895
2720 -5.3431342200000005 2.91189249 7.5694548600000005 -0.317262 -0.8901680000000001 -0.091874
2740 -5.29883226 3.19181103 7.361845830000001 -0.430018 -1.598853 0.074889
2760 -5.81630976 3.1581333000000003 6.69721833 -0.352825 -1.261386 0.330301
2780 -5.908513950000001 3.87783414 7.44581943 -0.031265 0.14411500000000002 0.217514
2800 -6.439911840000001 4.593797370000002 7.1437401000000005 0.070017 0.717374 0.094642
2820 -6.828201450000001 4.0163022900000005 6.83253747 -0.0005809999999999999 0.812837 -0.007455
2840 -6.80320557 3.1557396600000005 6.67102563 -0.124165 0.807057 -0.053176
2860 -6.53077206 2.55055095 6.79122756 -0.012137 0.534103 -0.08943200000000001
2880 -6.15684429 2.30490855 7.003035270000001 0.16400399999999998 0.317249 -0.091128
2900 -5.86195569 2.3635821600000004 7.055724780000001 0.232497 0.162402 -0.0552
2920 -5.76884898 2.91488454 6.89331042 0.151116 -0.096356 -0.010571
2940 -5.647901490000001 2.96383644 6.535559340000001 -0.028071 -0.283378 0.027941000000000004
2960 -5.134769820000001 2.9079979200000006 5.8109142600000006 -0.1275 -0.310805 0.046509
2980 -4.35953457 2.15880822 6.29740197 -0.110999 -0.20537800000000006 0.041149
3000 -5.84819226 1.58071473 8.262963000000001 -0.029208 -0.070283 0.019114
3020 -8.82564498 3.40945569 9.86044302 -0.028518 0.074627 0.010387
3040 -8.5114503 3.01458357 8.70634557 -0.058188 0.113106 0.003722
3060 -7.14569229 2.9057612400000004 7.958205540000001 -0.083798 0.104703 -0.003924
3080 -6.2427700800000006 2.70891378 7.5157254899999995 -0.104183 0.085574 0.002367
3100 -5.511238379999999 2.67688413 7.068448350000001 -0.125684 0.080198 0.033201999999999995
3120 -4.778666820000001 2.5848270899999997 6.730454610000001 -0.141941 0.07153999999999999 0.08117
3140 -4.4396136 2.67958188 6.57193482 -0.143405 0.020262 0.118613
3160 -4.470004980000001 2.79019944 6.8473603800000005 -0.146822 -0.015992 0.130386
3180 -4.96292805 2.7774758700000004 7.56421632 -0.139258 -0.029726 0.095205
3200 -5.59341675 2.8868966100000004 7.8781167 -0.123106 -0.042382 0.049401
3220 -5.9314203 2.87866602 7.729181280000001 -0.115581 -0.060394 0.018498
3240 -6.042489120000001 2.6806217400000003 7.3824958800000005 -0.101668 -0.064648 0.004714
3260 -6.05071971 2.61716085 7.56481473 -0.055659 -0.056201 -0.01634
3280 -5.89997925 2.6839179 7.6990940100000005 -0.016051 -0.050915 -0.040639
3300 -5.71556106 2.8120561200000003 7.73516538 0.00865 -0.026453 -0.052249
3320 -5.31110457 2.9023179300000006 7.49880324 0.030160000000000006 0.002273 -0.061749
3340 -5.037327090000001 2.85022683 7.30810665 0.03449 0.006558 -0.071338
3360 -5.17129245 2.8116048600000005 7.270975800000001 0.009933 -0.000801 -0.074705
3380 -5.38729884 2.8821093300000005 7.387734419999999 -0.000741 0.005598 -0.06731000000000001
3400 -5.54701545 2.9924227800000005 7.3187308799999995 0.024912 0.019345 -0.063944
3420 -5.74729641 3.06652752 7.2093101399999995 0.051626 0.030961 -0.061636
3440 -5.87737701 2.9491704899999998 7.26394203 0.065572 0.038408 -0.071162
3460 -5.953865580000001 2.79962685 7.35795126 0.08591 0.037335 -0.087042
3480 -5.972426100000001 2.7086194800000003 7.393277070000001 0.095636 0.05545 -0.096611
3500 -5.817202470000001 2.6204472000000005 7.432791750000001 0.08089199999999999 0.11615 -0.07863200000000001
3520 -5.6019514500000005 2.5653640500000003 7.4922207300000006 0.061698 0.148055 -0.048897
3540 -5.4783062099999995 2.50219746 7.6261959 0.055402 0.191672 -0.028701
3560 -5.510041560000001 2.38678281 7.6830742800000005 0.051312 0.242773 -0.017044
3580 -5.60314827 2.3224194000000002 7.782763500000001 0.040572 0.236381 -0.007497
3600 -5.682933 2.2614993 7.85865366 0.016880000000000003 0.195948 0.000935
3620 -5.754183030000001 2.3616397800000004 7.757620470000001 -0.000659 0.103283 0.012682
3640 -5.74760052 2.44157166 7.53876918 -0.015931 0.033011 0.016937999999999998
3660 -5.69595087 2.54321307 7.4483602200000005 -0.02894 -0.013812 0.015839
3680 -5.64311421 2.61880893 7.54460613 -0.040761 -0.036128 0.01258
3700 -5.61168297 2.6541347400000004 7.6272357600000005 -0.039809 -0.061699 0.01262
3720 -5.631891570000001 2.62404747 7.62424371 -0.039905 -0.087248 0.008379000000000001
3740 -5.7670537500000005 2.56371597 7.6350248999999994 -0.03992 -0.092566 0.006249
3760 -5.821097040000001 2.48857137 7.587269820000001 -0.047445 -0.103201 0.008347
3780 -5.78726235 2.57794047 7.44417135 -0.060329 -0.120204 0.009347
3800 -5.78621268 2.7081682199999997 7.49102391 -0.075313 -0.13398800000000002 0.006055
3820 -5.573659409999999 2.7690883200000003 7.494761520000001 -0.086011 -0.143525 0.002788
3840 -5.49177534 2.57494842 7.377855750000001 -0.082623 -0.109418 -0.00471
3860 -5.5323495 2.4941140200000005 7.28938917 -0.06949 -0.045509 -0.014314
3880 -5.5401288300000004 2.5939602 7.27487037 -0.039373000000000005 0.0055320000000000005 -0.017374
3900 -5.66466678 2.5950000600000007 7.32127167 -0.020007 0.042745 -0.016218
3920 -5.751936540000001 2.62448892 7.39162899 -0.013596 0.046975 -0.014042
3940 -5.7591272700000005 2.65906917 7.40749176 -0.007176 0.04697 -0.01827
3960 -5.74879734 2.65098573 7.36812423 0.001321 0.035235 -0.0214
3980 -5.813906310000001 2.6448544800000002 7.369026750000001 0.001244 0.025618 -0.013911
4000 -5.86599741 2.6417054700000002 7.421117850000001 -0.008372 0.038371 0.002029
4020 -5.924533680000001 2.61700389 7.379052570000001 -0.011553 0.05855800000000001 0.018004
4040 -5.92841844 2.63856627 7.37007642 -0.00188 0.079809 0.023385
4060 -5.934255390000001 2.6158070700000002 7.400163689999999 0.006640999999999999 0.077644 0.024516
4080 -5.8736394 2.6343675900000005 7.52425038 0.007665000000000002 0.066992 0.023469
4100 -5.760618389999999 2.5560837900000006 7.66466091 0.004459 0.06169400000000001 0.019180000000000003
4120 -5.68712187 2.4977044800000003 7.73965836 0.003378 0.056379999999999986 0.017043
4140 -5.632185870000001 2.4430725900000003 7.75267623 -0.0030280000000000003 0.054276 0.015933000000000003
4160 -5.560935840000001 2.4318401400000003 7.693100100000001 -0.005152 0.055353 0.014847999999999997
4180 -5.52800367 2.4788496600000003 7.68606633 -0.005128 0.059618 0.013775
4200 -5.5351944 2.47016781 7.693551360000001 -0.002985 0.061741 0.013787
4220 -5.529200490000001 2.44546623 7.71780168 0.000254 0.069191 0.012732
4240 -5.49612117 2.44771272 7.70253732 0.003455 0.071302 0.014888
4260 -5.57679861 2.43843246 7.745191200000001 0.004522 0.071298 0.014895
4280 -5.59880244 2.4813904499999997 7.717350420000001 0.005593 0.07236000000000001 0.014901
4300 -5.54371929 2.52974394 7.64115615 0.003455 0.068119 0.011687
4320 -5.49612117 2.5408194300000004 7.572603870000001 0.004522 0.063871 0.007427
4340 -5.55539319 2.5755468300000004 7.57784241 0.004526 0.061753 0.004225
4360 -5.59281834 2.56057677 7.56152838 0.007708 0.05642000000000001 0.003186
4380 -5.656141890000001 2.5569863100000005 7.590418830000001 0.003431 0.055366 0.004226
4400 -5.70852729 2.59231212 7.56212679 0.001292 0.054308 0.004212
4420 -5.71062663 2.58736788 7.561979640000001 0.000182 0.045785 0.0052840000000000005
4440 -5.68053936 2.5616264400000004 7.56751248 -0.00299 0.053249 0.00632
4460 -5.69520531 2.49636051 7.582031280000001 0.002359 0.057487 0.00742
4480 -5.67858717 2.4772015800000005 7.583679360000001 0.003412 0.054287 0.0074319999999999985
4500 -5.692664520000001 2.50444395 7.5812857199999995 -0.003004 0.051114 0.007391
4520 -5.7091257 2.4944083200000002 7.5736535400000005 -0.005171 0.043665 0.007384999999999998
4540 -5.72918715 2.49904845 7.528449060000001 -0.008376999999999999 0.04155 0.006298
4560 -5.74760052 2.50339428 7.522602300000001 -0.011582 0.042618 0.008409999999999999
4580 -5.7062808 2.5174618200000003 7.54521435 -0.008367 0.044741 0.007362
4600 -5.62904667 2.51806023 7.562421090000001 -0.00731 0.044729000000000005 0.009506
4620 -5.594613570000001 2.5469506800000006 7.564667580000001 -0.007348 0.037268 0.010583
4640 -5.6199135600000005 2.5313822100000003 7.5251529 -0.010563 0.034082999999999995 0.010565
4660 -5.60359953 2.52644778 7.56107712 -0.01274 0.023442 0.009495
4680 -5.60748429 2.56895451 7.566766920000001 -0.011683 0.020247 0.008438
4700 -5.654640960000001 2.56656087 7.565265989999999 -0.009544 0.017061 0.004184
4720 -5.61003489 2.5761452400000002 7.57934334 -0.006339 0.018115 0.004205
4740 -5.61392946 2.54994273 7.55254242 -0.006339 0.017054 0.003139
4760 -5.57829954 2.5152153299999997 7.55823222 -0.008463 0.020253 0.004188
4780 -5.60419794 2.49785163 7.59131154 -0.010597 0.019199 0.003106
4800 -5.623052760000001 2.51117361 7.586818560000001 -0.00632 0.020254 0.002066
4820 -5.651796060000001 2.51117361 7.57918638 -0.006329 0.017062 0.001002
4840 -5.667060419999999 2.51985546 7.522308000000001 -0.007401 0.018123 0.00313
4860 -5.6687085 2.5224060600000002 7.51362615 -0.008477 0.017057 0.004192
4880 -5.67649764 2.53273599 7.53713091 -0.009559 0.013865 0.004188
4900 -5.64401673 2.52449559 7.536228390000001 -0.008477 0.014935 0.002058
4920 -5.65554348 2.55488697 7.532186670000001 -0.007406 0.018119 0.004198
4940 -5.66571645 2.55488697 7.534580310000001 -0.007377 0.02451 0.00419
4960 -5.67649764 2.55488697 7.5517968600000005 -0.005234 0.026633 0.004202
4980 -5.689074060000001 2.54890287 7.54775514 -0.0041670000000000006 0.028751 0.006343
5000 -5.720201189999999 2.54486115 7.53039144 -0.005267 0.021298 0.006345
5020 -5.70703617 2.54874591 7.554337650000001 -0.007348 0.033024 0.006316
5040 -5.708076030000001 2.5412608800000003 7.55359209 -0.002014 0.030883 0.004219
5060 -5.6993941800000005 2.5439586300000006 7.5537392400000005 0.002278 0.03195 -2.5e-05
5080 -5.675752080000001 2.5451554499999998 7.55464176 0.002287 0.030898 -0.003228
5100 -5.6687085 2.5237500300000004 7.572456720000001 -0.001985 0.030909 -0.00219
5120 -5.662871550000001 2.49980382 7.57066149 -0.004124 0.030912 -0.001137
5140 -5.60539476 2.52210195 7.604339220000001 -0.004128 0.030908 -6.8e-05
5160 -5.625603360000001 2.52315162 7.58188413 -0.004128 0.031969 0.000998
5180 -5.61482217 2.5315391700000003 7.610323320000001 -0.004143 0.029834 0.002069
5200 -5.634138060000001 2.51716752 7.595804520000001 -0.003066 0.0309 0.001007
5220 -5.630390640000001 2.5195611600000003 7.5975997500000005 -0.000937 0.027705 -0.00111
5240 -5.62993938 2.49396687 7.5796376400000005 0.001196 0.028758 -2.8000000000000006e-05
5260 -5.61931515 2.4947124300000003 7.60238703 0.000125 0.029819 0.002099
5280 -5.59446642 2.50997679 7.6133153700000005 -0.002 0.031957 0.002082
5300 -5.60509065 2.5316863200000004 7.613766630000001 -0.000961 0.027684 0.004231
5320 -5.60164734 2.51611785 7.599699090000001 -0.003095 0.02663 0.003149
5340 -5.609132370000001 2.52719334 7.59894372 -0.004176 0.024499 0.004212
5360 -5.58982629 2.4977044800000003 7.5776952600000005 -0.004181 0.022373 0.003147
5380 -5.617068659999999 2.50923123 7.59370518 -0.003105 0.024499 0.003152
5400 -5.61766707 2.4878258100000004 7.60702716 -0.0031 0.025565 0.00315
5420 -5.59955781 2.50728885 7.5889179 -0.004148 0.02983 0.003137
5440 -5.61137886 2.50593507 7.600297500000001 -0.000942 0.029823 0.002092
5460 -5.63053779 2.51537229 7.60479048 -0.000923 0.034084 0.002086
5480 -5.62575051 2.51537229 7.59595167 0.000153 0.03621 0.002091
5500 -5.61242853 2.5065334800000003 7.60104306 0.000139 0.034076 0.0031620000000000003
5520 -5.615871840000001 2.50997679 7.61316822 -0.001985 0.038336 0.005278
5540 -5.6278498500000005 2.52001242 7.594460550000001 -0.003042 0.038348 0.003134
5560 -5.622454350000001 2.51238024 7.60658571 -0.0008990000000000002 0.040471 0.003147
5580 -5.61333105 2.5101337500000005 7.606428750000001 -0.000942 0.031945 0.004225
5600 -5.604796350000001 2.4975573300000002 7.61047047 -0.005191 0.037282 0.005257
5620 -5.594613570000001 2.4698637 7.58922201 -0.0019760000000000003 0.038344 0.0031420000000000003
5640 -5.588325360000001 2.4920146800000005 7.61541471 0.002297 0.036212 -3e-05
5660 -5.598360990000001 2.48842422 7.59999339 0.001239 0.038346 -4e-05
5680 -5.596261650000001 2.4944083200000002 7.618858020000001 -0.0008990000000000002 0.037288 -5.400000000000001e-05
5700 -5.60524761 2.51417547 7.633828080000002 -0.001966 0.038353 0.001005
5720 -5.61123171 2.50444395 7.63711443 -0.0030280000000000003 0.038361 -7e-05
5740 -5.579349209999999 2.5243484400000002 7.6293351000000005 -0.0019760000000000003 0.036222 0.001008
5760 -5.58114444 2.50997679 7.62289974 -0.004118999999999999 0.037282 0.004196
5780 -5.582341260000001 2.5084856700000002 7.649239590000001 -0.000928 0.03514 0.004221
5800 -5.59372086 2.51611785 7.6179555 -0.00198 0.037279 0.003143
5820 -5.602245750000001 2.5143226199999997 7.601641470000001 0.00123 0.038337 0.002096
5840 -5.60883807 2.4788496600000003 7.56856215 0.000153 0.037271 0.003158
5860 -5.59880244 2.5312350600000006 7.6059873 -0.000918 0.038332 0.005286
5880 -5.58084033 2.5234557300000002 7.624842120000001 -0.000923 0.037267 0.005287
5900 -5.568420870000001 2.52719334 7.62799113 0.001225 0.038333 0.003164
5920 -5.615871840000001 2.50339428 7.617661200000001 -0.002 0.033018 0.003148
5940 -5.599852110000001 2.5093783800000002 7.624390860000001 -0.003047 0.038344 0.004202
5960 -5.60120589 2.50025508 7.62034914 -0.0019760000000000003 0.040466 0.005275
5980 -5.594760720000001 2.49725322 7.607625570000001 -0.003038 0.039413 0.003133
6000 -5.586235830000001 2.48947389 7.62663735 -0.0019760000000000003 0.039405 0.004209
6020 -5.585637419999999 2.47825125 7.63352397 -0.003057 0.037274 0.005272
6040 -5.5679696100000005 2.4966548100000003 7.6231940400000004 -0.0019760000000000003 0.039405 0.004209
6060 -5.598959399999999 2.5104280500000002 7.649690850000001 -0.000918 0.037271 0.004219
6080 -5.594760720000001 2.51372421 7.617808350000002 0.000149 0.038328 0.005293
6100 -5.5821941100000005 2.5086328200000003 7.61182425 -0.000909 0.03834 0.003149
6120 -5.5961145000000005 2.51506818 7.63008066 -0.001971 0.039409 0.00314
6140 -5.59760562 2.4903665999999998 7.621997220000001 -0.0019760000000000003 0.038344 0.0031420000000000003
6160 -5.594162310000001 2.49097482 7.62888384 -0.001971 0.039409 0.00314
6180 -5.5875798 2.4962133600000005 7.61586597 -0.004128 0.035152 0.0041990000000000005
6200 -5.586382980000001 2.50279587 7.62694146 -0.004157 0.029821 0.005274
6220 -5.602245750000001 2.4813904499999997 7.62574464 -0.0041140000000000005 0.038347000000000006 0.004195
6240 -5.58384219 2.4957621000000003 7.61930928 0.002302 0.038338 0.001035
6260 -5.59850814 2.48213601 7.62125166 0.0033880000000000004 0.041534 -3e-05
6280 -5.590277550000001 2.4941140200000005 7.62020199 0.001239 0.040468 0.002093
6300 -5.56976484 2.50788726 7.621398810000001 -0.001961 0.040479 0.002071
6320 -5.5679696100000005 2.5026487200000003 7.61690583 -0.0008939999999999998 0.038353 -5.5e-05
6340 -5.58353808 2.51566659 7.641911520000001 -0.0041 0.039421 0.002057
6360 -5.5919256299999995 2.50025508 7.62993351 -0.003038 0.038352 0.002066
6380 -5.592524040000001 2.50399269 7.61316822 -0.003042 0.039409 0.004201
6400 -5.58428364 2.5014519 7.627539870000001 -0.00198 0.037279 0.003143
6420 -5.59281834 2.4920146800000005 7.61541471 -0.0019760000000000003 0.038344 0.0031420000000000003
6440 -5.595064830000001 2.48423535 7.6113729900000004 0.001225 0.038333 0.003164
6460 -5.57126577 2.45429523 7.620947550000001 0.001225 0.038333 0.003164
6480 -5.596565760000001 2.5012949399999997 7.619750730000001 0.00122 0.037268 0.003165
6500 -5.5920727800000005 2.52943983 7.628736689999999 0.000149 0.037267 0.004226
6520 -5.57096166 2.52300447 7.63143444 0.0012109999999999998 0.035137 0.003168
6540 -5.5938680100000004 2.51492103 7.63038477 -0.000937 0.033010000000000005 0.004224
6560 -5.601048929999999 2.4917203800000003 7.63442649 -0.000923 0.036206 0.004220000000000001
6580 -5.61333105 2.49126912 7.62409656 -0.003066 0.035144 0.005275
6600 -5.588482320000001 2.4977044800000003 7.60448637 -0.003066 0.035144 0.005275
6620 -5.5679696100000005 2.4974101800000006 7.609430610000001 -0.000918 0.038332 0.005286
6640 -5.57575875 2.4845296500000003 7.654183830000001 0.000153 0.039393 0.005292
6660 -5.58862947 2.5012949399999997 7.64505072 0.002287 0.037264 0.003173
6680 -5.5935639 2.49456528 7.63397523 0.002282 0.03726 0.004241
6700 -5.60628747 2.51327295 7.622595629999999 0.002282 0.038321 0.005308
6720 -5.604492240000001 2.498607 7.64655165 0.001225 0.039394 0.004231
6740 -5.61766707 2.49246594 7.614070740000001 0.002292 0.038329 0.003172
6760 -5.597762580000001 2.51791308 7.62034914 0.00016299999999999998 0.039402 0.0031550000000000003
6780 -5.58189 2.498607 7.62768702 -0.000918 0.038332 0.005286
6800 -5.572011330000001 2.4927700500000003 7.63083603 -0.000913 0.040458 0.006351
6820 -5.575601790000001 2.49021945 7.64370675 -0.000942 0.034067 0.006359
6840 -5.57724987 2.48947389 7.62304689 -0.003047 0.041527 0.007403
6860 -5.583243780000001 2.4941140200000005 7.626343050000001 0.002306 0.044708 0.006368
6880 -5.58069318 2.50114779 7.647444360000001 0.006587999999999999 0.045767 0.00426
6900 -5.58578457 2.4947124300000003 7.6134723300000005 0.00233 0.047912 0.004228
6920 -5.57260974 2.5086328200000003 7.64624754 0.0034020000000000005 0.050035 0.005301
6940 -5.58428364 2.5158137400000005 7.6273927200000005 0.001273 0.051108 0.005285
6960 -5.562731070000001 2.49995097 7.63876251 0.001263 0.048977 0.005287
6980 -5.563476629999999 2.5050423600000005 7.6324743 -0.0008699999999999999 0.047924 0.004205
7000 -5.5781523900000005 2.5143226199999997 7.624842120000001 -0.001961 0.045784 0.007405
7020 -5.5759058999999995 2.5084856700000002 7.65253575 -0.0019760000000000003 0.043649 0.008476000000000001
7040 -5.57516034 2.5098296400000004 7.62469497 0.001235 0.044708 0.007429000000000002
7060 -5.5935639 2.49815574 7.60867524 0.000173 0.044716000000000006 0.006353
7080 -5.572462590000001 2.4822831600000006 7.623645300000001 0.003368 0.043639 0.006377000000000001
7100 -5.576200200000001 2.4559433100000008 7.61840676 0.002306 0.04683 0.008502
7120 -5.58817821 2.49904845 7.633828080000002 0.002302 0.046826 0.00957
7140 -5.58788391 2.50877997 7.662561570000001 0.001244 0.046838 0.007426
7160 -5.5733553 2.51611785 7.62828543 0.001235 0.044708 0.007429000000000002
7180 -5.613174090000001 2.5152153299999997 7.625587680000001 0.002302 0.043643 0.006369
7200 -5.588031060000001 2.4788496600000003 7.649239590000001 0.001239 0.044712 0.006361
7220 -5.58937503 2.50339428 7.63667298 0.000168 0.045772 0.008487999999999999
7240 -5.582341260000001 2.5083385200000006 7.6148163 -0.00088 0.050037 0.008476000000000001
7260 -5.57575875 2.50713189 7.619005169999999 0.001254 0.051091 0.009557
7280 -5.57980047 2.50324713 7.59834531 0.001239 0.047895 0.009561
7300 -5.581742850000001 2.5102809 7.6350248999999994 -0.00088 0.051098000000000005 0.009542
7320 -5.5935639 2.51611785 7.629786360000001 0.000177 0.048964 0.009552
7340 -5.5839893400000005 2.5182171899999997 7.619750730000001 -0.0008849999999999998 0.050033 0.009544
7360 -5.60075463 2.49800859 7.62065325 0.001244 0.046838 0.007426
7380 -5.59880244 2.50669044 7.623351 0.002311 0.047895 0.008501
7400 -5.60614032 2.5038455400000004 7.6175140500000005 0.001263 0.050038 0.006354
7420 -5.596565760000001 2.50818156 7.61017617 0.001244 0.045777 0.006359
7440 -5.58862947 2.47959522 7.6034367000000005 0.00015800000000000002 0.04152 0.006357
7460 -5.579202060000001 2.5177659300000004 7.60538889 -0.002009 0.037253 0.009552
7480 -5.57111862 2.5134201000000003 7.598198160000001 -0.000889 0.052151 0.012746
7500 -5.588776620000001 2.51387136 7.622752590000001 0.003392 0.052148 0.009571
7520 -5.588776620000001 2.52719334 7.63727139 0.004483 0.053227 0.005304
7540 -5.5640750400000005 2.5207579800000004 7.613913780000001 0.00234 0.048982 0.003158
7560 -5.6079355500000005 2.53213758 7.6055360400000005 0.003412 0.048982 0.002098
7580 -5.6000090700000005 2.52974394 7.60807683 0.001259 0.04579 0.0031550000000000003
7600 -5.60120589 2.52030672 7.610029020000001 -0.0008939999999999998 0.042597 0.004212
7620 -5.59281834 2.5110264600000005 7.604339220000001 -0.001947 0.047919 0.006334
7640 -5.61542058 2.51372421 7.5829338 0.000182 0.048968 0.008484
7660 -5.598959399999999 2.50669044 7.64011629 0.000182 0.046846 0.006351
7680 -5.60329542 2.5143226199999997 7.6095777600000005 0.000168 0.04365 0.006355
7700 -5.61496932 2.51117361 7.604035110000001 0.00016299999999999998 0.041524 0.005289
7720 -5.588923770000001 2.52001242 7.584729030000001 0.001239 0.043651 0.005294
7740 -5.6000090700000005 2.50025508 7.60523193 0.003368 0.043639 0.006377000000000001
7760 -5.643712620000001 2.5204538700000003 7.63891947 0.004435000000000001 0.043635 0.006384
7780 -5.6278498500000005 2.5426146600000004 7.61915232 0.00016299999999999998 0.043646 0.007423000000000002
7800 -5.62380813 2.55593664 7.603583850000001 -0.001995 0.038327 0.0074150000000000015
7820 -5.59012059 2.5367777100000004 7.59266532 -0.003062 0.038331 0.007406999999999999
7840 -5.59566324 2.5147738800000004 7.5812857199999995 -0.00521 0.035143 0.007396
7860 -5.60973078 2.51551944 7.568856450000001 -0.003062 0.036209 0.005273
7880 -5.616774360000001 2.52644778 7.60658571 -0.00198 0.037279 0.003143
7900 -5.604796350000001 2.5373761200000002 7.6179555 0.001215 0.036202 0.003167
7920 -5.616323100000001 2.5102809 7.582482540000001 -0.000923 0.034084 0.002086
7940 -5.62844826 2.51941401 7.592508360000001 -0.00199 0.034087 0.002079
7960 -5.629497929999999 2.5253981100000003 7.60134717 -0.000942 0.030884 0.003159
7980 -5.64401673 2.5257022200000003 7.569160560000001 -0.002014 0.029822 0.003152
8000 -5.64746004 2.52719334 7.57664559 -0.00198 0.036218 0.002076
8020 -5.63293143 2.5364736000000003 7.5676596300000005 -0.001961 0.039418 0.001004
8040 -5.6338339500000005 2.5415649900000004 7.580687310000001 -0.0019760000000000003 0.0341 -0.001126
8060 -5.60120589 2.5224060600000002 7.60104306 -0.002019 0.026635 0.00102
8080 -5.61287979 2.5195611600000003 7.57425195 -0.0031100000000000004 0.025556 0.005287
8100 -5.60823966 2.51642196 7.54117263 -0.003047 0.038344 0.004202
8120 -5.6278498500000005 2.5143226199999997 7.594902 0.0012109999999999998 0.034076 0.002101
8140 -5.6248578 2.5406624700000005 7.601641470000001 0.002282 0.034077 0.00104
8160 -5.64341832 2.54171214 7.60568319 -0.000913 0.030909 -0.003251
8180 -5.6308419 2.5234557300000002 7.57934334 -0.003057 0.030908 -0.001129
8200 -5.625603360000001 2.52974394 7.61106888 -0.004109000000000001 0.033047 -0.002207
8220 -5.616921510000001 2.55398445 7.57903923 -0.003042 0.034104 -0.001133
8240 -5.59955781 2.51806023 7.607625570000001 -0.001985 0.035153 0.002078
8260 -5.604943500000001 2.5304895000000003 7.577244 -0.003066 0.031961 0.002074
8280 -5.62350402 2.54754909 7.590261870000001 -0.003066 0.0309 0.001007
8300 -5.620060710000001 2.52120924 7.590860280000001 -0.000933 0.030892000000000006 0.001022
8320 -5.61512628 2.50953534 7.59894372 0.00012 0.028754 0.0021
8340 -5.6223072 2.50728885 7.60523193 -0.002019 0.029818 0.004221
8360 -5.612281380000001 2.49949971 7.60134717 -0.000957 0.028749 0.004229
8380 -5.60823966 2.52360288 7.610627430000001 -0.000933 0.030892000000000006 0.001022
8400 -5.6338339500000005 2.5400640600000006 7.6059873 -0.002004 0.030892000000000006 0.002083
8420 -5.61886389 2.5560837900000006 7.5776952600000005 -0.00309 0.027695 0.003148
8440 -5.61856959 2.53991691 7.576194330000001 -0.003076 0.028769 0.00101
8460 -5.61901104 2.5367777100000004 7.57934334 -0.002004 0.030892000000000006 0.002083
8480 -5.62065912 2.51642196 7.62498927 -0.003071 0.030895 0.002075
8500 -5.62739859 2.51387136 7.59864942 -0.002009 0.031948000000000004 0.004218
8520 -5.614076610000001 2.51372421 7.59595167 -0.001995 0.031961 0.001013
8540 -5.6077884 2.51177202 7.603583850000001 -0.000952 0.028753 0.003161
8560 -5.632784280000001 2.5147738800000004 7.6208004 -0.000937 0.030888 0.00209
8580 -5.60644443 2.50818156 7.57470321 0.000125 0.03088 0.003166
8600 -5.609132370000001 2.5270461900000005 7.590860280000001 -0.000933 0.030892000000000006 0.001022
8620 -5.62216005 2.5114777200000002 7.59670704 -0.000928 0.033018 0.002088
8640 -5.63637474 2.5363264500000002 7.589820420000001 -0.00199 0.034087 0.002079
8660 -5.61527343 2.5204538700000003 7.605830340000001 -0.004128 0.031969 0.000998
8680 -5.61003489 2.4887283300000003 7.60523193 -0.002033 0.0245 0.002091
8700 -5.59671291 2.5152153299999997 7.6074784200000005 -0.005205 0.033025 0.004194
8720 -5.61960945 2.5086328200000003 7.602838290000001 -0.000904 0.038345 0.002081
8740 -5.59401516 2.52090513 7.623351 0.002287 0.035142 0.001039
8760 -5.5904247 2.5210620900000005 7.63547616 0.00123 0.035154000000000005 -0.001105
8780 -5.597762580000001 2.52929268 7.63397523 -0.000913 0.035153 0.001017
8800 -5.604796350000001 2.5101337500000005 7.615561860000001 -0.000909 0.034096 -0.001118
8820 -5.59296549 2.53183347 7.601641470000001 -0.001995 0.0309 -5.400000000000001e-05
8840 -5.59551609 2.50069653 7.627088610000001 -0.003042 0.034104 -0.001133
8860 -5.57724987 2.51970831 7.620947550000001 -0.00198 0.037279 0.003143
8880 -5.58368523 2.5042968 7.620947550000001 -0.000918 0.03621 0.003152
8900 -5.57800524 2.51642196 7.63187589 -0.000913 0.036214 0.002084
8920 -5.58862947 2.51177202 7.612569810000001 0.00016299999999999998 0.03728 0.001022
8940 -5.588776620000001 2.4977044800000003 7.61720994 0.000144 0.035141000000000006 0.003161
8960 -5.592524040000001 2.4923187900000006 7.61675868 -0.000928 0.034079000000000005 0.0031550000000000003
8980 -5.591023110000001 2.50399269 7.627088610000001 -0.002009 0.033009 0.005285
9000 -5.614223760000001 2.5288414200000005 7.621398810000001 -0.00199 0.035148 0.003146
9020 -5.5859317200000005 2.5426146600000004 7.625587680000001 0.000144 0.035141000000000006 0.003161
9040 -5.591474370000001 2.5273404900000003 7.648199730000001 0.000149 0.036206 0.003159
9060 -5.56303518 2.50100064 7.623351 -0.003052 0.035156 0.00207
9080 -5.589679139999999 2.51671626 7.6333768200000005 -0.003057 0.035152 0.003138
9100 -5.579349209999999 2.5098296400000004 7.6173570900000005 -0.00199 0.035148 0.003146
9120 -5.5961145000000005 2.5255452600000003 7.62574464 -0.001985 0.037275 0.004211
9140 -5.56437915 2.50638633 7.618858020000001 -0.001971 0.037287 0.001007
9160 -5.5877269499999995 2.50968249 7.62679431 0.00015800000000000002 0.037276 0.00209
9180 -5.58368523 2.4845296500000003 7.63143444 0.00016299999999999998 0.038341 0.002088
9200 -5.58084033 2.5008534900000003 7.64325549 0.000177 0.042598 0.003151
9220 -5.58039888 2.52644778 7.63412238 0.002321 0.04366 0.002097
9240 -5.5616814 2.51207613 7.609430610000001 0.00233 0.046851 0.003161
9260 -5.5821941100000005 2.51372421 7.63277841 0.000201 0.047924 0.003145
9280 -5.586235830000001 2.5110264600000005 7.63876251 0.000211 0.048994 0.002075
9300 -5.57980047 2.50518951 7.61675868 -0.0008560000000000001 0.048997000000000006 0.002068
9320 -5.57860365 2.5282430099999997 7.62888384 -0.001942 0.046862 0.0041990000000000005
9340 -5.570814510000001 2.4975573300000002 7.632180000000001 -0.004076 0.047931 0.005251
9360 -5.580241920000001 2.48498091 7.638016950000001 -0.003047 0.037283 0.003136
9380 -5.591023110000001 2.50100064 7.63891947 -0.006301 0.025576 0.003128
9400 -5.575601790000001 2.5228573200000004 7.64250993 -0.011721 0.011725 0.008449
9420 -5.558395050000001 2.5191099 7.64280423 -0.013869 0.009597 0.009505
9440 -5.572462590000001 2.5140185100000005 7.63711443 -0.010635 0.018104 0.010585
9460 -5.57171703 2.51372421 7.641460260000001 -0.004172 0.029808 0.008478
9480 -5.55943491 2.5084856700000002 7.641911520000001 0.002302 0.046826 0.00957
9500 -5.56871517 2.50294302 7.6552335000000005 0.007708 0.05642000000000001 0.003186
9520 -5.55180273 2.50908408 7.629786360000001 0.008813 0.062817 0.001049
9540 -5.586687090000001 2.50818156 7.64459946 0.01098 0.067083 -0.002146
9560 -5.5859317200000005 2.49935256 7.633671120000001 0.013147 0.071349 -0.005340999999999999
9580 -5.585333310000001 2.50953534 7.62215418 0.013175999999999998 0.074558 -0.008549
9600 -5.57724987 2.50518951 7.626343050000001 0.012095 0.07030499999999999 -0.00962
9620 -5.570216100000001 2.49725322 7.610029020000001 0.009909 0.060716 -0.007486
9640 -5.551508429999999 2.54830446 7.623351 0.003426 0.044751 -0.005375
9660 -5.529504600000001 2.5509924 7.63322967 -0.004124 0.029851 -0.002203
9680 -5.53159413 2.53183347 7.574399100000001 -0.008453 0.020261 0.0020510000000000003
9700 -5.54596578 2.4623786700000005 7.5419181900000005 -0.013845 0.009619 0.004164
9720 -5.5919256299999995 2.4060987 7.596550080000001 -0.017127 -0.003174 0.009498
9740 -5.5961145000000005 2.40849234 7.68726315 -0.023591 -0.012757 0.013738
9760 -5.6118301200000005 2.42720001 7.70567652 -0.018252 -0.007465999999999999 0.018042
9780 -5.6046492 2.41447644 7.72363863 -0.009631 0.011679 0.018078
9800 -5.58862947 2.45025351 7.681877460000001 7.7e-05 0.03402 0.017048
9820 -5.580546030000001 2.5349824800000005 7.69010805 0.008712000000000001 0.051056 0.011746
9840 -5.554500480000001 2.5960497300000003 7.71076791 0.01197 0.061706 0.009619
9860 -5.5386279 2.6351229600000003 7.68651759 0.008784 0.061729999999999986 0.006392
9880 -5.5423753200000005 2.63976309 7.6631599800000005 0.007703 0.054294000000000016 0.002121
9900 -5.56588008 2.64364785 7.61092173 0.007698 0.051107 -1.2e-05
9920 -5.55659982 2.6111669400000004 7.56631566 0.007689 0.046854 -0.002143
9940 -5.54746671 2.5542885600000003 7.518560580000001 0.00556 0.047927 -0.002159
9960 -5.5541963700000005 2.51896275 7.525300050000001 0.005516 0.042583 0.00212
9980 -5.57800524 2.50923123 7.522759260000001 0.000211 0.051116 0.004209
10000 -5.614223760000001 2.4562376100000005 7.525300050000001 0.001311 0.058569 0.004207
10020 -5.65718175 2.3944248 7.537278060000001 0.003445 0.0575 0.0031550000000000003
10040 -5.625603360000001 2.31583689 7.532490780000001 -0.001899 0.056449 0.004187
10060 -5.6414661299999995 2.31014709 7.626038940000001 -0.004079999999999999 0.045804 0.004186
10080 -5.59566324 2.3324452200000003 7.721990550000001 -0.0062380000000000005 0.042607 0.006311
10100 -5.610780450000001 2.39261976 7.7505866999999995 -0.0073430000000000014 0.038333 0.010582
10120 -5.604345090000001 2.44666305 7.77408165 -0.007348 0.038329 0.01165
10140 -5.57635716 2.51327295 7.71675201 -0.004138 0.041509 0.012737
10160 -5.538480750000001 2.5737516 7.71480963 0.000149 0.045755 0.012761
10180 -5.495218649999999 2.60503569 7.647895620000001 0.004425999999999999 0.045749 0.010655
10200 -5.4663281999999995 2.66670135 7.64340264 0.006579000000000001 0.045758 0.006397
10220 -5.45809761 2.67030162 7.63876251 0.0076409999999999985 0.043628 0.005339
10240 -5.49941733 2.6672997600000006 7.635770460000001 0.005512 0.044701 0.005322
10260 -5.521862610000001 2.5993458900000004 7.57784241 0.005502 0.042571 0.005325
10280 -5.59401516 2.55204207 7.60238703 0.002278 0.040439 0.00851
10300 -5.64326136 2.55758472 7.59415644 0.000153 0.042576 0.008492
10320 -5.667217379999999 2.4938099100000004 7.606428750000001 -0.0040950000000000005 0.045791000000000005 0.007390000000000002
10340 -5.6893683600000005 2.4489095400000003 7.601641470000001 -0.004065999999999999 0.051122 0.006314999999999999
10360 -5.65598493 2.3858901 7.57320228 -0.001928 0.053241 0.007396
10380 -5.63637474 2.39352228 7.57934334 -0.000851 0.055368 0.007401
10400 -5.622905610000001 2.3905302300000004 7.59939498 -0.001932 0.053237 0.008464
10420 -5.6197664099999995 2.4128283600000002 7.60238703 -0.001937 0.053232 0.009532
10440 -5.59671291 2.4417188100000002 7.63143444 0.001259 0.052156 0.009556
10460 -5.59296549 2.4776430300000003 7.6234981500000005 0.002316 0.0479 0.0074319999999999985
10480 -5.574561930000001 2.52943983 7.636368870000001 0.005531 0.048962 0.0053170000000000005
10500 -5.5423753200000005 2.56356882 7.65119178 0.003392 0.045782 0.00317
10520 -5.54895783 2.58557265 7.63831125 0.004445 0.042583 0.003181
10540 -5.54192406 2.59155675 7.649690850000001 0.003373 0.041521 0.003175
10560 -5.54312088 2.5909583400000002 7.60418226 0.000182 0.042602 0.002083
10580 -5.53489029 2.5393185000000003 7.606281600000001 0.000149 0.037267 0.004226
10600 -5.544621810000001 2.5216605000000003 7.621997220000001 -0.003086 0.030883 0.00528
10620 -5.56287822 2.5246525500000003 7.60807683 -0.004148 0.037257 0.010606
10640 -5.58189 2.5030901700000006 7.63696728 -0.003009 0.053232 0.010593
10660 -5.6220129000000005 2.4843824999999997 7.64505072 0.0023350000000000003 0.053222000000000005 0.008494
10680 -5.6217087900000005 2.4780942900000005 7.61675868 0.0012779999999999998 0.054295 0.007417
10700 -5.60718999 2.4822831600000006 7.616611530000001 -0.000866 0.047928 0.003137
10720 -5.61496932 2.5089369300000004 7.59520611 -0.001942 0.046862 0.0041990000000000005
10740 -5.619168 2.5177659300000004 7.588319490000001 0.000192 0.045794 0.003147
10760 -5.62529925 2.5219548000000005 7.60733127 -0.00088 0.045793 0.004208
10780 -5.635482030000001 2.5352767800000002 7.578136710000001 0.000192 0.047916 0.005281
10800 -5.627997000000001 2.5394656500000004 7.578587970000001 0.002321 0.046843 0.005297
10820 -5.60269701 2.5246525500000003 7.59625578 0.002325 0.046847 0.004229
10840 -5.60718999 2.5384257900000002 7.60658571 0.003373 0.039399 0.001041
10860 -5.5992537 2.53482552 7.59236121 0.002287 0.035142 0.001039
10880 -5.5958103900000005 2.5376704200000004 7.589820420000001 -0.000923 0.033023000000000004 0.001019
10900 -5.60584602 2.5267420800000004 7.59640293 0.001187 0.029811 0.003175
10920 -5.592367080000001 2.49097482 7.61092173 -0.002023 0.027692 0.0031550000000000003
10940 -5.59970496 2.5101337500000005 7.63622172 -0.004157 0.026638 0.002073
10960 -5.64057342 2.54290896 7.63292556 -0.0041670000000000006 0.025568 0.003143
10980 -5.6311362 2.5506981000000004 7.6115201400000005 -0.00309 0.026634 0.002081
11000 -5.61137886 2.54665638 7.608979350000001 -0.004138 0.030899 0.002068
11020 -5.588325360000001 2.5469506800000006 7.599699090000001 -0.00199 0.035148 0.003146
11040 -5.58817821 2.52719334 7.59520611 -0.000909 0.03834 0.003149
11060 -5.59431927 2.5274974500000003 7.622301330000001 0.000168 0.040467 0.003154
11080 -5.616323100000001 2.5077303000000004 7.58877075 -0.000913 0.036214 0.002084
11100 -5.629497929999999 2.5251038100000005 7.59011472 -0.000928 0.033018 0.002088
11120 -5.61572469 2.5204538700000003 7.566619770000001 -0.000937 0.030888 0.00209
11140 -5.61960945 2.5222589100000006 7.600297500000001 -0.000942 0.027701 -4.2e-05
11160 -5.62694733 2.53707201 7.565570100000001 -0.003076 0.027708 -5.7e-05
11180 -5.634883620000001 2.5252509599999997 7.5676596300000005 -0.00199 0.033026 0.001012
11200 -5.62589766 2.52779175 7.56227394 -0.000913 0.035153 0.001017
11220 -5.61512628 2.54022102 7.56077301 0.001215 0.031958 -0.001101
11240 -5.602245750000001 2.53707201 7.591164389999999 -0.000966 0.024496 0.002098
11260 -5.59312245 2.53063665 7.59370518 -0.004162 0.028756 0.005275
11280 -5.5899734400000005 2.53692486 7.57470321 -0.001995 0.034082999999999995 0.003147
11300 -5.616323100000001 2.53273599 7.600297500000001 0.002282 0.033016000000000004 -2.6e-05
11320 -5.62545621 2.5312350600000006 7.6136194800000006 0.000144 0.031958 -4e-05
11340 -5.616323100000001 2.5285373100000004 7.6293351000000005 -0.001995 0.0309 -5.400000000000001e-05
11360 -5.594760720000001 2.51896275 7.60838094 -0.003057 0.030908 -0.001129
11380 -5.61617595 2.53094076 7.62289974 -0.003052 0.031973 -0.001131
11400 -5.586382980000001 2.5337856600000004 7.59954213 -0.004118999999999999 0.033038 -7.099999999999999e-05
11420 -5.58339093 2.52779175 7.61047047 -0.003057 0.033030000000000004 0.001005
11440 -5.588776620000001 2.5363264500000002 7.5973054499999995 -0.001995 0.033022 0.0020800000000000003
11460 -5.5872855 2.51537229 7.6175140500000005 -0.000923 0.033023000000000004 0.001019
11480 -5.59686006 2.5408194300000004 7.59879657 0.000144 0.031958 -4e-05
11500 -5.614076610000001 2.5532388900000003 7.606281600000001 0.000129 0.028762 -3.6e-05
11520 -5.62889952 2.5423105500000003 7.61690583 -0.000937 0.031949 0.003157
11540 -5.6297922300000005 2.54605797 7.590418830000001 0.000125 0.03088 0.003166
11560 -5.61856959 2.4941140200000005 7.58922201 -0.000928 0.033018 0.002088
11580 -5.59686006 2.51925705 7.599247830000001 0.0012109999999999998 0.034076 0.002101
11600 -5.6109276 2.5279389000000005 7.6215557700000005 0.000139 0.031954 0.0010279999999999998
11620 -5.60554191 2.54290896 7.61077458 -0.003066 0.031961 0.002074
11640 -5.57096166 2.5478532 7.58922201 -0.003066 0.033022 0.003141
11660 -5.5839893400000005 2.5361793000000006 7.607782530000001 -0.003071 0.030895 0.002075
11680 -5.5859317200000005 2.5352767800000002 7.60104306 -0.004138 0.03196 0.003135
11700 -5.59970496 2.52015957 7.62993351 -0.002 0.031957 0.002082
11720 -5.57964351 2.5143226199999997 7.626343050000001 -0.000942 0.029823 0.002092
11740 -5.58143874 2.49920541 7.607625570000001 -0.000937 0.030888 0.00209
11760 -5.56332948 2.50100064 7.62993351 0.000149 0.035145 0.002092
11780 -5.55674697 2.5354239300000008 7.644158010000001 0.000149 0.035145 0.002092
11800 -5.576651460000001 2.53094076 7.626343050000001 0.0012109999999999998 0.035137 0.003168
11820 -5.58339093 2.5286942700000004 7.602838290000001 -0.0019760000000000003 0.037283 0.002075
11840 -5.58353808 2.52210195 7.62498927 0.000153 0.03621 0.002091
11860 -5.598655290000001 2.5086328200000003 7.6353192000000005 -0.003047 0.035161000000000005 0.001002
11880 -5.60554191 2.5174618200000003 7.616160270000001 -0.002009 0.030887 0.003151
11900 -5.60718999 2.52719334 7.637869800000001 -0.001971 0.039409 0.00314
11920 -5.58578457 2.4959092500000004 7.60688001 0.001239 0.040468 0.002093
11940 -5.56332948 2.50953534 7.63307271 0.002311 0.040468 0.001033
11960 -5.570363250000001 2.5191099 7.62034914 0.002297 0.037273 0.001037
11980 -5.59790973 2.50923123 7.63352397 -0.0019760000000000003 0.035161000000000005 -5.9e-05
12000 -5.5917686699999996 2.5122232800000006 7.6234981500000005 -0.003038 0.03623 -6.8e-05
12020 -5.57770113 2.52958698 7.624390860000001 -0.001961 0.038357 -6.3e-05
12040 -5.570667360000001 2.5372191600000003 7.60658571 -0.001956 0.039422000000000006 -6.4e-05
12060 -5.56287822 2.5382688300000003 7.628432580000001 -0.001971 0.038348 0.002074
12080 -5.54940909 2.5108793100000004 7.63292556 -0.000904 0.038345 0.002081
12100 -5.569617689999999 2.5312350600000006 7.64325549 -0.000904 0.037284 0.001014
12120 -5.564830410000001 2.50818156 7.65403668 0.00015800000000000002 0.037276 0.00209
12140 -5.579202060000001 2.51806023 7.65313416 0.000149 0.035145 0.002092
12160 -5.57485623 2.4911219700000005 7.61316822 -0.000933 0.034075 0.004222999999999999
12180 -5.570520210000001 2.49785163 7.6350248999999994 -0.000947 0.03194 0.005294
12200 -5.58308682 2.49067071 7.63727139 -0.002004 0.031952999999999995 0.00315
12220 -5.569617689999999 2.5050423600000005 7.651486080000001 -0.000923 0.035145 0.003153
12240 -5.573659409999999 2.5346783700000004 7.63906662 0.00016299999999999998 0.03728 0.001022
12260 -5.547162600000001 2.51791308 7.6555278000000015 0.001239 0.039407 0.001026
12280 -5.5461129300000005 2.5337856600000004 7.651790190000001 -0.000909 0.03834 0.003149
12300 -5.5543533300000005 2.5119289800000004 7.624842120000001 -0.00198 0.03834 0.00421
12320 -5.56782246 2.5228573200000004 7.627088610000001 -0.003052 0.037278 0.004204
12340 -5.58099729 2.53288314 7.63547616 -0.000928 0.03514 0.004221
12360 -5.589679139999999 2.5101337500000005 7.6208004 -0.00198 0.037279 0.003143
12380 -5.586235830000001 2.50100064 7.629482250000001 -0.000909 0.03834 0.003149
12400 -5.563476629999999 2.4831856800000005 7.624842120000001 0.00015800000000000002 0.039398 0.004224
12420 -5.57575875 2.5146169200000004 7.63711443 0.00016299999999999998 0.039402 0.0031550000000000003
12440 -5.56153425 2.51896275 7.64280423 0.002306 0.041525 0.003168
12460 -5.562731070000001 2.5159707 7.64265708 0.001239 0.041529 0.00316
12480 -5.57396352 2.5128216900000004 7.61182425 -0.0008990000000000002 0.042593 0.00528
12500 -5.55899346 2.50698474 7.62034914 -0.001971 0.04047 0.004207
12520 -5.54730975 2.5038455400000004 7.640861850000001 -0.001961 0.042601 0.004205
12540 -5.5642320000000005 2.5174618200000003 7.64564913 -0.000913 0.038336 0.004217
12560 -5.5681167600000006 2.5251038100000005 7.65298701 0.000187 0.044728 0.003149
12580 -5.563633590000001 2.50953534 7.645501980000001 0.0034020000000000005 0.046852 0.0021
12600 -5.558395050000001 2.5213563900000002 7.6092736499999996 0.007684000000000002 0.04685 -0.001075
12620 -5.56887213 2.51716752 7.62993351 0.004464 0.044722000000000005 0.001042
12640 -5.55734538 2.5119289800000004 7.653732570000001 0.000197 0.045798 0.002079
12660 -5.55105717 2.5186586400000004 7.64280423 -0.00088 0.043671 0.002074
12680 -5.5443177 2.5253981100000003 7.639959330000001 -0.0030280000000000003 0.041544 0.00313
12700 -5.55539319 2.51327295 7.61675868 -0.0030280000000000003 0.041544 0.00313
12720 -5.560484580000001 2.49920541 7.638164100000001 0.000177 0.042598 0.003151
12740 -5.56437915 2.50997679 7.6552335000000005 -0.000889 0.041541 0.002077
12760 -5.56542882 2.48902263 7.6413131100000005 0.00016299999999999998 0.038341 0.002088
12780 -5.56033743 2.49351561 7.625587680000001 0.000153 0.03621 0.002091
12800 -5.570667360000001 2.5084856700000002 7.656577470000001 0.002263 0.030877 0.002113
12820 -5.551508429999999 2.50339428 7.63622172 0.002268 0.031942 0.002111
12840 -5.575601790000001 2.50953534 7.64026344 0.002268 0.031942 0.002111
12860 -5.588031060000001 2.51117361 7.61092173 0.0044020000000000005 0.032996 0.003193
12880 -5.54895783 2.4813904499999997 7.62125166 0.0033590000000000004 0.038326 0.003179
12900 -5.56467345 2.5421633999999997 7.664808060000001 0.004435000000000001 0.040452 0.003184
12920 -5.544621810000001 2.5418592900000005 7.64879814 0.003368 0.040456 0.003176
12940 -5.5543533300000005 2.5267420800000004 7.667800110000001 0.003373 0.041521 0.003175
12960 -5.55299955 2.5134201000000003 7.635623310000001 0.003378 0.043648 0.004241
12980 -5.55180273 2.48708025 7.66855548 0.003378 0.04577 0.006374
13000 -5.562436770000001 2.5056407700000003 7.607782530000001 0.002311 0.045773 0.006367
13020 -5.579045100000001 2.5119289800000004 7.639665030000001 0.003368 0.046822 0.009578
13040 -5.56528167 2.51970831 7.622595629999999 0.000153 0.047882 0.013827
13060 -5.57530749 2.4819888600000004 7.61421789 0.00016299999999999998 0.048951 0.012757
13080 -5.56751835 2.5080344100000005 7.6395178800000005 0.000173 0.051082 0.012754
13100 -5.584136490000001 2.49485958 7.631130330000001 0.002311 0.048956 0.009567
13120 -5.57784828 2.5140185100000005 7.618710870000001 0.0033880000000000004 0.050022 0.008505
13140 -5.604345090000001 2.51207613 7.622595629999999 0.003397 0.04897 0.005302
13160 -5.5859317200000005 2.5453026000000003 7.621850070000001 0.0044740000000000005 0.051096 0.005307
13180 -5.57710272 2.5102809 7.623351 0.0034020000000000005 0.051096 0.006368
13200 -5.58503901 2.5018933500000005 7.64564913 0.002321 0.046843 0.005297
13220 -5.574257820000001 2.5110264600000005 7.659569520000001 0.002321 0.04366 0.002097
13240 -5.58204696 2.4941140200000005 7.632032850000001 0.00122 0.037268 0.003165
13260 -5.58458775 2.49306435 7.63756569 0.001239 0.044712 0.006361
13280 -5.60973078 2.5101337500000005 7.64894529 0.001283 0.054299 0.0063490000000000005
13300 -5.56588008 2.50818156 7.650436409999999 0.006631000000000001 0.054293 0.003181
13320 -5.57111862 2.51073216 7.6493965500000005 0.005564 0.053236 0.002107
13340 -5.5323495 2.5279389000000005 7.647150060000001 0.0023350000000000003 0.047917 0.00316
13360 -5.5241091 2.5276446 7.641460260000001 0.000182 0.043663 0.00315
13380 -5.555098889999999 2.50444395 7.63412238 -0.0008849999999999998 0.043667 0.003143
13400 -5.56542882 2.51985546 7.63307271 -0.0008939999999999998 0.043658 0.005279
13420 -5.572462590000001 2.53886724 7.62424371 -0.0008560000000000001 0.053241 0.006335
13440 -5.5904247 2.54246751 7.62903099 0.002354 0.055361 0.006355
13460 -5.5859317200000005 2.52360288 7.61106888 0.004483 0.054288 0.006371
13480 -5.597762580000001 2.5300382400000005 7.613766630000001 0.004478 0.052162 0.005306
13500 -5.58503901 2.52898857 7.61466915 0.003397 0.047909 0.004235
13520 -5.5847349 2.54366433 7.60493763 0.002306 0.045769 0.007435
13540 -5.591474370000001 2.5352767800000002 7.609430610000001 0.002297 0.042578 0.006371
13560 -5.576504310000001 2.5134201000000003 7.6175140500000005 0.000177 0.047903 0.008486
13580 -5.576651460000001 2.5084856700000002 7.607929680000001 0.002316 0.0479 0.0074319999999999985
13600 -5.58143874 2.5113305699999997 7.6353192000000005 0.002321 0.046843 0.005297
13620 -5.614076610000001 2.52090513 7.619907690000001 0.001254 0.045786 0.004222999999999999
13640 -5.5875798 2.55114936 7.624390860000001 0.001254 0.046847 0.00529
13660 -5.594162310000001 2.5453026000000003 7.59595167 0.000182 0.045785 0.0052840000000000005
13680 -5.56662564 2.5300382400000005 7.586073 -0.000904 0.04365 0.0074150000000000015
13700 -5.5642320000000005 2.5426146600000004 7.613913780000001 -0.000889 0.047907 0.008478
13720 -5.576504310000001 2.52958698 7.60238703 -0.0008849999999999998 0.047911 0.007409999999999998
13740 -5.5733553 2.50444395 7.609430610000001 -0.0008939999999999998 0.04578 0.007412999999999999
13760 -5.588923770000001 2.50069653 7.630679070000001 0.000192 0.048977 0.006348
13780 -5.598959399999999 2.51702037 7.62498927 0.001254 0.047908 0.006357
13800 -5.6175199199999994 2.51671626 7.61541471 0.000182 0.046846 0.006351
13820 -5.586687090000001 2.5225532100000003 7.608528090000001 0.00233 0.047912 0.004228
13840 -5.601500189999999 2.5224060600000002 7.6074784200000005 0.00234 0.050043 0.004225
13860 -5.5938680100000004 2.54022102 7.58757393 0.003392 0.046843 0.004237
13880 -5.6079355500000005 2.52120924 7.59071313 0.00233 0.047912 0.004228
13900 -5.6109276 2.53587519 7.603740810000001 0.000182 0.044724 0.004217
13920 -5.620060710000001 2.5379745300000005 7.608979350000001 0.000144 0.036202 0.004228
13940 -5.60405079 2.53198062 7.58757393 -0.000918 0.041515 0.008486
13960 -5.620816080000001 2.5251038100000005 7.58922201 -0.001923 0.054305999999999986 0.007395
13980 -5.631891570000001 2.54754909 7.578136710000001 0.004478 0.051101 0.004239
14000 -5.61856959 2.53707201 7.5974526000000004 0.003412 0.048982 0.002098
14020 -5.6197664099999995 2.53692486 7.577989560000001 0.000187 0.042606 0.001015
14040 -5.614527870000001 2.54201625 7.60134717 -0.0030280000000000003 0.039422000000000006 0.000997
14060 -5.602245750000001 2.53213758 7.59894372 -0.004109000000000001 0.037291000000000005 0.00206
14080 -5.6098877400000005 2.5491971700000002 7.60479048 -0.006248 0.037294 0.003113
14100 -5.59880244 2.54620512 7.594607700000001 -0.006248 0.037294 0.003113
14120 -5.61152601 2.5406624700000005 7.590418830000001 -0.005195 0.033033 0.002058
14140 -5.620207860000001 2.53962261 7.58277684 -0.001985 0.035153 0.002078
14160 -5.6098877400000005 2.53991691 7.58757393 -0.000933 0.030892000000000006 0.001022
14180 -5.62844826 2.5524933300000003 7.612118550000001 -0.000942 0.029823 0.002092
14200 -5.62754574 2.5445570400000004 7.580088900000001 -0.002 0.031957 0.002082
14220 -5.61826548 2.54470419 7.57934334 -0.000923 0.034084 0.002086
14240 -5.617068659999999 2.5427618100000005 7.57559592 0.000149 0.036206 0.003159
14260 -5.59970496 2.5247997 7.569160560000001 0.00122 0.036207 0.002099
14280 -5.620207860000001 2.4975573300000002 7.5734965800000005 -0.000913 0.035153 0.001017
14300 -5.63503077 2.54605797 7.606428750000001 -0.002 0.031957 0.002082
14320 -5.651796060000001 2.5825806 7.585621740000001 -0.002004 0.031952999999999995 0.00315
14340 -5.6339811 2.5596742500000005 7.583228100000001 -0.003066 0.031961 0.002074
14360 -5.62589766 2.5408194300000004 7.550747190000001 -0.00199 0.035148 0.003146
14380 -5.62694733 2.55309174 7.556888250000001 -0.002 0.03514 0.005282
14400 -5.6080925100000005 2.55009969 7.5889179 -0.003086 0.031944 0.006347
14420 -5.61901104 2.5276446 7.584277770000001 -0.003081 0.031948000000000004 0.005279
14440 -5.63503077 2.5237500300000004 7.59595167 -0.000952 0.029814 0.004228
14460 -5.61512628 2.5304895000000003 7.566619770000001 -0.002019 0.030879000000000007 0.005287
14480 -5.63758137 2.5274974500000003 7.59386214 -0.002009 0.030887 0.003151
14500 -5.628742560000001 2.56222485 7.57918638 0.002292 0.038329 0.003172
14520 -5.64041646 2.5631175600000002 7.578440820000001 0.00554 0.04791 0.002114
14540 -5.62275846 2.5456067100000004 7.5734965800000005 0.00556 0.052171 0.002108
14560 -5.614527870000001 2.5553382300000003 7.555838580000001 0.002325 0.044725 0.002095
14580 -5.64326136 2.54336022 7.5734965800000005 -0.003086 0.031944 0.006347
14600 -5.614370910000001 2.5421633999999997 7.613913780000001 -0.011678 0.024495 0.011637
14620 -5.596261650000001 2.5077303000000004 7.5812857199999995 -0.017046000000000002 0.017057 0.01161
14640 -5.61123171 2.5204538700000003 7.580088900000001 -0.018189 1.7e-05 0.011623
14660 -5.6109276 2.5215035400000003 7.55973315 -0.01929 -0.007437 0.011625
14680 -5.6236511700000005 2.5270461900000005 7.6017886200000016 -0.013903 0.007445999999999999 0.014847999999999997
14700 -5.62844826 2.5251038100000005 7.588319490000001 -0.002043 0.031919 0.011695
14720 -5.62725144 2.54905002 7.60702716 0.009841 0.058535 0.005335
14740 -5.626800179999999 2.54754909 7.610029020000001 0.017425 0.08089199999999999 0.002154
14760 -5.62350402 2.56356882 7.576194330000001 0.019649 0.099002 1e-05
14780 -5.61302694 2.5542885600000003 7.579941750000001 0.015411 0.103287 -0.002161
14800 -5.61647025 2.53886724 7.60718412 0.010043 0.095849 -0.002189
14820 -5.61137886 2.5469506800000006 7.58712267 0.002484 0.07563500000000001 -0.002216
14840 -5.624102430000001 2.53587519 7.6179555 -0.002937 0.058601 -9.6e-05
14860 -5.6248578 2.54665638 7.6261959 -0.007271 0.050068 0.006294
14880 -5.62156164 2.5631175600000002 7.625891790000001 -0.008409999999999999 0.04152 0.013775
14900 -5.64072057 2.5765965 7.616160270000001 -0.009539 0.030858 0.016985
14920 -5.64266295 2.5225532100000003 7.5459599100000005 -0.021318 0.021312 0.016915
14940 -5.580546030000001 2.50339428 7.55359209 -0.023514 0.006409999999999999 0.015851
14960 -5.52890619 2.54905002 7.572152610000001 -0.022476 0.002136 0.018000000000000002
14980 -5.56019028 2.55862458 7.557035399999999 -0.021371 0.010655 0.017997
15000 -5.58458775 2.53438407 7.512576480000001 -0.009482 0.039397 0.012702
15020 -5.56078869 2.4804879300000002 7.55359209 0.004579 0.07771499999999999 0.008478
15040 -5.55315651 2.4568458300000002 7.6612176000000005 0.012167 0.100077 0.004229999999999999
15060 -5.598959399999999 2.49725322 7.7189985000000005 0.012191 0.104342 0.003156
15080 -5.61003489 2.5084856700000002 7.7468392800000005 0.01109 0.095828 0.002091
15100 -5.630243490000001 2.56506975 7.73201637 0.006804000000000001 0.090521 0.001
15120 -5.60748429 2.6084790000000004 7.71630075 0.015329 0.08836000000000001 0.001062
15140 -5.56198551 2.63003157 7.69235454 0.022812 0.090469 4.3e-05
15160 -5.54371929 2.65009302 7.612118550000001 0.022812 0.08834700000000001 -0.00209
15180 -5.546711340000001 2.6523297 7.53068574 0.01964 0.092628 -0.004254
15200 -5.57440497 2.63407329 7.48353888 0.019582 0.08090599999999999 -0.003172
15220 -5.62156164 2.61401184 7.46887293 0.017415 0.073456 -0.003177
15240 -5.682334590000001 2.57988285 7.4920735800000005 0.014147 0.060676 -0.001047
15260 -5.726489399999999 2.54979558 7.484882850000001 0.015219 0.06704199999999999 0.004293
15280 -5.70957696 2.51327295 7.453451610000001 0.024912 0.092554 0.009669
15300 -5.723497350000001 2.39981049 7.378905420000001 0.035719 0.12447 0.010772
15320 -5.73681933 2.3195745 7.482793320000001 0.044403 0.156403 0.009724
15340 -5.711077889999999 2.27242764 7.63023762 0.052024 0.189404 0.008666
15360 -5.67484956 2.348769060000001 7.72992684 0.045714 0.209666 0.008596
15380 -5.638022820000001 2.44142451 7.80162813 0.037103 0.188408 0.004291
15400 -5.625603360000001 2.48797296 7.743248820000002 0.026228 0.14263900000000002 0.004273
15420 -5.52994605 2.5632745200000002 7.65208449 0.019582 0.096821 0.012831
15440 -5.51273931 2.64545289 7.622448480000001 0.023816 0.09041 0.013937
15460 -5.47815906 2.7155061000000003 7.587868230000001 0.03248 0.111715 0.0064930000000000005
15480 -5.53443903 2.7225398700000003 7.577989560000001 0.031452 0.113875 7.4e-05
15500 -5.5935639 2.6897548500000004 7.5538962 0.029275 0.097929 -0.00633
15520 -5.6498536800000005 2.6446975200000002 7.58143287 0.024907 0.07875700000000001 -0.003132
15540 -5.68113777 2.6102742300000004 7.54056441 0.019525 0.077672 0.006446
15560 -5.7062808 2.57779332 7.46991279 0.014238 0.096831 0.01493
15580 -5.75133813 2.5102809 7.45330446 0.007885 0.108567 0.015939
15600 -5.74819893 2.42975061 7.475308290000001 -0.0007070000000000001 0.100058 0.020163
15620 -5.72813748 2.4465159 7.46512551 -0.007094 0.113886 0.030783
15640 -5.7910097700000005 2.4358818600000003 7.548206400000001 -0.010213 0.152166 0.051008
15660 -5.8187034 2.4813904499999997 7.618710870000001 -0.009003 0.201096 0.06804600000000001
15680 -5.79041136 2.5583302800000003 7.596550080000001 -0.004548 0.248992 0.074425
15700 -5.817653730000001 2.6090774100000003 7.542967860000001 0.00081 0.24369 0.063787
15720 -5.842953720000001 2.6378109000000003 7.5975997500000005 0.029587 0.2181 0.044793
15740 -5.81675121 2.65577301 7.476505110000001 0.040284 0.196868 0.017121
15760 -5.75822475 2.64050865 7.31258982 0.036858 0.133019 0.003292
15780 -5.715718020000001 2.6053299900000004 7.26798375 0.027079 0.11061300000000003 0.020344
15800 -5.689819620000001 2.63586852 7.265737260000001 0.013061 0.096737 0.039491000000000005
15820 -5.76106965 2.66325804 7.40241018 0.002091 0.039211 0.049103
15840 -5.80701969 2.66894784 7.488777420000001 -0.012937 0.019023 0.049023
15860 -5.78172951 2.64364785 7.456747770000001 -0.014916999999999996 0.031899000000000004 0.027629
15880 -5.769153090000001 2.5951570200000003 7.3468757700000005 0.009822 0.03942 -0.009596
15900 -5.83382061 2.5765965 7.3744124399999995 0.048421 0.051127 -0.04032
15920 -5.892641370000001 2.50025508 7.366329 0.079446 0.061705 -0.048662
15940 -5.924533680000001 2.50593507 7.3784541599999995 0.107324 0.097806 -0.043173
15960 -5.88860946 2.55055095 7.3706748300000005 0.11805999999999997 0.119049 -0.036716000000000006
15980 -5.936354730000001 2.5474019400000003 7.325166240000001 0.107386 0.11696 -0.037856
16000 -5.95625922 2.5866223200000005 7.32127167 0.089216 0.096834 -0.050776
16020 -6.083799030000001 2.7099634500000005 7.40600064 0.078571 0.086283 -0.06686
16040 -6.208189830000001 2.7930443400000002 7.39208025 0.076375 0.07244199999999999 -0.066857
16060 -6.239179620000001 2.82222909 7.32696147 0.072877 0.021261 -0.051861
16080 -6.274799730000001 2.85546537 7.26125409 0.024643 -0.006358 -0.02973
16100 -6.071977980000001 2.80337427 7.238200590000001 -0.019563 -0.085133 -0.005369
16120 -5.72484132 2.64425607 7.21409742 -0.063386 -0.089296 0.008217
16140 -5.5932696 2.5325790300000004 7.08207444 -0.091225 -0.091411 0.028322000000000007
16160 -5.645213550000001 2.44740861 6.958429199999999 -0.108688 -0.146873 0.060318
16180 -5.828425110000001 2.53962261 7.02608877 -0.120419 -0.133034 0.073037
16200 -6.0444315 2.6613156600000005 7.112308860000001 -0.121169 -0.08394299999999999 0.051604
16220 -6.32584116 2.7533727 7.172483400000001 -0.106243 -0.107346 0.030374
16240 -6.442001370000001 2.7226870200000004 7.12413972 -0.105209 -0.13178299999999998 0.013321
16260 -6.46295553 2.7328698 7.128779850000001 -0.09688 -0.188229 0.002769
16280 -6.333179040000001 2.64514878 7.095994830000001 -0.088413 -0.223332 -0.017422999999999998
16300 -6.3450099 2.5851213900000003 7.09748595 -0.088326 -0.219011 -0.032382999999999995
16320 -6.48361539 2.65637142 7.0941996000000005 -0.108592 -0.217875 -0.032526
16340 -6.458021100000001 2.7572672700000003 7.113211379999999 -0.142947 -0.23280100000000006 0.000368
16360 -6.3023462100000005 2.8285173000000006 7.15332447 -0.152496 -0.186037 0.035493000000000004
16380 -6.08679108 2.8978249500000004 7.0841639700000005 -0.104114 -0.097809 0.041059
16400 -5.813464860000001 2.90785077 7.059168090000001 -0.038565 -6e-06 0.034982
16420 -5.787419310000001 2.8358551800000003 6.997502430000001 0.010856 0.052118 0.010691
16440 -5.83815663 2.8051695 7.09674039 0.053995 0.099066 -0.045683
16460 -5.77065402 2.83944564 7.237445220000001 0.08757100000000001 0.146082 -0.110671
16480 -5.66856135 2.83929849 7.0760805300000005 0.103958 0.199418 -0.142671
16500 -5.616323100000001 2.76310422 6.90619095 0.122367 0.26750100000000004 -0.135152
16520 -5.73053112 2.7625058100000004 7.117694550000001 0.118162 0.310012 -0.106394
16540 -5.84639703 2.7155061000000003 7.100487810000001 0.083879 0.311064 -0.07352
16560 -6.018238800000001 2.72927934 7.16590089 0.048509 0.305737 -0.042782
16580 -6.04742355 2.83360869 7.3327984200000005 0.033463 0.297203 -0.026853
16600 -5.98036239 2.74918383 7.35315417 0.028922000000000007 0.242864 -0.020405
16620 -5.96778597 2.68571313 7.311697110000001 0.018827 0.142725 -0.010734
16640 -5.92303275 2.6331707700000004 7.225928280000001 -0.008118 0.091647 -0.001242
16660 -5.788459169999999 2.5495012800000003 7.090305030000001 -0.044631 0.052303 0.01244
16680 -5.69250756 2.59800192 7.149586860000001 -0.089746 0.011869 0.03995
16700 -5.536538370000001 2.6491905000000004 7.29912069 -0.124207 -0.038164 0.061138
16720 -5.516182620000001 2.71984212 7.4503026000000006 -0.143798 -0.109529 0.076048
16740 -5.5639278899999995 2.61176535 7.5218567400000005 -0.151525 -0.155357 0.08780299999999999
16760 -5.54596578 2.61401184 7.5308427 -0.137728 -0.16714 0.092187
16780 -5.69775591 2.5715051100000004 7.639959330000001 -0.113114 -0.162914 0.07953500000000001
16800 -5.964793920000001 2.63257236 7.840250100000001 -0.083054 -0.144815 0.056221000000000014
16820 -6.0384474 2.7075698100000003 7.91763138 -0.051881 -0.115006 0.033968
16840 -5.88696138 2.7704421 7.775729730000001 -0.024917 -0.068155 0.015937
16860 -5.85582444 2.77657335 7.678287 -0.006540000000000001 -0.031931 -0.001073
16880 -5.889502169999999 2.58407172 7.63891947 0.001033 -0.01701 -0.009585
16900 -5.967491669999999 2.41327962 7.61316822 -0.00866 -0.040399 -0.012827000000000002
16920 -6.10954047 2.39382639 7.439678370000001 -0.025931 -0.087203 -0.015024
16940 -6.114337560000001 2.54336022 7.27651845 -0.047527 -0.143591 -0.014035
16960 -6.1543035 2.66521023 7.098535620000001 -0.049819 -0.177677 -0.012939
16980 -6.0912840600000004 2.6662599000000005 6.9846219000000005 -0.04557 -0.178769 -0.009703
17000 -6.158198070000001 2.53886724 6.9171192900000005 -0.040102 -0.140473 -0.001168
17020 -6.284835360000001 2.5495012800000003 6.86397852 -0.032404 -0.090427 -0.002247
17040 -6.351288300000001 2.5333344 6.93776934 -0.024744 -0.055270000000000014 -0.009716
17060 -6.37509717 2.5159707 7.0395579 -0.034303 -0.048832 -0.012996
17080 -6.324350040000001 2.5152153299999997 7.06949802 -0.042905 -0.061594 -0.010903
17100 -6.23408823 2.37151845 6.99929766 -0.047316 -0.081866 0.000843
17120 -6.13843092 2.4011544600000003 7.05184002 -0.046249 -0.077625 0.005118
17140 -6.03724077 2.38574295 7.15332447 -0.039747000000000005 -0.059521 0.000867
17160 -5.99967828 2.4069914100000003 7.30062162 -0.033288 -0.05630900000000001 -0.008706
17180 -5.99488119 2.41672293 7.40031084 -0.027949 -0.054202 -0.007603
17200 -5.99847165 2.3833395 7.5001570200000005 -0.021577 -0.05425 -0.001149
17220 -6.05161242 2.3900789700000002 7.54146693 -0.020524 -0.050022 0.00633
17240 -6.0384474 2.4025082400000004 7.51362615 -0.005516 -0.030912 0.009615
17260 -5.9314203 2.4599850300000004 7.50389463 0.005353 0.009547 0.005365999999999999
17280 -5.866154370000001 2.53198062 7.4762010000000005 0.013066 0.052179 -0.006385
17300 -5.682481740000001 2.5900656300000002 7.36468092 0.02175 0.075623 -0.015968
17320 -5.56887213 2.56282326 7.329207960000001 0.027117 0.07987799999999999 -0.019141
17340 -5.512582350000001 2.52719334 7.3543608 0.024964 0.07986900000000001 -0.014883
17360 -5.433101730000001 2.5188156 7.49057265 0.011019 0.0703 -0.0074909999999999985
17380 -5.39358705 2.5268990400000004 7.62903099 0.003507 0.0618 -0.006464
17400 -5.48609535 2.5445570400000004 7.708668570000001 -0.006195 0.045829 -0.000102
17420 -5.53354632 2.5515908100000004 7.72737624 -0.006267 0.033033 0.003119
17440 -5.467534830000001 2.47704462 7.7218434 -0.007348 0.02878 0.002048
17460 -5.42711763 2.43573471 7.6757364 -0.010625 0.011747 0.002047
17480 -5.37816573 2.42136306 7.644158010000001 -0.011726 0.006416 0.004183
17500 -5.40406413 2.4224127300000005 7.6790325600000005 -0.011707 0.008555 0.002044
17520 -5.447620530000001 2.5116248700000003 7.74025677 -0.003172 0.008525 0.0021030000000000003
17540 -5.39612784 2.5506981000000004 7.813449180000001 0.003287 0.021286000000000003 0.002132
17560 -5.29223994 2.5283901600000003 7.759111590000001 0.005493 0.039379 0.004261
17580 -5.27772114 2.3722640100000003 7.74294471 0.003354 0.040443 0.006381
17600 -5.247937980000001 2.25176778 7.734262860000001 0.001172 0.034042 0.010647
17620 -5.35391541 2.22063084 7.753421790000001 -0.004196 0.029787 0.013819
17640 -5.51333772 2.27257479 7.819737389999999 -0.006353 0.028712 0.018079
17660 -5.67889128 2.32796205 7.854464790000001 -0.008506 0.031885000000000004 0.025537
17680 -5.74504992 2.36972322 7.869582 -0.013816 0.042535 0.030827
17700 -5.80462605 2.3433735600000007 7.7865109200000004 -0.01485 0.049996 0.030811
17720 -5.75298621 2.34921051 7.6902552 -0.010549 0.053194000000000005 0.026564
17740 -5.704485570000001 2.3688207 7.59475485 -0.005181 0.053205 0.019124
17760 -5.66257725 2.42480637 7.585925850000001 -0.0008939999999999998 0.048963 0.010613
17780 -5.579045100000001 2.47974237 7.59850227 0.003354 0.041504 0.0074480000000000015
17800 -5.5386279 2.52719334 7.5955004100000005 0.002278 0.037255 0.005309
17820 -5.59296549 2.58227649 7.59310677 0.004392 0.031926 0.004263
17840 -5.582645370000001 2.55473982 7.6119714 0.004411 0.033004 0.001057
17860 -5.63503077 2.5182171899999997 7.61720994 0.010832 0.03406 -0.002104
17880 -5.6453607 2.4659691300000004 7.64011629 0.012989 0.038318 -0.003163
17900 -5.580241920000001 2.42839683 7.71869439 0.013004 0.039391 -0.005301
17920 -5.5404329400000005 2.3628366 7.74294471 0.008722 0.040454 -0.001059
17940 -5.55464763 2.32287066 7.773031980000001 0.006593000000000001 0.041527 -0.001075
17960 -5.555991600000001 2.2966779600000002 7.775876879999999 0.006583 0.040458 -6e-06
17980 -5.53728393 2.3114910600000007 7.735459680000001 0.0044210000000000005 0.036196 0.002121
18000 -5.49911322 2.30371173 7.70627493 0.00333 0.032995 0.004254
18020 -5.501359710000001 2.3245187400000002 7.7168991600000005 0.001182 0.034051 0.00851
18040 -5.44312755 2.29532418 7.735312530000001 -0.002043 0.031919 0.011695
18060 -5.449268610000001 2.3333477400000002 7.7278275 -0.004190999999999999 0.031913 0.014885
18080 -5.48100396 2.36642706 7.75222497 -0.007401 0.029794 0.014865
18100 -5.51797785 2.45055762 7.7445927900000004 -0.004176 0.034048 0.013813999999999998
18120 -5.50630395 2.4704621100000006 7.72019532 -0.000952 0.037241 0.011696
18140 -5.45136795 2.46013218 7.72169625 0.001196 0.040429 0.011707
18160 -5.373221490000001 2.42495352 7.72124499 0.000134 0.041498 0.011698
18180 -5.37412401 2.42465922 7.7228930700000005 0.000129 0.043616 0.0149
18200 -5.36259726 2.4351363000000004 7.753421790000001 0.002302 0.053192 0.015971
18220 -5.3630485199999995 2.4180669 7.73710776 0.0023350000000000003 0.060649 0.015962
18240 -5.407654590000001 2.40878664 7.759709999999999 0.003435 0.063858 0.011693
18260 -5.4588529800000005 2.4029496900000002 7.759111590000001 0.005579 0.061737 0.007437
18280 -5.491628189999999 2.39546466 7.743101670000001 0.006655 0.062803 0.006375
18300 -5.5262084399999996 2.36463183 7.7044797 0.00665 0.060676 0.0053100000000000005
18320 -5.5639278899999995 2.3457672 7.72258896 0.006631000000000001 0.06172 0.010649
18340 -5.5482122700000005 2.3652302400000003 7.71241599 0.003431 0.062793 0.011694
18360 -5.5404329400000005 2.38469328 7.69819149 0.00555 0.059589 0.011713
18380 -5.513484870000001 2.39098149 7.685772030000001 0.0044740000000000005 0.057462 0.011708
18400 -5.48174952 2.42765127 7.69340421 0.004469 0.056397 0.011709
18420 -5.48100396 2.43857961 7.691608980000001 0.00233 0.055339 0.011696
18440 -5.5036062 2.4509990700000004 7.67379402 0.001254 0.054274 0.012758
18460 -5.542669620000001 2.4379812 7.69969242 0.000153 0.050004 0.01596
18480 -5.54222817 2.44262133 7.72229466 -0.0008699999999999999 0.058534 0.014874
18500 -5.510639970000001 2.43334107 7.705529370000002 0.002359 0.063853 0.013822
18520 -5.4865368000000005 2.42226558 7.74085518 0.003412 0.058530999999999986 0.011699
18540 -5.47785495 2.4022041300000003 7.76405583 0.002345 0.056413 0.009558
18560 -5.461393770000001 2.38199553 7.7588172900000005 0.002325 0.053213 0.01063
18580 -5.45795046 2.3944248 7.72229466 0.000197 0.054286 0.010614
18600 -5.487890580000001 2.39261976 7.76150523 0.000201 0.055351 0.010613
18620 -5.50659825 2.41927353 7.769745629999999 0.001268 0.053225 0.008486
18640 -5.4823479299999995 2.4369315300000003 7.754177159999999 0.0012779999999999998 0.054295 0.007417
18660 -5.4506125800000005 2.4277984200000002 7.73605809 0.002345 0.055352 0.008491
18680 -5.46992847 2.4388739100000008 7.7246883 0.002359 0.057487 0.00742
18700 -5.45959854 2.41583022 7.71285744 0.004488000000000001 0.056414 0.007437
18720 -5.478904620000001 2.43154584 7.718400090000001 0.004483 0.054288 0.006371
18740 -5.48399601 2.44321974 7.707618900000001 0.005536 0.052149 0.007449
18760 -5.4890874 2.447114310000001 7.691903280000001 0.003397 0.050031 0.006369
18780 -5.513779169999999 2.46642039 7.70567652 0.002325 0.051091 0.008497
18800 -5.508099179999999 2.4584841 7.675589250000001 0.000187 0.052154999999999986 0.010617
18820 -5.511238379999999 2.43917802 7.694149770000001 0.000177 0.050025 0.010619
18840 -5.53953042 2.4266016 7.70821731 -0.001956 0.04791 0.008471
18860 -5.55674697 2.41133724 7.7068733400000005 0.000177 0.048964 0.009552
18880 -5.53728393 2.4343907400000004 7.707020490000001 0.000168 0.047894 0.010622
18900 -5.53249665 2.47615191 7.67528514 -0.0008939999999999998 0.048963 0.010613
18920 -5.52546288 2.46252582 7.6929529500000005 -0.0008990000000000002 0.048959 0.011681
18940 -5.51288646 2.45280411 7.68217176 -0.000904 0.047894 0.011683
18960 -5.512582350000001 2.4462117900000004 7.682328720000001 0.003378 0.048953 0.009575
18980 -5.51542725 2.42525763 7.70313573 0.000149 0.04045 0.007427
19000 -5.5381864499999995 2.412534060000001 7.70462685 -0.000923 0.038328 0.006354
19020 -5.52740526 2.40834519 7.705970820000001 -0.003076 0.034074 0.006344
19040 -5.512582350000001 2.43274266 7.675442100000001 -0.003062 0.035148 0.0042060000000000005
19060 -5.509296 2.4610347 7.705970820000001 0.000134 0.030888 0.00103
19080 -5.53324221 2.44052199 7.67064501 -0.000937 0.028766000000000007 -4.3e-05
19100 -5.529651750000001 2.4755535 7.66556343 -0.003124 0.020238 0.003157
19120 -5.53369347 2.4489095400000003 7.66676025 -0.003086 0.029822 0.004213000000000001
19140 -5.52994605 2.4676172100000002 7.66795707 -0.002 0.033018 0.003148
19160 -5.51767374 2.46806847 7.65927522 0.00122 0.034085000000000004 -3.5e-05
19180 -5.54371929 2.45115603 7.64564913 -0.000913 0.034092000000000004 -5e-05
19200 -5.564526300000001 2.4550407900000004 7.67304846 -0.001971 0.035164999999999995 -0.001127
19220 -5.5640750400000005 2.4448678200000002 7.6526829 -0.001956 0.0373 -0.002198
19240 -5.56617438 2.4339394800000003 7.65224145 0.000192 0.040489 -0.002187
19260 -5.53998168 2.4313986900000004 7.6628656799999995 -0.000866 0.042623 -0.002197
19280 -5.53129983 2.45235285 7.657774290000001 0.00234 0.044738 -0.001109
19300 -5.54955624 2.44501497 7.660020780000001 0.002354 0.047934 -0.001113
19320 -5.562731070000001 2.46312423 7.659569520000001 0.004493 0.048992 -0.0011
19340 -5.547613860000001 2.4628299300000003 7.64595324 0.003426 0.048995 -0.001107
19360 -5.5528524 2.4831856800000005 7.66496502 0.001268 0.045798 0.001018
19380 -5.5212642 2.46043629 7.6312774800000005 -0.004104 0.036234 -7.5e-05
19400 -5.54371929 2.46432105 7.663464090000001 -0.006324000000000001 0.019189 0.002068
19420 -5.5519498800000004 2.4679213200000003 7.64834688 -0.009602 0.002156 0.0020670000000000003
19440 -5.57260974 2.48378409 7.65478224 -0.013917 -0.005299 0.005251
19460 -5.56198551 2.49456528 7.66556343 -0.017175 -0.014888 0.008445000000000001
19480 -5.553902070000001 2.4818417100000003 7.650436409999999 -0.017228 -0.024484 0.010593
19500 -5.54192406 2.443671 7.6472972100000005 -0.015109 -0.024504 0.013813
19520 -5.5440234 2.46642039 7.662561570000001 -0.010755 -0.004283 0.014885
19540 -5.55524604 2.4989013000000004 7.64610039 -0.003148 0.024461 0.012765
19560 -5.54357214 2.49067071 7.67049786 0.002311 0.050017 0.010634
19580 -5.5679696100000005 2.4647723100000003 7.683368580000002 0.004522 0.065993 0.009561
19600 -5.56258392 2.4435140400000006 7.685615070000001 0.006679000000000001 0.068129 0.006369
19620 -5.56588008 2.43992358 7.67709018 0.003464 0.061761 0.00315
19640 -5.57545464 2.4462117900000004 7.674088320000001 0.00024 0.047958 -0.005401
19660 -5.5401288300000004 2.44695735 7.6948953300000005 -0.001908 0.042648 -0.007546
19680 -5.5404329400000005 2.46073059 7.68008223 0.002364 0.041576 -0.009651
19700 -5.54806512 2.4532455600000005 7.660020780000001 0.008789 0.045819 -0.01068
19720 -5.55404922 2.47106052 7.67064501 0.010918 0.045807 -0.009596
19740 -5.55674697 2.5008534900000003 7.64864118 0.004483 0.041556 -0.006431
19760 -5.563182330000001 2.50324713 7.6612176000000005 -0.0008609999999999999 0.038383 -0.007533
19780 -5.557639679999999 2.50025508 7.636368870000001 -0.004128 0.023481 -0.007536
19800 -5.520969900000001 2.4983028899999997 7.624547820000001 -0.009544 0.008573 -0.004351
19820 -5.53384062 2.48932674 7.59386214 -0.014994 -0.012731 -8.8e-05
19840 -5.51183679 2.47704462 7.60448637 -0.017166 -0.015941 0.005242
19860 -5.49372753 2.44546623 7.63263126 -0.013912 1e-05 0.009517
19880 -5.51902752 2.3890293000000002 7.62110451 -0.007396 0.026615 0.010596
19900 -5.523667649999999 2.3246658900000003 7.65987363 -0.001956 0.048971 0.009538
19920 -5.521862610000001 2.29548114 7.72454115 0.003445 0.060683 0.0063560000000000005
19940 -5.54536737 2.34457038 7.765998210000001 0.005603 0.06387999999999999 0.004229999999999999
19960 -5.56033743 2.38574295 7.81794216 0.0077459999999999985 0.06282 0.001042
19980 -5.54746671 2.4481541700000005 7.81884468 0.008799 0.055377 -0.003214
20000 -5.49612117 2.50533666 7.78995423 0.00555 0.045796 -0.002156
20020 -5.45300622 2.53063665 7.72408989 0.001235 0.035159 -0.002173
20040 -5.4603441 2.59291053 7.684565399999999 -0.000933 0.02877 -0.001112
20060 -5.475461310000001 2.62404747 7.663464090000001 -0.003076 0.025586 -0.002191
20080 -5.481151110000001 2.6232921 7.65403668 -0.003086 0.023456 -0.002188
20100 -5.5200673799999995 2.59679529 7.6555278000000015 -0.005219 0.023463 -0.002203
20120 -5.537431080000001 2.5408194300000004 7.6333768200000005 -0.003076 0.024525 -0.003258
20140 -5.55973902 2.49021945 7.632032850000001 -0.00199 0.030904 -0.0011220000000000002
20160 -5.586687090000001 2.4677643600000003 7.64579628 -0.003033 0.039417 0.002065
20180 -5.573061000000001 2.42570889 7.62828543 -0.003004 0.047931 0.00419
20200 -5.554794780000001 2.40564744 7.63292556 0.000221 0.053246 0.0042060000000000005
20220 -5.54058009 2.3483178000000002 7.591164389999999 0.004478 0.048979 0.002105
20240 -5.55734538 2.2815509400000002 7.619750730000001 0.0033880000000000004 0.043656 0.002104
20260 -5.5580909400000005 2.27946141 7.65403668 0.001235 0.040464 0.003161
20280 -5.53010301 2.29412736 7.75042974 0.001235 0.039403 0.002095
20300 -5.536538370000001 2.32915887 7.803717659999999 0.001235 0.038342 0.0010279999999999998
20320 -5.4943259399999995 2.3683792500000003 7.828272090000001 0.001215 0.03408 0.001033
20340 -5.45764635 2.42600319 7.821081360000001 -0.000928 0.031957 0.001021
20360 -5.39223327 2.4818417100000003 7.7707953000000005 -0.000957 0.027688 0.003163
20380 -5.3965791 2.53393281 7.73052525 -0.005234 0.026633 0.004202
20400 -5.40047367 2.58767199 7.72423704 -0.003081 0.030887 0.004212
20420 -5.413491540000001 2.59889463 7.683819840000001 -0.000923 0.034084 0.002086
20440 -5.41604214 2.5914096 7.648199730000001 -0.0019760000000000003 0.036222 0.001008
20460 -5.464238669999999 2.5673064300000004 7.63906662 -0.0008990000000000002 0.038349 0.001013
20480 -5.47815906 2.50489521 7.63651602 -0.003014 0.042618 0.000993
20500 -5.491932300000001 2.44531908 7.67154753 -0.0008699999999999999 0.045802 0.002072
20520 -5.5401288300000004 2.38648851 7.70313573 0.000221 0.050063 0.001006
20540 -5.55015465 2.35295793 7.7347141200000005 0.006631000000000001 0.05111 -1.9e-05
20560 -5.54357214 2.32002576 7.73995266 0.007693000000000002 0.050041 -1e-05
20580 -5.56662564 2.31703371 7.731270810000001 0.004478 0.045796 -0.0010960000000000002
20600 -5.57111862 2.35984455 7.737559020000001 0.007654999999999999 0.044702 0.003201
20620 -5.53563585 2.3942678400000004 7.71600645 0.005512 0.041518 0.002122
20640 -5.516624070000001 2.41746849 7.67709018 0.00444 0.040457 0.002116
20660 -5.48279919 2.46192741 7.70328288 0.000134 0.033010000000000005 0.003163
20680 -5.4922266 2.48932674 7.700133870000001 -0.000961 0.025562 0.002097
20700 -5.5024093800000005 2.48378409 7.695346590000001 -0.004176 0.024499 0.004212
20720 -5.46154092 2.5093783800000002 7.688008710000001 -0.0031 0.027687 0.0052840000000000005
20740 -5.47411734 2.5186586400000004 7.7005851299999994 -0.0020280000000000003 0.03087 0.007423999999999998
20760 -5.475461310000001 2.51731467 7.706422080000001 -0.002014 0.035127 0.008487
20780 -5.45840172 2.4810863400000005 7.68651759 -0.002014 0.03831 0.011687
20800 -5.46558264 2.4688140300000003 7.72019532 0.001206 0.040438 0.009571
20820 -5.4862425 2.45864106 7.694002620000001 0.005502 0.045754 0.008526
20840 -5.48444727 2.43303696 7.72408989 0.00445 0.04577 0.005314
20860 -5.47801191 2.39412069 7.738157429999999 0.006606999999999999 0.051089 0.005322
20880 -5.49028422 2.3936694300000005 7.736509350000001 0.003426 0.056422 0.006361
20900 -5.51168964 2.3779538100000006 7.71780168 0.004488000000000001 0.057475 0.008503
20920 -5.51288646 2.38274109 7.717948830000001 0.0066170000000000005 0.056403 0.00852
20940 -5.530397310000001 2.42570889 7.7269347900000005 0.005545 0.055341 0.008514
20960 -5.51752659 2.42720001 7.70462685 0.002325 0.053213 0.01063
20980 -5.522470830000001 2.4418757700000002 7.713161550000001 0.002302 0.047887 0.010637
21000 -5.49626832 2.46851973 7.70656923 -0.000913 0.045763 0.011685
21020 -5.48489853 2.4493608000000004 7.713161550000001 -0.003105 0.037232 0.015954
21040 -5.485938389999999 2.4647723100000003 7.69639626 -0.004124 0.045766 0.013799
21060 -5.49746514 2.47256145 7.673342760000001 -0.000889 0.050029 0.010612
21080 -5.4947772 2.47256145 7.6830742800000005 0.0023350000000000003 0.052161 0.007427
21100 -5.49387468 2.45474649 7.688008710000001 0.000197 0.052164 0.00848
21120 -5.49702369 2.44740861 7.699241160000001 -0.000851 0.054307000000000015 0.006334
21140 -5.49626832 2.45938662 7.70522526 0.000211 0.052177 0.005276
21160 -5.48729217 2.4438181500000002 7.7395014 0.000206 0.051111 0.005277
21180 -5.507647919999999 2.44561338 7.7278275 0.00233 0.048973 0.005295
21200 -5.49746514 2.44441656 7.729181280000001 0.001254 0.05003 0.008490000000000001
21220 -5.49671958 2.4251104800000003 7.71256314 0.000187 0.050033 0.008483
21240 -5.48983296 2.40983631 7.741600740000001 0.000177 0.047903 0.008486
21260 -5.4666323100000005 2.38603725 7.7091198300000014 0.002292 0.043634 0.008506
21280 -5.47935588 2.4206175 7.731722070000001 0.002292 0.043634 0.008506
21300 -5.4836919 2.40445062 7.72992684 0.000173 0.047899 0.009554
21320 -5.507343810000001 2.43947232 7.7104638 0.00233 0.053216999999999993 0.009562
21340 -5.49911322 2.43274266 7.69699467 0.004493 0.058541 0.008502
21360 -5.50150686 2.47136463 7.69460103 0.005579 0.061737 0.007437
21380 -5.482946340000001 2.4611818500000004 7.7067261899999995 0.004526 0.063875 0.006359
21400 -5.50704951 2.47450383 7.70807016 0.004507 0.059614 0.006364
21420 -5.514985800000001 2.45145033 7.65987363 0.002359 0.057487 0.00742
21440 -5.50704951 2.43154584 7.65971667 0.000201 0.053229 0.008479
21460 -5.509296 2.47136463 7.694149770000001 -0.0008849999999999998 0.050033 0.009544
21480 -5.5283077800000004 2.4911219700000005 7.70582367 -0.0008849999999999998 0.051094 0.010611
21500 -5.538932010000001 2.52090513 7.727680350000001 0.001259 0.053216999999999993 0.010623
21520 -5.538480750000001 2.48348979 7.7005851299999994 0.000192 0.052160000000000005 0.009548
21540 -5.53563585 2.4569929800000003 7.682328720000001 -0.000889 0.048968 0.009545
21560 -5.522912280000001 2.43678438 7.697740230000001 -0.000904 0.045772 0.009549
21580 -5.51333772 2.4418757700000002 7.70253732 -0.000909 0.042584 0.007417
21600 -5.50315494 2.433193920000001 7.70656923 0.000173 0.043655 0.005286
21620 -5.50989441 2.45159748 7.695199440000001 0.00015800000000000002 0.039398 0.004224
21640 -5.51482884 2.4550407900000004 7.679483820000001 0.00016299999999999998 0.039402 0.0031550000000000003
21660 -5.501212560000001 2.4719630400000003 7.66915389 0.002273 0.037251 0.006377000000000001
21680 -5.5103456699999995 2.4670188000000004 7.685163810000001 -0.001956 0.04791 0.008471
21700 -5.5238148 2.45549205 7.65358542 0.003421 0.054296 0.005295
21720 -5.48803773 2.46851973 7.700290830000001 0.004483 0.052166 0.004237
21740 -5.4893817 2.4658219800000003 7.697740230000001 0.0023350000000000003 0.048978 0.004226
21760 -5.5266597 2.47749588 7.72333452 0.000192 0.047916 0.005281
21780 -5.53115268 2.4566888700000002 7.68052368 -0.0008699999999999999 0.048985 0.005272
21800 -5.52845493 2.48632488 7.68666474 -0.001961 0.045784 0.007405
21820 -5.535488699999999 2.45923947 7.67304846 -0.003038 0.044718 0.008467
21840 -5.5440234 2.46192741 7.662718530000001 -0.001966 0.044719 0.007406999999999999
21860 -5.529651750000001 2.4819888600000004 7.67872845 0.000177 0.045781 0.006352
21880 -5.57141292 2.47405257 7.67169468 0.001263 0.048977 0.005287
21900 -5.529798899999999 2.48468661 7.66181601 0.002325 0.044725 0.002095
21920 -5.53369347 2.4691181400000004 7.671841830000001 0.001259 0.044729000000000005 0.002088
21940 -5.56856802 2.46402675 7.671998790000001 0.002311 0.041529 0.002099
21960 -5.574561930000001 2.47001085 7.66855548 0.00016299999999999998 0.03728 0.001022
21980 -5.555098889999999 2.4742095300000004 7.65313416 0.000149 0.033023000000000004 -4.1e-05
22000 -5.567224050000001 2.46941244 7.64325549 -0.002014 0.0277 0.001019
22020 -5.5741106700000005 2.4819888600000004 7.65403668 -0.0031 0.024504 0.002083
22040 -5.53324221 2.4876786600000003 7.6651121700000004 -0.004157 0.026638 0.002073
22060 -5.557796639999999 2.4962133600000005 7.6670545500000005 -0.003081 0.028765 0.002078
22080 -5.5362342600000005 2.45864106 7.650593370000001 -0.003057 0.035152 0.003138
22100 -5.5402759800000005 2.44831113 7.674088320000001 0.000153 0.03621 0.002091
22120 -5.5621326600000005 2.5047382500000004 7.65583191 0.00015800000000000002 0.036215 0.001023
22140 -5.57485623 2.5146169200000004 7.6746867299999995 0.000144 0.033019 0.001027
22160 -5.56437915 2.49949971 7.6493965500000005 -0.003076 0.028769 0.00101
22180 -5.54895783 2.5012949399999997 7.6407147 -0.005234 0.024511 0.002068
22200 -5.5479081599999995 2.47120767 7.64909244 -0.003105 0.023438 0.002085
22220 -5.5519498800000004 2.4400805400000003 7.66107045 -0.002023 0.02557 0.001021
22240 -5.54312088 2.46552768 7.6555278000000015 0.0012109999999999998 0.031954 -3.2e-05
22260 -5.541031350000001 2.46642039 7.6468459499999994 -0.00199 0.031965 -5.5e-05
22280 -5.545220220000001 2.4908178600000004 7.63397523 -0.002004 0.02877 -5.1e-05
22300 -5.55659982 2.4941140200000005 7.640410590000001 -0.003095 0.02663 0.003149
22320 -5.56437915 2.5083385200000006 7.65612621 -0.004124 0.033034 0.000997
22340 -5.55539319 2.5035414300000003 7.636368870000001 0.002282 0.031955000000000004 -0.001093
22360 -5.57844669 2.4848337600000003 7.6324743 0.001235 0.034098 -0.00324
22380 -5.564830410000001 2.49351561 7.615561860000001 -0.001985 0.033031 -5.600000000000001e-05
22400 -5.55330366 2.4938099100000004 7.62783417 -0.000913 0.033031 -0.001117
22420 -5.55539319 2.4966548100000003 7.641607410000001 -0.001985 0.030909 -0.00219
22440 -5.55315651 2.4929172000000004 7.6350248999999994 -0.003052 0.030912 -0.002197
22460 -5.564526300000001 2.4866289900000003 7.63023762 -0.002 0.028774 -0.001119
22480 -5.574561930000001 2.4813904499999997 7.62918795 -0.002 0.029835000000000007 -5.2e-05
22500 -5.57516034 2.4777999900000003 7.64999496 -0.00199 0.030904 -0.0011220000000000002
22520 -5.588776620000001 2.4698637 7.6453548300000005 -0.00198 0.033035 -0.001124
22540 -5.582792520000001 2.485883430000001 7.665710580000001 0.001215 0.033019 -3.4e-05
22560 -5.539383270000001 2.4903665999999998 7.64235297 0.001182 0.027685 0.002109
22580 -5.53563585 2.46268278 7.6552335000000005 -0.003086 0.0277 0.002079
22600 -5.54222817 2.4827344200000003 7.635623310000001 -0.002004 0.029831 0.001016
22620 -5.53474314 2.4674700600000006 7.655979060000001 -0.001995 0.0309 -5.400000000000001e-05
22640 -5.535792810000001 2.485883430000001 7.650142110000001 0.001206 0.030889 -3.1e-05
22660 -5.53983453 2.48857137 7.677688590000002 -0.000933 0.031952999999999995 0.002089
22680 -5.5411785 2.4911219700000005 7.69579785 0.000134 0.031949 0.002096
22700 -5.56019028 2.46642039 7.688312820000001 -0.003076 0.031952 0.00421
22720 -5.56258392 2.4596809200000003 7.658519850000001 -0.003066 0.033022 0.003141
22740 -5.5184291100000005 2.44231722 7.65568476 -0.004128 0.035152 0.0041990000000000005
22760 -5.55135147 2.48887548 7.660020780000001 -0.002004 0.031952999999999995 0.00315
22780 -5.55555015 2.4957621000000003 7.65313416 -0.002004 0.030892000000000006 0.002083
22800 -5.53563585 2.48947389 7.67753163 -0.003062 0.031965 0.001006
22820 -5.54926194 2.4757006500000003 7.640557740000001 -0.000933 0.030892000000000006 0.001022
22840 -5.5479081599999995 2.46223152 7.67140038 -0.000933 0.031952999999999995 0.002089
22860 -5.5543533300000005 2.47615191 7.65822555 -0.00199 0.033026 0.001012
22880 -5.55524604 2.45459934 7.6669074 -0.000928 0.031957 0.001021
22900 -5.542826580000001 2.46432105 7.683221430000001 -0.00199 0.033026 0.001012
22920 -5.55180273 2.4587882100000003 7.64610039 -0.002014 0.0277 0.001019
22940 -5.54746671 2.4866289900000003 7.6612176000000005 -0.006286 0.028772 0.003124
22960 -5.554951740000001 2.4804879300000002 7.67424528 -0.004133 0.031964 0.0020670000000000003
22980 -5.53953042 2.4807920400000003 7.6746867299999995 -0.000923 0.031962 -4.7e-05
23000 -5.50719666 2.4532455600000005 7.66855548 -0.000913 0.033031 -0.001117
23020 -5.512582350000001 2.44876239 7.69788738 -0.00199 0.031965 -5.5e-05
23040 -5.51587851 2.44202292 7.674088320000001 -0.003038 0.03623 -6.8e-05
23060 -5.53458618 2.46312423 7.684565399999999 -0.001966 0.038353 0.001005
23080 -5.531751090000001 2.44860543 7.69010805 -0.001961 0.039418 0.001004
23100 -5.541776909999999 2.45295126 7.67424528 0.00123 0.039398 0.003163
23120 -5.53728393 2.4581898000000004 7.69384566 0.000177 0.039415 -4.9e-05
23140 -5.511238379999999 2.4674700600000006 7.691452020000001 -0.0008939999999999998 0.039414 0.001011
23160 -5.522470830000001 2.47256145 7.689205530000001 0.000173 0.039411 0.001019
23180 -5.5200673799999995 2.4762990600000006 7.687410300000001 -0.000904 0.037284 0.001014
23200 -5.530701420000001 2.47510224 7.6690067399999995 0.00015800000000000002 0.036215 0.001023
23220 -5.51917467 2.4812433000000005 7.68965679 0.000149 0.035145 0.002092
23240 -5.513936129999999 2.4830385300000004 7.68412395 -0.000933 0.031952999999999995 0.002089
23260 -5.525011620000001 2.47151178 7.68486951 -0.003047 0.0341 -6.500000000000001e-05
23280 -5.51587851 2.46462516 7.6772373300000005 -0.003047 0.035161000000000005 0.001002
23300 -5.513484870000001 2.46013218 7.6908536100000005 -0.001985 0.034092000000000004 0.001011
23320 -5.50210527 2.47944807 7.68771441 -0.000923 0.035145 0.003153
23340 -5.494620240000001 2.47001085 7.70357718 -0.00199 0.035148 0.003146
23360 -5.516182620000001 2.4400805400000003 7.66420965 -0.00198 0.036218 0.002076
23380 -5.51138553 2.43947232 7.6788854099999995 -0.001971 0.039409 0.00314
23400 -5.513033610000001 2.45639457 7.69579785 -0.001971 0.039409 0.00314
23420 -5.518870560000001 2.48378409 7.6911577200000005 0.00015800000000000002 0.038337 0.003157
23440 -5.49417879 2.4435140400000006 7.685320770000001 0.00016299999999999998 0.039402 0.0031550000000000003
23460 -5.49671958 2.4498022500000003 7.707775860000001 0.000177 0.041537 0.002084
23480 -5.4865368000000005 2.45908251 7.703881290000001 -0.000909 0.040462 0.005283
23500 -5.5142304300000005 2.47405257 7.694149770000001 -0.001966 0.041536 0.0042060000000000005
23520 -5.495375610000001 2.4815376000000002 7.69788738 0.000173 0.043655 0.005286
23540 -5.50899189 2.43498915 7.674088320000001 -0.0008939999999999998 0.041536 0.003145
23560 -5.4881848799999995 2.44441656 7.68965679 0.00015800000000000002 0.037276 0.00209
23580 -5.513936129999999 2.4540009300000003 7.7246883 -0.001995 0.033022 0.0020800000000000003
23600 -5.5121409 2.4614859599999996 7.691608980000001 -0.001966 0.038353 0.001005
23620 -5.5203714900000005 2.4848337600000003 7.6788854099999995 0.004445 0.0394 -1.9e-05
23640 -5.52890619 2.4617802600000003 7.694002620000001 0.003383 0.042591 0.002105
23660 -5.50554858 2.45340252 7.67064501 -0.0008849999999999998 0.042606 0.002076
23680 -5.50210527 2.4780942900000005 7.709571090000001 -0.0008849999999999998 0.041545 0.001009
23700 -5.49088263 2.45864106 7.6950522900000005 -0.001961 0.037296 -0.00113
23720 -5.497916399999999 2.4501063600000004 7.711062210000001 -0.000904 0.035162 -0.00112
23740 -5.48504568 2.45025351 7.697141820000001 -0.003052 0.033034 -6.4e-05
23760 -5.5142304300000005 2.4509990700000004 7.690559310000001 -0.003066 0.0309 0.001007
23780 -5.495071500000001 2.43932517 7.6899609 -0.000928 0.031957 0.001021
23800 -5.505254280000001 2.4665675400000002 7.69654341 0.000134 0.031949 0.002096
23820 -5.498966070000001 2.4679213200000003 7.71061095 0.001215 0.03408 0.001033
23840 -5.48713521 2.4550407900000004 7.70986539 0.001206 0.034072000000000005 0.003169
23860 -5.488940250000001 2.46687165 7.69639626 0.001225 0.037272 0.002097
23880 -5.47246926 2.4697165500000002 7.7050781100000005 0.00015800000000000002 0.038337 0.003157
23900 -5.48609535 2.46806847 7.708668570000001 0.00015800000000000002 0.038337 0.003157
23920 -5.49372753 2.45280411 7.713161550000001 0.000153 0.039393 0.005292
23940 -5.47246926 2.44666305 7.70792301 0.001244 0.043655 0.004226
23960 -5.4747157500000005 2.44726146 7.72603227 0.000182 0.045785 0.0052840000000000005
23980 -5.49387468 2.44426941 7.69010805 0.002321 0.046843 0.005297
24000 -5.518125 2.4776430300000003 7.68486951 0.002325 0.047908 0.005296
24020 -5.5262084399999996 2.4562376100000005 7.69324725 0.0033880000000000004 0.048961000000000005 0.007437999999999998
24040 -5.503753350000001 2.4509990700000004 7.69609215 0.003383 0.048957 0.008506999999999999
24060 -5.51992023 2.47794714 7.68501666 0.000168 0.046833 0.009555
24080 -5.50210527 2.4812433000000005 7.7068733400000005 0.000153 0.042576 0.008492
24100 -5.50016289 2.47615191 7.716153600000001 0.001225 0.043638 0.008498
24120 -5.50181097 2.4457605300000003 7.68965679 0.00123 0.044703 0.008497
24140 -5.514681690000001 2.46432105 7.6928058 0.002321 0.047904 0.006364
24160 -5.4890874 2.45833695 7.69654341 0.002325 0.047908 0.005296
24180 -5.50570554 2.4577385400000002 7.67738448 0.00234 0.052165 0.006359
24200 -5.518870560000001 2.46312423 7.699241160000001 0.002359 0.052182000000000006 0.002086
24220 -5.49956448 2.4632811900000005 7.69684752 0.003407 0.050039 0.004233
24240 -5.504950170000001 2.44740861 7.695945 0.001244 0.044716000000000006 0.005293
24260 -5.48713521 2.43872676 7.70821731 0.000149 0.041511 0.008494
24280 -5.508540630000001 2.43678438 7.698044340000001 -0.000866 0.052172 0.007405
24300 -5.48743932 2.42480637 7.73262459 0.003412 0.053226 0.006365
24320 -5.480699850000001 2.43049617 7.72258896 0.004488000000000001 0.054291999999999986 0.005303
24340 -5.4944730900000005 2.44740861 7.72124499 0.001268 0.052164 0.00742
24360 -5.49327627 2.4569929800000003 7.70837427 -0.000866 0.05005 0.0052710000000000005
24380 -5.5203714900000005 2.46806847 7.713308700000001 -0.000866 0.05005 0.0052710000000000005
24400 -5.50794222 2.45280411 7.70792301 0.000206 0.052172 0.006344
24420 -5.488341840000001 2.4536968200000002 7.701487650000001 0.00023 0.05856 0.007404000000000002
24440 -5.510639970000001 2.47001085 7.717948830000001 0.001292 0.05749099999999999 0.007412999999999999
24460 -5.48729217 2.44755576 7.695650700000001 0.002349 0.053234 0.005289
24480 -5.50031004 2.44726146 7.728131610000001 0.003426 0.052178 0.002094
24500 -5.49776925 2.4460646400000003 7.70268447 0.004483 0.050044 0.002104
24520 -5.49702369 2.47405257 7.688312820000001 0.004469 0.04897 0.004241
24540 -5.49327627 2.4608777400000004 7.685919180000001 0.002321 0.048965 0.007431
24560 -5.491932300000001 2.4381283500000004 7.6911577200000005 0.001254 0.048969 0.007423999999999998
24580 -5.509296 2.4532455600000005 7.70103639 -0.0008849999999999998 0.047911 0.007409999999999998
24600 -5.520969900000001 2.4611818500000004 7.71256314 -0.001966 0.044719 0.007406999999999999
24620 -5.52874923 2.461329 7.7130144 -0.0008990000000000002 0.043654000000000005 0.006347
24640 -5.51154249 2.49067071 7.68666474 0.00016299999999999998 0.043646 0.007423000000000002
24660 -5.50150686 2.47929111 7.67439243 0.001249 0.046842 0.006358
24680 -5.510041560000001 2.47211019 7.69684752 0.000182 0.048968 0.008484
24700 -5.495071500000001 2.46013218 7.69205043 -0.000866 0.052172 0.007405
24720 -5.4943259399999995 2.430192060000001 7.6929529500000005 0.000197 0.052164 0.00848
24740 -5.5182721500000005 2.4807920400000003 7.695945 0.000192 0.051099 0.008482
24760 -5.524560360000001 2.485883430000001 7.689362490000001 0.002297 0.0447 0.008505
24780 -5.49956448 2.4596809200000003 7.69684752 0.000168 0.044711 0.007421
24800 -5.52561003 2.46491946 7.701330690000001 0.00123 0.04152 0.005296
24820 -5.4881848799999995 2.4566888700000002 7.682024610000001 -0.000909 0.040462 0.005283
24840 -5.491628189999999 2.44426941 7.68651759 0.003383 0.043652 0.003172
24860 -5.514985800000001 2.45159748 7.69953546 0.002349 0.050051 0.002089
24880 -5.53144698 2.4532455600000005 7.695650700000001 0.001273 0.048986 0.003151
24900 -5.5443177 2.4328898100000007 7.68666474 0.001259 0.046851 0.004222
24920 -5.53129983 2.4598378800000003 7.6640625 0.0012109999999999998 0.03832 0.006369
24940 -5.54476896 2.47615191 7.651486080000001 -0.000909 0.044706 0.00955
24960 -5.53294791 2.49246594 7.674088320000001 0.000182 0.046846 0.006351
24980 -5.53967757 2.49021945 7.66061919 0.002325 0.046847 0.004229
25000 -5.50554858 2.48244012 7.668251370000001 0.000197 0.046859 0.003146
25020 -5.529651750000001 2.48258727 7.66870263 -0.0008699999999999999 0.046863 0.003139
25040 -5.530397310000001 2.4481541700000005 7.684271100000001 -0.000866 0.046867 0.00207
25060 -5.54297373 2.4569929800000003 7.65298701 0.000206 0.047928 0.002076
25080 -5.538480750000001 2.45055762 7.663611240000001 -0.000866 0.047928 0.003137
25100 -5.52755241 2.4670188000000004 7.6751379900000005 0.001259 0.044729000000000005 0.002088
25120 -5.545818629999999 2.4578856900000003 7.66061919 0.00016299999999999998 0.040463 0.004222
25140 -5.559591870000001 2.4623786700000005 7.65867681 0.001235 0.039403 0.002095
25160 -5.53983453 2.44740861 7.66810422 -0.000933 0.033014 0.003156
25180 -5.553902070000001 2.4757006500000003 7.66226727 -0.002004 0.031952999999999995 0.00315
25200 -5.557639679999999 2.4887283300000003 7.660167930000001 -0.002004 0.031952999999999995 0.00315
25220 -5.53458618 2.47120767 7.67064501 -0.000923 0.034084 0.002086
25240 -5.5528524 2.4810863400000005 7.660020780000001 -0.000918 0.034088 0.001018
25260 -5.532790950000001 2.48677614 7.638468210000001 -0.000933 0.031952999999999995 0.002089
25280 -5.538480750000001 2.46013218 7.651486080000001 -0.001995 0.031961 0.001013
25300 -5.548810680000001 2.4783984000000006 7.66915389 -0.003071 0.031956 0.0031420000000000003
25320 -5.564830410000001 2.4869331000000003 7.66810422 -0.003062 0.034087 0.00314
25340 -5.55928776 2.48378409 7.67678607 -0.000913 0.036214 0.002084
25360 -5.5588365 2.4638796000000003 7.669752300000001 -0.000913 0.037275 0.003151
25380 -5.52800367 2.4578856900000003 7.6495437 -0.000913 0.037275 0.003151
25400 -5.542669620000001 2.4427684800000002 7.64864118 -0.001985 0.035153 0.002078
25420 -5.554951740000001 2.50025508 7.660020780000001 -0.000923 0.033023000000000004 0.001019
25440 -5.5528524 2.507436 7.669448190000001 -0.000942 0.029823 0.002092
25460 -5.5556973 2.51566659 7.669301040000001 -0.000942 0.028762 0.001025
25480 -5.5500075 2.4772015800000005 7.6552335000000005 -0.002004 0.029831 0.001016
25500 -5.557796639999999 2.46462516 7.66420965 0.000153 0.035149 0.001024
25520 -5.548810680000001 2.46357549 7.658519850000001 0.001225 0.036211 0.00103
25540 -5.57215848 2.47225734 7.66061919 0.000139 0.030893 -3.9e-05
25560 -5.56497756 2.47405257 7.6395178800000005 -0.000957 0.024505 -3.8e-05
25580 -5.550311610000001 2.4659691300000004 7.63696728 -0.004157 0.027699 0.00314
25600 -5.56557597 2.49785163 7.6393609200000006 -0.003066 0.031961 0.002074
25620 -5.554794780000001 2.50100064 7.631130330000001 0.001215 0.033019 -3.4e-05
25640 -5.54895783 2.47330701 7.647748470000001 -0.001971 0.036226 -6e-05
25660 -5.5528524 2.47225734 7.64864118 -0.003038 0.035169 -0.001135
25680 -5.56019028 2.4908178600000004 7.63861536 -0.001971 0.035164999999999995 -0.001127
25700 -5.553902070000001 2.50489521 7.647150060000001 -0.001971 0.036226 -6e-05
25720 -5.551204320000001 2.50549362 7.64624754 -0.003033 0.037295 -6.9e-05
25740 -5.547613860000001 2.48916978 7.66496502 -0.00198 0.035157 0.001009
25760 -5.5556973 2.4667245 7.65568476 0.000149 0.034084 0.001026
25780 -5.557492530000001 2.47151178 7.635623310000001 0.001215 0.03408 0.001033
25800 -5.56033743 2.4966548100000003 7.644158010000001 0.001215 0.03408 0.001033
25820 -5.54297373 2.47914396 7.662561570000001 -0.000937 0.029827 0.001023
25840 -5.580241920000001 2.46043629 7.64505072 -0.001995 0.031961 0.001013
25860 -5.5682737200000005 2.4947124300000003 7.66301283 -0.000928 0.031957 0.001021
25880 -5.573208149999999 2.4810863400000005 7.640557740000001 0.001201 0.031945999999999995 0.002104
25900 -5.5443177 2.4878258100000004 7.639665030000001 -0.00199 0.033026 0.001012
25920 -5.5383336000000005 2.4562376100000005 7.636368870000001 -0.003076 0.030891 0.003144
25940 -5.547162600000001 2.45549205 7.66136475 -0.004143 0.030895 0.003136
25960 -5.550311610000001 2.4789968100000004 7.66676025 -0.003095 0.027691000000000004 0.004215999999999999
25980 -5.53608711 2.48289138 7.65628317 -0.005214 0.030894 0.004197
26000 -5.5380294899999996 2.4813904499999997 7.64459946 -0.002009 0.031948000000000004 0.004218
26020 -5.553597959999999 2.48916978 7.65568476 -0.000918 0.037271 0.004219
26040 -5.54371929 2.4340866300000004 7.67214594 0.00122 0.035146 0.001032
26060 -5.537882340000001 2.4807920400000003 7.662120120000001 0.00122 0.036207 0.002099
26080 -5.526954000000001 2.5104280500000002 7.6552335000000005 -0.000909 0.037279 0.002082
26100 -5.53608711 2.4962133600000005 7.66375839 0.00015800000000000002 0.037276 0.00209
26120 -5.5380294899999996 2.50040223 7.66660329 -0.002014 0.031944 0.005286
26140 -5.529504600000001 2.4659691300000004 7.6772373300000005 -0.004138 0.03196 0.003135
26160 -5.54986035 2.46223152 7.6555278000000015 -0.004152 0.028764 0.003139
26180 -5.547761010000001 2.461329 7.66301283 -0.007372 0.023453 0.002055
26200 -5.526502740000001 2.447114310000001 7.675589250000001 -0.006344 0.014928 0.002073
26220 -5.53683267 2.47345416 7.663915350000001 -0.008520999999999999 0.008531 0.0052710000000000005
26240 -5.545220220000001 2.4610347 7.68860712 -0.007396 0.018127 0.002062
26260 -5.53758804 2.45340252 7.68022938 -0.000957 0.024505 -3.8e-05
26280 -5.558238090000001 2.4926130900000003 7.663611240000001 0.002297 0.037273 0.001037
26300 -5.56033743 2.4813904499999997 7.650142110000001 0.003421 0.046869 -0.002173
26320 -5.54192406 2.4647723100000003 7.668251370000001 0.004512 0.051131 -0.003239
26340 -5.54132565 2.47076622 7.666161840000001 0.001307 0.051137 -0.002193
26360 -5.526061290000001 2.4819888600000004 7.64834688 0.00023 0.049011 -0.002198
26380 -5.519773080000001 2.4692652900000005 7.675442100000001 0.001292 0.046881 -0.003256
26400 -5.52306924 2.45459934 7.699241160000001 0.003421 0.046869 -0.002173
26420 -5.50315494 2.46073059 7.673342760000001 0.003421 0.045808 -0.003239
26440 -5.51558421 2.46163311 7.673342760000001 0.003397 0.041543 -0.002166
26460 -5.51692818 2.44456371 7.70627493 0.003373 0.037277 -0.001092
26480 -5.518125 2.48213601 7.68637044 -0.003081 0.028765 0.002078
26500 -5.5402759800000005 2.4599850300000004 7.681730310000001 -0.006324000000000001 0.021311 0.004201
26520 -5.49327627 2.4780942900000005 7.69833864 -0.008497 0.013857 0.005264
26540 -5.52486447 2.46866688 7.70627493 -0.009578 0.011726 0.006327
26560 -5.51558421 2.46058344 7.67753163 -0.006363000000000001 0.015972 0.007412999999999999
26580 -5.53398777 2.47120767 7.69235454 -0.008444 0.025575 0.005249
26600 -5.50345905 2.4772015800000005 7.68845997 -0.003052 0.038339 0.0052710000000000005
26620 -5.511238379999999 2.46357549 7.6746867299999995 -0.0008849999999999998 0.045789 0.005276
26640 -5.51558421 2.47929111 7.672597199999999 0.001273 0.050047 0.004218
26660 -5.51872341 2.47330701 7.66540647 0.001259 0.046851 0.004222
26680 -5.513632020000001 2.4611818500000004 7.65478224 0.001268 0.045798 0.001018
26700 -5.50210527 2.43468504 7.6350248999999994 0.002316 0.040473 -3.6e-05
26720 -5.50554858 2.4201662400000004 7.700437980000001 0.002316 0.039412 -0.001103
26740 -5.487890580000001 2.45728728 7.700133870000001 0.003397 0.041543 -0.002166
26760 -5.52486447 2.4620843700000004 7.766302320000001 0.001254 0.040481 -0.001111
26780 -5.508697590000001 2.43932517 7.745495310000001 0.00123 0.036215 -3.8e-05
26800 -5.501663820000001 2.44472067 7.77123675 -0.000913 0.034092000000000004 -5e-05
26820 -5.494021830000001 2.4816847500000003 7.7350182300000005 -0.004128 0.030908 -6.8e-05
26840 -5.479051770000001 2.47076622 7.729328430000001 -0.002033 0.025561 0.003158
26860 -5.48504568 2.50489521 7.67648196 -0.004157 0.029821 0.005274
26880 -5.48459442 2.49485958 7.69609215 -0.004162 0.028756 0.005275
26900 -5.50045719 2.49935256 7.667505810000001 -0.005181 0.038351 0.004188
26920 -5.537882340000001 2.49097482 7.6700466 0.003373 0.04046 0.002108
26940 -5.54312088 2.5050423600000005 7.6208004 0.005536 0.044722000000000005 -1.9e-05
26960 -5.5362342600000005 2.4417188100000002 7.650593370000001 0.0044740000000000005 0.046852 0.001039
26980 -5.5411785 2.43917802 7.66375839 0.003397 0.044726 0.001035
27000 -5.51228805 2.4179197500000003 7.67080197 0.003397 0.045787 0.002102
27020 -5.526954000000001 2.40758982 7.666456139999999 0.003397 0.045787 0.002102
27040 -5.53608711 2.38214268 7.681877460000001 0.003392 0.045782 0.00317
27060 -5.4925307100000005 2.38050441 7.71780168 0.002325 0.046847 0.004229
27080 -5.52470751 2.39681844 7.77034404 0.001249 0.045781 0.005291
27100 -5.51482884 2.43034902 7.76450709 0.001244 0.046838 0.007426
27120 -5.4925307100000005 2.4620843700000004 7.765998210000001 0.003368 0.047883 0.010644
27140 -5.475461310000001 2.4878258100000004 7.732173330000001 0.001235 0.048952 0.011696
27160 -5.426960670000001 2.5134201000000003 7.740099810000001 0.001239 0.051078 0.012762
27180 -5.42636226 2.52015957 7.7067261899999995 0.002321 0.054270000000000006 0.012765
27200 -5.4268135200000005 2.51671626 7.6989370500000005 0.002325 0.054274 0.011697
27220 -5.45630238 2.5224060600000002 7.69998672 0.001259 0.052156 0.009556
27240 -5.48698806 2.48857137 7.701487650000001 0.004454 0.050018 0.008513
27260 -5.4925307100000005 2.45414808 7.688008710000001 0.004459 0.048962 0.006378
27280 -5.50554858 2.4343907400000004 7.67709018 0.004454 0.046835 0.005312
27300 -5.5145345400000005 2.4288480900000002 7.667505810000001 0.003383 0.047896 0.00744
27320 -5.511238379999999 2.41163154 7.67154753 0.00234 0.051104 0.005292
27340 -5.5383336000000005 2.38184838 7.682024610000001 0.003392 0.048965 0.006370000000000001
27360 -5.550753060000001 2.36972322 7.68247587 0.001259 0.047912 0.005289
27380 -5.52111705 2.40340095 7.72363863 0.00233 0.048973 0.005295
27400 -5.51513295 2.46312423 7.713308700000001 0.00233 0.050034 0.006361
27420 -5.494620240000001 2.47076622 7.73710776 0.001268 0.051103 0.006353
27440 -5.46992847 2.47540635 7.744298490000001 0.000197 0.051103 0.007412999999999999
27460 -5.476216679999999 2.47944807 7.728582870000001 0.000187 0.048972 0.007416
27480 -5.478904620000001 2.5129786500000004 7.699241160000001 0.000197 0.051103 0.007412999999999999
27500 -5.473518929999999 2.4966548100000003 7.70986539 0.00234 0.053226 0.007426
27520 -5.4947772 2.48916978 7.681279050000001 0.0023350000000000003 0.0511 0.00636
27540 -5.48354475 2.45340252 7.70986539 0.000182 0.047907 0.007417
27560 -5.49133389 2.4298977600000002 7.685163810000001 0.001235 0.045769 0.008496
27580 -5.467377870000001 2.42690571 7.7047740000000005 -0.000866 0.054294000000000016 0.009538
27600 -5.50899189 2.4035481 7.7251395600000015 0.001283 0.053238 0.005282
27620 -5.504655870000001 2.4131324700000003 7.7168991600000005 0.003416 0.05217 0.004229999999999999
27640 -5.51558421 2.416271670000001 7.71749757 0.0023350000000000003 0.048978 0.004226
27660 -5.50570554 2.4319971000000002 7.7109150600000005 0.000206 0.048989 0.003143
27680 -5.508099179999999 2.4381283500000004 7.70268447 0.001287 0.05112 0.0020800000000000003
27700 -5.507500770000001 2.4671659500000005 7.69549374 -0.000866 0.051111 0.006338
27720 -5.502860640000001 2.4658219800000003 7.7029787700000005 0.000206 0.052172 0.006344
27740 -5.50630395 2.48363694 7.695199440000001 0.000211 0.051116 0.004209
27760 -5.49117693 2.4975573300000002 7.68396699 0.002325 0.048969 0.006363000000000001
27780 -5.4833976 2.50069653 7.6929529500000005 0.001268 0.048981 0.004219
27800 -5.49731799 2.4903665999999998 7.68097494 0.000177 0.04472 0.005285
27820 -5.50150686 2.4813904499999997 7.68022938 0.000168 0.04365 0.006355
27840 -5.50659825 2.4695694 7.6890583800000005 0.000168 0.044711 0.007421
27860 -5.51228805 2.45908251 7.68637044 0.001239 0.044712 0.006361
27880 -5.527110960000001 2.44546623 7.6987899 0.002316 0.046839 0.006365
27900 -5.545073070000001 2.4569929800000003 7.70941413 0.000173 0.045777 0.00742
27920 -5.5200673799999995 2.4628299300000003 7.6902552 0.000173 0.044716000000000006 0.006353
27940 -5.52306924 2.44037484 7.70357718 -0.001961 0.044723 0.006338
27960 -5.51632977 2.46462516 7.6751379900000005 -0.000889 0.046846 0.007411
27980 -5.50554858 2.4658219800000003 7.70612778 0.000206 0.051111 0.005277
28000 -5.5404329400000005 2.48887548 7.681279050000001 0.000206 0.052172 0.006344
28020 -5.53249665 2.4730029000000004 7.69324725 0.000197 0.051103 0.007412999999999999
28040 -5.530701420000001 2.45190159 7.668251370000001 -0.0008609999999999999 0.051115 0.00527
28060 -5.526806850000001 2.45728728 7.683525540000001 0.000187 0.045789 0.004215999999999999
28080 -5.528150820000001 2.5065334800000003 7.673646870000001 0.000168 0.041528 0.004221
28100 -5.51558421 2.51372421 7.67035071 -0.001985 0.036214 0.003144
28120 -5.5203714900000005 2.51506818 7.674990840000001 -0.000923 0.034084 0.002086
28140 -5.526806850000001 2.4762990600000006 7.662120120000001 0.000149 0.035145 0.002092
28160 -5.513033610000001 2.4553449 7.6746867299999995 -0.003038 0.03623 -6.8e-05
28180 -5.52845493 2.4544423799999997 7.687116 -0.001995 0.031961 0.001013
28200 -5.53758804 2.4481541700000005 7.67394117 -0.00309 0.024512 -5.3e-05
28220 -5.547613860000001 2.47031496 7.65987363 -0.002047 0.023426 0.004229
28240 -5.56947054 2.4830385300000004 7.634720790000001 -0.003066 0.033022 0.003141
28260 -5.54058009 2.48708025 7.66436661 0.0012109999999999998 0.033015 0.001034
28280 -5.54357214 2.4908178600000004 7.669752300000001 -0.000904 0.035162 -0.00112
28300 -5.54940909 2.48093919 7.636074570000001 -0.003042 0.031982 -0.0032670000000000004
28320 -5.54357214 2.48393124 7.647895620000001 -0.000923 0.02984 -0.002181
28340 -5.55404922 2.49217164 7.64849403 -0.003052 0.031973 -0.001131
28360 -5.55659982 2.47315986 7.6555278000000015 -0.003062 0.030904 -6.1e-05
28380 -5.53713678 2.4716589300000007 7.66451376 -0.003052 0.033034 -6.4e-05
28400 -5.542669620000001 2.4614859599999996 7.657323030000001 -0.002 0.030896 0.001015
28420 -5.54895783 2.47615191 7.644158010000001 -0.000947 0.028757 0.002093
28440 -5.56033743 2.4861777300000005 7.6612176000000005 -0.001995 0.0309 -5.400000000000001e-05
28460 -5.54926194 2.49021945 7.65672462 0.000139 0.030893 -3.9e-05
28480 -5.573208149999999 2.4777999900000003 7.6710962700000005 -0.000928 0.030896 -4.6e-05
28500 -5.56602723 2.4944083200000002 7.6651121700000004 -0.002009 0.029826 0.002084
28520 -5.55629571 2.50713189 7.635770460000001 -0.001995 0.033022 0.0020800000000000003
28540 -5.55315651 2.4974101800000006 7.65433098 -0.003066 0.031961 0.002074
28560 -5.58084033 2.50413984 7.63756569 -0.000942 0.030884 0.003159
28580 -5.554951740000001 2.48603058 7.63143444 -0.004148 0.028769 0.002071
28600 -5.54940909 2.4866289900000003 7.626038940000001 -0.003095 0.02663 0.003149
28620 -5.54132565 2.49426117 7.63008066 -0.002019 0.028757 0.003154
28640 -5.5321925400000005 2.4983028899999997 7.65358542 0.000129 0.030884 0.002098
28660 -5.564830410000001 2.48887548 7.655979060000001 -0.003057 0.034091 0.002071
28680 -5.56932339 2.49141627 7.64340264 0.000149 0.035145 0.002092
28700 -5.55165558 2.4665675400000002 7.63143444 -0.00199 0.034087 0.002079
28720 -5.55180273 2.4709133700000003 7.63412238 -0.001985 0.033031 -5.600000000000001e-05
28740 -5.566321530000001 2.4983028899999997 7.6493965500000005 -0.000928 0.030896 -4.6e-05
28760 -5.55045876 2.5102809 7.63008066 -0.000928 0.030896 -4.6e-05
28780 -5.564526300000001 2.50877997 7.678287 -0.000923 0.033023000000000004 0.001019
28800 -5.557492530000001 2.49516369 7.665710580000001 -0.000913 0.035153 0.001017
28820 -5.53608711 2.4540009300000003 7.653732570000001 -0.001995 0.033022 0.0020800000000000003
28840 -5.53443903 2.46027933 7.658971110000001 -0.003062 0.031965 0.001006
28860 -5.54297373 2.4662732400000005 7.67080197 -0.004176 0.024499 0.004212
28880 -5.55928776 2.47524939 7.64250993 -0.005214 0.029833 0.00313
28900 -5.539079159999999 2.47315986 7.63831125 -0.003042 0.036226 0.001001
28920 -5.538784860000001 2.4617802600000003 7.64804277 0.00123 0.036215 -3.8e-05
28940 -5.544621810000001 2.4816847500000003 7.6555278000000015 -0.0008990000000000002 0.038349 0.001013
28960 -5.5423753200000005 2.48916978 7.6495437 -0.0008939999999999998 0.037292 -0.0011220000000000002
28980 -5.54222817 2.48857137 7.66061919 -0.0008990000000000002 0.037288 -5.400000000000001e-05
29000 -5.529651750000001 2.47016781 7.661521710000001 -0.000904 0.035162 -0.00112
29020 -5.55375492 2.4827344200000003 7.6451978700000005 -0.003023 0.039426 -7.2e-05
29040 -5.5342918800000005 2.47540635 7.678581300000001 -0.0008849999999999998 0.041545 0.001009
29060 -5.536538370000001 2.49186753 7.6772373300000005 0.000192 0.043672 0.001014
29080 -5.53713678 2.48632488 7.650142110000001 -0.000889 0.039419 -5.7e-05
29100 -5.53503744 2.4520487400000004 7.65074052 -0.0019760000000000003 0.036222 0.001008
29120 -5.538932010000001 2.47330701 7.679326860000001 -0.003081 0.030887 0.004212
29140 -5.53458618 2.4766031700000006 7.66600488 -0.007401 0.020245 0.005263
29160 -5.53189824 2.48603058 7.67439243 -0.012798 0.0064150000000000006 0.005243
29180 -5.54371929 2.4768974700000004 7.685320770000001 -0.013936000000000002 -0.007437999999999998 0.007390000000000002
29200 -5.54162976 2.48289138 7.6790325600000005 -0.009654 -0.006379 0.005282
29220 -5.51917467 2.4876786600000003 7.67035071 -0.004224 0.013846 0.004226
29240 -5.50614699 2.47240449 7.678130040000001 0.002316 0.043656 0.003165
29260 -5.50599984 2.47615191 7.67394117 0.00777 0.069208 0.002102
29280 -5.53728393 2.4608777400000004 7.66436661 0.011023 0.079853 0.001043
29300 -5.51992023 2.48498091 7.67798289 0.012138 0.08838 -0.001097
29320 -5.532790950000001 2.46073059 7.67872845 0.01109 0.089462 -0.0043100000000000005
29340 -5.51902752 2.46192741 7.661668860000002 0.009971 0.075626 -0.006437000000000001
29360 -5.53683267 2.45833695 7.66466091 0.005603 0.051148 -0.008572
29380 -5.518870560000001 2.46432105 7.663611240000001 0.001225 0.027723 -0.007504999999999999
29400 -5.50659825 2.49351561 7.68860712 -0.006344 0.010684 -0.002194
29420 -5.53054446 2.50413984 7.691903280000001 -0.010693 -0.002106 0.003133
29440 -5.52022434 2.4911219700000005 7.66496502 -0.013965 -0.012769 0.008465
29460 -5.520665790000001 2.4691181400000004 7.70178195 -0.015056 -0.012786 0.013798
29480 -5.516624070000001 2.47136463 7.700290830000001 -0.01719 -0.009596 0.016984
29500 -5.50630395 2.48244012 7.681279050000001 -0.015037 -3.7e-05 0.022328
29520 -5.50570554 2.4632811900000005 7.696690560000001 -0.013912 0.02123 0.030854000000000006
29540 -5.52261798 2.45070477 7.700290830000001 -0.010616 0.046768 0.035117
