time Ax Ay Az Gx Gy Gz
20 6.35458446 8.38287063 -0.7213489200000001 1.226255 1.578461 0.07170399999999999
40 3.98096667 14.16399192 -5.36544216 0.966449 0.984818 -0.164359
60 1.6404380100000002 15.012733500000001 -7.115006610000001 0.8807729999999999 1.77696 -0.250362
80 0.80921709 11.10989367 -5.18372172 0.7035520000000001 1.699065 -0.06456100000000001
100 -0.37482048 8.24724738 1.1268550800000001 0.538783 1.350258 -0.072742
120 -1.0011203100000001 7.351211790000001 3.10169637 0.535684 1.084266 0.114516
140 5.585333310000001 7.86254823 -0.7126670700000001 0.65271 1.060331 0.403784
160 6.42778668 7.029983340000001 -2.5608710699999997 0.660504 1.152902 0.424016
180 3.39658497 7.32172293 -3.98426283 0.518378 1.649413 0.257881
200 0.53364438 9.501043860000001 -3.58279839 0.358188 1.962498 -0.108971
220 -1.8965574900000002 11.06768124 -0.1938456 0.030145 2.165508 -0.5089020000000001
240 -2.7762790500000003 10.76247252 1.6136469 -0.6636449999999999 2.304182 -1.0191940000000002
260 -1.5760746 9.52708941 -0.19054944000000001 -1.487861 2.743117 -1.646151
280 0.24100227 8.78163732 -0.36793386 -2.287718 2.624047 -2.0778060000000003
300 2.6786793600000003 9.07263135 0.26420292 -2.098137 2.727076 -1.900357
320 4.388572170000001 8.73449046 0.84559257 -1.1599389999999998 3.761839 -0.945481
340 4.486024710000001 10.15937334 1.40856885 -0.270879 4.836818 -0.4140140000000001
360 4.07303352 11.87899767 1.71168804 0.209173 4.533456 -1.421879
380 3.61513215 13.095369 0.48993102000000005 -0.23948200000000006 3.587146 -2.0113220000000003
400 3.87888381 14.209647660000002 -1.34105643 -1.208364 3.821351 -2.463838
420 4.52808018 15.254775630000001 -1.21981464 -1.410801 4.446574 -3.329177
440 3.86391375 13.139229510000002 0.30835773000000005 -1.809499 2.855269 -3.5702730000000003
460 3.8133235800000005 9.286842510000001 1.1901786300000001 -2.523617 0.486651 -2.292496
480 5.339700720000001 10.51039476 3.1097798100000005 -3.193962 -0.5280630000000001 -1.569487
500 7.58667141 11.658508110000001 3.56498343 -3.085147 0.135522 -1.377297
520 9.04209282 10.87234452 1.67846157 -2.277136 0.548013 -0.803888
540 10.6052967 10.491382980000001 -0.6385721400000001 -1.832717 0.127278 -0.402866
560 9.80581113 9.37290564 -2.59260642 -1.124833 0.303656 -0.103318
580 4.76788563 9.95594337 -2.3532522300000003 -1.056551 -0.117472 0.189323
600 2.12408082 12.15876906 0.36015453000000003 -0.472212 -0.24922600000000006 0.130549
620 -1.36994688 14.319970920000001 0.9285165000000001 0.212968 -0.251393 0.078722
640 -5.938895520000001 8.753492430000001 -0.36299943 0.608445 -0.051587 0.118616
660 -4.229758080000002 6.4346733 1.81048455 1.038956 0.15749200000000002 0.206813
680 -0.20477394000000002 5.615871840000001 4.42300527 1.423089 -0.152329 0.362649
700 -0.10762551000000001 4.98538314 3.21636546 1.44875 -0.175602 0.56582
720 -1.29809844 5.49417879 1.96316739 0.376426 -0.022257 0.975808
740 -0.70039476 6.25100067 1.8811361700000002 0.351987 -0.462073 1.227233
760 -3.3235397100000004 5.03762139 1.5971759099999998 1.11816 -0.70428 1.193371
780 -4.663399320000001 4.20699888 3.2918043600000004 1.6948900000000002 0.4120140000000001 0.988734
800 -5.44792464 4.4595279 5.2491348 1.371271 0.722637 1.378113
820 -5.64700878 5.91016203 6.9048371699999995 1.337477 0.920628 1.976896
840 -5.047058610000001 6.822364500000001 5.749542900000001 1.773306 1.048085 2.225468
860 -4.244718330000001 7.197783390000001 2.8755170100000003 2.103956 0.729403 1.448384
880 -3.13747344 7.48503 1.6058577600000001 1.51809 0.6430279999999999 0.913496
900 -1.0428814800000001 10.453516380000002 7.9766091 0.668597 0.269208 0.827924
920 4.149973350000002 17.915492880000002 9.746235 0.272852 -0.033536 1.221858
940 1.3686029100000001 20.481013890000003 3.4459881300000004 0.26233 -0.257974 1.679271
960 3.3075199800000004 7.3027111499999995 2.00642949 0.380481 0.002269 1.764153
980 2.2290183900000002 3.84131151 1.7588447100000002 0.551492 0.5841149999999999 1.564844
1000 2.26209771 4.9771525500000005 1.46096406 0.57882 0.577178 1.41122
1020 3.20393619 9.02443482 1.1693716200000002 0.6959380000000001 0.456555 1.105613
1040 4.62553272 14.759753220000002 0.74859129 0.67925 -0.248287 1.027351
1060 4.032616320000002 14.93998254 -0.27917298 0.5724279999999999 -1.080595 0.935804
1080 2.19099483 11.419605180000001 0.5402268900000001 0.396439 -1.206201 0.798004
1100 2.06330787 8.27448975 1.60301286 0.35134 -0.618834 0.737116
1120 1.84117023 7.865540280000001 1.61573643 0.6718649999999999 -0.297101 0.7207819999999999
1140 1.79132562 8.455768740000002 1.3720462199999999 1.0241790000000002 -0.341611 0.6239560000000001
1160 0.7198578 9.895327380000001 1.5699335399999998 1.041798 -0.120603 0.4849270000000001
1180 2.410591680000001 9.1621476 0.70728138 0.841791 0.236986 0.47773
1200 3.0636826200000002 8.50441653 -0.27977139 0.844075 0.655039 0.625693
1220 2.4697165500000002 7.7856084 -1.43521281 1.022191 0.418938 0.640059
1240 1.2454089300000002 7.665857730000001 -1.8657246600000001 1.119846 -0.101628 0.467288
1260 0.42272271 8.37058851 -0.98210853 0.761486 -0.258371 0.28232
1280 -0.022307940000000002 8.915759640000001 0.9216298800000001 0.100585 0.106125 0.279373
1300 0.5363323200000001 8.85857715 1.80854217 -0.487364 0.093121 0.045615
1320 2.1754263600000003 8.60530257 1.0374957900000001 -1.107228 0.084553 -0.204395
1340 3.4675407000000003 8.560843649999999 0.668061 -1.665458 1.307893 -0.354072
1360 3.48983883 8.322843240000001 0.48723327000000005 -1.605303 2.424632 -0.754598
1380 3.45197223 8.29709199 0.5041555199999999 -1.171827 2.653432 -1.0712620000000002
1400 3.2989852800000006 10.369238670000001 -0.03622833 -0.966171 2.390423 -1.277791
1420 2.58078537 12.69569979 -0.39038895 -0.907866 2.0767830000000003 -1.748068
1440 2.6381150100000004 12.85467084 0.7819747200000001 -0.823176 1.601521 -2.31623
1460 4.63331205 13.611041460000001 2.2356009 -1.180339 0.368407 -2.657907
1480 6.42284244 14.592110130000002 0.95216841 -1.425701 -0.60385 -1.732227
1500 6.44245263 15.933764970000002 -0.31060422000000004 -1.898261 -0.600975 -1.509068
1520 7.01516043 13.986313200000001 1.29900096 -2.557037 0.417601 -2.045881
1540 7.469314379999999 11.74427694 2.34966177 -2.552915 1.317595 -2.540524
1560 6.64408737 10.46263968 2.26523691 -1.997962 0.560196 -1.4279309999999998
1580 4.74812829 9.489213000000001 0.88391043 -1.214409 0.29519 -0.837801
1600 4.23005238 9.43263873 0.42541065000000006 -0.928296 0.6942520000000001 -0.715605
1620 4.57059672 9.74503818 1.35528093 -0.702403 1.451502 -0.604971
1640 4.01899023 10.79285409 1.3850739 -0.206404 1.969361 -0.53594
1660 4.22571636 10.619668350000001 0.06675705 -0.020924 1.437338 -0.318182
1680 5.59491768 7.9635912300000005 -1.3063290300000001 -0.127883 0.853292 0.109108
1700 3.9573245700000004 7.497155159999999 -0.6529437900000001 -0.143343 0.130662 0.21568
1720 0.78586929 10.206373050000002 1.5488322300000001 -0.12300000000000001 -0.32407800000000003 0.697105
1740 -0.23576373 9.84547296 4.2167304 0.938598 -0.465548 0.789091
1760 2.64425607 4.77761715 3.26770119 2.80734 -0.4502640000000001 0.675006
1780 3.0287982600000003 3.00320397 1.86347817 3.136053 0.143699 0.771613
1800 1.7006125500000002 2.82627081 2.57629239 1.835805 0.8925629999999999 2.1694880000000003
1820 1.9154123100000002 5.001245910000001 3.9131599500000003 1.5808870000000002 -0.425617 2.498409
1840 0.7885572300000001 6.43690998 3.3783285600000004 1.628706 -1.185741 1.538317
1860 -0.75966678 6.423440850000001 1.85374665 1.049382 -0.7386550000000001 0.792351
1880 -1.5777226800000002 7.22308338 1.55466918 0.437489 0.365972 1.071877
1900 -2.68750836 7.575144659999999 1.60257141 0.018346 0.957475 1.632213
1920 -2.99093166 7.056028889999999 2.5168634100000005 0.135488 0.286648 1.7225529999999998
1940 -4.72536909 7.160063940000001 2.1654005400000003 0.575149 -0.451857 1.675296
1960 -5.5959673500000005 5.49088263 1.88428518 0.798772 0.007028 1.277823
1980 -4.20640047 5.35585779 4.63046715 1.123783 0.284268 0.929361
2000 2.18905245 7.53428601 5.958358560000001 1.2670290000000002 -0.18037 1.115759
2020 8.510851890000001 23.128105050000002 1.4076761400000002 1.107142 -0.688639 1.287278
2040 9.324405 20.667521609999998 0.44547210000000004 0.772604 -0.609717 1.022057
2060 3.03180012 10.20233133 0.52840584 0.266741 -0.659139 0.766487
2080 1.20364776 7.10437257 0.9337550400000001 0.121871 -0.892806 0.7187720000000001
2100 2.04759225 7.23220668 0.95231556 0.303825 -1.129413 0.590023
2120 3.24629577 7.612716960000001 1.2901719600000003 0.4108850000000001 -1.133697 0.503182
2140 4.30265619 8.729997480000002 2.05866774 0.411693 -0.710809 0.5090560000000001
2160 4.398607800000001 9.54175536 2.06689833 0.260133 -0.35288800000000003 0.643202
2180 3.80808504 9.50838174 1.1621808900000001 0.06354800000000001 -0.17738800000000002 0.8808860000000001
2200 2.4776430300000003 8.840467890000001 -0.25896438000000005 0.144526 0.123453 0.96866
2220 1.19975319 8.961268230000002 -0.8937891 0.502085 0.133909 0.7083619999999999
2240 -0.39607875000000003 9.619892010000001 -0.3731724 0.691991 0.00571 0.103103
2260 -1.12266621 9.3212658 -0.50789313 0.495204 -0.300664 -0.098705
2280 0.21450546 6.62237784 -0.22663062000000003 0.324008 -0.621776 0.16543
2300 1.58116599 5.47995429 -0.04116276 0.389571 -0.413617 0.267102
2320 2.9636892900000005 5.57980047 -0.05957613 -0.068898 -0.03236 -0.372181
2340 4.19008644 6.846163560000001 0.1502892 -0.4426640000000001 -0.5894659999999999 -0.854778
2360 5.557492530000001 7.353909540000001 0.4773546 -1.043564 -0.531471 -0.984031
2380 5.896840050000001 7.76405583 1.00875249 -1.2836459999999998 0.669846 -0.963747
2400 4.64155245 9.63337095 1.34061498 -1.157189 1.4122860000000002 -1.058887
2420 2.8527676200000003 12.25576053 1.35138636 -0.8531270000000001 1.735569 -1.448146
2440 1.3159134000000001 13.4947341 0.9454387500000001 -0.482842 1.441403 -1.997454
2460 1.1255111100000001 13.68574461 1.07057511 -0.279124 1.32796 -2.574862
2480 2.47959522 14.4722025 0.87253083 -0.877179 1.529706 -2.957448
2500 6.676862580000001 12.9857913 0.46433673000000003 -1.637069 0.6373850000000001 -2.1283990000000004
2520 7.46108379 12.722942160000002 -0.33320646000000004 -1.995568 -0.4704390000000001 -1.567599
2540 5.367384540000001 15.39204696 -0.88361613 -2.4361740000000003 -0.065086 -2.121331
2560 5.2314669899999995 12.119244570000001 0.9904862700000001 -2.767204 0.509368 -2.4341630000000003
2580 5.81825214 11.23039971 2.4739054200000004 -2.4683650000000004 0.480109 -1.770809
2600 7.222180860000001 11.42903259 2.4632811900000005 -2.229381 -0.117412 -0.938366
2620 7.309450620000001 10.92742767 1.60451379 -1.919507 0.026234 -0.8989969999999999
2640 4.86353313 9.84068568 -0.46058931000000003 -1.413168 0.658242 -0.8802469999999999
2660 3.0030568200000003 10.311006510000002 -1.26547038 -1.105499 1.36925 -0.731595
2680 1.8648221400000002 11.875407210000002 0.43439661 -0.825533 1.401672 -0.557697
2700 3.72306177 11.619287730000002 0.05403348 -0.723002 0.648755 0.093463
2720 6.77371671 7.80791634 -1.1563439400000002 -0.408682 0.059826 0.311126
2740 3.9610621800000003 6.374341800000001 -0.07275096 -0.268541 -0.5063529999999999 0.8512139999999999
2760 0.10164141000000002 8.18003907 1.36261881 0.758857 -0.352907 1.014154
2780 -0.4742154 7.58308095 4.40189415 2.308042 -0.158762 1.20312
2800 1.4150042100000002 5.322935429999999 2.28005982 2.671157 0.8945120000000001 1.225671
2820 2.5664137200000003 3.5088506100000005 0.9758203200000001 1.1900309999999998 1.920929 1.8367830000000005
2840 1.6200822600000002 2.2558095 1.94161482 1.698276 0.193928 1.4441
2860 1.0611477 3.2594706 3.8347290000000003 1.801037 0.290317 1.226777
2880 0.7459033500000001 6.43257396 4.17092751 0.011415 -0.375485 0.648972
2900 -0.53783325 7.22861622 2.11330944 0.239811 1.229391 0.574803
2920 -1.04213592 7.93051191 1.8612316800000002 0.493934 1.203771 1.698244
2940 -1.76333769 7.380847800000001 1.55032335 0.365735 0.116126 2.0747560000000003
2960 -1.9333842300000001 6.4396077300000005 2.42645445 0.6762090000000001 -0.780103 1.888998
2980 -3.30063336 5.5621326600000005 2.5474019400000003 0.925373 -1.066923 1.472363
3000 -3.26501325 3.63339837 2.25057096 1.1505299999999998 -0.802742 1.0131940000000002
3020 -1.9459508400000003 5.80014288 8.92998414 1.0881120000000002 -0.212354 1.010933
3040 4.686904080000001 15.78871431 4.730911740000001 0.8915790000000001 -0.016647 1.2571370000000002
3060 8.83717173 34.28979552 0.8077161600000001 0.864441 -0.241793 1.373672
3080 0.73213011 12.088411740000003 -0.8381075400000001 0.823317 -0.279414 1.227087
3100 -0.23201631 5.80717665 3.66722325 0.523726 -0.45644 1.001962
3120 -1.84416228 4.80500667 2.23814169 0.225072 -1.095964 0.81803
3140 0.8572664700000001 6.710550120000001 1.2581325 0.249126 -1.779548 0.716525
3160 4.16688579 8.90722494 0.68781834 0.421769 -2.165355 0.611403
3180 6.937926300000001 9.389975040000001 0.15253569 0.527205 -1.8234 0.519834
3200 5.323828140000001 9.17756892 0.36523611 0.487423 -0.999572 0.4618850000000001
3220 2.5864751700000004 10.036326509999999 0.48679182000000004 0.384345 -0.7898310000000001 0.580537
3240 1.21427199 9.37246419 0.99976653 0.624822 -1.662837 1.040534
3260 0.49038228 8.90992269 1.48865769 0.910491 -2.220759 1.254752
3280 0.27602397 9.162294750000001 1.9287342900000002 0.919761 -2.125815 0.947048
3300 0.5022033300000001 10.15038738 1.40811759 0.739242 -1.284549 0.646675
3320 1.7807013900000002 9.66061332 -0.08053029000000002 0.010042 -0.50944 0.582904
3340 2.26344168 7.79399595 -0.6509916 -0.956169 -0.5554939999999999 0.683036
3360 1.8851778900000002 5.86285821 -0.97641873 -0.7921279999999999 0.364844 -0.242078
3380 1.5268284 4.752022860000001 -1.3169630700000001 -0.0029010000000000004 1.20661 -1.240704
3400 1.4952402 5.766455340000001 -1.02626334 -0.226718 1.67612 -1.775912
3420 1.9502966700000002 6.99839514 0.38500326000000007 -0.55142 1.748115 -1.384098
3440 3.5458245 8.80454367 1.5732297000000002 -1.119214 1.778657 -1.070841
3460 4.8777576300000005 10.508001120000001 0.17169462000000002 -1.363461 2.190067 -0.912841
3480 4.16090169 11.879448930000002 -1.08793881 -1.100737 2.085307 -1.315728
3500 3.39359292 11.645637390000001 -1.21936338 -0.231837 0.866784 -2.638034
3520 5.0960007 11.62048455 -0.9979713 -0.273009 0.828685 -3.728927
3540 9.09329121 12.72863196 0.9243276300000001 -0.920877 0.581579 -3.4436480000000005
3560 10.34693073 13.41001494 4.24996668 -1.7253889999999998 -0.118053 -1.746693
3580 6.51190743 14.495256000000001 2.95081857 -1.881896 -0.662138 -1.412736
3600 4.38572727 13.261373820000001 0.6692578200000001 -1.944919 0.107647 -2.054027
3620 4.9135347 12.43104561 0.1707921 -2.521589 0.985003 -2.24505
3640 5.82662988 11.90833938 -0.52615935 -2.181762 0.487253 -1.674813
3660 6.677460990000001 9.17577369 1.57846824 -1.207858 0.519907 -1.361472
3680 6.3450099 9.07741863 1.4890991400000002 -0.785812 0.530779 -1.249579
3700 4.35414888 10.78132734 -0.5611810500000001 -0.8097989999999999 0.818886 -1.083474
3720 1.85943645 13.06901934 -2.3135904000000003 -0.83534 0.574158 -0.866489
3740 0.81595656 12.03901839 -0.16076628 -0.5315380000000001 0.032194 -0.39686
3760 1.65810582 11.685152070000001 1.5829612199999998 -0.012392 -0.179852 -0.034039
3780 5.0957064 9.74563659 1.8056972700000002 0.182118 -0.549021 0.475198
3800 6.574024350000001 5.82349068 0.9780668100000001 1.111487 -0.497931 0.745475
3820 4.67223813 8.198903700000002 0.8074218599999999 2.478208 -0.445242 1.035896
3840 1.82051037 9.38892537 1.36501245 2.940662 -0.115594 0.782331
3860 1.33762293 6.867873090000001 0.98375661 1.140437 2.083816 1.638607
3880 1.1668210200000002 4.58272188 1.38746754 0.6161949999999999 -0.796784 2.6481060000000003
3900 0.53169219 3.97917144 1.94685336 2.311167 -0.7769699999999999 1.553242
3920 0.42466509 6.37539147 3.54283245 1.316333 0.38368 0.6774100000000001
3940 -0.59336766 8.195607540000001 2.76205455 0.222591 1.040785 1.134673
3960 -1.84640877 8.155788750000001 1.12401018 -0.241775 0.711234 1.099805
3980 -2.37316653 6.504569550000001 0.21704625 -0.020763 -0.223585 1.317259
4000 -3.5829455400000003 5.65688745 0.8789760000000001 -0.184188 -0.8890620000000001 1.644914
4020 -2.6241946200000004 5.2952418 1.3750382700000001 -0.22055 -0.953845 1.360596
4040 -3.19750083 3.46020282 0.73586772 0.564058 -0.730396 1.012209
4060 -4.5632588400000005 3.8856232800000003 1.49464179 1.096765 -0.657573 1.252982
4080 -1.24765542 5.26125996 4.4897623200000005 1.278084 -0.628541 1.294804
4100 6.99810084 25.28332281 2.4974101800000006 1.135857 -0.341137 0.940929
4120 9.84577707 23.39859618 4.17721572 0.56563 -0.253669 1.1397959999999998
4140 2.6668583100000003 8.713683450000001 1.0135397700000002 0.399941 -0.532425 0.930693
4160 0.5471135100000001 8.93342745 0.027389520000000004 0.365398 -0.828684 0.722528
4180 2.59844337 9.863739180000001 0.06675705 0.383511 -0.96776 0.588236
4200 2.11929354 8.22150594 0.51133644 0.367275 -0.836455 0.533475
4220 1.6278615900000002 8.52627321 0.25072398 0.24882 -0.331252 0.570457
4240 3.8523870000000002 9.00377496 0.9686394 0.018552000000000003 0.045195 0.668779
4260 4.00956282 8.6443758 1.0434798900000002 -0.246969 -0.079914 0.750406
4280 3.06787149 7.322174189999999 -0.04445892 -0.118804 -0.276412 0.761167
4300 2.262990420000001 6.49454373 -0.92073717 0.4322 -0.291682 0.638985
4320 0.20462679 9.71913978 -0.89214102 0.8024180000000001 -0.312168 0.379883
4340 0.5752584000000001 9.05721984 -0.04969746 0.885933 -0.6696409999999999 0.192917
4360 1.49554431 7.65208449 0.14130323999999997 0.88051 -0.905135 0.214545
4380 2.08935342 6.35353479 0.25088094 0.7097859999999999 -0.8715620000000001 0.491047
4400 2.7211959000000006 6.230939220000001 -0.18860706000000002 0.016222 -0.704883 0.435783
4420 3.73338189 6.61728645 -0.57256065 -0.6919489999999999 -0.703487 -0.097935
4440 4.70995758 7.0162101 -0.3097017 -1.029592 -0.127076 -0.361679
4460 5.28056604 7.57784241 -0.16061913 -1.022327 0.902298 -0.713324
4480 4.56565248 8.4476853 0.13711437 -0.965231 1.771008 -1.156282
4500 3.5947764 10.39289058 1.44465003 -0.66974 2.561021 -1.306918
4520 2.3640334200000006 12.70871766 2.06839926 -0.243259 2.760668 -1.519975
4540 1.23418629 13.459261140000002 1.02491937 -0.524891 2.25451 -2.036177
4560 1.20694392 13.240419660000002 -0.34458605999999997 -1.240775 1.3861290000000002 -2.435307
4580 2.75996502 13.126800240000003 -0.85382316 -1.492443 1.024462 -2.349007
4600 4.67867349 12.521905830000001 -0.69604893 -1.591483 0.5182439999999999 -1.944194
4620 7.5739478400000015 11.51539983 -0.99273276 -1.7273599999999998 0.165388 -1.498174
4640 7.914040920000001 13.809978450000001 -0.37721412000000004 -2.019145 -0.02717 -1.575809
4660 7.79563422 13.161831750000001 1.01204865 -2.29754 0.638667 -1.876641
4680 7.69609215 11.904591960000001 2.13890373 -2.150894 1.132907 -1.725631
4700 6.92609544 11.911782689999999 2.46851973 -2.04948 0.295177 -0.909864
4720 5.94369261 11.031158609999999 2.95381062 -1.794334 0.241492 -0.75953
4740 5.2696377000000005 10.78132734 1.39555098 -1.372744 0.95709 -0.7916850000000001
4760 3.6170745300000005 10.57281579 -1.44389466 -1.183817 1.695705 -0.7838350000000001
4780 1.9446068699999999 10.63748331 -3.69417132 -0.820686 1.794525 -0.769674
4800 3.27099735 10.87473816 0.74081196 -0.743147 0.980705 -0.3173
4820 5.03613027 10.33406001 2.99856384 -0.40614 0.456671 -0.097426
4840 6.486607439999999 6.97249674 1.16727228 -0.354396 -0.380573 0.374026
4860 3.12505398 5.445374040000001 -0.5185173599999999 0.330805 -0.430357 0.508131
4880 0.06047865000000001 7.814646 -0.4316988600000001 1.923199 -0.453283 0.598332
4900 -0.35715267000000006 8.86247172 2.8725249600000002 3.601163 -0.363845 0.75308
4920 1.1201254200000001 6.487657110000001 2.2382986500000004 3.525506 0.411875 1.034636
4940 2.47959522 4.17227148 1.22265954 1.427006 1.990354 2.118224
4960 2.4673229100000005 2.4742095300000004 1.6122931200000001 2.747207 -1.476908 0.922661
4980 1.89700875 3.6655751700000003 3.42233622 1.732433 -1.164994 0.790191
5000 1.06923114 6.285875219999999 3.9363606000000004 -0.751599 -0.956447 0.34208
5020 0.32856633 7.873182270000001 2.5768908000000006 -0.5939939999999999 -0.397156 0.7323649999999999
5040 -1.05125922 8.020920870000001 1.7441689500000002 -0.093196 -0.228427 1.5250629999999998
5060 -0.9788123700000001 8.02121517 2.9849475600000006 0.07700800000000001 -0.360808 1.981484
5080 -2.6458943400000003 6.94196802 2.4577385400000002 0.588166 -0.73149 2.062441
5100 -2.9073995100000003 6.054006060000001 3.66961689 1.023061 -0.5075770000000001 1.900686
5120 -4.2543027 5.0127726599999995 3.04676037 1.233222 0.368475 1.354102
5140 -4.19233293 3.5705260800000005 2.61431595 1.264425 0.5097149999999999 1.43746
5160 -1.7697730500000002 5.307661260000001 3.07849572 1.056124 -0.258583 1.6762709999999998
5180 3.8336793300000003 16.68101229 6.27315165 0.353508 -0.389198 1.915085
5200 12.07074393 41.12368677 -1.15545123 0.014133 -0.96753 1.116562
5220 1.30873248 13.015584270000002 -0.4391838900000001 0.233199 -1.548343 0.454403
5240 -1.3964436900000001 3.38161491 1.42368606 0.5963729999999999 -1.576805 0.330926
5260 -1.6013745900000003 3.1162151700000003 3.01578039 0.7768189999999999 -1.377946 0.261429
5280 0.7444024200000001 5.1828192 2.48842422 0.528894 -0.945837 0.308281
5300 5.12084943 7.12173627 1.41650514 0.162009 -0.592199 0.634278
5320 8.00385147 8.75828952 0.74409831 0.153105 -1.026229 0.757617
5340 6.3307854 9.83934171 1.97574381 0.562235 -0.67728 0.51861
5360 3.93980391 9.616154400000001 1.9002951000000001 0.729792 -0.07549 0.396164
5380 2.67209685 8.48465919 0.62046288 0.6273029999999999 -0.039229 0.208462
5400 0.11675862 10.127490839999998 -0.17499078 0.478254 -0.060711 0.115582
5420 -1.49554431 11.15944398 0.15163317 0.304109 -0.291512 0.17555
5440 -0.47361699000000007 11.46750741 -0.23395869 0.053869000000000014 -0.347401 0.249717
5460 1.07102637 7.83934758 -0.25372584000000004 -0.292452 -0.13161199999999998 0.132722
5480 1.65256317 5.31185013 -0.5319963 -0.558645 -0.650107 -0.508338
5500 2.19937257 4.7502178200000005 -1.2501962100000001 -0.987404 -0.367554 -0.732817
5520 3.3262374599999998 4.969069110000001 -1.10635218 -1.267921 0.583601 -0.988096
5540 5.43714345 6.5647440900000005 -0.30880899 -1.343827 1.3907120000000002 -1.096482
5560 6.51265299 7.845930090000001 0.90591426 -1.23664 1.746112 -1.088711
5580 5.085827730000001 9.14014377 1.4934449699999999 -0.806817 1.725293 -1.316418
5600 3.1560339600000002 10.83566493 0.94408497 -0.4913770000000001 1.972778 -1.94051
5620 2.46866688 12.561577470000001 0.79364862 -0.414061 2.432995 -2.544105
5640 2.9831425200000004 13.18877001 1.2234051000000001 -0.724204 2.030226 -2.783969
5660 4.4259973200000005 12.772639620000001 0.9949792500000001 -1.128261 0.219835 -2.04633
5680 6.96052854 12.60319149 0.39577464 -1.599259 -0.705639 -1.435275
5700 7.2554171400000005 13.270055670000001 -0.35790804000000004 -2.185718 0.013494999999999998 -1.743668
5720 5.42142783 15.132032910000001 -0.44891541000000007 -1.966596 1.736358 -2.0114
5740 5.229230310000001 13.12500501 1.22520033 -2.057041 1.445438 -1.6420549999999998
5760 5.617068659999999 11.46780171 1.5829612199999998 -1.95708 0.6443949999999999 -0.941713
5780 6.77565909 9.78814332 2.2290183900000002 -1.903969 0.525279 -0.770274
5800 7.958951100000001 9.92465928 1.90045206 -1.883302 0.98688 -0.872202
5820 6.60800619 10.030195260000001 0.55144953 -1.845277 1.497483 -0.989027
5840 4.11913071 9.15736032 0.16256151000000002 -1.804448 1.578233 -0.971753
5860 2.77777017 8.98087842 0.23351724 -1.42822 1.5012530000000002 -0.961549
5880 3.1482546300000003 11.232793350000001 0.89498592 -1.051552 1.114117 -0.645433
5900 4.8696741900000005 11.999945160000001 0.36075294 -0.635899 0.655321 -0.291565
5920 4.93838343 7.72528671 -1.19092419 -0.893532 0.243354 0.12377
5940 2.227370310000001 4.91083695 -0.62584857 -0.676946 -0.131599 0.462253
5960 0.28006569000000003 5.963145840000001 4.00791474 -0.242922 -0.336669 1.018887
5980 0.37871505 8.471935620000002 4.66026012 0.470594 -0.600144 1.286991
6000 2.2290183900000002 7.052585580000001 2.4530984100000004 1.347327 -0.747598 1.437514
6020 3.09301452 5.1144140700000005 0.7274899800000001 2.456713 -0.642436 1.350056
6040 2.6580195000000004 4.6865999700000005 1.36126503 2.96227 0.5741149999999999 1.17684
6060 2.65937328 5.884714890000001 3.65629491 2.7204580000000003 2.324853 0.465745
6080 1.87484796 6.87086514 4.1674842 2.200445 -0.988904 0.571045
6100 0.66267531 6.97189833 3.4617037500000003 1.120061 0.16838399999999998 1.406979
6120 -0.6595263 6.8693642100000005 2.1900923100000007 0.773899 -0.090797 1.254274
6140 -1.62412398 6.42254814 2.8142928000000005 0.7230260000000001 -0.314816 1.907957
6160 -2.5444098900000003 7.100487810000001 3.59626752 1.112201 -0.328052 1.950217
6180 -1.4522822100000001 6.619238640000001 5.202282240000001 1.313166 -0.160873 1.793309
6200 -3.84984621 5.51587851 4.7225340000000005 1.601284 -0.769667 1.4083370000000002
6220 -2.5313822100000003 6.21732294 5.23715679 1.606205 -0.476373 1.318265
6240 -2.2120961400000003 5.96689326 5.444481330000001 1.362088 0.19722 1.710939
6260 -3.50600571 6.134987610000001 5.40406413 1.5861379999999998 0.34370700000000004 1.381168
6280 -3.6863821800000003 5.816152800000001 5.760324090000001 1.732494 0.285858 0.803288
6300 -0.48334851000000006 11.319307740000003 15.612379559999999 1.7681 0.397387 0.587613
6320 4.09488039 35.38776015 -1.3046907600000002 2.091093 0.538086 0.553369
6340 3.7782920700000004 13.474682460000002 3.48639552 2.498123 1.088664 0.5095729999999999
6360 3.0647224800000004 4.9630752000000005 1.7940233700000001 2.051155 1.672541 0.603979
6380 0.30670965 4.35384477 2.57494842 1.07438 0.889546 0.655844
6400 0.6765957 5.80582287 3.07624923 0.444912 -0.944106 0.480745
6420 3.0786526800000003 7.828723350000001 3.72395448 0.506992 -2.001527 0.327641
6440 5.541031350000001 11.8429263 1.79491608 0.778312 -1.06161 0.006797
6460 7.021899899999999 11.217823290000002 1.6214262300000002 0.7264 0.885919 -0.265253
6480 5.87498337 9.46047951 2.41088598 0.867583 1.310036 -0.155852
6500 3.7952045100000005 11.21437998 1.9711036800000001 0.684814 1.227617 -0.165569
6520 3.4762225500000006 9.96193728 1.56139884 0.309859 0.941071 -0.11013699999999997
6540 0.8436501900000001 6.00820317 1.3239968400000002 0.251568 0.372187 -0.053199
6560 -0.45953963999999997 4.04742942 1.21427199 0.517437 0.393736 -0.078075
6580 -0.18441819 3.3115617 0.5653699200000001 0.6877439999999999 0.8964409999999999 -0.199307
6600 0.63258804 3.46933593 -1.12850316 0.719692 0.911132 -0.171329
6620 1.2617229600000002 5.28940485 -3.86391375 0.600299 0.997576 -0.107112
6640 1.6742727000000002 7.49296629 -6.020475480000001 0.41744 2.129382 -0.069247
6660 1.8422199000000001 9.04509468 -6.017934690000001 1.3555700000000002 1.555929 -3e-06
6680 2.7125140500000002 9.27591417 -2.6677510200000003 0.4501439999999999 0.15433 0.17599800000000002
6700 3.9133169100000003 11.360176200000002 3.28132728 0.0006349999999999999 0.234095 0.331921
6720 5.122350360000001 12.322223280000001 5.181779340000001 0.517053 1.071158 0.211611
6740 5.968541340000001 11.2152825 1.17535572 1.02074 2.063018 -0.246546
6760 4.46431518 8.92458864 -1.0762649100000001 0.7111069999999999 2.475226 -0.497064
6780 2.50040223 7.98394698 -2.1788696700000005 0.155166 2.099358 -0.857252
6800 1.52772111 8.173898009999998 -1.8058444200000001 -0.105504 2.677762 -1.153575
6820 1.39255893 8.88522111 0.8677435499999999 -0.292002 3.620221 -1.446642
6840 2.3571468 8.84600073 1.71003996 -0.7545229999999999 4.342267 -1.791561
6860 3.07505241 8.9569224 0.31120263000000004 -1.465159 4.271447 -1.84664
6880 3.4447913100000007 9.195678180000002 -0.9689337 -1.332257 3.28991 -1.059311
6900 3.69836019 8.534798100000001 -1.37862873 -1.044639 2.656813 -0.163457
6920 4.387375350000001 9.1883403 -2.37077289 -1.037053 2.656158 0.5256
6940 3.99009978 8.247845790000001 -0.46089342000000005 -0.718964 3.888376 0.060498
6960 4.044437370000002 9.20586096 -0.00673947 -0.12928599999999998 4.682101 -0.739703
6980 4.8100980600000005 10.328968620000001 -0.79769034 0.133023 4.354272 -1.035485
7000 6.97968747 10.49872086 -0.73017792 -0.011267 4.115815 -1.217785
7020 7.73935425 11.844868680000003 -1.7006125500000002 -0.365892 3.676357 -1.567939
7040 5.028341129999999 13.959522089999998 -0.7908037200000001 -0.986938 2.472702 -1.322907
7060 3.91675041 13.514501250000002 0.0025407900000000002 -1.545923 0.954311 -0.4799020000000001
7080 3.5042104800000002 10.962302220000002 0.10478061 -1.040838 0.404962 0.063782
7100 2.8834533 8.68598982 1.30228731 -0.122974 1.603759 0.242777
7120 4.53481965 9.88424208 2.5930576800000003 0.112424 1.893314 0.621133
7140 8.06103396 11.50597242 1.7254612800000002 0.282052 1.364774 1.047079
7160 10.180631609999999 7.22053278 -1.8018027 0.361449 0.608947 1.380819
7180 10.95557256 5.26035744 -0.51582942 0.898576 -0.01274 1.605421
7200 8.15444478 5.93111619 0.7536826799999999 1.913233 0.5342210000000001 1.672696
7220 3.85583031 7.528596210000001 -0.08891784 2.259247 1.011292 0.8840180000000001
7240 2.1278282400000004 9.29177694 -0.91834353 2.446286 1.6485740000000002 -0.935743
7260 1.87589763 11.340870120000002 -0.4221243 2.4929810000000003 0.786547 -1.985442
7280 0.39008484000000004 11.784694140000001 0.30910329 0.7708189999999999 -0.8888799999999999 -0.291511
7300 -2.1630069 8.30038815 1.1750516100000001 -0.7871560000000001 -1.041596 2.482657
7320 -3.5419299300000002 6.14981052 1.8741024 -0.691088 -0.972812 2.780206
7340 -0.73916388 5.553450810000001 3.72065832 0.654323 1.144115 1.559504
7360 -0.41897529 4.48631901 2.93958612 1.965126 3.75082 0.696855
7380 -1.06773021 4.72746843 1.07356716 2.602078 4.169735 0.878092
7400 -0.69231132 5.779335870000001 0.99588177 2.474769 3.340814 1.55445
7420 -0.7637085 6.0356024999999995 2.24667639 1.236896 2.256817 1.7149029999999998
7440 -1.3060347300000001 5.8853133 4.4048862 0.898541 0.006952 0.678179
7460 -1.97978553 6.08874327 5.851478610000001 0.696551 -0.527511 -0.021164
7480 -3.26501325 9.64459359 5.20318476 1.004427 1.438303 0.149383
7500 -2.9075564700000003 16.43612526 2.32600986 1.415439 1.580235 -0.00282
7520 -2.26329453 19.02454281 1.2091806 1.293352 1.455048 -0.025945
7540 2.6168567400000002 21.40593993 5.007534120000001 1.032789 1.147202 0.194819
7560 10.08437589 20.06352972 2.4638796000000003 1.014584 0.129187 0.379731
7580 11.92225977 12.1381092 -0.2951829 0.771714 -0.369145 0.269714
7600 11.41331697 3.07834857 0.23591088000000002 0.638083 1.023413 0.058693
7620 7.872279750000001 0.6502460400000001 -1.40078952 0.7249180000000001 1.310907 0.016202
7640 4.09817655 0.0028449 -3.6372831300000006 0.616662 0.671269 -0.038213
7660 4.518054360000001 1.1091970800000002 -3.1838747400000003 0.5308510000000001 0.320074 -0.050113
7680 5.526954000000001 7.47964431 -3.9767778000000003 0.612333 0.341475 0.121344
7700 3.4166464200000006 14.93340003 -6.09712101 0.801381 0.335809 0.308542
7720 0.5605826400000001 18.0555993 -2.27047545 0.791456 0.190307 0.473166
7740 -2.02124259 12.97801197 3.6782987400000002 0.610462 0.15955 0.595855
7760 -0.20747169000000001 8.498579580000001 1.4153083200000003 0.458619 0.25303000000000003 0.5273760000000001
7780 3.56618025 7.71526089 -0.7921575000000001 0.5473939999999999 0.73652 0.486784
7800 5.119358310000001 7.09195311 -2.0202027300000003 0.491964 0.954043 0.21692600000000006
7820 3.4608012300000004 6.78703869 -3.5007671700000005 -0.016725999999999998 0.933613 -0.09318
7840 0.9984225600000001 8.8293924 -2.5098296400000004 -0.459191 1.514501 -0.054286
7860 -1.56380229 11.701171800000001 4.88913723 -0.522173 2.320505 -0.429637
7880 0.6912616500000001 10.7094789 1.9580760000000001 -0.681559 3.147614 -0.937079
7900 1.85240268 8.97488451 -1.8681183 -1.248162 3.484455 -1.298255
7920 1.23987609 8.88552522 -2.05029 -1.119695 3.0590490000000004 -1.585232
7940 1.0785114 9.549093240000001 0.16765290000000002 -0.5270729999999999 2.614155 -1.663844
7960 2.5453026000000003 9.89248248 1.11083535 0.040313 2.510042 -1.959917
7980 4.22646192 9.64938087 0.27123669 0.047502 2.4724150000000003 -2.412745
8000 4.737199950000001 10.40949891 -0.22318731000000003 -0.916869 2.345564 -2.089238
8020 5.14016532 11.63724984 0.07349652000000001 -1.841426 1.014559 -0.903991
8040 5.76076554 12.621006450000001 0.65832948 -2.6901200000000003 0.7137060000000001 -0.856123
8060 6.42224403 14.20755813 -0.9294190200000001 -3.345051 1.516508 -1.515478
8080 5.640122160000001 14.447206620000001 -1.65959694 -2.973856 1.679166 -2.286487
8100 8.215816140000001 13.58963604 -0.02499588 -1.989057 1.3758629999999998 -1.883977
8120 8.60171211 14.03301861 -0.15014205 -1.573063 0.524173 -1.046767
8140 6.09802353 13.55341752 -0.9650391300000001 -1.64956 0.479318 -0.686184
8160 5.63338269 8.976983850000002 0.14610033 -1.663237 0.7851060000000001 -0.421753
8180 5.940700560000001 10.23571476 0.9743193900000001 -1.1962700000000002 0.747225 -0.144978
8200 6.06045123 10.59226902 0.69380244 -0.5783739999999999 0.7443850000000001 0.295177
8220 5.200938270000001 9.58681269 0.82942569 -0.528672 0.056725 0.657464
8240 5.02879239 9.1911852 1.5001844400000002 -0.212477 -0.187833 0.802059
8260 5.44597245 11.120822010000001 2.6399102400000003 0.461272 -0.260668 0.8495879999999999
8280 6.98208111 7.974362610000001 0.46134468 1.892382 -0.141241 0.645787
8300 5.49417879 7.06126743 -1.6603425000000003 3.330099 0.344175 0.286671
8320 3.24614862 7.32007485 -0.61118262 2.672377 1.357866 0.702725
8340 1.0698295500000001 9.05437494 -0.16645608 2.050128 -0.12971 1.886011
8360 0.43200297000000004 9.30330369 4.45039479 2.216646 -1.214123 1.732604
8380 -0.37661571000000005 6.5924377199999995 4.968617850000001 1.423583 -0.642372 1.430434
8400 0.99408654 4.635411390000001 3.5392419900000003 0.234944 0.201523 1.346274
8420 1.4573736000000002 4.37749668 2.75188158 -0.499892 0.5331 1.381309
8440 0.5752584000000001 4.959788850000001 2.17258146 -0.208497 0.061232 1.116894
8460 0.21300453 5.6934100800000005 1.83922785 0.56492 -0.007305 1.068973
8480 -0.6366297600000002 6.56669628 1.3638156300000002 1.070838 0.111022 1.142857
8500 -0.6435163800000001 6.69123423 2.3028092100000004 1.1869040000000002 0.235725 1.557979
8520 -0.7246450799999999 6.6303141299999995 2.5673064300000004 1.226078 0.7402489999999999 1.894096
8540 -1.83922785 6.055212689999999 3.46679514 1.14983 0.367766 1.869471
8560 -3.8446076700000003 5.767956270000001 1.5064628400000002 1.111085 -0.575523 1.234817
8580 -3.79969749 5.40750744 7.231608270000001 0.795984 -1.047014 0.602969
8600 2.76370263 7.389686610000001 9.00557019 -0.092458 -1.129623 0.453728
8620 9.0377568 19.156860090000002 -0.7909508700000001 -0.38467 -1.26951 0.524505
8640 7.711219170000001 16.17072552 -0.7845155100000001 -0.131876 -1.699929 0.583438
8660 3.97349145 10.497072779999998 0.41449212 0.287631 -1.6725419999999998 0.563901
8680 2.5406624700000005 8.63598825 1.5699335399999998 0.33638 -0.7991739999999999 0.560986
8700 3.6452194200000005 10.37342754 2.4776430300000003 0.07850499999999999 -0.119175 0.696114
8720 4.9593375900000005 9.9170271 2.9228208300000005 0.259155 -0.000662 0.738884
8740 4.9485564 7.969281030000001 1.57996917 0.721675 -0.187337 0.667579
8760 3.48909327 7.2155983500000005 1.1334474 0.836354 -0.5670000000000001 0.40822
8780 2.6701446600000005 7.587721080000001 0.83750913 0.483271 -0.61559 0.344927
8800 2.46312423 8.85947967 0.36867942 0.128242 -0.404168 0.26206
8820 2.3264611200000003 11.113189830000001 -0.11795544000000001 -0.016362 -0.279089 0.276913
8840 1.5037749000000002 13.08563748 -0.48723327000000005 -0.087909 -0.54415 0.024652
8860 0.25820901 12.43972746 -0.8152011900000001 -0.4314 -0.960951 -0.406638
8880 1.3721933700000002 7.979758110000001 -0.04221243000000001 -1.083973 -0.57863 -0.345456
8900 2.6099701200000003 5.35077621 0.027389520000000004 -1.491477 0.248913 -0.480755
8920 3.1581333000000003 4.56236613 -0.08322804 -1.588148 1.122281 -0.889542
8940 3.67380576 4.673434950000001 -0.08053029000000002 -1.103865 2.009209 -0.931093
8960 4.56744771 5.04570483 0.39053610000000005 -0.100793 2.714106 -1.454827
8980 5.286108690000001 6.39485451 1.4822223300000001 0.371507 2.956717 -2.3277810000000003
9000 5.1187599 9.24717087 2.47345416 0.07950700000000001 2.899451 -2.937566
9020 3.89041056 12.441375540000001 1.0210248000000002 -0.875137 1.610254 -2.856056
9040 2.60159238 13.36809681 0.7114702500000001 -2.210009 0.375493 -1.6737990000000005
9060 2.20745601 11.49639786 1.0936286100000001 -2.435826 -0.918856 -0.670657
9080 4.29441579 11.593536480000001 1.29675447 -2.6194490000000004 -0.8940290000000001 -0.8589100000000001
9100 7.24389039 11.73275019 0.44502084000000003 -3.045667 0.633734 -1.593441
9120 7.331601600000001 14.05487529 -0.44786574 -2.692834 1.474018 -2.110141
9140 7.262598060000001 13.66044462 -0.04969746 -1.578073 1.324884 -1.746445
9160 7.8860529900000005 11.81897028 1.11518118 -0.8718110000000001 1.021417 -1.327721
9180 7.318426770000001 11.39265711 1.5926927400000002 -0.6043430000000001 1.146352 -1.367673
9200 6.79272849 10.25951382 3.38237028 -0.054291 1.593567 -1.527842
9220 6.748563870000001 10.970238510000001 4.17107466 -1.144753 1.340718 -1.287308
9240 5.53758804 11.44340424 2.8630975500000004 -0.231933 1.08815 -0.722996
9260 3.8017968300000002 10.58478399 1.0873404 -0.054179999999999985 0.467018 -0.059729
9280 3.12280749 9.41631489 0.01482291 0.25948000000000004 0.212672 0.403191
9300 3.38146776 9.799218810000001 -1.0666805400000001 0.749312 -0.006092 0.8726379999999999
9320 4.952598120000001 8.654705730000002 0.30221667 1.699626 -0.55998 1.100039
9340 6.3339246000000005 5.53189824 -0.80173206 3.112402 -1.029196 1.064575
9360 5.264556120000001 4.188438360000001 -0.32033574000000004 3.262865 -0.7178640000000001 1.132525
9380 3.0867263100000004 6.439460580000001 1.9992387600000001 1.527028 1.84229 2.0293810000000003
9400 1.95223905 7.28610282 4.020638310000001 1.756012 -2.046864 1.789205
9420 1.98172791 6.223758300000001 3.89639466 0.919991 -1.573046 0.974115
9440 2.2448811600000003 4.96936341 2.5469506800000006 0.08280900000000001 -0.896546 0.622364
9460 2.11929354 4.633763310000001 1.8089836200000002 0.05919500000000001 -0.158133 1.396782
9480 1.90703457 4.65786648 2.7328698 0.541579 0.23820300000000005 1.763907
9500 2.0871069300000005 5.226532560000001 -1.5025780800000001 1.050504 0.109241 1.871245
9520 -0.27198225000000004 6.868471500000001 6.59812752 1.182452 0.269637 1.871961
9540 -1.12176369 6.021976410000001 2.5253981100000003 0.805936 0.205248 1.783956
9560 -1.86676452 6.784193790000001 3.6709706700000004 0.392267 -0.175867 1.812533
9580 -2.70113445 6.6401928 3.8317271400000004 0.159984 -0.809056 1.585259
9600 -3.96555516 7.048995120000001 3.30797124 0.082057 -0.988243 1.175815
9620 -5.881124430000001 5.86285821 1.8778498200000002 0.111728 -0.8784 0.854347
9640 -6.00416145 6.46984215 1.052613 0.168139 -0.715429 0.809667
9660 0.5568450300000001 9.826912440000001 9.30136131 0.20547 -0.770741 0.756588
9680 9.982891440000001 33.26367933 -1.30723155 0.257104 -1.175737 0.493616
9700 8.46070317 17.76864699 2.06540721 0.415603 -1.357183 0.17769400000000002
9720 1.75315491 6.61519692 1.30573062 0.5798180000000001 -1.0111 0.068371
9740 1.5864045300000003 5.27697558 2.89063422 0.474709 -0.529752 0.198411
9760 2.6646118199999997 7.874379090000001 3.2195046600000006 0.174367 -0.181296 0.430875
9780 3.0805950600000003 7.17322896 2.24847162 0.225555 -0.188812 0.66732
9800 3.80808504 7.058716830000001 1.31217579 0.448917 0.016588 0.789326
9820 4.20130908 8.38720665 0.7478457300000001 0.512876 0.231483 0.540601
9840 3.45706362 10.404711630000001 0.16705449 0.588428 0.36971 0.007909000000000001
9860 2.79214182 11.06514045 0.09504909 0.589162 0.166649 -0.360362
9880 2.70637299 10.38974157 1.13524263 0.4863770000000001 -0.586304 -0.320591
9900 1.94984541 8.9597673 1.5290748900000002 0.405126 -1.020856 -0.004408
9920 1.50930774 7.58054016 1.2249060300000003 -0.031308 -0.620689 -0.064585
9940 1.8184208400000001 6.724313550000001 0.5192727300000001 -0.7863319999999999 -0.367482 -0.126799
9960 2.06615277 6.87984129 -0.37467332999999997 -1.579536 -0.5507449999999999 0.036674
9980 2.4411204 6.881489370000001 -0.83376171 -1.84606 -0.131825 -0.065069
10000 2.8219347900000002 6.0655328100000006 -0.65787822 -1.538226 1.389283 -0.571205
10020 3.0708635400000004 4.65846489 -0.2633004 -0.7790060000000001 2.587531 -1.181665
10040 4.064498820000001 6.02751906 1.2886710300000002 0.221061 2.397453 -1.932873
10060 5.2605144 8.20369098 2.85052113 1.136444 2.5369580000000003 -2.979925
10080 5.63608044 10.005346529999999 2.4288480900000002 1.108401 2.570627 -3.116896
10100 4.07437749 11.70057339 1.9875648600000002 -0.210944 0.250526 -1.725905
10120 2.35056429 12.247529940000002 0.8702941500000001 -1.860072 -0.283111 -1.378886
10140 2.02049703 12.275223570000001 0.08935929000000001 -2.46035 0.491179 -1.881862
10160 2.3333477400000002 12.79524186 -0.38604312 -2.404882 1.071862 -2.488969
10180 3.57890382 13.740680609999998 -0.62659413 -1.726216 1.403723 -2.4184240000000004
10200 6.0435289800000005 13.806986400000001 -0.9228267 -1.957854 -0.281379 -1.460756
10220 6.89227056 14.00427531 0.03697389 -2.833241 -0.7706890000000001 -0.881926
10240 7.572603870000001 13.334271930000002 1.00800693 -1.975569 0.2485 -1.022519
10260 8.04741768 11.86357635 2.38170123 -1.762722 0.387231 -1.001982
10280 8.08573554 10.86500664 3.8660130900000005 -0.8918870000000001 1.076099 -0.600472
10300 8.127643860000001 10.014175530000001 5.093607060000001 -0.537556 1.159968 -0.303275
10320 6.66308934 10.01252745 2.25850725 -0.462209 0.926035 -0.209514
10340 4.26388707 11.14791723 -0.75638043 -0.31855300000000003 0.529775 0.192581
10360 1.9610680500000002 12.585680640000001 0.52810173 0.251041 0.284935 0.454315
10380 3.59327547 9.70626906 0.22572810000000001 0.810411 -0.171566 0.642541
10400 4.97625003 8.995995630000001 0.18037647 1.831902 -0.490647 0.697087
10420 5.5639278899999995 6.25219749 -1.2549933 3.101137 -0.222918 0.576354
10440 3.7308411 9.1012275 0.13277835000000002 3.007891 0.400786 1.059877
10460 0.7831715400000001 11.048228009999999 2.9401845300000002 1.163822 2.282284 2.334997
10480 0.09116433 6.690939930000001 3.77170956 2.693515 -1.23651 0.525668
10500 -0.72479223 5.836959810000001 -0.4363389900000001 1.042252 -0.6758390000000001 0.541189
10520 1.89206451 3.7600356600000002 1.90583775 0.038293 0.215366 0.719973
10540 1.31471658 1.3837201200000002 0.52795458 -0.128665 0.611451 1.711746
10560 2.72927934 2.3276579400000004 0.61776513 0.014234 0.201786 2.269812
10580 1.116378 3.9492411300000003 5.09210613 0.5156109999999999 -0.536127 2.021092
10600 1.43626248 4.43288394 2.40265539 0.404463 -0.634695 1.725612
10620 0.48184758000000005 5.821548300000001 2.12991777 0.442594 -0.357419 1.350577
10640 -0.45116190000000006 6.25100067 2.82447558 0.65515 0.31229 1.253996
10660 -1.5756233400000001 6.835686480000001 3.1897215 0.8711409999999999 0.037385 1.348792
10680 -3.13957278 7.2672381900000005 3.0883743900000002 0.988684 -0.573778 1.170935
10700 -4.8557538 7.21768788 2.16868689 1.047483 -0.645071 0.833879
10720 -6.33572964 6.91621677 3.3108161400000005 0.8064479999999999 -0.321833 0.661934
10740 -2.24368434 7.0364187 1.87739856 0.32674000000000003 -0.405542 0.96527
10760 7.33324968 19.681224210000003 9.580828590000001 -0.030718 -1.057597 1.03518
10780 13.14910818 34.03262637 1.07401842 -0.15575 -1.527261 0.846901
10800 1.5808618800000003 7.866442800000001 0.01197801 -0.230974 -1.531837 0.724604
10820 -1.1103939 3.15438588 2.1941340300000003 -0.231255 -1.35713 0.724378
10840 0.27482715 7.6811319000000005 2.1920445 -0.108933 -1.241283 0.6855600000000001
10860 2.31777927 9.0087192 1.0267146 0.23470700000000005 -0.77258 0.658518
10880 5.93546202 8.446929930000001 0.9401904 0.686883 -0.193103 0.80728
10900 5.883213960000001 6.693176610000001 1.13763627 0.8460610000000001 -0.119196 0.835003
10920 3.12864444 7.35135894 0.8027817300000001 0.563403 -0.571094 0.602871
10940 2.74514211 9.89098155 0.8333202600000001 0.27909 -0.61323 0.19822
10960 3.5164827900000004 10.42477308 0.45475236 0.14763099999999998 -0.76152 0.100283
10980 2.292930540000001 9.616007250000001 0.7457463900000001 0.06400800000000001 -0.531354 0.422007
11000 0.07663572 9.103022730000001 1.3154621400000002 -0.448322 0.365277 0.416212
11020 -1.9263406500000002 9.84592422 1.0181799 -0.932458 0.549222 -0.4078
11040 -1.75629411 10.60634637 0.29443734 -1.133839 0.980594 -0.749454
11060 1.3470503400000002 9.08236287 -0.10028763 -0.8466670000000001 1.43577 -0.807852
11080 3.4742703600000002 7.09793721 -0.14309847 -0.62354 1.554802 -1.197415
11100 4.39710687 5.6773903500000005 -0.18815580000000004 -0.467472 2.007142 -1.764131
11120 4.518505620000002 5.26200552 -0.20087937 -0.15478599999999998 1.923159 -2.34402
11140 4.02542559 6.51235869 0.79170624 0.303893 1.120652 -2.652777
11160 4.46596326 8.522378640000001 2.8598013900000003 0.294175 0.088771 -2.470993
11180 5.160972330000001 9.83065986 2.73495933 -0.983649 0.143678 -1.774962
11200 4.32031419 11.27799783 0.8596601100000001 -2.080956 -0.205985 -1.294001
11220 2.87926443 12.2767245 -0.49307022000000006 -2.323153 -0.235925 -1.32236
11240 3.49507737 11.85505146 0.17318574 -2.248286 0.28131300000000004 -1.797859
11260 5.417533260000001 11.875407210000002 0.41344245 -2.042006 0.949032 -1.924392
11280 8.65695222 11.97494928 0.9090632700000001 -1.636361 0.89086 -1.315802
11300 10.647057870000003 13.253143230000001 1.69372593 -1.451373 0.608688 -0.975522
11320 8.793016920000001 14.599291050000001 2.03845914 -1.42416 0.790508 -0.913608
11340 7.221886560000001 9.38428524 3.3778773000000006 -1.459734 1.524192 -0.8101109999999999
11360 6.058499040000001 10.780277670000002 1.74671955 -0.25903400000000004 3.0008220000000003 -1.090968
11380 4.94527005 11.55566988 0.46163898000000003 -0.32992 1.82571 -0.735308
11400 4.69738116 11.28517875 0.37946061000000003 -0.16713499999999998 1.159931 -0.348758
11420 4.3004097 10.93656078 -0.11960352 -0.803604 1.88605 0.035767
11440 3.8526911100000003 10.83970665 -0.70039476 0.159325 0.040193 0.199751
11460 3.4259266800000003 11.286532529999999 -0.39173292000000004 0.827901 -0.551825 0.882432
11480 4.656963960000001 10.36699218 2.29068405 2.334976 -1.090699 1.401055
11500 6.68733966 7.6814262 1.57172877 3.108626 -1.062369 1.637159
11520 6.115681530000001 5.4923737500000005 0.73407249 2.531566 0.356922 2.317108
11540 3.12415146 5.79055851 0.57884886 1.3341610000000002 0.637793 2.911929
11560 0.7945511400000002 6.33153096 1.32698889 2.641824 -2.916299 1.330762
11580 1.20334365 5.546417040000001 2.9809058400000006 1.205275 -0.699092 0.088363
11600 2.5080344100000005 5.10528096 3.3703922700000004 -0.63497 0.151872 0.665145
11620 3.86465931 4.51625913 2.58932007 -0.44073 -0.025386 1.6665849999999998
11640 3.5971700400000004 3.40526682 2.22017958 0.25103000000000003 -0.35271 2.202743
11660 2.44067895 1.7283061800000001 2.9614428000000004 0.31398200000000004 -0.377218 2.4157900000000003
11680 1.4341631400000003 5.10917553 1.61573643 0.479101 -0.26576500000000003 2.107016
11700 0.00104967 7.58382651 2.0279820600000003 1.098829 0.045694 1.737068
11720 -2.20476807 7.67678607 2.53094076 1.548925 0.09048 1.336367
11740 -2.01375756 9.30914064 3.2186021400000002 1.349364 -0.06165900000000001 1.1941620000000002
11760 -4.752915570000001 9.76135221 3.4859540700000005 0.739219 0.004224 1.231477
11780 -5.4148355100000005 9.70162893 1.7983593900000001 0.035258 -0.034545 1.147561
11800 -3.69536814 5.722898939999999 1.58729724 -0.314328 -0.155031 0.945516
11820 -2.8129488300000003 4.133806470000001 4.64679099 -0.034155 -0.617915 0.575257
11840 4.679419050000001 7.27696971 4.277503350000002 0.407519 -1.160467 0.274594
11860 15.104643390000001 35.27639703 -1.3986901800000002 0.661507 -1.544201 0.113422
11880 11.809690020000001 25.070465430000002 2.5442627399999997 0.613642 -1.500405 0.124782
11900 0.34353639 7.65882396 0.6888680100000001 0.383432 -1.398488 0.411463
11920 -1.18643121 2.8879462800000004 1.63998675 0.256098 -1.6687189999999998 0.700408
11940 -0.07813665 3.98471409 2.28903597 0.439188 -1.530842 0.694033
11960 3.3867063000000006 5.71840596 1.3374659700000002 0.36063 -0.816491 0.608179
11980 6.28018542 7.27621434 0.8583161400000001 -0.094569 -0.199531 0.42902
12000 6.70096575 7.98903837 1.6970220900000001 -0.27604 0.5421060000000001 0.002718
12020 5.0488538400000005 7.84204533 0.9963232200000001 0.033280000000000004 0.922597 -0.311802
12040 3.8287350900000003 6.565499460000001 0.84724065 0.58117 0.903171 -0.457502
12060 2.41971498 6.7877842500000005 0.17378415000000003 0.820908 0.435436 -0.379384
12080 0.46209024000000004 8.89674786 0.21031659 0.612686 -0.417562 -0.004799
12100 -1.01429514 10.16102142 0.63407916 -0.162639 -0.309343 0.5098699999999999
12120 -1.0207305 9.953098469999999 0.9798620400000001 -0.946693 -0.22292 0.090881
12140 0.38529756 8.252937180000002 0.6704546400000001 -0.860498 -0.257589 -0.371012
12160 2.1457903500000004 6.279439860000001 -0.42136893000000003 -0.6183310000000001 0.380904 -0.678855
12180 3.45826044 5.64236865 -1.68938991 -0.676354 1.291705 -0.625948
12200 4.77551781 6.008958540000001 -2.15866107 -0.8812530000000001 2.001851 -0.6165390000000001
12220 6.150556080000001 6.7539593700000005 -1.75554855 -0.491475 2.159754 -1.014602
12240 6.2703067500000005 9.10376829 0.14534496 -0.035637 1.941755 -1.770644
12260 5.692066110000001 11.02412484 3.1677078600000006 0.082978 1.884953 -2.585865
12280 4.9831366500000005 10.39573548 2.37974904 -0.477298 1.459173 -2.98127
12300 4.39710687 10.54347408 1.57382811 -1.860309 0.84047 -2.10565
12320 4.205350800000001 11.55507147 0.74904255 -2.556969 0.496394 -1.504393
12340 3.74581116 10.853784000000001 -0.08203122 -2.384502 0.668409 -1.248104
12360 3.8137650300000003 9.74219328 -1.24031754 -1.928988 1.216057 -1.400516
12380 5.34987369 10.46204127 -1.60061922 -1.654787 2.289258 -1.7546259999999998
12400 7.481596500000001 11.52348327 -1.09198053 -1.6843099999999998 1.929476 -1.001275
12420 10.125695610000001 12.187061100000001 0.22079367 -1.825619 1.207431 -0.6659149999999999
12440 8.091425339999999 15.013027800000001 -0.51088518 -1.767954 1.417248 -0.7053050000000001
12460 7.036114590000001 15.115718880000001 0.7810722000000001 -1.556078 1.792453 -0.945724
12480 6.593340240000001 12.59391123 2.89033992 -1.3349950000000002 1.678479 -0.873531
12500 8.50396527 9.36856962 3.67425702 -0.861001 1.517103 -0.622186
12520 9.0178425 8.50411242 3.18103965 -0.976677 0.935047 -0.15223
12540 7.564069170000001 9.255254310000002 0.36763956000000003 -0.8814350000000001 0.706123 0.269608
12560 4.35579696 10.17554022 -1.42219494 -0.35535100000000003 0.300368 0.3176
12580 2.08890216 10.12299786 -0.30297204000000005 0.123967 -0.062626 0.368415
12600 2.6056341 11.05346655 0.90756234 0.8210290000000001 -0.26618600000000003 0.320133
12620 6.1430710500000005 9.25420464 0.9310671 1.7970720000000002 -0.458469 0.406246
12640 6.22435671 7.04270691 1.03180599 2.940446 -0.379976 0.564751
12660 3.59102898 5.61931515 0.44981793 2.632492 0.053258000000000014 0.914558
12680 1.49688828 7.66226727 1.5117111900000002 3.3957910000000004 0.774199 0.582476
12700 2.35205541 9.4746942 3.5464229100000004 2.755148 0.258933 -0.5408350000000001
12720 3.61049202 6.285728070000001 1.4934449699999999 -0.069485 -1.520161 1.127369
12740 2.57779332 4.35609126 0.8752285799999999 0.035782999999999995 -0.920969 0.377444
12760 2.19893112 4.09398768 2.07244098 -0.153571 -0.933175 1.195463
12780 2.96293392 5.765258520000001 3.6815949000000003 -0.030449 -1.327477 1.6583009999999998
12800 2.31194232 6.38527014 3.1421135700000002 0.4595260000000001 -1.385059 1.78037
12820 1.03120758 5.33086191 1.55541474 1.320208 -1.410703 1.586657
12840 -0.19578798 4.8876363000000005 1.16068977 2.129517 -0.695951 1.69608
12860 -0.7863107400000001 5.87273688 2.5951570200000003 2.37031 0.397225 1.436783
12880 -1.1870296200000001 7.06755564 2.80217745 2.25523 0.636152 0.928267
12900 -2.62778508 7.25451462 2.6271866700000004 2.040916 0.017605000000000003 0.753443
12920 -2.8886918400000003 6.30952713 3.88412235 1.789865 -0.394441 0.650736
12940 -4.0957829100000005 5.119652610000001 4.686001560000001 1.588005 0.440748 0.822376
12960 -4.87656081 4.287234870000002 3.93591915 1.214614 1.283112 0.946875
12980 -3.6169273800000004 3.55765536 7.63906662 0.717792 0.989346 1.048467
13000 -1.1720595600000001 10.27732878 7.997121810000001 0.177503 -0.075155 0.790752
13020 9.80176941 37.72036233 1.34645193 -0.120077 -1.2631059999999998 0.292404
13040 5.481896669999999 19.5477003 1.4868624600000002 -0.180346 -1.373818 0.059253
13060 -0.6306358500000001 3.5429796 5.58578457 0.289619 -0.30804000000000004 0.059033
13080 2.23110792 6.63076539 4.48153173 0.706579 0.321201 -0.217666
13100 3.7913197500000004 6.5729844900000005 2.86639371 0.640076 0.307212 -0.391165
13120 6.42523608 5.4765109800000005 2.9129421600000005 0.505841 0.260214 -0.24355900000000005
13140 8.252044470000001 7.416624870000001 1.30109049 0.499675 0.479012 -0.076172
13160 7.590418830000001 9.861041430000002 0.47361699000000007 0.465446 0.822709 0.050267
13180 4.99586022 13.15674036 0.038170710000000004 0.339677 0.522148 0.197188
13200 5.39223327 11.84142537 -0.41703291000000003 0.27765300000000004 -0.144809 0.274522
13220 2.42570889 7.70986539 0.063765 0.489102 0.30959200000000003 0.209187
13240 -0.5830377300000001 5.48983296 1.02537063 0.718494 0.899457 0.085051
13260 -0.9047174400000001 5.2374609 1.37922714 0.782028 0.906127 -0.039496
13280 0.17543223 5.39762877 0.79319736 0.700779 0.992203 0.08374
13300 1.5167927700000001 5.89938084 -0.79424703 0.681525 1.262672 0.128124
13320 2.4035481 8.028101790000001 -1.74717081 0.724475 1.527909 0.09497
13340 2.4480070200000004 8.64392454 -2.2107521700000006 0.8704729999999999 1.976794 -0.132117
13360 2.16435087 7.760906820000001 -0.9954305100000002 0.863034 2.175035 -0.41657
13380 3.74610546 5.69415564 -0.03981879 0.4564220000000001 2.079673 -0.7248
13400 5.590571850000001 7.570210230000001 -0.6963530400000001 0.153828 2.703565 -0.905037
13420 4.61475153 9.00676701 0.7879588200000001 -0.189358 3.466436 -1.173331
13440 4.60068399 10.526110379999999 2.20776012 -0.5361319999999999 4.171679 -1.412734
13460 4.2131399400000005 10.575209430000001 1.2073853700000001 -0.839023 4.453882 -1.392779
13480 3.46319487 9.84532581 -0.49307022000000006 -0.5387069999999999 3.009197 -0.81199
13500 3.64208022 9.01664568 -1.52262972 -0.7375229999999999 3.625997 -0.109143
13520 4.81564071 7.65612621 -0.92686842 -1.14344 3.153019 0.241141
13540 4.3905243600000015 7.2610971300000005 0.6617727900000001 -0.6379229999999999 3.616549 0.035775
13560 2.8412408700000005 8.684194589999999 0.8231374800000001 -0.216769 3.726144 -0.030858
13580 3.6031541400000004 9.59056011 -0.84559257 0.14361 3.522036 -0.182971
13600 4.4915575500000005 8.370745470000001 -1.9077801300000001 0.31285 3.409582 -0.445496
13620 5.04331119 7.88904504 -2.10746268 0.199089 3.073992 -0.872081
13640 5.20527429 8.20997919 -1.2933111599999998 -0.046644 2.656499 -1.215094
13660 5.948784000000001 9.47529261 0.08382645000000001 -0.032673 2.054327 -0.888417
13680 7.070243580000001 10.04440995 -1.30349394 0.062593 1.3834229999999998 0.038189
13700 6.87280752 11.63021607 -2.02963014 0.069097 0.535343 0.594796
13720 6.00910569 12.93041385 -1.00471077 0.617383 0.5059859999999999 1.066545
13740 4.81877991 12.318779970000001 0.54876159 1.473443 0.505724 1.454948
13760 3.79116279 10.98565983 1.61259723 1.800555 0.508346 1.315156
13780 3.81347073 9.508676040000001 2.68810677 2.138321 0.504551 1.172242
13800 6.06029427 8.68867776 1.4694987600000002 2.146239 1.270533 0.8871690000000001
13820 8.163420930000001 8.42612292 2.47016781 2.018327 1.3206209999999998 0.195072
13840 9.854753220000003 5.9980302 -0.7566747300000001 1.618403 -0.039959 -0.7331949999999999
13860 9.18534825 6.207885720000001 0.8659483200000001 1.015954 -0.756812 -1.295164
13880 7.02369513 7.503149070000001 0.9110056500000001 -0.285025 -0.135185 -0.577589
13900 4.87132227 7.469471340000001 0.53364438 -0.467407 -0.195495 0.541779
13920 3.39299451 7.3447764300000005 -0.38709279 0.961053 0.8769959999999999 0.695661
13940 2.1951837000000003 8.4596535 -0.67344669 1.851439 2.458082 1.20085
13960 0.48155328000000003 9.699833700000001 -0.1414602 1.87016 2.985857 1.600888
13980 -1.48146696 9.32784831 1.22115861 0.8152010000000001 1.847755 2.078882
14000 -2.8229844600000003 7.51826628 2.5785388800000004 0.407046 0.713579 1.548714
14020 -3.21636546 5.882164290000001 3.26785815 0.917488 -0.786864 0.176196
14040 -0.5683717800000001 5.443284510000001 3.49717671 1.135504 -0.106453 0.062547
14060 1.10410569 5.17518702 3.3033311100000002 0.898816 1.539258 -0.229635
14080 0.8381075400000001 6.22345419 2.38184838 0.983231 1.18057 -0.380273
14100 0.54636795 8.04696642 1.5844523400000003 0.8981030000000001 0.962716 -0.172285
14120 0.64964763 9.50448717 2.13471486 0.85324 0.986275 0.101904
14140 0.28470582000000005 11.081307330000001 4.0917411900000005 1.251424 0.586383 0.12656199999999998
14160 -1.4615624699999998 13.229638470000001 4.191734520000001 1.185914 0.266865 -0.098881
14180 -0.6441147900000002 19.62329616 2.6779338 0.941791 1.11424 -0.007668
14200 3.7106325 19.67703534 1.37474397 0.76877 0.99383 0.150443
14220 7.68217176 19.264789710000002 5.079235409999999 0.442791 0.368781 0.365816
14240 10.99628406 5.6077884 3.09032658 0.342052 -0.3746 0.673713
14260 9.63112446 0.15717582000000002 -0.59920461 0.385827 -0.315307 0.7262850000000001
14280 6.448887990000001 1.25423793 -3.0975075 0.388494 0.250348 0.459592
14300 4.10102145 4.39710687 -4.48662312 0.388302 0.3985 0.17418499999999998
14320 5.648205600000001 6.402182580000001 -2.53917135 0.338241 0.289464 0.045789
14340 5.3946269099999995 13.794861240000001 -1.09063656 0.348188 0.459498 0.13964400000000002
14360 1.97079957 12.030777990000002 -1.8685597500000002 0.5003890000000001 1.046223 0.334372
14380 -0.3583593 9.37246419 -0.40700709 0.527683 1.650176 0.325243
14400 -1.25858376 10.26280998 2.57763636 0.016937999999999998 2.176973 -0.168246
14420 0.8825664599999999 10.84914387 1.00815408 -0.734745 1.7672759999999998 -0.689991
14440 4.99571307 9.02443482 -1.5067669500000003 -0.932832 2.3025900000000004 -1.186647
14460 3.8962475100000002 7.32755988 -2.5725547800000004 -0.7995270000000001 3.648789 -1.490816
14480 1.76333769 7.87766544 -2.45159748 -1.197466 4.830314 -1.977946
14500 1.3045338 9.34087599 0.5438173500000001 -1.19894 4.484287 -1.757459
14520 1.9116747 9.57648276 3.4623021600000006 -1.090394 1.919682 -0.931952
14540 3.00231126 9.10601478 0.61432182 -1.247622 3.013334 -0.699443
14560 3.1000581000000005 8.60740191 -1.4278847399999999 -1.036222 3.856644 -1.317547
14580 2.64081276 8.713977750000002 -1.55421792 -0.705773 3.971515 -2.0909150000000003
14600 2.1908476800000005 8.768462490000001 0.5577377400000001 -0.966332 3.4525339999999995 -2.083525
14620 2.47225734 9.10047213 1.1150340300000001 -1.630215 3.109874 -2.130452
14640 2.9041131600000005 8.76726567 -0.11675862 -2.622369 1.688984 -2.38232
14660 3.90433095 8.67371751 -0.64141704 -2.932548 0.137987 -1.859071
14680 5.579349209999999 9.70851555 -0.14445225 -2.352317 -0.024786 -0.552647
14700 7.20616113 10.86694902 0.6159699000000001 -1.436468 0.734977 -0.6027710000000001
14720 8.457858270000001 11.903993550000001 0.95905503 -0.757083 1.24997 -0.508954
14740 8.05774761 12.975314220000001 0.02080701 -0.621738 1.122155 -0.364703
14760 5.384149830000001 13.934074950000001 -1.4488389000000002 -0.649125 0.680562 0.067233
14780 4.79692323 14.32671039 0.12977649 -0.746043 -0.166148 0.371016
14800 4.57672797 10.551861630000001 1.0785114 -0.396783 -0.694006 0.47134
14820 3.7583875800000004 7.6899609 3.1891230900000003 0.348796 -0.727522 0.480864
14840 5.780081429999999 10.09590264 3.33057348 1.071284 -0.516696 0.411933
14860 7.615267560000001 12.93429861 -3.28342662 1.774154 -0.193814 0.309607
14880 9.759409830000001 9.24836769 -0.30985866000000006 2.086226 0.246635 -0.082952
14900 13.6538523 8.66009142 0.55564821 1.700622 0.005985 0.491503
14920 9.059015070000001 7.4381774400000005 0.76161897 0.8991290000000001 -0.30095 0.953111
14940 1.47862206 7.76480139 0.22857300000000003 0.732354 -1.090686 1.189035
14960 -0.34473321000000007 9.627828300000001 0.58677534 1.148525 0.150786 0.988457
14980 -1.55601315 12.170590110000001 0.52556094 1.26423 0.598557 1.331591
15000 -3.9209490900000006 13.269457260000001 2.15880822 1.617003 0.361679 1.654825
15020 -3.7032946200000003 6.6743217900000005 4.58466426 2.073425 -0.08369800000000001 1.016582
15040 1.58879817 4.3246600200000005 5.2135048799999995 1.870387 0.31700900000000004 -0.178553
15060 2.0926495800000002 4.0559641200000005 3.5360929800000003 1.100165 0.4748729999999999 0.43757
15080 0.86430024 5.4401355 2.83944564 0.986284 -0.033005 1.535557
15100 -0.9937824300000001 6.261330600000001 1.6896842100000002 0.516183 -1.290618 2.08936
15120 -1.93951548 6.490207710000001 1.78293807 0.737857 -1.026677 1.6931919999999998
15140 -2.50234461 4.86592677 3.08418552 0.697279 0.0445 1.584714
15160 -3.35152764 4.09638132 4.796628930000001 0.5832390000000001 0.6368229999999999 1.676093
15180 -3.6025557299999997 5.336257409999999 5.89773276 0.576659 -0.062188 1.729286
15200 -3.8645121600000003 6.8627817 5.38594506 0.4215060000000001 -0.677327 1.450185
15220 -3.6368416800000003 9.04553613 3.37263876 -0.124344 -0.906376 1.128335
15240 -0.4249692 11.315266020000001 7.77139371 -0.267764 -1.092179 0.5656869999999999
15260 8.18422794 19.61550702 10.391389649999999 -0.091789 -1.114066 0.558398
15280 4.338727560000001 18.84056607 0.048049379999999996 0.112279 -0.969156 0.6397550000000001
15300 2.2296168 7.29822798 3.04572051 0.323788 -0.673743 0.639785
15320 0.83645946 6.324801300000001 2.7744838200000004 0.516281 -0.263508 0.7132430000000001
15340 -0.05134554 10.95586686 4.33363617 0.78193 -0.09892 0.881531
15360 5.00619015 12.12823053 2.0044773 0.8311780000000001 -0.187001 0.754869
15380 3.97528668 11.62423197 0.59396607 0.619311 -0.119135 0.48411
15400 1.4111194500000002 12.112357950000002 0.5878250100000001 0.317029 0.075545 0.279855
15420 6.854541300000001 6.483321090000001 1.93547376 0.02804 0.22086 0.154805
15440 6.876702090000001 1.6357978800000001 1.49688828 -0.506538 0.534265 -0.233891
15460 2.8837574100000003 5.088819780000001 1.12371588 -0.848224 0.489468 -0.456274
15480 2.0787291900000002 6.808444110000001 1.51844085 -1.000865 1.093314 -0.548912
15500 1.7603358300000003 8.57925702 1.23703119 -0.8446030000000001 1.747527 -0.717438
15520 1.04302863 10.565330759999998 -0.17019369 -0.175819 1.345067 -1.083992
15540 0.11780829000000001 13.42857546 -0.35745678 0.250485 2.17637 -1.815948
15560 -0.0059841 13.782736080000001 -0.025594290000000002 0.275409 1.852912 -2.465907
15580 0.71012628 10.030793670000001 -0.3065625 -0.054124 1.049203 -2.590024
15600 2.33080695 6.81742026 -0.17767872 -0.916802 0.511069 -1.800603
15620 2.9065068000000007 5.7830734800000005 0.19339434 -1.735626 -0.056936 -1.304599
15640 3.4590060000000005 6.6464810100000005 0.78541803 -2.221368 0.344148 -1.550992
15660 5.04586179 7.6115201400000005 1.15244937 -2.493273 1.412894 -2.182376
15680 5.582792520000001 8.310865230000001 1.14496434 -2.13837 1.124969 -2.148549
15700 4.72072896 10.45859796 0.82358874 -0.8930950000000001 0.682235 -1.2035209999999998
15720 3.86855388 12.143494890000001 1.17789651 -0.357955 1.113828 -0.907643
15740 3.8910089700000006 11.92884228 2.46252582 -0.721309 1.335123 -0.7886880000000001
15760 5.541776909999999 12.56771853 3.3405993 -0.857258 1.223893 -0.560895
15780 7.193594520000001 13.406120370000002 1.7598943800000002 -0.8523809999999999 1.137636 -0.306514
15800 6.563252970000001 14.133306240000001 0.8000839800000001 -0.667536 0.960269 -0.06785
15820 6.30758475 12.67998417 1.45467585 -0.464155 0.533014 0.307996
15840 6.705154620000001 9.623786579999999 2.60503569 -0.118562 -0.060922 0.685048
15860 6.79436676 10.072701990000002 1.46634975 0.8874989999999999 -0.430258 0.799371
15880 5.355563490000001 10.50949224 1.3807280700000002 2.244654 -0.896225 0.798766
15900 4.1893408800000005 10.698854670000001 1.61604054 2.833302 -0.603772 0.679657
15920 3.37443399 11.11678029 1.18523439 1.865162 1.942583 1.431274
15940 4.42869507 11.89830375 2.37001752 1.005605 0.8297379999999999 2.615627
15960 6.0273621 9.2230677 0.0085347 1.6632619999999998 -1.778046 2.043518
15980 6.537805830000001 7.387734419999999 -0.9017253900000001 1.270251 -0.736219 0.790686
16000 6.78000492 7.16126076 0.05658408 0.340169 -0.201534 0.552769
16020 4.91697801 8.57296881 1.9273903200000002 -0.209054 0.374576 1.0791
16040 2.43648027 8.01448551 1.5603589800000002 -0.102429 0.059248 1.254369
16060 1.7904231000000002 5.598360990000001 2.6587748700000002 0.332851 -0.5169 1.634162
16080 2.3185248300000003 4.18125744 3.1701113100000002 0.737096 -0.482324 1.6946259999999995
16100 2.7039793500000004 3.8264886000000002 2.12303115 0.907189 0.029631 1.391783
16120 1.3488455700000002 4.69183851 2.1315658500000003 1.0418889999999998 -0.095901 0.966664
16140 0.10837107 5.88740283 2.14519194 0.940789 0.024461 0.791683
16160 -0.36628578000000006 7.24389039 1.7453657700000003 0.503354 -0.231744 0.772933
16180 -0.40894947000000004 7.72408989 1.6328058300000001 -0.145753 -0.8683879999999999 0.705121
16200 -1.5820587000000002 7.63591761 2.05821648 -0.48267 -1.403671 0.593427
16220 -2.3770611 6.49424943 1.89505656 -0.288012 -1.670009 0.695541
16240 -4.089641850000001 5.223089250000001 0.66072312 0.014159 -1.532912 0.7807970000000001
16260 -4.082009670000001 4.06734372 3.13717914 0.269275 -0.992897 0.579993
16280 -0.0634707 4.43303109 6.7065084 0.27008000000000004 -0.084399 0.358781
16300 8.92683513 18.908529750000003 1.4338688400000001 0.15996300000000002 -0.090586 0.402885
16320 11.87076708 24.3314487 0.84379734 0.383247 -0.577763 0.5620970000000001
16340 5.27652432 11.693382660000001 1.44209943 0.744225 -0.355876 0.704272
16360 1.5646950000000002 6.543191520000001 0.19324719 0.678225 0.25847800000000004 0.5727
16380 2.08605726 6.53945391 1.33836849 0.381407 0.262275 0.147606
16400 3.29524767 6.480623340000001 1.22819238 0.206108 -0.209447 -0.015383
16420 4.63166397 7.4004579900000005 0.8448470100000001 0.252874 -0.601061 0.108291
16440 4.87132227 9.50493843 1.0255177800000002 0.421841 -0.714601 0.383081
16460 4.72866525 10.77594165 0.95591583 0.108346 -0.764288 0.29336100000000004
16480 3.2427053100000007 11.22964434 0.21914559000000003 -0.457994 -0.907521 0.106922
16500 1.63714185 11.33757396 0.49921128000000003 -1.092001 -0.740156 0.094802
16520 0.60982884 10.599459750000001 0.61836354 -1.4242709999999998 -0.08946 -0.102769
16540 0.96534324 9.51945723 -0.10852803000000001 -1.382846 0.381942 -0.5421229999999999
16560 2.19877416 7.7480361 -0.49487526 -1.108012 1.141866 -0.875531
16580 2.98374093 5.63203872 -0.41568894000000006 -0.51461 1.773087 -1.00145
16600 3.2248903500000003 4.37659416 -0.5159765700000001 0.055734000000000006 2.082211 -1.543723
16620 3.1317836400000005 4.33184094 -0.89454447 0.218915 2.066307 -2.501826
16640 3.7143799200000003 5.043909600000001 -0.09894366 -0.320265 1.497111 -2.748418
16660 4.54754322 6.30339588 1.3192095600000002 -1.342837 0.654304 -1.819786
16680 4.82117355 7.359893639999999 2.42106876 -1.62526 0.719542 -1.107202
16700 4.51595502 9.71375409 2.45759139 -1.885951 0.8611209999999999 -1.122023
16720 3.22908903 11.741137740000001 2.1724343100000003 -3.069948 0.777393 -1.267987
16740 2.02977729 12.284807940000002 0.96728562 -2.966601 1.090964 -0.920494
16760 1.7425306800000002 11.44369854 -0.07244685 -2.653556 0.6844560000000001 -0.234125
16780 2.98958769 11.6522199 0.1414602 -2.275827 0.6419199999999999 -0.047698
16800 5.73442569 11.86687251 -0.3731724 -1.711098 1.088853 -0.15008
16820 7.55913474 12.923075970000001 -0.8931906900000001 -1.013536 1.4551690000000002 -0.453325
16840 7.353458280000001 14.465619990000002 -0.2951829 -0.686543 1.276471 -0.27135
16860 8.296346430000002 14.2464744 1.01279421 -0.531224 0.700796 -0.033451
16880 8.35697223 14.089602690000001 1.86332121 0.18325 0.916468 0.024675
16900 8.107739370000001 12.987145080000001 2.2668849900000003 0.859569 0.464394 0.07057100000000001
16920 7.7246883 11.09357964 3.4808626800000004 1.402134 -0.13058599999999998 0.537663
16940 7.368428340000001 9.2663298 2.7217943100000004 2.717674 -0.7406010000000001 0.632023
16960 6.04682514 8.128252080000001 0.55923867 3.748312 -0.292498 0.3662510000000001
16980 4.0577593499999995 8.52821559 -0.33155838000000004 3.327348 0.48072 1.039573
17000 3.7074933 9.7493742 1.4784749099999999 1.465936 1.933608 2.421943
17020 5.6166174 11.55342339 1.6434300600000002 1.511478 -1.312647 1.142419
17040 8.01403425 11.13894108 0.7339253400000001 0.400775 -0.7629819999999999 0.512251
17060 7.24672548 6.88358871 0.58573548 -0.207103 0.06755900000000001 0.333888
17080 4.19307849 6.55756317 -0.8740317600000002 -0.399211 -0.69075 1.2564620000000002
17100 2.50953534 6.00281748 0.63378486 -0.095763 -0.7653449999999999 1.798129
17120 2.22017958 3.77350479 2.32900191 0.411438 -0.901253 2.045401
17140 2.04340338 3.89938671 2.5065334800000003 0.8661059999999999 -0.770161 1.902062
17160 2.23081362 4.42045467 3.0949667100000005 1.267072 -0.107122 1.179759
17180 2.41148439 5.89608468 4.03336188 1.499323 0.025136 0.67167
17200 1.91197881 5.913752489999999 3.06457533 1.122863 -0.23007600000000006 0.618093
17220 1.51635132 5.91330123 2.4069914100000003 0.562574 -0.512415 0.847413
17240 0.98899515 6.543191520000001 2.41746849 -0.189532 -1.467299 1.065574
17260 1.04078214 6.247557360000001 2.9274609600000003 -0.563912 -1.7618220000000002 0.984288
17280 -1.68848739 4.67972316 1.6049650500000001 -0.534279 -1.7006009999999998 1.099784
17300 -1.73100393 5.280271740000001 3.6565990200000003 -0.468393 -1.798675 1.059778
17320 -4.56505407 4.31926452 4.39591005 -0.420197 -1.956766 0.859491
17340 -4.6562184 6.25504239 2.16973656 -0.423163 -1.52918 0.759578
17360 2.76205455 7.037164260000001 3.3144066000000003 -0.232646 -0.797532 0.6435350000000001
17380 12.076139430000001 29.306060460000005 1.08284742 0.558771 -0.63188 0.623213
17400 12.585229380000001 19.38109707 1.17475731 1.057564 -0.446489 0.4491350000000001
17420 1.7292087000000003 7.4342926799999995 1.4322207599999999 0.720324 -0.4339560000000001 0.005588
17440 0.5502527100000001 4.26118932 1.7807013900000002 0.316484 -0.18181 -0.095833
17460 2.6092245600000004 5.2179978600000005 3.67905411 0.258305 -0.085672 -0.111317
17480 4.79782575 6.50427525 2.1977343 -0.080286 0.093298 -0.08507
17500 7.39028502 7.25451462 1.12880727 -0.540142 0.156409 -0.01786
17520 7.51183092 7.864500420000001 1.4853615300000003 -0.947906 0.097049 -0.270596
17540 5.389388370000001 8.654705730000002 0.66447054 -1.173915 0.964173 -0.8704219999999999
17560 4.15266129 9.12831291 0.30161826 -0.463395 1.71774 -1.0576370000000002
17580 2.65323222 10.89210186 0.51418134 0.447953 2.181182 -1.592385
17600 0.7661021400000001 12.331807650000002 0.44427528000000005 0.555469 1.708339 -2.252257
17620 0.99288972 9.92616021 0.41882814000000007 0.390338 0.342879 -2.9630970000000003
17640 2.7520287299999997 7.48907172 0.49083354000000007 -0.547316 0.322809 -3.258041
17660 3.58953786 5.62335687 -0.18351567000000002 -2.271416 1.631811 -1.710021
17680 3.8239478100000004 5.2834109400000004 -0.98390376 -2.924316 0.158392 -0.5771729999999999
17700 4.846169430000001 6.0496700400000005 -1.48146696 -2.737459 -0.223974 -0.755907
17720 6.50307843 7.616307420000001 0.58498011 -2.469161 1.285546 -1.260168
17740 7.695346590000001 8.38032003 4.110154560000001 -1.992196 2.101437 -1.645647
17760 6.288268860000001 9.258246360000001 3.5628939 -1.803353 1.7371869999999998 -1.295621
17780 4.31028837 12.71216097 1.25154999 -1.460791 1.020446 -0.84152
17800 4.02917301 13.38755985 0.0290376 -0.940031 1.694275 -0.903907
17820 4.45802697 11.48441985 1.2479595300000004 -0.356129 1.838837 -1.06452
17840 6.060745530000001 10.5415317 1.34255736 -0.160938 1.4755790000000002 -0.7016319999999999
17860 7.87737114 10.69077123 1.00425951 -0.096827 0.804373 -0.204669
17880 8.708739210000001 12.668908680000001 -0.25611948 -0.099261 0.093677 0.102804
17900 9.612259830000001 11.26677519 2.76999084 0.195863 -0.448385 0.60442
17920 10.56607632 8.53300287 4.67118846 1.132437 -0.939509 0.865828
17940 9.8216739 8.13842505 4.64753655 2.433266 -1.602322 0.8565360000000001
17960 7.726336379999999 9.70521939 1.57457367 3.54216 -1.041693 0.621077
17980 4.73016618 10.19155995 -1.6197781500000001 2.398862 2.346261 1.782725
18000 2.38738122 11.033257950000001 -3.4943318100000007 2.103137 -1.196066 1.843951
18020 2.1356075700000003 11.762984609999998 -0.89543718 1.871409 -1.897944 0.945925
18040 5.513180760000001 8.27389134 1.1148770700000001 0.387578 0.134946 0.548396
18060 8.402775120000001 3.8239478100000004 0.01781496 -0.264892 0.306653 1.3298299999999998
18080 7.668408330000001 2.8548669600000003 1.33462107 0.12592799999999998 -0.077097 1.58622
18100 4.919665950000001 6.38751663 1.11532833 0.6210220000000001 -0.5198149999999999 1.846619
18120 3.1267020600000004 8.26656327 1.9205037 0.24895100000000006 -0.450375 1.853545
18140 3.1780377900000003 7.16559678 3.1990017600000002 0.00205 -0.416185 1.509945
18160 2.4878258100000004 4.9353913799999996 2.09714256 0.244236 -0.356764 1.092818
18180 1.8238065300000001 2.82117942 1.21352643 0.551426 -0.51917 0.947757
18200 1.5825099599999999 4.18050207 4.63077126 0.473641 -0.429688 1.015465
18220 0.63842499 6.95438748 4.15595745 0.098851 -0.432909 1.080149
18240 -0.13053186 7.678581300000001 2.3540076 -0.311774 -0.758049 0.961262
18260 -0.31314501 7.318279620000001 1.76198391 -0.5010680000000001 -1.128088 0.690153
18280 -1.20723822 6.47103897 2.33140536 -0.282127 -1.192304 0.575329
18300 -1.6995628800000002 6.7439237400000005 2.39337513 -0.088183 -1.293978 0.525539
18320 -4.07677113 5.6137725000000005 1.8056972700000002 -0.115287 -1.010138 0.429914
18340 -5.411549160000001 4.732854120000002 3.0597880500000008 -0.04345 -0.708855 0.415075
18360 1.1677235400000001 5.7697515 7.37127324 0.5137109999999999 -0.652216 0.419962
18380 15.263006220000001 29.30919966 0.72060336 0.8071050000000001 -0.510108 0.32569000000000004
18400 12.190945860000001 19.598290470000002 1.18882485 0.723834 -0.27125 0.338689
18420 0.6087791700000001 7.50913317 -0.23890293 0.741197 -0.154339 0.391003
18440 2.0104712100000004 6.81188742 1.31007645 0.632775 -0.239547 0.215167
18460 3.33595917 6.72895368 3.51304929 0.258202 0.14648699999999998 -0.093456
18480 4.00537395 6.3620694900000005 2.6008370100000002 -0.243461 0.394915 -0.511749
18500 5.1063306299999995 7.046895780000001 0.6198644700000001 -0.340054 -0.425198 -0.731426
18520 5.938895520000001 8.30562669 0.79574796 -0.581186 -0.440399 -0.983055
18540 5.940700560000001 9.53606556 1.3373188200000001 -0.854851 0.488011 -0.884675
18560 5.40555525 9.04808673 0.9689337 -1.072244 0.965272 -0.7009340000000001
18580 4.34980305 8.541988830000001 0.8270320499999999 -1.086675 1.126937 -0.890318
18600 2.78061507 9.70177608 0.42227145000000005 -0.7839470000000001 0.985485 -1.209557
18620 1.7618367600000002 10.85153751 -0.04340925 -0.370482 1.034215 -1.765411
18640 2.3294531700000007 10.462796640000002 -0.92987028 -0.297561 1.878308 -2.1932720000000003
18660 4.12332939 8.020920870000001 -0.6417113400000001 -1.285205 2.467566 -1.91037
18680 5.11202043 6.29395866 -0.85412727 -2.052988 1.115696 -0.97076
18700 5.54387625 5.929016850000001 0.21824307 -1.819804 -0.107151 -0.663121
18720 5.607337139999999 6.6720753 1.9687100400000002 -1.767679 -0.07786900000000001 -0.837983
18740 5.707634580000001 7.028933670000001 2.73421377 -1.671779 1.678684 -1.431359
18760 5.281762860000001 8.132892210000001 2.3845461300000004 -1.462316 2.738621 -1.875635
18780 4.782110129999999 9.329653350000001 2.15791551 -1.260346 1.235861 -1.0722
18800 5.99413563 10.185723000000001 1.5789195000000003 -1.27067 0.515266 -0.680379
18820 5.7667594499999995 10.942093620000001 1.8326355300000001 -1.2785799999999998 0.971974 -0.599835
18840 4.33348902 11.72346993 2.52030672 -1.026572 0.940637 -0.4410060000000001
18860 5.444030070000001 12.224182140000002 1.01429514 -0.662103 0.781137 -0.031263
18880 6.316717860000002 13.25418309 -0.49906413000000005 -0.14870899999999998 0.459455 0.314566
18900 7.36812423 12.120294240000002 0.5288472900000001 0.442818 -0.105136 0.599296
18920 9.08954379 9.09119187 1.18284075 1.423918 -0.708074 0.81202
18940 10.578348629999999 6.94600974 1.6239768300000001 2.812318 -0.899077 1.019584
18960 10.328075910000003 7.23669966 1.7699202 3.003286 0.17673699999999998 1.148794
18980 7.400762100000001 8.522378640000001 1.1784949200000001 2.647746 0.077266 1.822622
19000 4.661005680000001 10.30262877 0.43319979 2.2354540000000003 2.993667 1.994398
19020 3.59746434 11.22485706 0.9710330400000001 3.345874 -3.085735 0.469569
19040 4.30190082 11.48441985 2.37286242 0.256367 -0.024687 0.622459
19060 7.185805380000001 7.43728473 2.12273685 -0.849575 0.690076 0.5251560000000001
19080 7.40404845 3.4518250800000003 0.16270866 -0.383768 0.437901 0.845995
19100 5.4446284799999995 2.20056939 -1.99071387 0.662712 -0.912241 1.911506
19120 3.0078441000000002 5.09540229 -0.34638129 0.32427399999999995 -0.240611 2.87609
19140 2.2701811500000004 10.475814510000001 4.2514578 0.799341 -0.260574 1.597568
19160 4.07243511 11.386820160000001 4.10266953 1.666706 -0.498408 0.6500090000000001
19180 2.7878058000000006 6.27090516 2.76699879 1.449186 -0.417966 0.7017979999999999
19200 2.33858628 3.88816407 2.410591680000001 0.700461 0.428012 0.780942
19220 1.87664319 4.88943153 2.6743433400000005 -0.085132 -0.404158 0.976278
19240 1.6211319300000002 7.055724780000001 3.29285403 0.142055 -1.109398 0.520502
19260 0.7174543500000001 6.561310590000001 2.26209771 0.63617 -0.972211 0.15096800000000002
19280 0.15507648000000004 6.18408666 2.397564 0.616921 -0.762215 0.133473
19300 0.09655002 5.56497756 3.3759251100000003 0.405172 -1.454438 0.26534
19320 -0.786762 5.63457951 1.13763627 0.140246 -1.991531 0.276996
19340 -0.93255822 3.51169551 0.55938582 -0.621953 -0.732532 0.444179
19360 -0.668061 4.229758080000002 8.59662072 -0.653237 -0.4345890000000001 0.8206610000000001
19380 2.40938505 8.8817778 -0.62345493 0.516943 -0.645724 0.6581899999999999
19400 15.39668709 26.846526690000005 9.63546048 0.847923 -0.19192 0.106582
19420 13.90533165 25.68134394 -1.4519781 0.273048 -0.615228 -0.361568
19440 2.36463183 8.207879850000001 1.4135130900000004 -0.075619 -0.914941 -0.233296
19460 0.47751156 1.28283408 1.03015791 0.215328 -1.364599 0.34081100000000003
19480 0.60309918 1.87051194 1.30064904 0.496285 -1.408423 0.932488
19500 4.41716832 6.193366920000001 -0.8523320400000001 -0.163649 -0.264726 0.541853
19520 10.393037730000001 8.91470997 3.70793475 -0.910446 -0.107749 -0.502945
19540 8.6355468 8.86620933 0.34533162 -1.274709 -0.449484 -0.508256
19560 5.055142050000001 6.568344360000001 -0.5812425 -0.976875 0.223046 -0.585017
19580 2.53962261 7.75746351 0.14205861 -0.57385 1.882184 -0.527713
19600 0.0928026 12.07763055 -0.32033574000000004 -0.300782 2.67438 -0.672099
19620 0.87433587 9.549093240000001 -0.42571475999999997 0.149424 2.25158 -1.09036
19640 0.80682345 7.44087519 1.08434835 0.619955 2.027899 -2.036436
19660 1.7458170300000002 5.497170840000001 0.9874942200000001 0.310377 2.64248 -2.81171
19680 3.22653843 4.782110129999999 -0.8104139100000001 -0.7845979999999999 2.071128 -2.836786
19700 4.95634554 5.69805021 -3.175497 -2.423906 0.8361379999999999 -1.334052
19720 5.785614270000001 6.796466100000001 -2.4966548100000003 -3.119017 -0.315452 -0.459353
19740 5.93650188 7.85701539 1.8989511300000002 -2.96627 0.791213 -0.818627
19760 6.448740840000001 8.56803438 4.2231657600000005 -2.628849 2.728828 -1.080467
19780 5.5124352 11.28862206 4.536320580000002 -1.66582 2.611734 -0.8716969999999999
19800 2.57344749 13.56688665 0.07005321 -1.594381 1.690089 -0.356202
19820 1.7449243200000002 13.36630158 -1.04857128 -1.778443 2.129269 -0.26832
19840 3.1195113300000004 12.60319149 0.6197075100000001 -1.799239 2.543398 -0.450593
19860 7.246127070000001 11.501930699999999 -0.23246757 -1.633756 2.817508 -0.67732
19880 10.59766452 9.71809011 -1.8984998700000002 -1.150906 2.46753 -0.6873859999999999
19900 13.129350840000003 10.17164565 -1.59807843 -0.314279 1.808465 -0.43287
19920 13.02456042 13.2197598 -0.84633813 -0.496339 0.927224 -0.210822
19940 7.53173541 10.82863116 2.4212159100000004 -0.683487 0.25747 0.40723
19960 6.249058290000001 9.090593460000001 3.4940375100000005 -0.232767 -0.300246 0.693103
19980 9.69788151 7.688008710000001 4.80904839 0.460603 -0.521099 0.975967
20000 10.13586858 7.74669213 2.95455618 1.495036 -0.7329399999999999 1.107378
20020 7.7924950200000005 8.47866528 -0.66102723 2.610001 -0.998712 1.069573
20040 4.27661064 10.574012610000002 -2.0062823400000003 3.380404 -0.532762 0.562679
20060 2.3483178000000002 10.571167710000001 -0.18786150000000001 3.579809 0.288921 -0.496657
20080 2.8331574300000004 12.272525820000002 0.43829118000000006 2.9692830000000003 -1.748634 -0.579496
20100 7.02384228 10.14485454 1.37115351 0.843983 -0.363061 0.8160729999999999
20120 6.64976736 4.926258270000001 -0.65847663 0.8772790000000001 0.104271 -0.1959
20140 3.5254687500000004 2.79169056 0.35087427000000004 1.142416 0.030114 0.8016300000000001
20160 2.12094162 4.88673378 3.6576486900000003 1.807654 0.872758 1.286965
20180 3.9375574200000005 4.66983468 2.9639835900000002 2.232019 0.323062 1.987114
20200 4.34186676 5.429364120000001 1.52278668 2.232028 0.05548 1.238634
20220 4.235290920000001 6.278988600000001 2.24952129 1.6390759999999998 0.195572 1.084761
20240 4.60472571 6.1429238999999995 2.64949461 0.997402 1.08522 1.604704
20260 3.30138873 5.55404922 2.22377985 1.225791 1.707085 1.736894
20280 2.5045911 4.485720600000001 1.6878889799999999 1.71816 1.058965 1.684548
20300 1.32414399 7.778868930000001 4.61070981 1.887867 0.6465529999999999 0.777205
20320 0.25057683000000003 7.79893038 2.2360521600000003 1.399795 0.8747440000000001 0.8781889999999999
20340 -2.36463183 5.94713592 1.71947718 1.205869 0.6444479999999999 0.82906
20360 -1.32504651 5.41468836 3.8544863400000002 1.345155 0.480036 0.5322100000000001
20380 -1.8462616200000002 5.276230020000001 4.95455031 1.303845 -0.107132 0.352144
20400 -2.5878191400000006 5.3132039099999995 4.9174194600000005 1.115896 -0.734533 0.237335
20420 -3.45242349 6.014795490000001 4.649331780000001 0.652583 -1.028027 0.24195300000000006
20440 -4.396508460000001 6.774315120000001 4.31177949 0.071073 -0.770464 0.271744
20460 -2.95904916 9.864936 15.14805264 -0.109212 -0.652049 0.385701
20480 6.7539593700000005 27.968143230000003 0.04371336 0.236275 -1.045768 0.510396
20500 11.304945900000002 19.898270460000003 1.40992263 0.653001 -0.722929 0.932704
20520 3.51304929 3.7684134 1.64328291 0.6176470000000001 0.249676 1.227108
20540 0.28245933 3.1684632300000004 5.0368758300000005 0.31303400000000003 0.688002 0.834518
20560 4.585861080000002 5.12998254 4.299360030000001 0.960008 0.8620559999999999 0.437163
20580 10.183172400000002 4.544247060000001 3.31455375 1.204169 -0.050007 0.272326
20600 9.195374070000002 10.584185580000002 1.0901853000000001 0.809825 0.33123600000000003 -0.152865
20620 9.10092339 6.23753154 1.3992885900000003 0.507223 1.026099 -0.498768
20640 6.492150090000001 5.89818402 1.10126079 0.839091 1.205267 -0.570387
20660 5.07130893 7.47815319 0.27812331 0.604646 0.865958 -0.495746
20680 3.8630210400000005 10.00429686 0.30551283 0.630145 0.680318 -0.181273
20700 2.63422044 12.775180409999999 1.1903257800000004 0.5690729999999999 0.519135 -0.046897
20720 1.6681316400000001 16.109354160000002 1.6386427800000003 0.194887 0.6724180000000001 0.040024
20740 3.1677078600000006 10.38151098 0.37811664000000006 0.138168 1.361785 0.055836
20760 3.6604837800000003 7.38519363 -0.38754405000000003 0.193941 1.751868 -0.572389
20780 2.6870669100000004 5.34089754 -2.00688075 0.196054 2.566257 -0.703741
20800 1.5181465500000002 4.83030666 -3.3389610300000006 0.127412 3.4144309999999995 -0.963817
20820 0.91609704 5.26260393 -3.37263876 0.011564 4.124604 -1.304163
20840 0.7881157799999999 5.786065530000001 -2.84903001 -0.546034 4.803477 -1.426432
20860 0.5269049100000001 7.02668718 -1.16951877 -0.721353 4.109252 -1.092413
20880 2.29113531 9.01080873 1.17116685 -0.722738 3.44299 -0.975133
20900 6.199812090000001 8.865169470000001 1.7071950599999999 -0.363368 2.716081 -1.18854
20920 8.42448465 7.37052768 1.4314752 -0.129351 2.809183 -0.6988479999999999
20940 7.8002743500000005 6.70694985 0.69410655 -0.202206 2.833674 -0.367171
20960 5.618118330000001 7.63711443 -0.40371093 -0.394707 2.769211 -0.329977
20980 3.7272506400000003 8.84376405 -1.20544299 -0.511675 2.694742 -0.253786
21000 2.8672864200000006 10.06836597 -0.05134554 -0.349684 2.402464 -0.03009
21020 2.14863525 9.07368102 2.74319973 0.16251600000000002 1.820618 -0.15609
21040 3.4419464100000003 9.5498388 1.87844823 0.70133 1.496451 -0.009837
21060 4.7502178200000005 9.52618689 -0.37496763 1.309351 1.328947 0.325773
21080 4.59678942 8.69855643 -2.47120767 1.6928580000000002 1.371775 0.737526
21100 3.88202301 8.554261140000001 -3.12235623 1.48202 1.3031700000000002 1.292685
21120 4.94152263 8.4217869 -1.9513463400000002 1.179845 1.261778 1.782009
21140 8.56863279 9.20481129 -0.4912749900000001 1.372991 0.631342 2.095019
21160 11.37349818 11.060500320000001 -0.5891787900000001 2.241857 -0.892236 1.6672060000000002
21180 10.890748080000002 13.737384450000002 0.13501503 2.357526 -1.577757 0.6401939999999999
21200 8.01972405 11.462416020000001 0.0953532 1.599812 -1.584685 -1.230205
21220 5.36978799 9.747883080000001 -0.37766538 1.283933 -0.977419 -2.0354240000000003
21240 3.7143799200000003 8.37044136 1.32369273 0.826435 -1.267946 -1.180465
21260 5.056181909999999 7.89937497 3.58130727 -1.21289 -2.518681 -0.187911
21280 8.60021118 7.6534382700000005 2.44995921 -1.575075 -2.332719 1.304832
21300 11.888277930000001 4.12737111 0.7125199200000001 -0.288495 -0.7563979999999999 0.528792
21320 12.79778265 3.3386569200000005 -0.40610457000000005 0.846144 0.227281 -0.028564
21340 8.45247258 5.10319143 -0.6060912300000001 1.648571 2.553917 0.854274
21360 3.5610986700000002 7.017554070000001 -1.50093 1.822264 4.805935 1.495671
21380 1.51485039 8.632544939999999 -1.2666672 0.7701640000000001 3.445551 1.34906
21400 2.5993458900000004 8.95797207 -0.55235205 0.034198 0.379989 0.846852
21420 3.39464259 9.16349157 0.34428195 0.681297 -2.502241 0.451277
21440 1.51454628 8.115528509999999 1.9902626100000003 1.540961 -1.67958 -0.093906
21460 0.34069149000000004 6.699317669999999 3.8052401400000004 1.519597 2.318384 -0.603379
21480 1.07251749 5.61333105 4.36582278 1.619675 2.6221400000000004 -0.728052
21500 1.66528674 5.48758647 3.13837596 1.341357 2.360429 -0.307713
21520 1.39450131 5.14973988 2.20761297 0.961675 1.87636 0.129295
21540 1.44898605 5.270236110000001 1.5263771400000001 1.09389 0.977596 0.198668
21560 0.06406911000000001 6.12211689 0.60309918 1.290316 0.137032 0.044089
21580 -1.72770777 7.27965765 -0.48723327000000005 1.151269 0.4128439999999999 -0.077945
21600 -2.35190826 10.76666139 0.77374413 0.968388 1.614547 -0.203608
21620 -0.65174697 22.017868110000002 1.57846824 0.968813 1.21207 0.012692
21640 -0.6912616500000001 22.82587857 4.35070557 0.8324540000000001 0.6188899999999999 0.086207
21660 3.3036254100000004 16.811544150000003 3.4796658600000003 0.6597930000000001 0.560338 0.226081
21680 10.39707945 12.79958769 2.41358373 0.699272 0.670549 0.336242
21700 18.82814661 8.099508779999999 -1.4322207599999999 0.795908 0.811876 0.341009
21720 22.30645869 6.87639798 0.6126737400000001 0.694275 0.490606 0.318278
21740 9.796226760000001 -0.22632651000000004 3.2081250600000004 0.4320270000000001 0.21701 0.234544
21760 3.7220121000000006 -0.6481565100000001 0.9241804800000001 0.194605 0.26496 0.17086700000000002
21780 2.17961523 2.41642863 -3.0291023700000004 0.118867 0.537693 -0.03511
21800 3.9739329000000003 6.2246510100000005 -6.233185710000001 0.014975 1.33184 -0.34022800000000003
21820 5.428461600000001 10.11611124 -5.786065530000001 -0.627684 1.327138 -0.7378170000000001
21840 5.4765109800000005 12.931904970000001 -4.00102812 -1.38322 1.404716 -1.101048
21860 4.36926609 10.766062980000001 -1.3558793400000002 -1.469069 2.5922400000000003 -1.228152
21880 1.85838678 10.790009190000001 7.24088853 -1.39656 3.532518 -1.467064
21900 5.041211850000001 8.8786386 1.4934449699999999 -1.409412 3.636606 -1.112637
21920 7.836502680000001 6.39065583 -1.30618188 -0.94858 3.93543 -0.318249
21940 5.71242186 6.582559050000001 -2.50638633 0.047222 4.250516 -0.323447
21960 3.30617601 7.621398810000001 -3.9474459000000004 0.4131 3.525475 -1.274953
21980 1.67441985 8.17180848 -3.9460921200000003 -0.177457 3.194816 -1.721966
22000 0.68916231 9.0901422 0.35431757999999997 -1.333619 3.336008 -1.662925
22020 3.79969749 9.645790410000002 3.9540284100000003 -1.816167 3.049872 -1.882778
22040 4.4718002100000005 8.08798203 -0.62135559 -1.277536 2.812327 -2.085946
22060 3.2971900500000006 8.31416139 -1.8666173700000002 -1.1075700000000002 2.37226 -1.408011
22080 3.8428124400000003 7.93125747 0.25940583 -1.216058 1.820806 -0.605827
22100 4.27510971 8.05414734 2.0736378 -1.100671 1.395198 -0.830939
22120 3.66722325 8.45801523 1.24002324 -1.024682 1.070372 -1.44956
22140 3.26441484 9.26723232 -0.44981793 -1.399668 0.700088 -1.23272
22160 3.2287849200000007 10.037974590000001 -0.49366863 -1.8404080000000005 0.608474 -0.585134
22180 4.168985129999999 10.902127680000001 -0.21345579 -1.562927 0.08283 -0.17766600000000002
22200 5.55899346 11.05211277 0.38364948 -0.580154 -0.941525 0.19157
22220 7.97511798 11.32635132 0.6773412600000002 0.4943 -1.410624 0.41973
22240 8.55231876 12.446466930000001 -1.6040625300000002 1.317191 -1.197812 0.566211
22260 8.48870091 14.709457350000001 -0.56687085 2.151779 -0.734897 0.495604
22280 8.57432259 12.33539811 0.8155053 2.788691 -0.899242 0.815389
22300 6.659204580000001 7.907154300000001 1.8941638500000002 1.947703 0.244741 1.307976
22320 7.32037896 7.312148370000001 2.8023246000000004 1.633943 0.265796 1.110273
22340 10.227180060000002 7.33639869 1.5525698400000003 0.971735 -1.986213 1.155535
22360 11.93872095 6.35922459 0.32347494000000004 -0.199965 -0.454338 0.8377399999999999
22380 12.56741442 7.8085147500000005 -0.5923179900000001 0.142852 0.685983 0.954041
22400 9.4396725 8.17075881 -0.6798820499999999 0.450007 0.424357 1.910444
22420 4.4509932 8.71488027 -0.47046798 0.541082 0.470556 3.063632
22440 1.6643842199999999 10.093509 0.13921371000000002 1.064845 -0.268513 2.818274
22460 0.23440995 11.72781576 -1.09975986 2.001285 -0.17718599999999998 1.547105
22480 -0.76760307 12.08272194 2.19383973 2.325161 0.625819 0.787764
22500 -1.50422616 9.97076628 6.33183507 1.6948009999999998 1.1649200000000002 1.049725
22520 2.1278282400000004 6.974448929999999 4.96068156 0.909516 1.215452 1.34755
22540 3.3573645900000004 7.24702959 2.8966281300000003 0.64542 -0.39208 1.051868
22560 0.93959199 7.1798212800000005 1.9050921900000002 0.793223 -1.299022 0.490042
22580 -0.97222986 5.714217090000001 1.09691496 1.248297 -0.2322 0.241889
22600 -1.2040990200000001 5.5613871 1.48131981 1.501974 0.59385 0.17316800000000002
22620 -0.67719411 5.9402493000000005 3.2135205600000005 1.39723 0.264291 0.360866
22640 -1.76408325 4.80545793 4.537958850000001 0.929454 -0.745103 0.644107
22660 -2.2010206500000002 4.160303280000001 6.15894363 0.217587 -0.788371 0.892359
22680 -2.2978747800000003 6.13229967 4.98403917 -0.119099 -0.005167000000000001 0.8612299999999999
22700 -2.29218498 6.0908328 1.45497015 0.270085 -0.00354 0.916289
22720 -1.1683219500000002 6.43931343 2.80292301 0.918028 -0.086013 0.998901
22740 2.99721987 10.91949138 7.05243843 1.1712 0.336515 0.8762139999999999
22760 14.80241691 36.118095030000006 5.069808000000001 0.911823 -0.009642 0.554379
22780 10.444834530000001 14.08316733 2.2968251100000003 0.537647 -1.112141 0.330988
22800 1.13957865 -0.25042968 3.91002075 0.376043 -1.329536 0.22438400000000006
22820 0.6575839200000001 -0.9098088300000001 3.66602643 0.144574 -0.910983 -0.08221200000000001
22840 4.68360792 2.5942545000000004 1.87874253 -0.457914 -0.361468 -0.316793
22860 7.5098787300000005 7.050937500000001 2.85126669 -0.800197 -0.436395 -0.19731
22880 9.25315497 11.46450555 1.4657513400000002 -1.053092 0.127621 -0.099387
22900 8.80543638 11.2300956 0.44068482 -1.145268 1.061544 -0.736819
22920 5.907611429999999 9.93962934 -1.03329711 -1.244336 1.7407400000000002 -0.804611
22940 3.6485155800000006 9.883496520000001 -1.04707035 -1.114188 1.774228 -0.767426
22960 1.6536128400000003 11.27530008 -0.31854051 -0.405888 1.492623 -1.021695
22980 -0.40700709 11.79442566 0.67554603 0.043431 1.288444 -1.498995
23000 0.02604555 10.31849154 1.2555917100000002 -0.323422 1.63637 -2.1408
23020 2.3340933000000006 8.23827123 0.62001162 -1.508804 1.582179 -1.947116
23040 3.3870104100000007 5.7869680500000005 -0.45594918 -2.77756 0.5591430000000001 -1.02211
23060 3.8835239400000003 4.195472130000001 -1.29945222 -2.95444 -0.434719 -0.8789299999999999
23080 4.947506730000001 3.9044781 -1.16547705 -2.564322 0.474459 -1.074991
23100 5.57141292 5.830230149999999 0.70338681 -2.286416 1.570377 -1.518835
23120 5.291798490000001 7.553444939999999 1.7342902800000002 -2.353716 1.861031 -1.685252
23140 5.25003732 8.28452538 1.3102235999999998 -2.048275 1.216872 -0.968721
23160 5.4765109800000005 9.44355726 0.7005419100000001 -1.5276809999999998 0.612917 -0.369311
23180 4.96892196 11.515703940000002 0.36075294 -1.107345 0.760934 -0.45309
23200 3.7360796400000003 13.822103610000001 -1.46545704 -0.8449780000000001 1.21914 -0.44864
23220 3.5419299300000002 13.81597236 0.19743606000000002 -0.602565 1.031985 -0.209562
23240 4.466561670000001 12.643010279999999 3.1278988800000005 -0.428471 0.312735 0.218797
23260 6.3857213999999995 12.21430347 2.88704376 -0.300118 -0.383954 0.639329
23280 7.199127360000001 13.556556720000001 2.21613786 0.388809 -0.741926 0.584779
23300 9.020393100000001 12.88760301 1.1150340300000001 1.564811 -1.059699 0.444918
23320 9.997714349999999 10.194846300000002 1.1743060500000002 3.138653 -1.222031 0.248884
23340 10.14724818 8.818159950000002 2.0420496000000004 3.752695 -0.342278 0.290502
23360 8.517885660000001 8.07630813 2.8249268400000003 2.891747 0.522274 1.14864
23380 6.526279080000001 8.563090140000002 0.7997896800000001 2.042475 0.473536 1.817887
23400 4.2234698700000015 9.7695828 -1.3924019699999999 1.8902 -1.959916 0.976046
23420 3.25318239 10.46593584 -1.6096051800000002 0.814999 -1.861991 0.064695
23440 3.2103715500000005 11.327548140000001 0.22648347000000002 0.007123 -0.330087 0.222663
23460 5.648804010000001 10.29634056 1.2397191300000001 0.160322 0.927018 0.868396
23480 8.20115019 7.05003498 0.44382402 0.971438 0.8462639999999999 1.444596
23500 8.66802771 4.42689003 -0.55864026 1.949126 0.688771 2.152381
23520 6.273308610000001 4.2685272 0.11750418000000001 2.471994 0.63717 2.082392
23540 4.105965690000001 6.055811100000001 0.99648018 2.245194 0.6794100000000001 1.307361
23560 2.8976778000000003 7.22636973 2.82447558 1.276992 0.083999 1.062079
23580 2.98808676 5.191059600000001 2.57045544 0.101692 -0.8756780000000001 0.7154050000000001
23600 2.4776430300000003 3.2500431899999995 1.91885562 -0.530413 -1.368363 0.330266
23620 2.18979801 2.74304277 2.2614993 -0.336417 -1.526224 0.212182
23640 2.06495595 4.49126325 3.59986779 0.094962 -1.7214580000000002 0.176989
23660 2.4679213200000003 6.73329951 3.69836019 0.513333 -1.448086 0.181698
23680 2.1534225300000003 8.435412990000001 2.8669921200000004 0.664704 -0.560992 0.386717
23700 0.91639134 8.13019446 2.31299199 0.318798 -0.127219 0.634777
23720 1.23672708 6.66623835 3.3286311 -0.382084 -0.74615 0.710791
23740 -0.4107447 6.4834682400000005 3.8799334800000005 -0.521125 -1.250795 0.757469
23760 -2.2598512200000003 5.65299288 2.37900348 0.427873 0.06148500000000001 0.768825
23780 -3.40721901 4.88928438 4.160303280000001 1.021531 0.8869879999999999 0.542246
23800 0.2282787 5.644762290000001 2.86594245 0.792964 0.163109 0.347161
23820 10.546917390000003 18.49104558 3.63279996 0.562062 -0.343436 0.415632
23840 18.42907581 28.35957204 1.6374459600000002 0.49467 -0.7538600000000001 0.281091
23860 8.47282833 13.818366000000001 1.7030061900000002 0.476361 -0.794268 0.278878
23880 2.7343609200000003 4.35953457 2.61236376 -0.005971 -0.560539 0.056224
23900 1.9077801300000001 0.49651353 3.5154429300000003 -0.5634779999999999 -0.490383 -0.221225
23920 3.4855028100000003 0.18831276000000002 2.6111669400000004 -0.887395 0.013921 -0.047877
23940 5.66047791 2.0969856 2.12422797 -0.8724209999999999 0.364877 -0.180682
23960 6.828054300000001 7.63397523 1.7016622199999998 -0.960756 1.134168 -0.410884
23980 7.673342760000001 14.61380985 -0.12065319 -0.88744 1.991562 -0.43604
24000 5.9257305 17.577950400000002 -2.9612956500000003 -0.595064 2.462301 -0.927051
24020 2.10626586 16.427884860000002 -2.6952975 0.122562 2.645652 -1.845217
24040 -1.15514712 10.13976315 0.45670455000000004 0.515626 2.650619 -2.893608
24060 -1.09961271 6.375538620000001 1.14961428 0.154068 2.30386 -3.508849
24080 0.6867686700000001 5.5121409 0.03367773 -0.933899 0.380274 -2.642314
24100 2.6523297 5.214260250000001 -0.98285409 -2.164597 -1.26664 -1.3113860000000002
24120 4.1655418200000005 4.02707367 -1.09826874 -2.93051 -1.240429 -1.075352
24140 5.86959768 3.3712849800000004 -0.7939527300000001 -3.03727 0.414172 -1.305749
24160 6.8693642100000005 4.245768 -0.5185173599999999 -3.224484 1.65498 -1.616295
24180 6.80081193 5.93905248 0.8675963999999999 -3.338366 0.982428 -1.161166
24200 6.500086379999999 8.0773578 2.7707364000000005 -2.580117 0.108028 -0.53518
24220 5.78831202 9.915830280000002 2.49516369 -1.54231 0.51563 -0.535931
24240 4.190832 11.20928859 -0.11960352 -1.267636 1.202311 -0.66842
24260 3.74655672 11.20539402 -1.10695059 -0.251331 1.566448 -0.437461
24280 4.249368270000001 11.80400022 -1.22670126 -0.16183 0.337092 0.024075
24300 6.43107303 12.30097482 -0.8157996000000001 -0.30165 -0.12781900000000002 0.523622
24320 8.43151842 12.184510500000002 -0.96459768 -0.000116 -0.6711739999999999 0.5445840000000001
24340 8.13632571 13.664035080000001 -0.47211606000000006 0.8921600000000001 -1.167102 0.447835
24360 9.43652349 12.775180409999999 1.0448238600000002 2.461342 -1.33083 0.338296
24380 12.33674208 11.92180851 1.48700961 3.756725 -0.38187 0.06518600000000001
24400 12.57894117 10.076145300000002 2.7502335 2.1159 2.94998 0.770505
24420 9.78141366 7.72139214 3.13867026 0.487641 -0.198729 2.650715
24440 7.67992527 7.808809050000001 2.24607798 1.807781 -2.819472 2.081113
24460 5.03897517 8.76157587 0.86489865 2.001872 -0.882122 0.945535
24480 2.5122232800000006 9.35254989 -0.36704115 1.157761 0.710202 0.67802
24500 1.6079571000000001 11.34864945 1.4434532100000004 0.582806 1.836622 1.069939
24520 2.85950709 13.11242859 1.34525511 0.417253 1.985681 1.499085
24540 5.294937689999999 10.977723540000001 -0.16435674 0.810934 0.412669 1.5903770000000002
24560 5.21545707 6.06672963 -2.39486625 1.481832 0.05793 1.276119
24580 4.12257402 3.9639070800000002 -1.8859234500000002 1.600332 0.630201 1.119185
24600 2.8699841700000004 5.360654879999999 0.39592179 1.30903 1.197534 1.220041
24620 3.45541554 7.274419110000001 2.89213515 0.983149 1.203541 1.332057
24640 4.5036827100000005 4.83688917 2.12931936 0.383003 0.014059 1.211885
24660 4.42674288 3.5579496600000002 2.46312423 -0.208861 -1.093027 0.99232
24680 4.03755075 2.909646 1.9736444700000002 -0.4331890000000001 -1.476583 0.668641
24700 4.09458609 4.237243110000001 3.15109953 -0.065206 -1.597946 0.33060500000000004
24720 2.3140416600000004 9.77347737 5.50300779 0.513318 -1.5690540000000002 0.06327999999999999
24740 1.7031631500000002 8.967556440000001 1.6742727000000002 0.728484 -1.197915 0.037602
24760 0.29369178 7.49506563 2.08351647 0.408149 -0.814129 0.24317600000000006
24780 0.8214894 7.434891090000001 2.75891535 -0.019353 -1.140942 0.556802
24800 -1.13838183 6.12287226 1.69881732 -0.07059299999999999 -1.235111 0.707184
24820 -2.5722506700000003 4.03291062 0.42167304000000005 0.120802 -0.6913229999999999 0.6832550000000001
24840 -2.7387067500000004 3.63220155 3.71497833 0.326538 -0.400634 0.5379729999999999
24860 3.58684011 3.0291023700000004 12.00952953 0.428199 -0.752858 0.354333
24880 17.28830034 19.48917384 0.20118348 0.23620700000000006 -1.184819 0.385592
24900 15.720162030000001 17.29907172 2.77657335 -0.359683 -0.549211 0.193676
24920 5.9633028 8.3810754 0.7056333 -0.690248 -0.5438850000000001 -0.318182
24940 2.6141589900000004 5.382207449999999 0.34009308 -0.674617 -0.15521 -0.5599890000000001
24960 4.8557538 6.3518867100000005 0.7933543200000001 -0.691141 0.412754 -0.5886060000000001
24980 7.05856968 7.788904560000001 1.3900083300000001 -0.9315 0.80874 -0.83862
25000 8.17809669 8.976679740000002 0.6589278900000001 -1.03934 1.138794 -0.965846
25020 7.286397120000001 8.6765526 0.8189486100000001 -0.728603 0.982942 -1.420675
25040 4.6669995900000005 7.93948806 0.54816318 -0.472228 0.697663 -2.494218
25060 2.59889463 8.681349690000001 0.8138572199999999 -0.63825 1.132013 -3.3441019999999995
25080 1.5919373700000001 10.555599240000003 0.23052519000000005 -1.487424 1.39497 -3.099339
25100 1.37833443 11.76373998 0.38709279 -2.703884 0.46239 -1.132567
25120 1.0844955 10.88102637 0.25985709 -2.94351 -1.255088 -0.329805
25140 0.9575541000000001 8.896149450000001 -0.33470739 -2.968445 -0.892818 -0.593226
25160 0.79364862 6.943763250000001 -0.51762465 -2.9822740000000003 1.313907 -1.247766
25180 1.32968664 6.6891447 -0.051198389999999996 -2.935959 2.43072 -1.654797
25200 2.80935837 7.64505072 1.02312414 -2.173453 1.5658450000000002 -1.017044
25220 5.805077310000001 8.113723470000002 1.91317563 -1.472029 0.675369 -0.583715
25240 7.9855950600000005 7.303466520000001 1.53819819 -1.3032709999999998 0.8191390000000001 -0.7194520000000001
25260 7.777672110000001 6.70455621 1.6031698200000002 -1.014603 1.453894 -0.931894
25280 5.46902595 7.9649352 1.95104223 -0.316316 1.27169 -0.994081
25300 4.75545636 10.686425400000001 0.97971489 -0.106711 0.535721 -0.411629
25320 5.128932870000001 12.66367014 -0.26569404 -0.44225 0.324317 -0.267356
25340 6.5848055400000005 12.89418552 -0.2817137700000001 0.376431 -0.646123 0.347425
25360 8.79062328 12.63208194 0.42346827 0.594889 -0.912141 0.615279
25380 8.62551117 15.086975579999999 -0.05044302 1.861237 -0.812713 0.493674
25400 8.25338844 10.88191908 1.82590587 3.649584 -0.771072 0.251875
25420 8.177792580000002 9.70940826 2.28888882 4.02177 -0.4733020000000001 0.588447
25440 7.183863 9.020393100000001 2.97551034 2.111681 1.714107 2.142588
25460 7.60209273 9.06066315 2.65937328 1.233091 -2.0292630000000003 1.836805
25480 6.72296958 10.12778514 0.039965940000000005 0.925964 -2.567064 1.26385
25500 4.13081442 11.01245094 -1.87111035 0.134621 -1.087061 0.5353760000000001
25520 2.195487810000001 10.781778599999999 -0.62390619 -0.053637 -0.037944 0.743156
25540 3.13837596 11.873611980000002 0.7461976499999999 0.614917 0.093295 1.442002
25560 7.81764786 10.238853960000002 1.52487621 1.142321 -0.189162 1.557143
25580 9.81 6.16327965 -1.0581458400000003 1.709875 -0.09578 1.422119
25600 8.320302450000002 2.26059678 -1.6561536300000002 2.0036400000000003 0.854815 1.341768
25620 4.8835945800000005 2.6945421300000003 -0.06990606 1.852085 1.081176 1.342556
25640 3.71482137 5.97227895 3.44254482 1.629438 0.584853 1.245497
25660 4.09757814 6.133496490000001 4.0430934 1.120794 -0.060141 1.013103
25680 3.27773682 3.7480576500000002 2.45159748 0.069906 -0.543276 0.999972
25700 2.8051695 3.17489859 1.75554855 -0.856808 -0.974484 0.94705
25720 3.2711445000000006 4.56775182 3.8119698 -0.99972 -1.18296 0.725197
25740 3.5194846500000003 6.70979475 4.54814163 -0.374304 -1.432149 0.428646
25760 2.0850174000000004 6.35324049 2.4718060800000003 0.25290100000000004 -1.717728 0.172747
25780 2.18246013 6.43451634 -0.07275096 0.387719 -1.7082990000000002 0.095696
25800 -2.8448313300000003 9.95684589 7.86329379 0.201816 -1.463858 0.399596
25820 -0.5074418700000001 6.93013716 2.0710970100000003 -0.156073 -1.554183 0.6535850000000001
25840 -1.77979887 6.07646115 3.97663065 -0.343791 -1.142983 0.815185
25860 -4.233642840000002 6.41655423 4.01570388 0.095362 -0.021703 1.080666
25880 -4.59738783 6.5192453100000005 4.20625332 0.73002 0.200683 0.861556
25900 1.6973163900000001 6.609359970000001 4.32959445 0.832902 -0.325413 0.468775
25920 14.478794820000001 23.912326260000004 1.3216032000000002 0.468339 -0.393784 0.566729
25940 16.093628730000002 22.067712720000003 -0.04041720000000001 0.281518 -0.126084 0.383483
25960 4.782855690000001 9.67632894 1.59538068 -0.035688 0.089771 -0.040957
25980 0.89514288 4.50114192 1.61573643 -0.186052 -0.119834 -0.506415
26000 3.1461552900000003 4.85919711 1.9880161200000002 -0.42635 -0.201979 -0.534694
26020 5.46438582 5.8824684 2.66356215 -0.8250069999999999 0.410646 -0.478443
26040 6.69946482 5.45226066 1.31441247 -1.091402 1.147763 -0.766464
26060 6.681208409999999 5.654336850000001 1.40452713 -0.872915 1.925036 -1.126993
26080 6.36341346 8.17135722 1.62606636 -0.151286 2.441293 -1.6513830000000005
26100 5.0208561000000005 11.221560900000002 0.81251325 0.665662 1.906417 -2.597845
26120 3.5220254399999997 11.61225396 -0.16420959 0.389684 1.475638 -3.587326
26140 1.49404338 10.62161073 0.11271690000000001 -1.1447040000000002 0.926426 -2.908337
26160 0.02320065 10.41130395 0.18441819 -2.725086 -0.387904 -1.063259
26180 0.1300806 10.11775932 -0.023347800000000002 -3.520017 -0.913176 -0.618417
26200 1.2660687899999998 8.868308670000001 -0.68348232 -3.281591 0.458736 -0.784084
26220 2.9364469200000007 7.28579871 -1.27879236 -2.7823900000000004 2.024093 -1.332737
26240 4.74288975 5.7583719 -1.23822801 -2.25836 2.380842 -1.490835
26260 6.433770780000001 4.3499502 -0.9122024700000001 -1.72829 1.26142 -0.665304
26280 7.528596210000001 3.6531557100000005 -0.8652027600000002 -1.388994 0.928389 -0.5268430000000001
26300 7.9327584 4.07243511 0.2311236 -1.2779049999999998 1.518774 -0.678511
26320 7.28864361 4.93164396 2.5584774300000004 -0.730592 1.646205 -0.7859470000000001
26340 6.51370266 8.69122836 2.74349403 -0.286686 1.421081 -0.5507529999999999
26360 5.79055851 13.2023961 0.7050348900000001 -0.0573 0.598666 0.05438
26380 5.513484870000001 12.65183928 -0.30252078000000004 0.0899 0.041536 0.456705
26400 6.26522517 10.919344230000002 0.27198225000000004 0.8206700000000001 -0.463634 0.6793060000000001
26420 8.554565250000001 11.37244851 -0.6390234 2.190129 -1.062714 0.656525
26440 8.904537 13.98437082 -0.6797349 3.62595 -0.984178 0.551086
26460 8.75544462 14.399304390000001 -0.5084915400000001 3.5609660000000005 0.24434 0.809704
26480 9.08625744 12.06131652 2.20985946 0.767375 2.839797 2.318695
26500 11.01065571 10.218046950000002 3.38775597 1.7392310000000002 -3.429442 1.766291
26520 10.556648910000002 8.13438333 4.074073380000001 1.7190299999999998 -2.006533 0.794381
26540 7.668408330000001 7.9397921700000005 3.55256397 0.067359 0.117776 0.325059
26560 4.82536242 9.020088990000001 0.16091343000000002 -0.66672 1.468371 0.738012
26580 1.97619507 10.374477210000002 -2.24009388 -0.174879 1.106472 1.568715
26600 1.1443659300000002 12.547657080000002 0.25102809000000004 0.942856 0.7113 2.451903
26620 5.29897941 11.13848982 0.45759726 2.296647 -0.297192 1.464932
26640 8.73493191 7.43907996 -0.19564083 2.893418 -0.551771 0.4108189999999999
26660 9.12187755 3.0620345400000004 -0.67509477 2.027161 0.130003 0.363302
26680 5.520665790000001 2.6749417500000003 -0.35326791 0.521039 0.6851229999999999 0.841316
26700 3.27039894 6.238277100000001 2.0044773 -0.412294 -0.258393 1.037899
26720 4.33977723 7.577989560000001 3.7193143500000003 -0.5542729999999999 -0.750061 1.038606
26740 4.44964923 4.84511976 1.8820386900000001 -0.155799 -0.432785 1.003595
26760 3.24569736 2.9379380400000006 1.5911918100000002 0.261886 -0.460286 0.859133
26780 4.1384466 2.4128283600000002 0.21899844000000002 0.366789 -1.076565 0.639534
26800 1.58939658 6.47344242 7.219787220000001 0.173488 -1.537495 0.457176
26820 2.33514297 7.467372 3.35587347 -0.060493 -0.999377 0.355508
26840 1.4129146799999999 7.92197721 1.9892129400000003 -0.176429 -0.528742 0.510055
26860 0.08007903000000001 7.003486530000001 1.4022806400000003 0.356072 -0.516579 0.735949
26880 -0.8309266200000001 6.69946482 1.90583775 0.948494 -0.373121 0.577534
26900 -2.70891378 4.94991018 1.30378824 0.923283 -0.6559699999999999 0.204911
26920 -4.16494341 4.0055211 1.13852898 0.586842 -0.964945 -0.024575
26940 -2.62733382 4.24756323 3.2377708800000002 0.244106 -1.032957 -0.035427
26960 10.5446709 12.546156150000002 11.34221409 0.00451 -0.614854 0.043548
26980 22.29853221 31.657821570000003 -3.8160115200000004 -0.448325 0.05217 -0.136726
27000 9.643691070000001 13.58215101 1.8669214800000002 -0.851937 -0.160092 -0.517424
27020 0.5167221300000001 3.5663372100000004 1.39719906 -1.340342 -0.219838 -0.8700680000000001
27040 -1.1349385200000002 0.8264336400000001 1.87140465 -1.362281 0.5475409999999999 -0.679992
27060 1.19690829 1.4606599500000002 2.5456067100000004 -1.068457 1.264877 -0.769658
27080 5.295840210000001 5.785614270000001 3.56782833 -0.69695 1.885104 -1.150281
27100 8.580610799999999 13.72091346 1.10095668 -0.122305 2.230317 -1.663729
27120 8.406522540000001 13.80863448 -0.84933018 0.410376 1.506194 -2.457042
27140 4.620441330000001 11.21887296 0.19219751999999998 0.537492 1.130189 -3.108356
27160 2.44666305 9.004520520000002 0.57749508 -0.326487 1.696434 -3.304192
27180 2.2356009 7.68637044 -0.26853894 -1.853203 1.004687 -1.620838
27200 2.65997169 6.774609419999999 0.5524992000000001 -2.792095 -1.1496959999999998 -0.443182
27220 3.14705781 6.4375083900000005 0.8526263400000001 -2.874064 -1.105857 -0.67882
27240 3.9520860300000002 7.09584768 -0.64455624 -2.584365 0.984747 -1.3289540000000002
27260 4.81473819 7.5889179 -1.75435173 -2.6112900000000003 2.268728 -1.652322
27280 5.25871917 7.923026879999999 -1.32669459 -2.162519 2.069693 -1.285737
27300 5.30526762 7.72408989 1.2479595300000004 -1.49395 1.152049 -0.690232
27320 5.838912 7.28355222 2.97401922 -0.998043 1.095089 -0.462369
27340 6.322250700000001 6.478229700000001 2.76460515 -0.980996 1.580622 -0.685062
27360 5.4286087499999995 8.43780663 1.73638962 -0.911684 1.902676 -0.830269
27380 4.1793052500000005 11.885737140000002 0.52719921 -0.82995 1.630513 -0.7716649999999999
27400 4.23798867 13.1878773 0.90322632 -0.747712 1.200926 -0.50669
27420 4.4637167700000004 12.56815998 2.09009898 -0.415495 0.664771 -0.182147
27440 6.70725396 11.55193227 2.0074791600000004 -0.326385 0.067098 0.286054
27460 8.86905423 12.06490698 0.33291216 -0.068422 -0.113198 0.394909
27480 8.73612873 13.468247100000001 -1.13524263 0.23825900000000005 -0.159345 0.480432
27500 8.223899580000001 10.37941164 1.0334540700000001 0.5886979999999999 -0.365733 0.640173
27520 8.51054778 8.204289390000001 1.6769606400000001 1.251856 -0.727897 0.856777
27540 10.080039870000002 8.01972405 2.6616197700000006 2.301272 -0.549517 0.8927209999999999
27560 10.289002680000001 7.77737781 2.98299537 3.5311480000000004 -0.282609 0.745009
27580 7.084615230000001 8.94060837 1.15829613 2.97235 0.750416 0.769692
27600 3.38969835 9.52783497 -1.84461354 2.504367 -0.987665 -1.065487
27620 1.29900096 9.47993274 -2.15431524 -0.66401 -1.063384 1.166428
27640 1.19197386 10.87952544 1.2669614999999999 -2.0389 -1.710287 1.628739
27660 4.9434748200000005 11.93362956 2.7547166700000005 -0.380868 -1.163838 0.7348359999999999
27680 7.8977268899999995 7.478751600000001 -0.48559500000000005 0.8594569999999999 -0.100132 1.915044
27700 7.440276780000001 3.2494447800000006 -1.65016953 1.612564 0.830941 3.119793
27720 4.69932354 1.88802279 -0.30342330000000006 2.670123 1.129571 2.648234
27740 2.5908111899999997 3.8743908300000003 2.54290896 3.440706 0.87749 1.617764
27760 2.7473886 6.03335601 4.29457275 2.994942 0.646744 1.101132
27780 2.3822996400000003 5.6889171 3.10499253 2.070042 0.541925 1.209105
27800 2.2279687200000002 4.27046958 2.7204405300000003 1.152301 -0.016134 1.169227
27820 2.91488454 4.883741730000001 3.15289476 0.756796 -1.09638 0.727741
27840 3.7622723400000004 6.91875756 3.86197137 1.531268 -1.015657 0.116683
27860 3.14301609 8.622371970000001 3.14750907 2.229345 0.770087 -0.30695
27880 1.7079504300000001 7.863597899999999 2.5288414200000005 2.327491 1.900332 -0.12291
27900 0.06870924 6.493494060000001 2.9057612400000004 1.984266 1.617782 0.237182
27920 -1.2263971500000002 5.6889171 3.1100839200000006 1.534112 0.631099 0.420104
27940 -1.1304455400000002 5.37142626 3.5890866000000003 1.082562 -0.34430900000000003 0.449179
27960 -0.36119439 5.73667218 4.36283073 0.701496 -0.8840459999999999 0.423708
27980 -0.42361542 6.08320062 4.6985779800000005 0.634981 -0.485424 0.429142
28000 -0.91265373 5.7547814399999995 4.645741320000001 0.7777890000000001 -0.456459 0.254914
28020 -2.30610537 5.24389626 5.04840258 0.467931 -0.129332 -0.030749
28040 -3.7014993900000004 6.44035329 4.29247341 0.048934 0.24680700000000005 0.041686
28060 -4.024081620000001 7.622595629999999 7.7826163500000005 0.4685 -0.064839 0.622924
28080 2.02768776 17.55414153 7.022792610000001 0.954345 0.7653399999999999 0.65196
28100 10.09441152 41.56136973 -2.7300249 0.941863 1.419873 0.283565
28120 5.5241091 16.092431910000002 1.5639494400000002 0.583662 1.109643 0.386147
28140 4.4617743899999995 0.7274899800000001 3.7056980700000004 0.431441 0.632185 0.305579
28160 2.7475357500000004 -2.7662434200000003 7.505238600000001 0.764451 0.551578 0.194776
28180 4.79527515 0.9383951700000001 4.35833775 0.973735 0.75355 0.121204
28200 8.05909158 6.542298810000001 3.6199194300000004 0.884848 0.916844 0.121442
28220 10.430757180000002 12.28315986 1.85898519 0.692916 0.81586 0.233462
28240 8.00190909 10.245740580000001 0.77599062 0.48049 0.687053 0.128526
28260 5.05603476 10.37163231 -0.77553936 0.406205 0.912489 0.027305
28280 4.30789473 11.10914811 -1.2808818900000003 0.471478 1.124526 -0.040877
28300 3.12864444 11.203755750000001 -0.8658011700000001 0.40209 1.106586 -0.289166
28320 1.55092176 9.54774927 -0.22947552000000002 0.19 1.418175 -0.5036229999999999
28340 0.38424789000000004 7.722441810000001 1.90389537 -0.216115 1.2299950000000002 -0.777547
28360 0.70742853 7.238799 2.25820314 -0.4855 1.597239 -1.0074299999999998
28380 2.04519861 6.539601060000001 0.9861502500000001 -0.526725 2.494898 -1.145601
28400 3.87768699 6.090087240000001 -0.79859286 -0.311387 3.229895 -1.321295
28420 4.51625913 6.61608963 -2.14099326 -0.637898 3.71342 -1.543181
28440 3.8666115000000003 6.56938422 -3.12310179 -0.893906 3.279774 -1.03594
28460 3.2129221500000003 4.865779620000001 -2.85456285 -0.33323800000000003 2.757068 -0.011202
28480 4.11149853 4.58841168 -2.8632447000000005 0.41198 2.996753 -0.123808
28500 4.3902202500000005 6.387222330000001 -2.8145969100000006 0.567199 3.297458 -1.130442
28520 3.8205045 8.38062414 0.68452218 0.383185 3.373818 -1.418109
28540 4.88254491 9.954903510000001 3.20513301 0.23281 3.456087 -1.348762
28560 7.44806592 8.254281149999999 0.6819813900000001 -0.242439 3.087125 -1.37511
28580 7.29837513 7.565118840000001 -1.2055901400000002 -0.955199 2.670652 -1.302643
28600 5.357662830000001 8.20997919 -2.6855659800000002 -1.378284 1.87415 -1.017226
28620 3.91511214 9.38593332 -1.91017377 -1.297188 0.775442 -0.453367
28640 4.35235365 10.224188009999999 0.47376414 -0.455126 0.267111 -0.069751
28660 4.8068019 9.04778262 0.96025185 0.244587 0.188359 0.368935
28680 4.17107466 8.623863089999999 0.5665765500000001 0.286896 0.063013 1.041303
28700 3.6392353200000005 9.23624253 0.21285737999999998 0.158135 -0.065359 1.553315
28720 3.6934159500000003 10.26535077 0.49502241 0.319962 -0.050309 1.645225
28740 4.2152392800000005 9.54998595 0.5812425 0.838234 -0.165955 1.345618
28760 5.3937342 8.94180519 -0.11420802000000001 1.796413 -0.75793 0.96851
28780 5.9405436 9.47904003 -0.71401104 2.605709 -0.726258 0.8715729999999999
28800 6.33482712 9.780815250000002 0.23920704 2.582349 0.307638 0.215265
28820 7.1359607700000005 9.34790976 -0.73646613 1.938667 0.598454 -1.088562
28840 6.7515559199999995 11.27814498 -1.06682769 1.363471 -0.566344 -1.27589
28860 6.67865781 11.4959466 0.45475236 0.772299 -1.29148 -0.311281
28880 6.452037 10.373133240000001 -0.057633750000000004 -0.281663 -1.473574 1.3822
28900 5.1103723500000005 8.844362460000001 0.027095220000000003 -0.00633 -1.28729 2.508722
28920 4.30295049 7.4143783800000005 2.31344325 0.694132 0.465015 0.324719
28940 7.544311830000001 8.51489361 2.7541182600000003 1.7035900000000002 2.297287 -0.016682
28960 10.39169376 6.68329794 1.14840765 1.960363 3.110936 0.880308
28980 12.719950110000001 4.77402669 -0.14309847 1.0294 2.730689 0.874292
29000 12.62773611 4.242923100000001 -1.0806009300000001 0.32882 1.392667 0.159677
29020 7.06605471 5.248389240000001 -1.2614286599999998 0.66718 -0.35390900000000003 0.279647
29040 2.9304530100000004 6.98941899 -1.71108963 1.736798 -1.005038 0.213177
29060 1.7351927999999999 8.81861121 -1.6566048900000003 2.065933 0.764129 -0.2739
29080 1.53161568 10.15203546 -0.63438327 1.575803 2.53316 -0.549851
29100 0.60250077 10.358006220000002 1.18972737 1.2710290000000002 1.724475 -0.250773
29120 -0.60130395 7.8718284899999995 3.1910654700000003 1.0102719999999998 1.129034 -0.037119
29140 0.21360294000000002 6.02826462 4.32105975 0.8867389999999999 0.978051 -0.001469
29160 1.34630478 5.15048544 3.6967121100000004 1.060942 0.857929 0.050108
29180 2.05672536 5.133573 2.4578856900000003 1.3246870000000002 0.946337 0.090293
29200 2.5632745200000002 5.33789568 0.90201969 1.332701 1.534374 0.082118
29220 1.97694063 5.55659982 0.40325967 1.196941 1.542036 0.14845799999999998
29240 0.90890631 6.186186000000001 0.79170624 1.046227 0.958973 0.102219
29260 -0.09370512 7.3528598700000005 2.05777503 0.903519 0.800655 0.123858
29280 -0.9187849800000001 8.97308928 5.883213960000001 0.8379969999999999 0.931943 0.115754
29300 0.19878984000000002 15.21031671 7.33968504 0.785486 0.825817 0.061044000000000015
29320 1.2340293300000003 20.086279110000003 4.87955286 0.667097 0.742441 -0.031543
29340 0.67030749 17.604143099999998 3.18253077 0.468373 0.5847899999999999 -0.127801
29360 4.43677851 12.633582870000001 1.17146115 0.255483 0.386604 -0.198468
29380 9.96358536 11.01049875 2.3635821600000004 0.146562 0.367797 -0.196
29400 16.04917962 7.748781660000001 -1.7051055300000002 0.190711 0.50912 -0.144598
29420 18.65929689 5.45959854 0.45161316 0.227037 1.05736 -0.082022
29440 11.775561029999999 -0.02798793 4.16643453 -0.06296900000000001 1.778521 -0.355232
29460 5.72799033 1.00725156 0.82163655 -0.706354 1.883408 -0.718783
29480 3.5064569700000003 6.7079995199999995 -3.3751795500000004 -1.346233 2.237675 -1.377459
29500 2.2432330800000004 9.69922548 -5.40286731 -1.986863 3.3283440000000004 -1.843735
29520 0.7367702399999999 9.262288080000001 -3.8158643700000003 -2.379977 3.804376 -1.732791
29540 3.60405666 9.036412830000002 -2.4983028899999997 -1.867076 3.178183 -0.628137
29560 6.159394890000001 9.07757559 -1.98531837 -0.98648 3.636078 -0.016891
29580 5.3554163400000006 9.86852646 -0.11226564 -0.174506 4.180255000000002 -0.675283
29600 4.05581697 8.78687586 0.7039852200000001 0.240767 3.959193 -1.429468
29620 5.94293724 7.538622030000001 -0.21120930000000002 -0.113012 3.654283 -1.594986
29640 4.99496751 8.07825051 -1.2040990200000001 -0.7374069999999999 3.952968 -1.95438
29660 3.1394256300000003 8.47313244 -2.5611751800000007 -1.070957 3.700674 -2.773577
29680 2.6030835 8.24470659 -2.7454364100000004 -1.572635 1.905516 -3.095247
29700 3.14974575 7.988439960000001 0.16585766999999998 -2.417344 0.332391 -1.637804
29720 4.22466669 8.673864660000001 1.5852077100000002 -2.596833 0.51561 -0.6821659999999999
29740 3.1802842800000004 8.876990520000001 -0.80218332 -2.223921 0.862722 -0.6970970000000001
29760 2.40370506 8.66293632 -0.5536960200000001 -1.823943 0.938692 -0.595056
29780 3.1753498500000004 8.323735950000001 1.2310372800000002 -1.05734 0.539104 -0.167241
29800 3.7791945900000004 8.42568147 1.1261095200000002 -0.820915 -0.335818 0.242524
29820 3.83831946 8.34993846 0.25985709 -1.043819 -0.670987 0.6035229999999999
29840 3.27353814 9.027132570000001 -0.17378415000000003 -0.5172899999999999 -0.916135 0.7132689999999999
