time Ax Ay Az Gx Gy Gz
20 -0.45071064 9.42006231 2.55563253 -0.527778 0.617402 0.305307
40 0.46493514 8.86546377 2.81474406 -1.15422 0.057195 0.017502
60 0.6875240400000001 8.08513713 0.9879454800000002 -1.535011 0.001193 -0.299144
80 0.44217594000000005 8.53794711 1.1404811700000002 -1.717252 0.287086 -0.772937
100 -0.6665600700000001 10.652149260000002 -0.36883638 -1.728552 0.7762 -1.333391
120 -1.77066576 12.253219740000002 2.16135882 -1.571497 1.557268 -1.7904939999999998
140 -1.6780103100000001 11.68814412 2.4641739000000005 -1.61399 2.342285 -1.996895
160 -1.00320984 10.37192661 0.8184973500000001 -1.6110799999999998 1.103417 -1.745323
180 -0.38245266 10.989544590000001 2.97955206 -1.582152 -0.042974 -1.731902
200 -0.45190746000000004 10.917244890000001 3.8125682100000002 -2.32807 -0.4159060000000001 -1.596697
220 0.60354063 10.94883309 2.2037184 -2.751027 -0.172947 -1.249586
240 0.6888680100000001 10.552754339999998 0.6723970199999999 -2.854102 -0.333385 -1.265056
260 -1.15454871 11.956388760000001 0.6623712000000002 -2.986683 -0.8985860000000001 -1.531245
280 -2.43259551 12.29034078 1.0473744600000001 -3.010059 -0.654606 -1.784889
300 -0.9593591400000001 10.802291310000001 1.5964303499999999 -3.1148740000000004 -0.913141 -1.5096889999999998
320 0.67270113 11.32320231 3.6021142800000003 -2.861463 -1.370271 -0.899515
340 1.05081777 12.70992429 4.84348149 -2.532536 -1.444005 -0.328828
360 0.36853227000000005 12.93101226 1.33177617 -1.869168 -1.10806 0.065276
380 1.16801784 10.859463990000002 -1.21082868 -1.1110719999999998 -0.774876 0.268833
400 3.1000581000000005 8.85094497 0.85487283 -0.166521 -0.548662 0.421488
420 -0.14564907000000002 11.083553820000002 2.79228897 0.632365 -0.655497 0.60453
440 -0.2803698 11.56076127 6.148613699999999 1.1690459999999998 -0.908569 0.822247
460 0.70173873 11.177111790000001 5.2781724 1.810527 -0.454532 0.7417560000000001
480 1.1064993300000001 11.62871514 1.2771442800000001 2.195471 0.6435569999999999 0.461028
500 0.25102809000000004 10.654994160000001 3.1557396600000005 3.0057970000000003 0.541615 0.476432
520 -0.8445429000000001 10.205627490000001 5.308112520000001 2.797344 0.775285 0.563339
540 -0.26165232000000005 6.340664070000001 4.0799201400000005 1.184976 1.539751 0.197516
560 0.02080701 1.8958119300000003 3.11338008 2.704351 -0.324073 -1.219832
580 -0.37227969 1.3593226500000002 3.6137881800000002 1.955853 -1.092088 -1.382173
600 -0.54936 3.55495761 4.74004485 1.771526 -0.8196129999999999 -1.163756
620 -0.46044216 4.96771533 5.501359710000001 2.19757 0.568812 -0.56115
640 -0.55938582 3.25752822 5.626800179999999 1.927728 1.252999 -0.13128199999999998
660 -1.4964370200000001 2.84243769 5.65509222 1.83802 1.523787 0.160437
680 -3.96660483 3.1267020600000004 6.53405841 1.566143 1.759373 0.35585700000000003
700 -5.986199340000001 3.81032172 6.579567 1.465489 2.207138 0.8876229999999999
720 -3.31904673 2.37541302 2.57569398 1.526576 2.466165 1.325689
740 0.8809183800000001 1.0484241300000001 1.41186501 1.650759 2.36023 1.602293
760 3.69491688 5.234616 8.06897025 1.780048 2.446848 1.407601
780 -2.22541812 23.121669690000004 12.61397268 1.804595 2.1369580000000004 1.094112
800 -4.33498995 22.81016295 -2.42031339 1.62812 1.643922 0.934346
820 1.66543389 11.32171119 5.15168226 1.495916 1.206485 0.951075
840 2.8599485400000004 0.65279664 6.652170810000001 1.512748 1.284619 0.8442700000000001
860 4.00791474 1.4664969 2.03142537 1.411753 1.476162 0.7172689999999999
880 4.9274550900000005 8.86247172 3.7363837500000003 1.251201 1.317107 0.672554
900 3.11606802 15.39368523 3.7592802900000004 1.115357 1.522993 0.7183430000000001
920 1.7218708200000001 12.20217831 3.17399607 0.7566689999999999 1.235563 0.71407
940 1.69611957 7.865540280000001 3.2795320500000003 0.663856 1.5720120000000002 0.5730529999999999
960 1.4937392700000003 8.093367720000002 1.8347348700000001 0.632267 1.60008 0.5076350000000001
980 0.59501574 10.187066970000002 0.29713509 0.5755170000000001 1.437761 0.389942
1000 -1.0524658500000001 10.889551260000001 -0.27198225000000004 0.569186 1.181192 0.354975
1020 -3.14586099 9.85027005 -1.40647932 0.594342 0.847658 0.358783
1040 -3.1410639000000002 8.2253907 -0.9023238000000001 0.646837 0.6865060000000001 0.38713
1060 -2.40385221 7.51915899 0.6548861700000002 0.489521 0.835053 0.405069
1080 -1.14811335 7.1462907 0.5622307200000001 0.405815 0.91119 0.352044
1100 0.02889045 6.71084442 0.54127656 0.341556 0.974745 0.231873
1120 0.8931906900000001 7.306154460000001 0.06242103000000001 0.297323 1.023158 0.151385
1140 0.18231885 8.43660981 -0.33365772000000005 0.26847 1.022155 0.160799
1160 -0.25820901 10.92787893 0.38215836 0.051021 1.0899299999999998 0.183762
1180 -0.9108585 11.070977400000002 0.55968993 -0.100715 0.794333 0.17774
1200 -1.19226816 10.16850645 0.26913735 -0.154967 0.5835239999999999 -0.07019600000000001
1220 -1.44958446 9.071287380000001 -0.34233957000000004 -0.31003600000000003 0.636564 -0.41211
1240 -1.60166889 8.555006700000002 -1.1335945500000002 -0.820524 0.680099 -0.7329939999999999
1260 -1.01953368 9.17396865 -0.11630736000000001 -1.436335 1.320333 -0.998762
1280 -0.41913225000000004 9.96701886 0.7493368500000002 -2.113456 2.390886 -1.198212
1300 -0.59157243 9.855351630000001 -0.17198892 -2.635227 3.248545 -1.040585
1320 -0.38395359 10.069405830000001 -0.69754986 -2.645188 3.912229 -0.770177
1340 0.24698637000000004 10.286304930000002 -0.8268849 -2.227212 3.414446 -0.259214
1360 -0.03891627 9.77257485 -1.08629073 -2.026418 2.508392 -0.024846
1380 -0.31060422000000004 10.62175788 -0.12185001000000001 -2.032347 2.002626 -0.877749
1400 -2.18365695 12.072990420000002 -0.37841094 -1.754562 1.407117 -0.8472719999999999
1420 -2.8883975400000006 12.48434334 -1.48131981 -1.6654369999999998 1.638618 -0.74226
1440 -1.28044044 12.892243140000001 -0.80427285 -1.430703 1.148915 -0.760289
1460 0.29129814000000004 13.78064655 0.38424789000000004 -1.35759 0.311408 -0.7736609999999999
1480 0.77553936 13.79576376 0.89574129 -1.403591 -0.465932 -0.811442
1500 1.6274201400000001 13.222899000000002 2.41358373 -1.434431 -0.923763 -0.578198
1520 2.8644415200000006 12.18960189 3.25198557 -1.325536 -1.375737 -0.332235
1540 4.060457100000002 10.6630776 3.3762292200000004 -0.936035 -1.420295 0.082876
1560 6.048620370000001 9.039856140000001 1.87709445 -0.29380300000000004 -0.974813 0.541854
1580 6.782094450000001 8.832531600000001 0.7165616400000001 0.337955 -0.363714 0.885178
1600 5.35212018 12.02060502 0.32093415000000003 0.5620310000000001 -0.185265 0.820285
1620 3.3590126700000003 14.780864340000003 3.1338829800000005 0.579372 -0.584973 0.596591
1640 -0.84724065 13.16886552 3.7341372600000002 0.7107760000000001 -0.970307 0.408928
1660 -0.9383951700000001 10.86694902 0.43050204000000003 0.616209 -0.8624729999999999 0.430562
1680 -0.62704539 8.57072232 0.04999176 0.24471 -0.602713 0.26206
1700 -0.57645522 7.7284259099999995 0.84843747 0.002449 -1.069735 0.047321
1720 0.22842585 7.50748509 1.72516698 -0.15366300000000002 -0.857519 -0.13991199999999998
1740 1.5069141000000001 6.4276297200000005 1.87424955 -0.247083 0.096627 -0.240063
1760 2.32361622 5.25527586 2.20581774 -0.309604 0.200033 -0.4703
1780 2.20281588 4.267026270000001 2.9912259600000004 -0.137798 -0.043392 -0.483743
1800 1.0373388300000002 3.18372759 4.189939290000001 0.049512 -0.102701 -0.200348
1820 -0.68497344 3.09990114 4.69633149 -0.038862 0.049597 0.151353
1840 -1.8675198900000003 4.719237840000002 3.7772424 0.061854 0.602194 0.134256
1860 -2.4149277000000002 5.990093910000001 3.28312251 0.733787 0.683168 -0.450812
1880 -2.4676172100000002 6.99839514 4.61250504 1.148696 0.403864 -0.227503
1900 -2.5481475 8.05655079 6.39065583 0.769339 1.446432 0.717093
1920 -2.7960363900000003 10.41339348 6.74631738 0.550707 1.186583 1.152801
1940 -0.32827203 10.545416460000002 6.599030040000001 1.61421 1.18569 0.721192
1960 0.1764819 9.78275763 8.50126752 1.740953 1.169032 0.514863
1980 1.8092877300000003 9.57319641 8.32418721 1.050166 1.065937 0.521921
2000 5.42382147 11.635307460000002 7.2910372500000005 0.83357 0.32122399999999995 0.730734
2020 3.9739329000000003 10.254873690000002 7.1696385000000005 1.1349870000000002 -0.13088 1.108364
2040 2.31613119 9.54550278 7.11111204 1.332299 -0.11995 1.134298
2060 0.75562506 10.927574820000002 8.00176194 1.299562 -0.218209 0.960075
2080 -0.6792836400000001 11.998002779999998 4.44769704 1.107495 -0.058525 0.886958
2100 -0.43858548 13.092219990000002 -2.5337856600000004 1.032271 0.032389999999999995 0.860678
2120 1.47637557 8.199943560000001 -1.5179895900000002 1.009737 -0.019636 0.837087
2140 4.079017620000001 3.8221525800000005 1.06338438 1.068949 0.275484 0.776233
2160 6.207738570000001 4.38648264 3.9206449800000005 0.939678 0.342509 0.643853
2180 2.36747673 10.081687950000001 3.01772277 0.962974 0.49813 0.601088
2200 -2.2519149300000003 14.80451625 -2.9948262300000006 0.982504 0.564135 0.59473
2220 -0.89797797 12.255014970000001 -2.3875381800000004 0.882962 0.290564 0.629637
2240 0.11884815000000001 8.72909496 1.12341177 0.984657 0.143144 0.644423
2260 0.7699967099999999 7.24284072 2.3915799 1.018425 0.255052 0.601787
2280 1.13868594 8.71592994 0.9348047100000001 0.838626 0.581746 0.5776789999999999
2300 1.6687300500000002 10.008338580000002 -0.03307932 0.5759810000000001 0.57294 0.610039
2320 1.4768268300000003 9.39940245 0.27872172 0.318803 0.351079 0.637369
2340 1.20274524 8.7109857 0.8707356 0.083314 0.32139 0.54069
2360 1.3883602500000003 8.5865949 1.13134806 -0.236894 0.100626 0.348593
2380 1.13164236 8.6674293 1.6390940399999998 -0.536637 -0.045874 -0.050691
2400 0.6710530499999999 8.97578703 0.45670455000000004 -1.008442 0.080421 -0.58826
2420 1.1011136400000001 9.605677320000002 0.040711500000000005 -1.647877 0.109681 -0.957027
2440 1.3572233100000002 9.577385280000001 0.45025938000000004 -2.403441 0.085596 -0.938773
2460 1.48850073 7.96897692 -1.03329711 -2.706605 0.739749 -0.960957
2480 1.9276944300000003 8.1063954 1.2639694500000003 -2.493012 0.765725 -0.981931
2500 1.77635556 9.715990770000001 -0.0375723 -2.093373 0.816882 -1.067868
2520 1.6651395900000001 10.722800880000001 1.09841589 -1.987502 0.886654 -1.291544
2540 2.23380567 9.90640287 0.72658746 -1.989072 0.516981 -1.550659
2560 1.3421060999999999 10.7094789 -0.58573548 -1.662509 0.27413200000000004 -1.575841
2580 0.05643693 11.20899429 -0.11900511 -1.468436 0.289283 -1.537117
2600 -1.55675871 11.181447810000002 0.10044459 -1.34269 -0.330692 -1.649744
2620 -2.59844337 13.55341752 -0.5683717800000001 -1.203956 -1.177494 -1.792968
2640 -2.0281292100000003 15.27393456 -0.86265216 -1.027297 -1.703483 -1.744058
2660 -0.44128323 14.04050364 1.0666805400000001 -0.800415 -2.157427 -1.640411
2680 1.6458237 14.75302356 2.9762657100000003 -0.468783 -2.561694 -1.529686
2700 3.72065832 12.67444152 2.61236376 -0.265189 -2.815925 -1.266223
2720 4.57913142 10.74451041 -0.08906499000000001 -0.250741 -2.946697 -0.8108920000000001
2740 4.915025820000001 10.2842154 -2.03666391 -0.289064 -2.623834 -0.266781
2760 3.2217511500000002 11.512711890000002 0.53244756 -0.070911 -2.057563 0.190148
2780 0.8195470199999999 13.94769123 2.11794957 0.198353 -1.919033 0.478135
2800 0.9705817800000001 14.075231040000002 1.44943731 0.209391 -2.158311 0.632343
2820 2.0269323900000003 12.090511079999999 1.07296875 0.238589 -2.079548 0.6239
2840 1.86377247 9.81777933 0.35161983 0.16962 -2.249683 0.606545
2860 1.60870266 8.382115259999999 -0.31075136999999997 -0.196605 -1.798064 0.405787
2880 1.71977148 7.88215842 -0.37916631 -0.454871 -1.293805 -0.264302
2900 1.19930193 6.963373440000001 -0.12453795000000001 -0.327622 -1.616752 -1.130396
2920 1.61259723 6.424343370000001 1.1123362800000003 -0.308299 -1.450354 -1.466964
2940 1.9270960200000002 6.21941247 1.00097316 -0.223373 -0.727641 -1.122261
2960 1.78623423 5.4384874199999995 1.2298404600000001 0.156304 -1.087373 -0.7356560000000001
2980 2.2628432700000003 3.9176529300000005 0.8352626400000002 0.675788 -2.1200080000000003 -0.557652
3000 1.5385023 3.7133302500000003 1.2810388499999998 0.338277 -2.374654 -0.25417199999999995
3020 1.35138636 4.77686178 1.94505813 -0.244602 -1.723942 -0.238781
3040 1.8844323300000003 7.679630970000001 2.45938662 -0.070753 -2.018165 0.194372
3060 1.8841282200000002 9.56630979 4.60352889 0.138697 -2.282561 0.33077
3080 1.13104395 9.680066550000001 7.29598149 0.197556 -2.046219 0.051004
3100 0.3902418 9.31303521 8.069872770000002 0.422513 -1.7003009999999998 0.196342
3120 0.03922038 11.40119181 7.450606710000001 0.783011 -1.2276 0.220687
3140 -0.19159911000000002 15.0910173 5.11531659 0.8698040000000001 -1.336742 0.266298
3160 -0.43080615000000005 13.167217440000002 3.74012136 0.972381 -1.7080919999999995 0.335857
3180 -0.7969447800000001 8.37942732 5.95955538 1.215829 -1.304628 0.459886
3200 -0.33380487 6.00311178 5.96689326 1.121872 -1.474017 0.543836
3220 1.17789651 9.373955310000001 1.3498952400000002 1.096809 -1.316418 0.580847
3240 1.7784549 8.79526341 -1.27594746 1.095199 -0.920298 0.623057
3260 2.0074791600000004 10.746001530000001 0.91758816 1.191279 -0.633265 0.421466
3280 1.54613448 13.1010588 -1.1126403900000001 1.24186 -0.438996 0.280565
3300 4.245326550000001 8.23901679 -0.7836228 1.165822 -0.28525300000000003 0.26060900000000004
3320 5.166956429999999 7.623949410000001 -0.08337519 1.07745 -0.269932 0.23540300000000006
3340 2.3755601700000004 9.831709530000001 1.09078371 1.1546040000000002 -0.107564 0.323328
3360 1.0404878400000002 8.98251669 0.12049623000000001 1.101378 0.215163 0.382363
3380 1.60571061 10.638974430000001 0.97387794 1.10548 0.4260310000000001 0.392804
3400 2.13830532 11.94770691 0.5897772000000001 1.193433 0.516328 0.379416
3420 2.7976844700000005 10.54137474 0.25716915 1.076356 0.486217 0.28570100000000004
3440 3.5423811900000004 8.626864950000002 0.36015453000000003 1.012793 0.166525 0.101933
3460 4.961584080000001 8.23437666 0.72943236 0.935742 -0.197233 0.027085
3480 4.21478802 7.95880395 2.01466008 0.502725 -0.229556 -0.038923
3500 2.7982828800000004 8.19290979 1.72261638 0.095742 -0.310284 -0.010684
3520 1.81811673 8.44977483 0.9686394 -0.420555 -0.240627 -0.199182
3540 1.5762217500000002 8.59018536 0.5138772300000001 -0.940513 0.135044 -0.454328
3560 1.8479097000000002 8.27344989 -0.020208600000000004 -1.6976 0.5992430000000001 -0.797769
3580 2.4219614700000003 9.083863800000001 -0.01032993 -2.378674 0.949995 -1.075372
3600 3.1545428400000004 9.30450051 1.22175702 -2.873916 1.006594 -1.2135
3620 2.9198287800000005 9.139692510000001 1.71828036 -2.830906 0.443569 -1.376984
3640 2.6346716999999997 9.1072116 0.7170129000000001 -2.08217 0.762039 -1.481121
3660 2.4996566700000002 9.80865603 -0.16390548000000002 -2.077414 1.209983 -1.617326
3680 1.4292287099999998 10.59092505 -0.41583609000000005 -1.902899 0.561978 -1.688984
3700 0.28381311 11.63574891 -1.05874425 -1.746995 0.201988 -1.842326
3720 -0.026192700000000003 12.663366030000002 -0.24369021 -1.5525719999999998 0.355381 -1.742888
3740 -0.52810173 12.430898460000002 0.28575549 -1.30879 0.030559 -1.70979
3760 -0.21884148000000003 12.63597651 1.36950543 -1.1890969999999998 -0.7820779999999999 -1.855328
3780 0.8029288800000001 13.987215720000002 1.19616273 -1.486708 -1.754564 -1.891412
3800 0.48483963 14.030320860000002 2.00642949 -1.6014700000000002 -2.088704 -1.615116
3820 1.06084359 12.673990259999998 1.8453591 -1.393901 -2.2869770000000003 -1.22992
3840 2.0838205800000003 11.87165979 2.22976395 -1.12625 -2.325056 -0.997266
3860 2.07633555 10.830426390000001 1.57741857 -0.77081 -2.215688 -0.68407
3880 2.88524853 10.20548034 -2.27661651 -0.284206 -1.768482 -0.255024
3900 2.9779039800000002 11.15405829 -4.09099563 0.323949 -1.397095 0.115148
3920 2.3992120800000003 12.77818227 -0.71341263 0.8752270000000001 -1.40766 0.413842
3940 2.368673550000001 14.55363531 2.25116937 1.131634 -1.55974 0.66045
3960 3.1590260100000003 15.488145720000002 1.27444653 0.78559 -2.029847 0.508016
3980 3.63998088 12.658274640000002 1.5037749000000002 0.22781 -2.095742 0.154896
4000 3.89983797 9.81628821 1.2680111699999999 -0.4169640000000001 -1.880792 -0.02614
4020 3.56588595 8.721315630000001 0.56582118 -0.896842 -1.079585 -0.704566
4040 1.6845928200000002 8.35098813 -0.83975562 -0.963943 -0.7612770000000001 -1.126322
4060 1.33432677 6.545742120000001 -0.03697389 -0.7406689999999999 -0.638604 -0.829023
4080 1.8928100700000001 4.8141397800000005 1.0044066600000001 -1.129148 -0.001941 -0.399922
4100 1.31725737 4.628377620000001 1.0324044 -1.094175 0.429449 -0.152403
4120 1.1931706800000002 4.49081199 1.05335856 -0.06261900000000001 -0.108774 -0.182964
4140 1.46230803 3.7320379200000002 1.6453822500000002 1.445581 0.60256 -0.091088
4160 1.41201216 2.9847905999999997 2.7372058200000002 1.566539 0.789234 0.007795000000000002
4180 0.34997175 3.5970228900000003 3.3552750600000003 0.7839229999999999 0.945382 0.530898
4200 -0.6860231099999999 5.21515296 3.67231464 1.948843 0.956191 0.813554
4220 -1.49793795 8.163725040000001 3.8293335 1.881938 0.464611 0.727191
4240 -1.02970665 10.27163898 6.08050287 1.5667870000000002 0.223423 0.576815
4260 0.5004081 10.90527669 7.84578294 1.489561 0.378232 0.8239049999999999
4280 3.32877825 12.90062088 7.71675201 1.24209 -0.095869 1.051384
4300 4.15505493 14.917978710000002 6.70950045 1.265367 -0.51405 0.913213
4320 4.07437749 11.03190417 7.00542891 1.527293 -0.269497 0.8014979999999999
4340 4.80755727 9.414519660000002 7.54012296 1.706357 0.093433 0.728576
4360 6.91756074 10.985355720000001 6.699621780000001 1.632022 0.043073 0.599935
4380 4.0878466200000005 12.2249277 5.773793220000001 1.464076 0.183203 0.600719
4400 -2.5086328200000003 12.093954390000002 0.7810722000000001 1.367181 0.072415 0.684573
4420 0.03547296 4.34920464 -7.34552199 1.2873290000000002 0.114218 0.689303
4440 4.730911740000001 3.8125682100000002 -2.04549291 1.2715299999999998 0.333974 0.6258859999999999
4460 4.5771792300000005 11.59593993 3.92334273 1.232121 0.498516 0.537806
4480 0.8434932300000001 14.146481070000002 -0.6502460400000001 1.238378 0.445315 0.5165529999999999
4500 0.006582510000000001 12.43164402 1.35797868 1.311457 0.143367 0.57193
4520 1.45706949 8.07795621 0.6497947800000001 1.338494 -0.20101 0.621698
4540 1.88653167 6.7220670600000005 0.3305087100000001 1.09704 -0.112518 0.546191
4560 1.4702443200000002 8.40816081 0.12798126 0.856712 0.231616 0.475705
4580 1.6919307000000001 9.20510559 1.43372169 0.5783159999999999 0.417144 0.408361
4600 1.8070412400000002 9.06949215 1.9956483 0.290441 0.446955 0.39563
4620 1.9296368099999999 9.51945723 0.59635971 0.089238 0.202002 0.28878400000000004
4640 1.76348484 8.51414805 0.12649014 -0.174117 0.329216 0.13936700000000002
4660 1.77965172 7.93035495 0.43110045 -0.5198619999999999 0.405464 -0.246637
4680 1.66214754 8.25503652 0.9586037700000001 -1.240568 0.5397689999999999 -0.706906
4700 1.4299742700000002 9.21753486 0.90201969 -1.960271 0.444946 -1.144442
4720 1.2156257700000002 9.94472073 0.34563573000000003 -2.7954 0.848907 -1.274706
4740 0.7825731300000001 9.370816110000002 -0.19145196 -2.932519 0.8244819999999999 -1.1752200000000002
4760 0.9187849800000001 8.55576207 -0.23815737 -2.758397 0.5939439999999999 -1.216437
4780 1.3757936400000002 8.50530924 -0.1212516 -2.16383 1.285835 -1.064688
4800 1.2289477500000001 8.87833449 0.54112941 -1.939085 2.012029 -1.444336
4820 0.6334807499999999 9.73036242 1.00097316 -1.7731669999999995 1.15498 -1.7123389999999998
4840 1.5182937 10.305767970000002 0.09026181000000001 -1.729046 0.850874 -1.625115
4860 2.9964645 11.55507147 -0.8405011800000001 -1.60206 0.484628 -1.521209
4880 2.03472153 12.413681910000001 -0.18650772000000002 -1.623603 -0.528302 -1.53929
4900 -0.12274272000000001 12.02629482 0.67554603 -1.766877 -1.611992 -1.605131
4920 -0.45370269 12.90346578 0.6767428500000001 -1.708525 -1.996352 -1.440793
4940 -0.22063671 14.565309210000002 0.8652027600000002 -1.513668 -2.275135 -1.157064
4960 -0.14729715000000002 12.89343996 0.5848329600000001 -1.123282 -2.029363 -0.8865290000000001
4980 1.0571059800000002 13.464646830000001 1.8979014600000002 -0.686554 -1.916912 -0.615499
5000 2.5866223200000005 14.08376574 2.8789603200000005 -0.173835 -1.7015919999999998 -0.294931
5020 6.384377430000001 12.028090050000001 -0.7068301200000001 0.401324 -1.348059 0.039782
5040 6.016286610000001 12.67384311 -3.5748621000000003 1.108927 -1.020316 0.315633
5060 5.804478899999999 14.010416370000002 0.41509053000000007 1.570861 -0.697388 0.410313
5080 4.43572884 14.309189730000002 3.7127318400000004 1.322395 -1.046441 0.270156
5100 3.0088937700000002 12.68551701 1.68145362 0.545633 -1.454411 -0.128921
5120 2.8749186 10.707830820000002 1.0867419900000002 0.13742 -1.46229 -0.4682520000000001
5140 2.1920445 8.72311086 0.26808768000000005 -0.056812 -0.664229 -0.608432
5160 1.7371351800000001 7.82093421 -0.23964849 -0.483812 -0.437188 -0.805054
5180 1.2723570000000002 7.10197893 -0.96264549 -0.689316 -0.645021 -0.8671120000000001
5200 1.8064428300000002 5.50001574 0.53183934 -0.441496 -0.8512299999999999 -0.663222
5220 2.46058344 4.269272760000001 0.54740781 -0.10511 -0.8772530000000001 -0.042339
5240 2.4719630400000003 3.7351869300000002 1.31261724 -0.366601 0.783489 0.455771
5260 2.49995097 3.9031341299999998 1.27250415 -0.431975 1.595637 0.144489
5280 2.2459308300000003 3.4994232 1.79910495 0.64873 0.542613 -0.658462
5300 1.2985497000000001 2.9752160400000003 2.5286942700000004 1.137545 1.15858 -0.07686
5320 0.13426947 3.5152859700000003 3.1246027200000004 0.773965 1.957922 0.673741
5340 -0.18875421000000003 5.77633401 2.92327209 3.00806 3.464649 0.7611220000000001
5360 -0.30192237 8.598572910000001 3.77051274 2.556663 2.810861 1.079274
5380 0.039965940000000005 11.255689890000001 6.2186669100000005 1.034619 0.383548 0.688261
5400 -0.21285737999999998 12.81814821 9.26408331 1.275433 0.097031 0.469188
5420 1.32908823 12.016563300000001 8.37732798 1.258805 0.267462 1.018988
5440 2.7538239600000005 13.13114607 7.3054089 1.333781 -0.392154 1.00647
5460 2.26898433 11.33023608 6.6362982299999995 1.543981 0.055723 0.975318
5480 1.69043958 8.25338844 7.521258330000001 1.502874 0.236576 0.80602
5500 3.4982263800000006 8.66727234 8.316103770000002 1.416518 0.22409 0.540514
5520 6.68195397 13.01004162 8.14172121 1.350561 0.501302 0.537561
5540 7.32786399 19.257000570000002 -1.60166889 1.441182 0.563529 0.6150260000000001
5560 4.84916148 11.618836470000002 -5.56033743 1.316618 0.698942 0.691963
5580 3.40721901 -0.6060912300000001 -1.7474651099999998 1.239721 0.444605 0.69282
5600 4.912779330000001 -2.5523461800000002 3.06098487 1.197159 0.155309 0.614913
5620 0.11690577 8.65545129 3.3828117300000002 1.185078 -0.040181 0.495439
5640 -0.6372281700000001 18.50467167 -6.26192901 1.113788 -0.268831 0.46105
5660 0.90426618 17.72913231 -2.32406748 0.961996 0.088774 0.408257
5680 -0.51882147 11.94890373 1.6154421300000001 0.865093 0.678975 0.482668
5700 1.6515135 6.288268860000001 1.47009717 0.77107 0.743901 0.578068
5720 3.2428524600000004 5.9417404199999995 0.27587682 0.651908 0.8751120000000001 0.6358199999999999
5740 2.6144631000000005 7.8144988500000006 1.4202427499999999 0.525967 0.953912 0.4863560000000001
5760 1.11128661 10.140959969999999 0.42257556000000007 0.292068 0.924683 0.273252
5780 0.17408826000000002 11.437861589999999 -0.028439190000000003 -0.164648 0.99717 0.124691
5800 0.29233800000000004 9.89667135 1.86976638 -0.725902 0.8769319999999999 -0.221975
5820 1.0268617500000001 7.88440491 1.4094713700000001 -1.1955559999999998 0.477304 -0.576188
5840 0.6427610100000001 7.78411728 0.55340172 -1.646669 0.834141 -0.976107
5860 0.5427676800000001 8.835827759999999 -0.10657584 -1.949587 1.487344 -1.293117
5880 0.17858124000000003 9.63830538 0.14804271000000002 -2.394345 2.041574 -1.24566
5900 0.58737375 9.897416909999999 -0.44862111000000005 -2.599738 2.055589 -1.109312
5920 1.7735106600000001 9.90265545 -1.37998251 -2.825616 1.895371 -1.339283
5940 2.92820652 9.12532086 0.5641731000000002 -2.94718 1.2393040000000002 -1.535845
5960 3.38745186 9.69234867 0.8797215600000001 -2.837823 0.627421 -1.792806
5980 3.79640133 11.78409573 -1.0645910100000002 -2.900785 0.791972 -1.862892
6000 3.2572241100000006 11.74697469 -0.45146601000000003 -2.952608 0.785021 -2.210417
6020 2.35085859 12.58627905 -0.17064495 -3.186628 0.542424 -2.611256
6040 1.8887683500000003 13.080104640000002 0.22123512000000004 -2.907369 0.6642939999999999 -2.427863
6060 1.0225257300000001 13.867160940000002 0.9430353 -2.569868 0.278629 -2.179321
6080 0.13726152 14.968421730000001 -0.68317821 -2.7856080000000003 -0.39731 -1.854154
6100 -0.41822973 15.1052418 -1.1546958600000001 -2.866029 -1.08873 -1.504521
6120 2.05596999 14.58836271 1.2805875900000003 -2.708827 -1.92129 -1.229959
6140 5.984256960000001 12.27148596 2.86759053 -2.498053 -2.286147 -1.013307
6160 6.50621763 10.07255484 2.4339394800000003 -1.950012 -2.103739 -0.751203
6180 5.02565319 10.84510215 -0.12109464000000002 -0.938974 -1.661009 -0.456288
6200 3.1452625800000003 11.710000800000001 -1.29345831 -0.052103 -1.151477 -0.242443
6220 2.6092245600000004 13.68663732 -0.46718163 0.29125 -1.07326 -0.120504
6240 3.79161405 15.48769446 -0.19489527 0.6855859999999999 -1.192769 -0.146438
6260 3.1759482599999997 14.92950546 1.13015124 1.230551 -0.8428180000000001 -0.22106
6280 3.75449301 13.533503220000002 0.8297199900000001 1.619222 -0.418526 -0.103521
6300 3.74356467 11.811936509999999 2.17991934 2.555517 -0.178024 0.478482
6320 3.8597248800000004 9.64115028 4.7979729 1.888344 0.199342 0.459451
6340 2.22841998 7.77857463 4.58511552 1.456267 0.215381 -0.245409
6360 1.0008162 7.51826628 2.7336153600000004 3.451542 -1.684939 -1.473515
6380 -0.22228479 7.78680522 0.7996327200000001 1.659154 -1.676498 -1.231809
6400 -1.96885719 5.291798490000001 1.6190325900000002 1.764028 0.39714 -0.411203
6420 -0.8210381400000001 3.5278623900000006 1.3798353600000002 2.355459 0.278085 0.34297300000000003
6440 0.43334694 2.05522443 2.51238024 2.037732 0.272381 1.244476
6460 0.68303106 1.91062503 3.8127251699999998 1.7991 0.8738319999999999 1.292245
6480 0.87373746 1.17490446 5.61032919 1.735064 0.667139 1.089101
6500 1.1512525500000002 1.5385023 5.99413563 1.5363209999999998 0.39276 0.879761
6520 0.03922038 2.2103009100000004 4.976102879999999 1.566989 0.37957 0.6887800000000001
6540 -1.11787893 2.41882227 4.16478645 1.803688 0.723222 0.591717
6560 -2.09609289 3.28027761 5.27427783 1.777177 0.6100399999999999 0.680339
6580 -0.9285165000000001 3.18223647 4.224068280000001 1.490968 0.4199100000000001 0.789678
6600 0.37077876000000004 1.08554517 2.84947146 1.16938 0.266884 0.974567
6620 4.802014620000001 8.19905085 11.31302934 1.176958 0.256346 0.939382
6640 3.66318153 28.349693370000004 13.95892368 1.148659 0.504001 0.836318
6660 0.09550035000000001 22.46438988 -5.07100482 1.146843 0.7078949999999999 0.731358
6680 2.7934956000000004 7.387587270000001 8.58001239 1.17106 0.636437 0.7316189999999999
6700 2.49021945 0.9334607400000001 6.943606290000001 1.185133 0.423417 0.710626
6720 4.17257559 2.66894784 1.6408892700000002 1.177059 0.439771 0.6240220000000001
6740 6.5536686 8.28422127 4.145774670000001 1.08801 0.182874 0.476315
6760 6.03065826 13.35073311 3.04706448 0.952461 0.155711 0.460448
6780 2.42451207 12.682672109999999 1.784439 0.841671 0.251734 0.519371
6800 0.11570895 11.830948290000002 1.61499087 0.784044 0.013304 0.521411
6820 -0.23306598000000003 9.936333180000002 3.2430094200000004 0.6697890000000001 0.026345 0.555847
6840 0.07679268 8.31745755 3.5058585600000005 0.322193 0.114742 0.596035
6860 0.51283737 7.6438539 1.62367272 -0.166203 0.324499 0.512238
6880 0.34982460000000004 7.47440577 1.10336013 -0.7006720000000001 0.591425 0.291314
6900 -0.33081282000000006 8.33391873 1.53745263 -1.469974 0.5217729999999999 -0.004527000000000001
6920 0.44307846000000006 9.374102460000001 2.5397697600000004 -1.626607 0.470288 -0.57919
6940 1.2593293200000002 9.38114604 3.09092499 -1.194967 0.546575 -1.115725
6960 1.09033245 9.218427570000001 2.09399355 -1.3225 1.629137 -1.331648
6980 0.41194152000000006 9.27995589 1.00635885 -1.806209 2.064076 -1.521454
7000 -0.29608542000000004 9.472898970000001 0.78436836 -2.223692 0.95798 -1.607343
7020 -1.0264203 10.446776910000002 0.97821396 -2.433019 0.1546 -1.651572
7040 -0.9572598 11.26931598 1.04946399 -2.445334 0.081977 -1.59495
7060 -0.81939987 11.143129950000002 2.6925997500000003 -2.796794 -0.064578 -1.403869
7080 -0.8345170799999999 10.087377750000002 1.73444724 -2.468249 -0.032878 -1.357817
7100 0.5926221000000002 8.95543128 2.42076465 -2.50287 -0.139396 -1.596136
7120 1.93113774 8.89091091 2.7719332199999998 -2.851393 -0.644816 -1.706881
7140 3.22668558 9.862689510000001 2.79962685 -2.805486 -1.208014 -1.563766
7160 3.13672788 11.363168250000001 2.3077534500000003 -2.637238 -1.501502 -1.309046
7180 2.37586428 12.70737369 0.9547190100000001 -2.348101 -1.637979 -0.7310800000000001
7200 0.7807779 14.0412492 -1.3563306 -1.950419 -1.721079 -0.275269
7220 1.0945213200000001 13.49623503 -0.32258223 -1.358622 -1.579128 -0.056605
7240 4.68855216 12.470413140000002 4.55667633 -0.548687 -1.488424 0.001279
7260 6.080208570000001 12.32791308 7.16949135 0.579276 -1.205745 -0.006159
7280 1.5949294200000002 12.92861862 2.41163154 1.4579959999999998 -0.425505 -0.083274
7300 -1.43760645 12.85646607 -0.8672922900000001 2.033247 0.593875 -0.293138
7320 -1.4747373 12.536728740000001 0.028439190000000003 2.636776 0.011552 0.152999
7340 3.2639635800000004 11.908780830000001 0.8467893900000001 2.705546 0.6431560000000001 0.917517
7360 5.88696138 12.14244522 3.96421119 1.185535 1.711396 0.961078
7380 5.68443393 10.11221667 5.29149438 3.578335 0.410578 -0.283179
7400 3.0238638300000003 9.74593089 3.82739112 0.575095 -0.88651 -0.181786
7420 1.4253341400000001 9.899359290000001 2.5812366300000003 1.422674 0.262889 0.15701500000000002
7440 0.10238697000000001 8.565336630000001 2.78555931 1.773197 0.118005 0.121193
7460 -0.6283893599999999 7.91135298 2.8699841700000004 1.102633 0.329071 0.93236
7480 -0.7881157799999999 4.12018038 3.0546966600000003 1.274805 0.441299 0.955852
7500 0.93855213 2.70891378 2.9024650800000003 1.470647 0.5195609999999999 0.6622899999999999
7520 1.32878412 2.4177726 3.26411073 1.599943 0.763105 0.385144
7540 0.7424600400000001 4.28379156 4.04414307 1.581327 0.6672520000000001 0.395819
7560 0.94393782 3.48610122 4.8999086100000016 1.608517 0.52248 0.611975
7580 0.7165616400000001 2.24383149 5.182377750000001 1.36505 0.047069 0.897167
7600 -0.39188987999999997 2.80875996 5.81256234 1.021737 -0.230364 1.043607
7620 -0.79484544 1.6251736500000002 2.6885580300000003 0.736324 -0.334906 1.060976
7640 -0.79319736 -0.70637886 1.6585472700000001 0.933494 -0.201135 1.003429
7660 3.03314409 2.26659069 7.757620470000001 1.34244 0.06287899999999999 0.958946
7680 1.6281657 21.54005244 13.6507131 1.419323 0.31508200000000003 0.95916
7700 2.80606221 24.77004399 -5.36618772 1.287275 0.125949 0.95207
7720 0.16121754000000002 8.41640121 7.06471074 1.305759 -0.121971 0.8638549999999999
7740 -1.08315153 2.7770246100000002 1.9968451200000001 1.344566 0.009706 0.6684720000000001
7760 2.7339194700000005 5.53683267 1.9151180100000003 1.29981 0.369371 0.5405800000000001
7780 4.98808089 12.6501912 3.3983802 1.192599 0.405243 0.454328
7800 3.7895245200000005 14.60722734 2.7584640900000004 0.8870020000000001 -0.090444 0.53615
7820 1.20080286 11.87285661 2.33858628 0.5224880000000001 -0.119516 0.662896
7840 0.37018035000000005 9.5119722 1.9755868500000002 0.172914 0.133373 0.594968
7860 0.67270113 8.664878700000001 2.48677614 -0.326287 0.470258 0.430816
7880 0.56687085 8.713683450000001 1.79476893 -1.182985 0.44555 0.159945
7900 0.12663729 8.908725870000001 1.3216032000000002 -1.757883 0.69245 -0.345383
7920 0.39203703 9.17577369 0.8494871400000001 -1.727391 0.498624 -0.917489
7940 0.92208114 8.613837270000001 1.92425112 -1.821292 0.883754 -1.243378
7960 2.12318811 8.03843172 3.0425714999999998 -2.171273 1.891171 -1.655174
7980 2.98688994 8.23213017 2.07213687 -1.916307 2.014187 -2.002859
8000 2.7318201300000005 9.206459370000001 0.64591002 -1.7248560000000002 1.013967 -1.921192
8020 1.4256382500000002 10.086475230000001 0.58858038 -1.953444 0.295483 -1.867389
8040 0.23500836000000003 11.235186990000003 0.6027950700000001 -2.404036 -0.641938 -2.014613
8060 -0.5828905799999998 11.242819170000002 0.7816706099999999 -2.3806990000000003 0.092917 -1.7226990000000002
8080 -0.32871348000000006 10.158922080000002 1.0901853000000001 -2.131758 -0.025292 -1.681284
8100 0.72988362 9.672287220000001 1.4750316 -2.4899720000000003 -0.528744 -2.0089490000000003
8120 1.2231108000000002 10.13946885 2.68781247 -2.554878 -0.657806 -2.178016
8140 1.8660189600000001 10.90856304 3.13867026 -2.461717 -0.920627 -1.802083
8160 3.21785658 11.226956399999999 2.38170123 -2.230209 -1.476858 -1.165229
8180 2.7205876800000004 13.32274518 1.06263882 -1.916402 -1.686403 -0.451333
8200 0.8809183800000001 15.646067100000002 -0.38096154000000004 -1.420913 -1.576095 0.038028
8220 2.17303272 14.324915160000002 0.78182757 -0.715956 -1.506625 0.168913
8240 5.0507962200000005 12.23001909 4.168082610000002 0.00707 -1.562476 0.18899
8260 3.97139211 10.98550287 5.25152844 0.8289040000000001 -1.409068 0.273583
8280 0.25282332 12.087067769999999 3.77335764 1.503313 -0.743074 0.438742
8300 -2.5924592700000004 12.54646026 -0.28695231 2.119503 0.193978 0.53478
8320 -0.51882147 10.88387127 -0.5402268900000001 2.547564 0.454773 0.745739
8340 3.2382123300000005 12.89104632 -0.51133644 2.0873470000000003 0.372314 0.986185
8360 4.73105889 13.00764798 3.6256092300000002 1.420412 1.961965 0.700684
8380 5.37442812 9.55402767 6.41386629 4.3188879999999985 0.437724 -0.520528
8400 4.034862810000001 9.33712857 3.1253482800000003 0.728622 -0.666666 -0.413867
8420 2.0755801799999998 11.043283770000002 1.17640539 1.125978 0.331406 -0.468987
8440 -0.26001405 10.945536930000001 4.40129574 1.433736 0.156039 -0.038255
8460 0.26884305000000003 8.32449132 4.43377665 1.025395 -0.289275 1.1206200000000002
8480 0.11376657 3.7729063800000002 2.90949885 0.824108 0.403296 1.259332
8500 0.45924534000000006 3.2010912900000004 3.86197137 1.246987 0.728748 1.023655
8520 0.74844414 5.165308350000001 4.366568340000001 1.641887 0.86215 0.887374
8540 0.7349750100000001 6.707852370000001 4.64274927 1.580728 0.785552 0.648832
8560 0.60788646 5.65868268 4.01749911 1.444381 0.26760500000000004 0.5566760000000001
8580 0.14594337000000002 3.1151753100000006 3.9906981900000003 1.246868 -0.202701 0.59115
8600 -0.45849978 1.09003815 3.57681429 0.8698819999999999 -0.193237 0.682508
8620 -1.3769904600000002 0.40880232000000005 2.0281292100000003 0.701371 -0.108782 0.753862
8640 -1.19601558 -0.18336852 -0.03143124 0.767792 -0.297518 0.741749
8660 1.7209683 1.0743127199999998 1.8958119300000003 1.135703 0.327783 0.693311
8680 5.51962593 9.150620850000001 15.82300026 1.172175 0.602524 0.686805
8700 -1.4879023200000001 23.1743592 -7.67678607 0.966273 0.407069 0.726209
8720 5.614370910000001 22.78217502 3.3973305300000005 0.8473149999999999 0.245733 0.682856
8740 -0.5613282000000002 8.34410151 5.348382570000001 0.7352029999999999 0.084771 0.5402060000000001
8760 0.46463103000000006 3.62216592 2.84693067 0.622887 0.135719 0.417579
8780 4.79617767 4.88284902 2.08605726 0.5848760000000001 0.064166 0.495385
8800 5.0379255 10.118808990000002 3.30512634 0.5529930000000001 0.011446 0.653327
8820 3.6952111800000003 12.318181560000001 3.2729397300000005 0.646809 0.016363 0.674272
8840 2.21658912 12.18675699 1.47398193 0.5839409999999999 -0.01624 0.623668
8860 0.8012807999999999 10.96619679 0.27049113 0.137244 0.230588 0.557207
8880 -0.34488036 9.857303820000002 0.05538726 -0.582397 0.28542199999999995 0.256212
8900 -0.90322632 9.54684675 0.5644772100000001 -0.961435 0.269282 -0.173703
8920 0.20926692000000002 9.02249244 0.5966638200000001 -1.067348 0.2766 -0.579309
8940 1.4292287099999998 8.54916975 1.30438665 -1.441093 1.042038 -0.930072
8960 2.79154341 8.78298129 1.75150683 -1.947782 1.506034 -1.439475
8980 3.2718998700000004 8.844803910000001 3.04795719 -2.321628 1.712451 -1.852548
9000 2.92851063 9.20345751 1.4229405000000002 -2.217144 1.000419 -1.835951
9020 1.51290801 9.50972571 0.2168991 -2.314984 0.8962180000000001 -1.534194
9040 0.40461345 10.36175364 0.28979721 -2.265325 0.875453 -1.446226
9060 0.13876245 11.83917888 0.21495672000000002 -2.66838 -0.107009 -1.293959
9080 0.74724732 11.787391890000002 0.8122091400000001 -2.518585 -0.223747 -1.268194
9100 2.25416142 10.323131670000002 2.81175201 -2.637511 -0.34177 -1.752778
9120 2.28515121 9.70985952 2.6473952700000005 -2.62994 -0.32271500000000003 -1.995235
9140 1.5045204600000002 9.79398027 1.4027319 -2.644818 -0.692684 -1.902998
9160 2.12707287 10.21057173 1.0044066600000001 -2.549936 -0.972855 -1.452255
9180 3.18193236 11.179348469999999 1.13852898 -2.421293 -1.372314 -1.036374
9200 2.29128246 13.51329462 0.05478885000000001 -2.263289 -1.6239 -0.595909
9220 1.1362824900000001 14.80660578 0.00928026 -1.739193 -1.434405 -0.22075
9240 2.9660829300000007 12.9883419 2.1574642500000003 -1.052527 -1.318323 -0.008867
9260 3.4615467900000003 11.40238863 4.51311012 -0.200701 -1.093826 0.120709
9280 1.25947647 10.87638624 2.7243351000000002 0.608614 -0.854181 0.228604
9300 -0.55190079 12.042903149999999 2.0707929000000003 1.068244 -0.313999 0.341149
9320 -1.47533571 12.522062790000001 1.24107291 1.467118 0.238005 0.213973
9340 0.09310671 11.4122673 1.24031754 1.83066 -0.185557 0.32708200000000004
9360 3.93172047 9.90026181 1.43446725 2.206751 0.09479 0.488515
9380 6.25444398 10.93551111 1.39779747 2.427028 0.653619 0.940127
9400 4.96187838 9.62289387 2.5882704000000003 3.326603 0.944124 0.239944
9420 2.7759749400000002 11.366317259999999 3.3223428900000003 2.196109 -0.38271 -0.23627
9440 1.7944648200000002 11.569894380000001 4.366872450000001 1.099324 -0.753346 -0.370575
9460 1.5606532800000001 9.25944318 3.4546699800000003 1.48794 0.133385 -0.014347
9480 1.29974652 6.4574226900000005 2.63362203 1.767261 0.252345 0.6294529999999999
9500 0.47780586 5.1422548500000005 2.6885580300000003 1.501757 0.467942 1.288552
9520 0.20447964000000002 4.76294139 3.0192237 1.343358 0.661992 1.117349
9540 0.58962024 3.1290956999999997 3.3838614000000002 1.18038 0.24486 0.878532
9560 0.75742029 3.3260805 4.21478802 1.278957 0.428232 0.491221
9580 1.0027683900000002 4.40653428 5.01396948 1.406649 0.7561829999999999 0.419054
9600 1.72710936 3.93771438 5.00813253 1.285744 0.45943 0.674963
9620 1.9353266100000002 3.32548209 4.80919554 1.141249 0.08201699999999999 0.876331
9640 0.15612615000000002 4.0371093 4.82611779 0.954445 -0.106171 0.946838
9660 -1.28702295 4.62403179 4.352647950000001 0.829608 -0.15349300000000002 0.901162
9680 -1.53250839 3.53505312 4.56610374 0.922532 -0.018022 0.775587
9700 0.89962605 4.628377620000001 5.770349909999999 0.973195 0.215576 0.6559999999999999
9720 4.69588023 10.85782572 10.303668629999999 0.926732 0.31590100000000004 0.649138
9740 0.99288972 20.60704296 0.35790804000000004 0.967493 0.466618 0.751779
9760 3.4578091800000004 21.79243431 3.4353540899999997 0.818229 0.529824 0.792316
9780 0.43424946000000003 8.037686160000002 4.22331291 0.55492 0.50122 0.71467
9800 1.64178198 2.1139078500000004 4.33124253 0.310232 0.00636 0.537338
9820 3.9049293600000006 2.53962261 2.8586045700000002 0.185155 -0.14197 0.443719
9840 4.5334756800000005 8.502317190000001 2.18769867 0.171938 0.006138 0.446642
9860 3.2337291600000007 13.42168884 2.24757891 0.039948 0.4543930000000001 0.351142
9880 1.40751918 13.387707 2.22063084 -0.366845 0.5010439999999999 0.226463
9900 0.5343899400000001 9.699980850000001 3.1599285300000006 -0.930508 0.317018 0.11594000000000003
9920 0.6905160899999999 7.6119714 2.5611751800000007 -1.518786 0.510508 -0.07535599999999999
9940 0.73662309 7.11350568 1.4569223400000002 -1.7706099999999998 0.97351 -0.55734
9960 0.09640287000000002 8.23287573 1.2835796400000001 -1.778275 1.207406 -1.23281
9980 -0.22632651000000004 10.014322680000001 1.01758149 -1.633706 1.972885 -1.776506
10000 0.49980969000000003 10.44797373 2.06345502 -1.5183870000000002 2.263176 -1.744026
10020 1.34375418 10.358006220000002 2.5831790100000003 -1.684781 1.571282 -1.7336189999999998
10040 2.2878391500000004 10.471174379999999 2.11106295 -2.073147 1.671286 -1.630706
10060 3.10903425 10.45426194 2.26404009 -2.734308 0.690963 -1.2569860000000002
10080 2.368673550000001 10.928918789999999 1.8053931600000002 -2.922702 -0.424459 -0.8082189999999999
10100 0.7234482600000001 12.11266206 1.2361286699999998 -3.008921 -0.435654 -0.8643540000000001
10120 0.2870994600000001 13.227244830000002 0.8961827400000001 -3.040916 -0.1409 -1.286903
10140 1.29735288 12.876968970000002 2.29218498 -2.95165 -0.370701 -1.438741
10160 1.10934423 11.02262391 3.47367195 -2.634892 -0.751518 -1.3185360000000002
10180 0.80233047 10.7732439 3.8160115200000004 -2.2464310000000003 -0.974189 -0.849793
10200 1.3861137600000002 10.08437589 2.45759139 -1.66705 -0.649249 -0.294959
10220 3.55675284 9.721386270000002 2.2043168100000003 -0.931763 -0.41385 0.1393
10240 3.03748011 11.20495257 2.5300382400000005 -0.39709 -0.497151 0.260646
10260 1.34255736 12.147389460000001 2.1571601400000002 0.310587 -0.689124 0.235925
10280 2.4876786600000003 11.39401089 2.25820314 0.936042 -0.622101 0.248754
10300 3.51020439 10.99568565 3.80508318 1.296404 -0.483629 0.206228
10320 4.72717413 11.256141150000001 6.10954047 1.603098 0.15520799999999998 0.022749
10340 3.8107729800000003 11.17336437 3.7450656 1.9098580000000005 0.188597 -0.06808600000000001
10360 3.3678416700000002 11.323506420000001 1.02865698 2.6326110000000003 0.347887 0.229451
10380 3.7456640100000005 9.5757372 1.37443986 2.4663 0.722891 0.10069
10400 3.53369934 8.178989399999999 2.77972236 1.869273 0.462845 -1.214923
10420 4.68226395 8.415949950000002 1.9264976100000002 1.456434 -1.781577 -0.619931
10440 2.06091423 10.482397020000002 4.096234170000001 1.1410870000000002 -0.680253 -0.570134
10460 1.3542312600000002 11.9183652 6.59633229 2.625938 0.786597 0.015198
10480 1.35797868 9.870920100000001 4.467160080000001 2.277055 1.2325780000000002 0.941542
10500 1.8652734000000002 5.170546890000001 2.14084611 2.537835 1.634201 1.244088
10520 0.9693849600000001 1.1118850200000001 2.2796085600000007 2.512827 1.635773 0.873238
10540 0.21106215 -0.47930679000000004 4.31133804 2.390901 2.100213 0.45198
10560 -0.14759145 1.3358178900000002 4.89437577 2.320668 2.351967 0.42553
10580 -0.0290376 3.6956624400000004 4.73944644 2.442726 2.433627 0.411323
10600 0.11900511 3.5236735200000004 4.83150348 2.631539 2.678991 0.426214
10620 0.5559425100000002 3.0596409 5.2238348100000005 2.500126 2.608304 0.634758
10640 -0.31225230000000004 3.9457978200000006 5.011124580000001 1.928984 2.0225 0.8387540000000001
10660 -2.6587748700000002 5.195101320000001 6.80335272 1.359733 1.443791 0.8654299999999999
10680 -2.85171795 5.39507817 6.25953537 1.28851 1.53965 0.6650520000000001
10700 -1.4555685600000001 2.70023193 6.12481464 1.3880629999999998 1.841769 0.417533
10720 1.9639129500000003 4.792587210000001 5.523667649999999 1.162324 1.817483 0.293142
10740 1.9552311 25.88807007 13.69022778 1.047868 2.127208 0.193669
10760 8.188573770000001 24.703728390000002 -2.82117942 1.040673 2.127477 0.13273
10780 6.7099419000000005 6.439009320000001 7.301965590000001 0.751402 1.771966 0.044639
10800 4.34935179 -3.1069349100000005 3.40062669 0.492112 1.754796 0.034304
10820 6.48825552 1.7465724 3.23417061 0.5392819999999999 1.653087 0.120221
10840 6.62971572 11.449241190000002 2.74514211 0.600522 1.562119 0.17204
10860 6.33123666 15.137418600000002 1.3939029000000003 0.595173 1.613053 0.226417
10880 4.10491602 11.94366519 1.4747373 0.571921 1.547656 0.350252
10900 1.33342425 8.070314220000002 1.4635048499999999 0.609484 1.482051 0.473444
10920 0.28590264 8.049212910000001 1.1876280300000004 0.687301 1.265386 0.509517
10940 -0.04355640000000001 9.0206874 1.1454156 0.691743 1.019483 0.461793
10960 -0.03876912000000001 8.90932428 0.40117014 0.6979380000000001 0.808137 0.295464
10980 -0.5032530000000001 7.730819550000001 -1.03374837 0.628686 0.955833 0.183696
11000 -0.76850559 8.53151175 -0.92372922 0.442121 1.1496 0.107369
11020 -0.0953532 9.150768 0.8467893900000001 0.384563 1.17213 0.11762
11040 0.8469365400000001 8.287517430000001 0.29578131 0.125591 1.073656 0.19285
11060 1.2802834800000003 7.84039725 -0.6050415600000001 -0.098097 0.8860020000000001 0.161617
11080 1.26427356 9.333989370000001 -0.15478218000000002 -0.255442 1.160565 -0.164573
11100 0.77987538 9.91807677 -0.5611810500000001 -0.5312279999999999 1.360192 -0.5630649999999999
11120 -0.5215192200000001 10.32537816 -1.2960089099999998 -0.854987 1.782722 -0.984611
11140 -0.8672922900000001 10.11670965 -0.86265216 -1.233232 2.399536 -1.194211
11160 0.43769277 9.53801775 -0.84873177 -1.851375 2.590063 -1.151771
11180 0.97656588 9.80535987 -0.83212344 -2.116518 3.134566 -0.958836
11200 0.6273495000000001 10.174941810000002 -0.91160406 -1.832287 3.841441000000001 -0.822092
11220 0.7430584500000001 9.68321556 -1.33702452 -1.533436 3.328266 -0.8866450000000001
11240 0.68048046 9.345516120000001 -0.7125199200000001 -1.411154 2.676237 -0.97255
11260 0.26449722000000003 8.99494596 -1.04108625 -1.370034 1.6851169999999998 -0.904763
11280 0.14534496 9.274413240000001 -1.0656308700000001 -1.210414 1.472102 -0.786939
11300 0.04445892 9.992318850000002 0.65204127 -1.0905200000000002 1.612206 -0.496792
11320 0.02410317 9.44520534 2.6816714100000003 -1.193852 1.344488 -0.324119
11340 -0.06242103000000001 9.58905918 2.21060502 -1.269968 0.8841680000000001 -0.227921
11360 0.44008641 10.6198155 0.8753757300000001 -1.5400049999999998 0.241301 -0.13391199999999998
11380 0.7885572300000001 11.51240778 1.0629429300000002 -1.523964 -0.154257 -0.06279
11400 -0.36269532000000004 11.775109770000002 0.63572724 -1.3046209999999998 0.013291 0.204515
11420 0.26569404 12.685369860000002 1.76857623 -0.987802 0.406843 0.6121479999999999
11440 1.8383253300000002 13.684390830000002 2.7732870000000003 -0.688814 0.694738 1.083885
11460 2.30535981 12.572652960000001 2.9193775200000003 -0.465631 0.738815 1.322532
11480 3.1195113300000004 11.96880822 2.80052937 -0.169909 0.828147 1.370417
11500 3.8154131100000006 11.67976638 3.87170289 0.070656 0.7111689999999999 1.377589
11520 5.18446728 10.42791228 3.8218484700000004 0.400503 0.661377 1.289157
11540 6.449192100000001 9.41033079 2.8228275000000003 0.816174 0.6838569999999999 1.168118
11560 8.12211102 10.643918670000001 0.32811507000000006 1.105097 0.853275 0.908205
11580 7.79624244 12.62160486 -0.66282246 1.222802 0.8319559999999999 0.80971
11600 5.081187600000001 12.778623720000002 -0.05598567000000001 1.257162 0.6675770000000001 0.595448
11620 2.2987674900000004 11.805795450000002 1.0554579000000002 1.21869 0.298533 0.477079
11640 1.88622756 10.045763730000001 2.45938662 1.133864 0.113621 0.173349
11660 2.4141821400000003 7.9117944300000005 1.18209519 0.670288 0.627833 -0.14460499999999998
11680 2.13321393 6.94555848 0.7439511600000001 -0.102794 1.002019 -0.341697
11700 1.85927949 7.626038940000001 0.34248672 -0.465679 1.251318 -0.299686
11720 1.95104223 7.936348860000001 1.31337261 -0.084698 0.596943 -0.023789
11740 2.2031199900000003 7.05198717 2.4650764200000004 0.550728 0.626283 0.34594400000000003
11760 3.0238638300000003 6.258780000000001 3.30976647 1.062175 1.0258200000000002 0.420575
11780 4.21058934 6.03096237 3.1870237500000003 1.580339 1.062971 0.537378
11800 3.4271235 6.196064669999999 2.6345245500000005 0.771727 1.194132 0.40658
11820 1.8152718300000001 6.5430443700000005 2.5945586100000004 -0.024055 1.37386 -0.158957
11840 0.62374923 6.71952627 2.7195478200000003 0.426368 1.879304 -0.408559
11860 -0.46912401000000004 6.32868606 2.74978224 0.999804 1.985262 0.30140500000000003
11880 -1.0265674500000002 6.389910270000001 3.10709187 1.369126 1.540014 0.7703
11900 -1.06758306 7.0626114 3.2723413199999998 2.1083380000000003 2.459849 0.53714
11920 -1.0990143 7.916885820000001 3.74640957 1.846704 3.71388 0.181192
11940 -1.9592728200000002 8.35711938 4.39411482 1.302837 2.699875 -0.18023
11960 -1.90658331 8.9566281 4.912779330000001 1.25806 1.155049 0.16860899999999998
11980 -1.30947804 10.79524773 5.387750100000001 1.686451 1.733159 0.14736
12000 -0.25911153 12.823386750000001 5.698197360000001 1.587242 2.321091 0.258077
12020 1.33521948 14.813943660000001 6.86682342 1.154832 2.4878240000000003 0.495192
12040 0.9135464400000001 14.155614180000002 9.11694312 0.98861 2.293475 0.490008
12060 1.5383551500000001 9.24148107 7.81824627 1.016564 2.239459 0.387723
12080 3.75913314 6.637200750000001 4.32600399 1.042437 2.163216 0.251269
12100 4.4839253700000015 6.15265542 3.17729223 0.89299 2.066049 0.171301
12120 2.54486115 3.10963266 2.5276446 0.716481 1.7841220000000002 0.231318
12140 3.78173538 8.773102620000001 0.86969574 0.685092 1.789135 0.336846
12160 7.77273768 17.9050158 1.68639786 0.619791 1.5558530000000002 0.3901
12180 8.97937749 19.47749994 4.61759643 0.639239 1.589955 0.369896
12200 3.44702799 4.33214505 2.17901682 0.702533 1.622937 0.325431
12220 6.0116464800000005 -1.9742428800000003 -0.9695321100000001 0.782088 1.582991 0.389063
12240 4.75965504 4.014654210000001 0.33949467 0.678247 1.541659 0.425778
12260 1.1570895 14.940433800000001 1.09407006 0.543281 1.309287 0.31190100000000004
12280 0.95216841 17.72045046 -3.46619673 0.479814 1.111696 0.229458
12300 1.9422132300000001 11.760895080000001 -1.2590350200000002 0.378095 1.295169 0.256286
12320 2.3192802 6.63809346 2.75487363 0.193098 1.457657 0.275082
12340 2.5361793000000006 7.08865695 1.05410412 0.084458 1.6458849999999998 0.184351
12360 1.49973318 8.72655417 -1.4413538700000001 -0.073685 1.758575 0.1126
12380 0.8408052900000001 8.95706955 -2.3125407300000003 -0.569505 1.916408 -0.033139
12400 0.20896281000000003 10.671612300000001 -1.3566249000000001 -1.153254 1.879986 -0.275384
12420 -0.30371760000000003 11.26302777 0.41164722000000004 -1.720228 1.497465 -0.560864
12440 -0.30880899 11.10405672 0.67464351 -1.937149 1.844534 -0.8523120000000001
12460 -0.12334113000000002 10.731933990000002 -0.36793386 -1.78093 2.755471 -0.7530439999999999
12480 0.18531090000000003 10.013125859999999 -0.89543718 -1.622906 3.338367 -0.671502
12500 0.5680676700000001 9.49221486 0.31285071000000003 -1.687555 2.405621 -0.990157
12520 0.82373589 9.552232440000001 0.03532581 -1.886323 0.8384010000000001 -1.30039
12540 1.53116442 9.836948069999998 0.45549792000000006 -2.383605 0.332025 -1.309624
12560 2.44217007 9.997106129999999 0.09729558 -2.601825 0.549558 -1.440681
12580 2.42855379 9.54894609 -0.057633750000000004 -2.721334 0.758757 -1.7045669999999995
12600 1.19616273 10.41444315 -0.006582510000000001 -2.585421 1.208306 -1.822766
12620 0.01511721 11.736340649999999 -0.00628821 -2.27342 0.875656 -2.022055
12640 0.59081706 11.28818061 1.1379305700000002 -2.683989 0.280119 -2.186529
12660 1.7052526800000003 10.95617097 2.20161906 -3.069223 -0.086463 -1.821282
12680 1.79221833 11.68500492 2.24742195 -2.966161 -0.8792260000000001 -1.329232
12700 1.44539559 12.3638373 1.7143857900000001 -2.8155330000000003 -1.691757 -0.99599
12720 2.10896361 12.39332616 1.4906000700000002 -2.591005 -1.451151 -0.6219210000000001
12740 2.34592416 12.56382396 1.1017120500000002 -1.83147 -1.645692 -0.316196
12760 1.7061552 13.197304710000001 0.09026181000000001 -0.958014 -1.7698619999999998 -0.125133
12780 0.73077633 13.39983216 0.17035065000000002 -0.132943 -1.720302 0.08566499999999999
12800 3.06323136 12.922928820000001 3.97468827 0.687702 -1.750444 0.25167
12820 5.1802784100000006 12.230911800000001 6.2662650300000005 1.363042 -1.320009 0.449183
12840 4.891972320000001 11.151360539999999 2.82717333 1.993895 -0.405533 0.583809
12860 2.49636051 10.220744700000001 -1.10590092 2.381683 0.233141 0.6369739999999999
12880 -1.48476312 10.96918884 -1.12940568 2.09369 0.620297 0.771199
12900 -1.0623445200000001 10.93087098 0.0375723 2.21278 0.966255 0.732063
12920 1.9959524100000001 10.79734707 2.13486201 3.379164 1.364025 -0.117013
12940 3.46903182 12.154727339999999 4.7901935700000005 2.392811 0.458008 -0.194313
12960 4.28349726 11.816429490000003 6.1769057400000005 0.914011 0.016597 -0.14746099999999998
12980 3.7224633600000003 10.36474569 2.9303058600000003 1.367341 0.208038 0.069105
13000 3.07834857 10.10637972 1.57277844 1.425458 0.116307 0.580238
13020 1.8851778900000002 9.54774927 3.5579496600000002 0.957343 0.413222 1.059424
13040 -0.24264054000000002 9.29208105 5.31933516 1.159358 0.8253659999999999 0.913961
13060 -0.9951264000000001 9.22920876 4.449345120000001 1.360427 0.843146 0.822407
13080 -1.0720662300000001 5.867498340000001 4.4619215400000005 1.229169 0.619703 0.6038600000000001
13100 0.15732297 4.8907755 4.78988946 1.252827 0.5975060000000001 0.53996
13120 0.09504909 4.80531078 6.53450967 1.075396 -0.007677 0.720026
13140 0.5652227700000001 4.72582035 6.50936664 0.842609 -0.350598 0.8972319999999999
13160 1.1124834300000002 3.26905497 4.6783693799999995 0.725065 -0.565631 0.96078
13180 0.43948800000000005 0.45415395000000003 4.328996040000001 0.800656 -0.378346 0.946113
13200 -0.49591512000000004 -0.8360082000000001 4.7322557100000004 1.1212950000000002 0.169372 0.8931709999999999
13220 -0.95396364 -0.8659483200000001 4.0140558 1.211836 0.255822 0.7740520000000001
13240 -0.08562168 -0.9424368900000001 1.8143791200000001 1.198674 0.252364 0.850877
13260 2.4468102000000003 1.63160901 2.93764374 1.165777 0.086167 0.882906
13280 3.6435713400000003 8.40801366 8.896002300000001 1.014439 -0.252577 0.744483
13300 -1.30723155 18.124906950000003 -2.68721406 0.8934850000000001 -0.529431 0.5538489999999999
13320 5.863603770000001 21.987172620000003 3.7071891900000002 0.5903 -0.503083 0.621132
13340 1.40019111 12.51158571 5.154831270000001 0.268802 -0.326273 0.6400239999999999
13360 0.8849601 4.525088129999999 2.1514801500000003 -0.095821 0.034681000000000003 0.467167
13380 2.65637142 4.4917047000000005 2.55278763 -0.62417 0.459315 0.228992
13400 3.5956691100000002 10.77758973 4.12227972 -1.0965120000000002 0.809005 0.036169
13420 2.35849077 13.09926357 3.2921084700000005 -1.678977 0.999719 -0.26510900000000004
13440 1.41590673 13.465402200000002 2.5950000600000007 -1.739218 1.121175 -0.748522
13460 -0.17887554 11.34999342 2.50069653 -1.608259 1.784015 -1.453483
13480 -1.2907703700000002 9.18220905 2.71325961 -1.268741 2.063896 -1.941784
13500 -1.88682597 8.60725476 1.8964103400000003 -1.254339 1.686821 -1.962565
13520 -0.9654903900000001 9.09733293 2.2558095 -1.845718 0.672691 -1.7197049999999998
13540 0.43738866000000004 9.71390124 2.20625919 -2.290148 -0.359395 -1.908425
13560 1.3817777400000002 9.68919966 3.9176529300000005 -2.699941 0.5774100000000001 -1.6603880000000002
13580 2.24368434 9.936637290000002 3.82454622 -2.319409 0.561033 -1.358607
13600 2.06825211 10.28406825 2.53453122 -2.392168 -0.371197 -1.533109
13620 0.6191091000000001 10.505009070000002 1.32414399 -2.492997 -0.618653 -1.899896
13640 -0.38469915000000005 11.522884860000001 1.34480385 -2.397732 -0.691806 -1.8040650000000005
13660 -1.3201022700000002 12.93250338 2.01001995 -2.140956 -1.17119 -1.491873
13680 -0.47855142 12.16834362 4.26328866 -1.682878 -1.327971 -0.778105
13700 0.4340925 9.91912644 3.7570338 -1.112369 -1.291785 -0.199463
13720 1.13568408 9.19747341 3.75119685 -0.434842 -1.265335 0.057336
13740 2.2763124 9.07637877 3.8627169300000004 0.39154 -1.215562 0.213664
13760 2.88046125 9.24162822 3.8097233100000003 1.102963 -1.32844 0.385421
13780 2.1371085 10.04770611 2.54754909 1.620877 -0.8683879999999999 0.505953
13800 0.47287143000000004 11.41391538 1.62950967 1.962049 0.223569 0.464208
13820 0.55489284 12.264295230000002 2.1198919500000004 2.121743 0.420058 0.738537
13840 3.21785658 12.04650342 4.54814163 1.6835189999999998 0.462246 0.957612
13860 3.81646278 12.630139560000002 4.24756323 2.231851 0.976572 0.5334939999999999
13880 3.19795209 11.84905755 1.2600748800000001 2.731884 0.536339 0.169014
13900 3.24121419 9.56361204 -1.7452186200000002 1.404849 0.181532 0.005307
13920 2.1016257300000003 12.014169660000002 1.7178290999999999 1.132631 0.21098000000000006 0.06959800000000001
13940 2.39846652 10.38689667 8.00805015 1.19771 0.052882000000000005 0.388585
13960 3.8585280600000003 9.581427000000001 5.36514786 0.935461 0.220663 0.7486659999999999
13980 3.56273694 11.0940309 1.3930003800000001 0.8598 0.419412 0.928412
14000 0.68408073 12.24573471 3.5465700600000005 1.112443 0.638926 0.958737
14020 -2.00478141 10.8193509 5.69326293 1.128779 0.396306 0.8790459999999999
14040 -0.69231132 6.26522517 4.605471270000001 0.952611 0.052083 0.800276
14060 -0.36733545 2.41567326 3.9555293400000004 0.836364 -0.296435 0.678133
14080 0.12453795000000001 2.4029496900000002 4.42585017 0.718175 -0.5026010000000001 0.656208
14100 0.11855385 4.414019310000001 5.019060870000001 0.8089350000000001 -0.46041 0.682425
14120 0.09415638000000001 4.4262916200000015 4.782551580000001 0.902373 -0.450524 0.793092
14140 -0.16016787000000002 2.0517811200000002 3.71617515 1.084358 -0.195968 0.912609
14160 -1.0659349800000002 0.35176698 4.4048862 1.380068 0.079981 0.912185
14180 -2.98509471 0.57884886 5.134769820000001 1.404857 -0.050276 0.9638
14200 -2.5379745300000005 -0.20223315000000003 2.08486044 1.402381 -0.364521 0.963117
14220 3.5046617400000004 3.43430442 2.98509471 1.243656 -0.712715 0.79688
14240 5.157676169999999 11.13459525 8.952282270000001 1.052671 -0.671854 0.6010770000000001
14260 2.02648113 16.032708630000002 -0.65309094 0.6569010000000001 -0.538983 0.483843
14280 2.32631397 18.63384975 4.160597580000001 0.180874 -0.5714560000000001 0.49231
14300 -0.34338924000000004 11.180398140000001 3.25513458 -0.410859 -0.232823 0.5037659999999999
14320 1.3979446199999999 6.6259683 3.10065651 -0.759666 0.553153 0.322997
14340 2.9026122300000003 6.3384175800000015 3.58848819 -1.049684 1.4407709999999998 -0.018792
14360 3.34300275 9.111106170000001 3.8040433200000003 -1.485746 1.897393 -0.343958
14380 2.32885476 10.945684080000001 3.4163423100000005 -1.839 1.285367 -0.697086
14400 0.8442486 11.335474620000001 2.04998589 -1.65504 1.337967 -1.222502
14420 -0.53408583 10.9756242 1.94759892 -1.161952 2.128445 -1.660178
14440 -1.23462774 10.64466423 2.33588853 -0.861326 1.3804610000000002 -1.880378
14460 -0.83511549 10.09725642 2.61176535 -1.3467209999999998 0.8032 -1.755911
14480 -0.23650929 9.19657089 2.21689323 -1.986067 0.7594390000000001 -1.979306
14500 -0.27168795 8.95677525 2.37481461 -2.248373 0.351044 -2.185714
14520 0.81880146 9.59085441 3.7050996600000006 -2.253295 0.425918 -1.72544
14540 1.91721735 11.235785400000001 3.4233858900000005 -2.116978 -0.143145 -1.526138
14560 2.4804879300000002 12.69465012 2.19757734 -2.331335 -0.747938 -1.6774790000000002
14580 2.1278282400000004 13.493537279999998 1.00066905 -2.2507040000000003 -0.8812469999999999 -1.70986
14600 1.07461683 13.72975227 0.99707859 -2.14996 -1.21614 -1.432058
14620 0.34952049 12.321477719999999 2.3460713100000006 -1.937089 -1.315895 -1.179411
14640 0.3529638 10.21640868 3.4166464200000006 -1.592228 -1.361209 -0.803066
14660 0.17064495 8.681948100000001 3.7034515800000003 -1.173456 -1.413943 -0.499903
14680 -0.07648857 7.973764200000001 4.117933890000001 -0.684653 -1.388856 -0.27112600000000003
14700 -0.27108954 7.4241099 4.6768782600000005 -0.141515 -1.211351 -0.110531
14720 0.8705884500000001 7.28086428 4.153858110000002 0.407766 -1.064867 0.076852
14740 1.63534662 8.18977059 2.01256074 0.862067 -0.935052 0.252911
14760 1.70016129 9.989032500000002 -0.62465175 1.358661 -0.301016 0.305774
14780 2.82358287 11.674518030000002 1.8242577900000003 1.581649 0.165902 0.297119
14800 5.7088314 14.97036411 5.932764270000001 1.232811 0.072824 0.432602
14820 5.65359129 15.55250913 3.1985505 1.156831 0.093993 0.26647
14840 4.10671125 13.544431560000001 0.22857300000000003 2.386238 -0.091504 -0.231042
14860 2.67972903 10.55679606 -0.2721294 1.322526 -0.142895 -0.04399
14880 1.62412398 12.390932520000002 1.9422132300000001 1.493049 0.096031 -0.001444
14900 1.14332607 9.66509649 7.617661200000001 1.927525 0.292094 0.141276
14920 3.5434308600000004 8.7801462 5.21890038 1.482893 0.434142 0.700941
14940 2.6976911400000003 10.085425560000001 0.74799288 1.533858 0.505894 0.828324
14960 0.73617183 10.461295710000002 3.48834771 1.201585 0.380368 0.805867
14980 -0.59485878 8.92309752 4.7083095 0.944648 0.323069 0.70587
15000 -0.61611705 6.920562600000001 4.12691985 1.154736 0.526924 0.693189
15020 -0.5695686 3.74461434 3.7003025700000003 1.340514 0.6271979999999999 0.763793
15040 0.22857300000000003 2.42480637 3.5341506000000003 1.2870629999999998 0.43854 0.8363
15060 0.7143151499999999 2.92791222 4.0228848 1.015549 -0.056257000000000015 0.932246
15080 0.9081607500000001 3.81557007 4.48677027 0.8800290000000001 -0.529859 0.938316
15100 0.6963530400000001 3.24435339 4.15715427 1.194653 -0.5703050000000001 0.923473
15120 0.20087937 1.9056906 3.79565577 1.508183 -0.327593 0.960604
15140 -1.2578382000000001 1.5808618800000003 4.37989032 1.618962 -0.51158 1.054549
15160 -2.8584574200000006 2.73376251 5.9065715700000005 1.928639 -0.44238 1.063032
15180 -2.0098728 3.1267020600000004 4.07167974 1.82068 -0.432637 1.117813
15200 0.78556518 5.2853631299999995 7.062758550000001 1.752061 -0.623682 1.001143
15220 3.7024019100000003 11.710000800000001 9.31901931 1.67317 -0.286174 0.84954
15240 1.19601558 19.33694226 1.70180937 1.275182 -0.4174520000000001 0.724083
15260 4.3623794700000005 14.86304271 6.107598090000001 0.690364 -0.355089 0.8203309999999999
15280 0.42227145000000005 5.787115200000001 2.8925864100000007 0.251842 0.226449 0.6936770000000001
15300 1.0876347 4.2716664 2.58467994 -0.189396 0.709754 0.359895
15320 2.8294198200000005 9.0724842 4.59798624 -0.71377 0.985574 0.037548000000000005
15340 3.25812663 13.29820056 3.3045279300000003 -1.528932 0.987182 -0.190338
15360 2.105971560000001 12.696896610000001 2.3613356700000003 -2.1854560000000003 1.023911 -0.547484
15380 1.2617229600000002 10.537185870000002 3.5043674400000002 -2.180746 1.235103 -1.150199
15400 0.60893613 9.01620423 3.9383127900000003 -1.7256669999999998 1.950737 -1.7525509999999995
15420 0.7417046700000001 9.21558267 2.66385645 -1.256397 2.007101 -2.134973
15440 0.5150740500000001 9.703571310000001 1.65585933 -1.066031 1.013235 -2.042639
15460 0.08636724000000001 10.03917141 1.32115194 -2.094668 0.836515 -1.713108
15480 -0.3526695 10.12854051 1.51454628 -2.656374 -0.008464 -1.971254
15500 0.11077452 9.989032500000002 2.42795538 -2.668234 -0.059461 -1.994772
15520 1.32564492 9.684863640000001 1.1846359800000001 -2.503132 0.660041 -1.449748
15540 2.96278677 10.38330621 1.7961129 -2.559841 -0.080162 -1.441718
15560 3.78398187 11.984229540000001 1.28582613 -2.501027 -0.241627 -1.872662
15580 3.0958594200000005 12.93220908 0.12828537000000004 -2.52088 -0.386543 -2.111896
15600 1.50197967 12.697347870000002 1.94790303 -2.629653 -0.970189 -1.516909
15620 0.6535422000000001 11.55462021 2.37765951 -2.29875 -1.145927 -1.013376
15640 1.1255111100000001 10.9667952 2.82358287 -1.897573 -1.254131 -0.410094
15660 -0.07334936999999998 10.08228636 4.804408260000001 -1.355811 -1.197742 -0.063483
15680 -0.9994722300000001 9.242825040000001 4.8671334 -0.7355970000000001 -1.2185709999999998 0.078676
15700 -0.7406550000000001 8.47866528 3.5390948399999997 0.012648 -1.068068 0.15421300000000002
15720 0.09445068 8.88492681 2.4010073100000002 0.67561 -0.887498 0.24407
15740 -0.09909081000000002 9.74069235 0.41449212 1.226734 -0.245058 0.279143
15760 0.09655002 10.39902183 -0.07260381 1.935454 0.183412 0.40639
15780 2.5282430099999997 10.66083111 1.53969912 2.4354150000000003 0.206993 1.001647
15800 4.3180677 12.082123529999999 4.43557188 2.132622 0.6578729999999999 0.930588
15820 4.06060425 15.211513530000001 3.9826147499999998 3.1315 0.485837 0.463495
15840 2.68272108 13.608049410000001 -1.79850654 2.685849 0.081295 -0.014458000000000004
15860 3.6317502900000003 9.01859787 -2.5990417800000003 1.033109 -0.404216 -0.243298
15880 3.39119928 10.922041980000001 0.6976970100000001 1.411974 -0.46378 -0.328169
15900 1.5988239899999999 12.08092671 6.8769963899999995 1.745641 0.102348 0.06440499999999999
15920 3.7739560500000002 10.269392490000001 6.61744341 1.6392520000000002 0.7289770000000001 0.62688
15940 4.34022849 10.620561060000002 3.1181673600000006 1.63772 0.877108 0.879848
15960 3.4024219200000005 12.568464089999999 1.9309807800000003 1.480136 0.8853639999999999 0.8167800000000001
15980 0.39263544 11.053319400000001 3.83592582 1.15884 0.962618 0.690523
16000 -1.37414556 8.108043480000001 4.21687755 1.0186540000000002 0.739917 0.560574
16020 -0.7695454500000001 5.304217950000001 4.7304604800000005 0.941721 0.385922 0.707905
16040 -0.0811287 2.4481541700000005 3.7952045100000005 0.896436 0.30831 0.974744
16060 0.51822306 2.79274023 3.81780675 0.808237 -0.099337 0.9629
16080 0.71581608 4.1671800900000004 4.15820394 0.8458620000000001 0.093779 0.855025
16100 0.88166394 3.5211229200000003 4.28543964 1.149412 0.091097 0.7300300000000001
16120 0.03202965 2.15596332 4.088150730000001 0.911024 0.195374 0.700457
16140 -0.9515699999999999 1.76961609 4.8678789600000005 1.260025 -0.014632 0.701028
16160 -1.67082939 1.26547038 4.308787440000001 1.335044 0.024773 0.904464
16180 -1.00770282 -1.1744532 2.10642282 1.1638190000000002 -0.437478 1.033115
16200 0.8333202600000001 2.6791306200000005 5.17893444 1.39733 -0.23693000000000006 1.02808
16220 1.8741024 12.682829070000002 6.176758590000001 1.397904 0.207923 0.869417
16240 1.77920046 19.29233619 -0.11690577 0.8769110000000001 0.026926 0.76346
16260 3.4687375200000004 21.72192984 6.3920096100000015 0.491762 -0.165793 0.80695
16280 0.17035065000000002 10.81066905 4.173919560000001 0.365625 0.295636 0.608925
16300 1.6347482100000001 4.277954610000001 3.28926357 -0.040755 0.912087 0.24851
16320 2.7979787700000003 3.39973398 3.75359049 -0.501288 1.397501 -0.062976
16340 3.12266034 7.7866580700000005 2.89857051 -1.144532 1.780388 -0.417269
16360 2.92581288 11.99096901 2.5885647 -1.775781 0.9004639999999999 -0.6673100000000001
16380 2.31014709 13.771807740000002 2.5005493800000003 -1.813747 0.506297 -1.162725
16400 0.8416980000000001 11.94351804 2.23170633 -1.527477 1.282781 -1.650966
16420 0.2870994600000001 9.27606132 2.01001995 -1.292911 1.253186 -1.6460849999999998
16440 0.07095573000000001 7.80162813 1.5834026700000001 -1.581736 1.484805 -1.243543
16460 0.22333446 9.08894538 0.9770171400000001 -2.042517 1.07813 -1.441725
16480 0.66102723 11.124118170000001 1.46170962 -2.485564 1.122803 -1.573063
16500 0.97926363 11.45178198 1.8462616200000002 -2.60423 1.0510700000000002 -1.114465
16520 1.08315153 11.40748002 1.1814967800000005 -2.597787 0.497567 -0.96416
16540 0.93091014 11.64234123 3.1091814 -2.955575 0.280966 -1.098841
16560 1.36830861 11.20195071 2.1296234700000003 -3.043496 -0.262243 -1.309199
16580 1.7179762500000002 11.56181094 0.55728648 -3.167476 -0.658608 -1.18137
16600 2.0910015 12.284650980000002 1.2982455900000003 -3.163807 -0.997179 -0.433155
16620 2.40968916 12.73641129 2.4706092600000003 -2.556757 -1.073348 -0.027166000000000003
16640 1.8220113000000002 12.349465649999999 2.2043168100000003 -1.7803639999999998 -0.823795 0.295199
16660 0.6019023600000001 9.89891784 2.86474563 -0.901241 -0.7928890000000001 0.329074
16680 -0.40191570000000004 8.863962840000001 4.513865490000001 -0.056737 -0.907648 0.32337
16700 -1.65450555 8.71966755 4.975651620000001 0.7476970000000001 -0.82344 0.4122020000000001
16720 0.02529999 8.14950054 4.040248500000001 1.576725 -0.129408 0.624339
16740 1.59927525 8.98057431 2.5234557300000002 2.299723 1.003557 0.652506
16760 1.1329961400000002 9.493107570000001 -1.16712513 2.467127 1.29986 0.734481
16780 0.99408654 10.37342754 -0.76925115 2.262169 1.549805 1.010466
16800 3.0810463200000004 11.823012 3.14196642 2.985895 1.380831 0.282938
16820 5.0169713400000004 14.586420330000001 3.9468376800000002 2.267788 1.03937 -0.282457
16840 5.6166174 11.43936252 1.1648786400000002 0.686986 -1.136134 0.074621
16860 5.1302768400000005 10.33779762 -0.7908037200000001 1.294751 -0.568401 -0.702732
16880 3.31066899 10.684483020000002 2.14488783 2.031482 0.673786 -0.29539
16900 1.9091339100000002 9.822870720000001 6.108049350000001 2.115475 1.127452 0.46519
16920 4.51671039 9.0898479 3.95118351 2.386886 1.648791 0.657629
16940 4.2138855 11.134143990000002 2.49306435 1.910126 1.773538 0.510997
16960 2.69634717 11.169028350000001 2.2088097900000006 1.787899 1.94509 0.340077
16980 -0.16854561000000004 10.67639958 4.06539153 1.938221 2.0389 0.459579
17000 -1.0835929800000001 7.535924280000001 4.28379156 2.096658 2.321057 0.623762
17020 -0.21794877000000001 4.08904344 4.0026762 2.109784 2.293823 0.762758
17040 0.6719555700000001 2.23170633 3.7004595300000003 1.943529 2.151434 0.817326
17060 0.95695569 2.96009883 4.89916305 1.576018 1.789508 0.802404
17080 1.03135473 5.142706110000001 5.598360990000001 1.397373 1.549918 0.666868
17100 0.8379603900000001 4.68391203 5.198691780000001 1.369898 1.435661 0.492702
17120 0.45790137000000003 1.84162149 4.80770442 1.259999 1.619479 0.440424
17140 -0.5333402700000001 -0.060174540000000006 4.57897446 1.168045 1.835954 0.464073
17160 -2.44231722 0.8490358800000001 4.4420170500000005 1.045207 1.826702 0.486728
17180 -0.98464932 1.36022517 2.5632745200000002 0.976204 1.584388 0.404304
17200 1.48296789 3.48115698 5.83771518 0.907215 1.353758 0.33041
17220 -1.26920799 12.81050622 6.78868677 0.854102 1.304282 0.228621
17240 2.6440991100000004 24.3339993 5.373672750000001 0.814183 1.229754 0.25300700000000004
17260 7.35226146 21.65307345 2.13785406 0.650205 1.160694 0.349158
17280 0.75638043 2.84932431 2.67313671 0.551287 1.052133 0.410563
17300 2.24742195 1.4868624600000002 5.46273774 0.430316 1.238813 0.45114
17320 5.175039870000001 7.065760409999999 4.14053613 0.432731 1.121393 0.508991
17340 5.3649909000000005 13.256733689999999 1.56080043 0.357595 0.955732 0.443517
17360 3.8992395600000003 13.915965690000002 1.22684841 0.286825 0.978894 0.307329
17380 1.9908610200000003 10.66068396 1.949247 0.295182 1.259654 0.152135
17400 1.94520528 8.97832782 1.76408325 0.119905 1.2026940000000002 0.162734
17420 1.51365357 9.206155260000001 1.5491265300000001 -0.118502 1.280429 0.110763
17440 0.38424789000000004 8.95811922 0.9108585 -0.11413 1.4054879999999998 -0.264313
17460 -0.63139122 9.04808673 -0.74844414 -0.30856300000000003 1.57123 -0.517984
17480 -1.35752742 9.00572715 -1.14526845 -0.760297 2.118386 -0.826283
17500 -1.217421 8.815472009999999 -0.40400523 -1.18402 2.744203 -1.116328
17520 -0.30625839 8.619075810000002 -0.15732297 -1.821909 3.661727 -1.176439
17540 0.6215027399999999 8.09800785 0.37601730000000005 -2.283341 4.047778 -1.14811
17560 1.08210186 7.85940903 0.48679182000000004 -2.221791 3.955072 -0.928576
17580 0.64007307 8.13588426 -0.27857457 -1.745699 3.665166 -1.037042
17600 -0.00404172 9.61510473 -0.6460571700000001 -1.101595 2.605497 -0.600692
17620 -0.40071888000000006 9.87122421 -1.25514045 -0.980469 2.541923 -0.790976
17640 0.09655002 9.950704830000001 -0.65787822 -0.847563 2.737123 -0.969759
17660 0.58138965 9.44745183 0.03202965 -0.798876 1.598694 -0.833364
17680 0.896634 9.871822620000001 0.14340258 -0.913258 0.948823 -0.721167
17700 0.92088432 10.066570740000001 0.6170195700000001 -1.002897 0.27051 -0.444255
17720 1.0469232 9.48697632 0.6179122800000001 -1.069288 -0.168407 -0.115144
17740 0.47990520000000003 9.47485116 -0.81175788 -0.892652 -0.283916 0.112701
17760 -0.35535744 9.63875664 -1.3397124600000003 -0.603158 0.054927 0.372799
17780 -0.52556094 9.68695317 -0.01392039 -0.319603 0.836533 0.735905
17800 -0.8906499 9.68606046 -0.37781253 0.015513 1.363741 1.003558
17820 -1.1576879100000002 10.21206285 -1.41650514 0.22347 1.483896 1.144793
17840 -1.3964436900000001 11.979736560000001 -0.64111293 0.379316 1.237383 1.118424
17860 0.06930765000000003 12.78626571 0.73901673 0.54264 1.046024 1.145447
17880 1.0267146 12.26130318 1.48027014 0.6232850000000001 1.133198 0.854274
17900 2.05447887 12.169393290000002 1.8143791200000001 0.571806 1.252813 0.556796
17920 3.19121262 12.223279620000001 3.39957702 0.661536 0.997008 0.513953
17940 4.01195646 11.82675942 4.074073380000001 0.8757860000000001 0.471002 0.268296
17960 4.89856464 11.932432740000003 2.6806217400000003 1.076656 0.131156 0.100288
17980 6.94780497 10.96095825 2.3781009600000003 1.060381 0.742842 0.059866
18000 9.469612620000001 11.678118300000001 1.53056601 0.674898 1.1372950000000002 0.052395
18020 6.7298562 9.270371520000001 0.5477119200000001 0.307359 0.784894 0.053484
18040 1.96316739 10.170752940000002 -0.8445429000000001 0.446142 0.468529 0.193728
18060 -0.94528179 11.798467380000002 0.3179421 0.7183390000000001 0.363839 0.297244
18080 -2.53482552 11.104507980000001 1.02925539 1.000374 0.549933 0.401525
18100 -1.64507814 8.91920295 0.9455859000000001 0.592487 0.997514 0.447241
18120 -1.2695121 7.2069165 1.2407688000000001 0.449215 1.149024 -0.28675500000000004
18140 0.30761217 6.03859455 1.2555917100000002 0.702444 1.462319 -0.532146
18160 2.17288557 5.778433350000001 2.77508223 0.671349 2.110453 -0.08454099999999999
18180 3.0576887100000003 5.707781730000001 4.18065903 0.6431439999999999 1.967226 0.59163
18200 2.83045968 5.132523330000001 4.55727474 1.408886 3.237925 0.504552
18220 2.0877053400000003 4.81144203 4.00492269 1.85828 4.06149 0.08896
18240 0.29847906 5.45555682 3.0907680300000004 1.48685 3.222546 -0.244776
18260 -1.06354134 6.324801300000001 2.4481541700000005 0.8396610000000001 2.407673 0.033758
18280 -1.96720911 6.7280609700000005 2.31194232 0.683212 1.998386 0.490389
18300 -1.8272498400000001 7.419469770000001 3.4049725200000003 0.75654 2.645821 0.490071
18320 -2.18231298 8.56518948 3.87453798 0.713258 3.311413 0.578647
18340 -3.3449451300000006 9.52694226 4.35803364 0.717353 3.163766 0.468838
18360 -3.3283269900000003 10.918147410000001 4.20161319 0.677836 2.99941 0.312812
18380 -3.3524301600000004 11.414808090000001 3.8932554600000002 0.655684 2.824755 0.31929
18400 -1.42353891 10.70543718 5.17788477 0.494511 2.147487 0.131025
18420 -0.25088094 10.491078869999999 5.82094989 0.22460500000000005 2.097511 0.075793
18440 0.50579379 11.1432771 5.6896724700000005 0.231871 2.108977 0.132445
18460 1.7130418200000002 12.31354143 5.979616830000001 0.327266 2.048671 0.212237
18480 3.43790469 11.801910690000001 5.1801312600000005 0.369629 1.918803 0.151811
18500 2.8687873500000003 8.89435422 3.1174218000000002 0.302879 1.62566 -0.008513
18520 3.2795320500000003 11.89126998 0.09265545000000001 0.175247 1.437705 -0.04762
18540 5.634883620000001 15.88241943 1.23627582 0.120422 1.196788 0.040968
18560 3.5546535 11.23653096 1.26427356 0.16006199999999998 1.237225 0.28368000000000004
18580 3.4311652200000005 3.5235263700000004 -0.96219423 0.221875 1.123533 0.423126
18600 7.67753163 2.22976395 0.04371336 0.211526 0.996642 0.46274
18620 5.632333020000001 7.4422191600000005 -0.43589754000000003 0.252544 0.8559200000000001 0.453593
18640 -0.43544628 14.250516120000002 -2.34801369 0.257871 0.655475 0.492343
18660 -1.46634975 15.78122928 -5.250331620000001 0.321782 0.805824 0.666717
18680 -0.19279593 11.802803400000002 -3.8898121500000005 0.447576 1.009012 0.893799
18700 1.2620270700000003 7.13536236 -0.35356221 0.340804 1.1037370000000002 1.007231
18720 2.17018782 7.37022357 -1.3009433400000001 0.123574 0.9001969999999999 0.947222
18740 1.65016953 9.1883403 -0.7204562099999999 0.241981 0.906137 0.957656
18760 1.5630469200000001 10.597213259999998 -1.4552742600000002 0.205368 0.780763 0.907354
18780 -0.7693983000000001 11.04703119 -2.34980892 0.018858 0.600154 0.680888
18800 -2.76011217 11.01125412 -1.52353224 -0.042015 0.376439 0.469242
18820 -3.92169465 10.40786064 -1.80075303 -0.33624 0.703183 0.265942
18840 -3.71093661 10.53105462 -1.6679844900000003 -0.8936059999999999 1.360933 -0.168219
18860 -1.23358788 9.14179185 0.51822306 -1.372314 1.823034 -0.494758
18880 0.37137717000000003 8.47148436 2.13441075 -1.620126 2.193595 -0.773633
18900 -0.56088675 9.273961980000001 1.42129242 -1.451807 2.345355 -1.041844
18920 -2.10042891 10.08662238 -0.27812331 -1.147025 2.208178 -1.100428
18940 -1.7149842000000002 9.87735546 -0.29533986 -1.521721 2.349227 -1.150228
18960 -0.16944813 9.457183350000001 0.42122178 -2.231446 2.343938 -1.343186
18980 0.99019197 9.623933730000001 1.65450555 -2.401031 1.312543 -1.676334
19000 0.6026479200000002 9.30928779 2.25655506 -2.117607 0.746885 -1.922525
19020 -0.22857300000000003 9.927052920000001 1.37758887 -2.087537 1.245301 -2.181463
19040 0.15806852999999998 10.61397855 0.5881291200000001 -2.310641 1.173817 -2.226727
19060 1.38087522 10.198446570000002 0.57540555 -2.2397 1.051182 -1.989997
19080 2.19398688 9.50403591 1.31770863 -2.093359 0.445325 -1.921969
19100 3.2871642300000006 10.16745678 1.2695121 -2.234237 -0.636016 -2.044413
19120 4.07093418 11.39879817 1.12910157 -2.185225 -0.8982040000000001 -2.054417
19140 3.22025022 12.713514750000002 0.7716447900000001 -2.06736 -1.080544 -2.112112
19160 1.37998251 13.02531579 0.5263065 -1.75859 -1.205144 -1.856627
19180 1.1451213 12.095896770000001 0.72284985 -1.596697 -1.602439 -1.477905
19200 1.29914811 12.95885304 -0.7499450700000001 -1.485496 -1.918459 -1.133824
19220 1.5932911500000002 13.67001918 -0.74215593 -1.044354 -1.852468 -0.703538
19240 2.49246594 12.78701127 1.74057849 -0.477176 -1.605465 -0.361267
19260 2.53962261 12.79509471 4.27271607 0.081819 -1.078124 -0.054663
19280 0.7566747300000001 11.699965170000002 3.74610546 0.435796 -0.992555 0.08443300000000001
19300 -0.36628578000000006 10.90123497 2.3722640100000003 0.876344 -1.114048 -0.018088
19320 -0.14594337000000002 10.10713509 1.5780169800000001 1.52396 -1.351717 -0.018601
19340 2.0881566 10.25023356 1.52188416 2.204863 -0.5570649999999999 0.732892
19360 4.1213772 10.983707640000002 2.06091423 0.657988 0.565209 0.8734040000000001
19380 5.62709448 11.833341930000001 1.8326355300000001 2.844563 0.437751 -0.315045
19400 4.72612446 10.62595656 0.9178922700000001 2.348154 -0.9005190000000001 -0.878682
19420 2.90770362 10.39753071 1.38132648 1.159773 0.021385 -0.225867
19440 1.7028590399999999 11.93094162 3.6784458900000003 1.901762 0.199736 0.083531
19460 1.3973462100000003 12.7802718 4.4617743899999995 1.249033 0.048668 0.598321
19480 2.14069896 10.95017706 3.90583188 1.227039 0.24020100000000005 0.937616
19500 1.42518699 8.69900769 4.141889910000001 1.224001 0.231869 0.89274
19520 0.78586929 10.15533162 3.0286511099999998 0.910907 0.139145 0.908832
19540 0.40999914 11.29401756 1.8182736900000003 1.007613 0.113005 0.968293
19560 -1.09482543 9.26423046 3.13627662 1.056725 -0.093921 0.991334
19580 -0.30221667 7.554337650000001 3.3624559800000005 1.000479 -0.546289 0.946655
19600 -0.18291726 5.36873832 4.38019443 0.496827 -0.815059 0.930663
19620 1.17745506 5.2021350900000005 3.3644081700000004 -0.023737 -0.920234 1.043598
19640 1.35363285 4.55024097 2.61940734 0.851461 -0.5909760000000001 1.062108
19660 0.77209605 3.6116888400000002 3.6745611300000003 1.052575 -0.193426 1.103596
19680 -0.25701219000000003 2.4650764200000004 4.304598570000001 1.208929 -0.460708 0.942661
19700 -0.3529638 2.11075884 6.12032166 1.663563 -0.347683 0.788663
19720 -1.4426978400000001 1.78593993 5.89519197 1.904056 -0.45942 0.817192
19740 -3.0326928300000002 2.81385135 3.44957859 1.7700650000000002 -0.617606 0.798299
19760 -3.06232884 2.5258493700000004 1.3768335 1.495215 -0.8082199999999999 0.752826
19780 1.0409391000000001 0.15297714 2.73915801 1.082073 -0.6893520000000001 0.6888989999999999
19800 5.25557016 3.69701622 10.165808700000001 0.632579 -0.6764180000000001 0.774405
19820 3.2153157900000005 20.94100479 14.42730213 0.334549 -0.014081 0.566376
19840 -0.8083145700000001 24.222027960000002 -7.4640758400000005 -0.16885899999999998 0.401277 0.229042
19860 1.31950386 10.321336440000001 6.6681807300000004 -0.504706 1.079127 -0.095707
19880 -0.9137034 3.12175782 4.0487832 -0.982717 1.908846 -0.447281
19900 0.74679606 4.87491273 2.00073969 -1.751896 1.396973 -0.976495
19920 4.569694200000001 12.25845828 5.321728800000001 -1.942963 0.8945280000000001 -1.7003720000000002
19940 3.06098487 12.939095700000001 2.92521447 -1.477284 0.657828 -2.051466
19960 0.8270320499999999 10.965451230000001 1.5967344600000002 -1.569206 0.5775779999999999 -1.617239
19980 0.18097488 10.22059755 2.92207527 -1.910964 1.222369 -1.130138
20000 0.43035489 9.689346810000002 2.87567397 -2.035874 1.341343 -1.46979
20020 0.1963962 10.039769819999998 2.04788655 -2.405683 0.81281 -1.376624
20040 -0.27692649 10.87249167 0.7984359000000001 -2.452843 0.6940569999999999 -1.20909
20060 -0.82284318 10.482553979999999 1.61065485 -2.496752 0.368332 -1.499536
20080 -0.8384018400000001 10.195297560000002 7.224574500000001 -2.335493 -0.158344 -2.063892
20100 0.73048203 9.369315180000001 3.6043509600000005 -2.347725 -0.889666 -2.449737
20120 1.4518309500000002 10.17508896 1.20230379 -2.292245 -1.180245 -2.025961
20140 2.29173372 11.829153060000001 1.62831285 -2.148819 -1.405888 -1.400828
20160 2.49935256 13.449529620000002 1.10410569 -1.6761549999999998 -1.25556 -0.7770819999999999
20180 1.8571899600000001 13.851445320000002 1.14766209 -1.1165459999999998 -1.307605 -0.235791
20200 1.8018027 14.010867630000002 2.6432064000000004 -0.585238 -1.499154 0.052312
20220 1.80973899 12.15128403 4.684657590000001 -0.01258 -1.665722 0.184713
20240 0.34772526 9.33189003 4.64753655 0.747571 -1.6211 0.354471
20260 -0.78212187 7.669448190000001 5.817506580000001 1.526571 -0.8726790000000001 0.5950310000000001
20280 -0.8029288800000001 6.929391600000001 4.0115052 2.235501 0.551824 0.722071
20300 0.42272271 5.88546045 4.23289728 2.730784 0.8261850000000001 0.945233
20320 0.7836228 6.527623050000001 3.1081317299999998 2.110609 0.6287 1.052249
20340 -0.25461855 8.35098813 -1.04302863 2.0218540000000003 1.473902 0.75358
20360 -0.6170195700000001 9.80820477 -1.34255736 2.793867 0.472556 0.08193500000000001
20380 1.39719906 13.222006290000001 4.18080618 1.094741 0.381117 -0.35283200000000003
20400 5.12443989 13.94469918 6.25609206 1.204117 0.35682800000000003 -0.50052
20420 5.842051199999999 12.21519618 1.60271856 1.529592 0.170306 -0.225611
20440 5.435201070000001 11.021132790000001 0.47510811000000003 1.383663 0.232778 0.261467
20460 2.0240874900000003 11.101515930000001 2.2040127000000003 1.013335 0.320009 0.61235
20480 0.80562663 9.85520448 4.51895688 0.79125 0.284553 0.614049
20500 1.4715882900000001 13.45416975 3.9800739600000004 0.664416 0.155772 0.694513
20520 2.1806649 14.105014200000001 2.4022041300000003 0.685816 0.08997100000000001 0.61463
20540 1.9646683200000001 11.51345745 2.54605797 0.710802 0.026732 0.689661
20560 0.76236453 8.58015954 3.9957895800000003 0.633113 -0.233614 0.8614360000000001
20580 -1.1642802300000001 6.8297023800000005 4.838242950000001 0.635504 -0.316042 0.959834
20600 -0.97027767 5.779934280000001 4.869968490000001 0.716122 -0.21499 0.927153
20620 -0.46957527000000004 4.35414888 4.508028540000001 0.966425 -0.16328900000000002 0.834832
20640 0.21316148999999998 4.23065079 5.19659244 1.159748 -0.145731 0.805181
20660 0.52331445 5.705682390000001 4.89258054 1.083195 -0.241672 0.888091
20680 0.24473988000000002 5.023102590000001 4.11838515 1.044489 -0.450713 0.98316
20700 0.32213097 2.0507314500000002 3.4557098400000004 1.091114 -0.446914 1.058256
20720 0.34488036 0.23605803000000003 4.6937907 1.1407 -0.24515 0.908793
20740 -0.38679849 -0.5667237 3.90283002 0.8690620000000001 -0.290517 0.768085
20760 -0.04281084 -1.66184343 1.9464021 0.5702689999999999 -0.310757 0.760683
20780 2.14938081 1.49718258 4.58796042 0.292717 0.032549 0.6632319999999999
20800 1.3840242299999999 12.74120838 7.4702169000000005 0.028508 0.400694 0.469703
20820 1.24435926 19.12617441 -1.05560505 -0.325048 0.8563940000000001 0.303212
20840 1.16861625 19.355797080000002 5.06337264 -0.8690889999999999 0.839142 0.028105
20860 -1.8934084800000002 8.74226979 3.29285403 -1.316598 0.6702859999999999 -0.513188
20880 -0.34547877 4.08006729 2.8473819300000005 -1.5614860000000002 0.8908809999999999 -1.119795
20900 1.0547025300000001 4.66594992 2.7650466000000002 -1.275177 1.114834 -1.694922
20920 1.5170968800000002 10.20038895 2.8229844600000003 -1.299168 0.655148 -1.802391
20940 0.8705884500000001 13.55775354 3.32877825 -1.774971 0.682399 -1.545103
20960 0.9888480000000001 14.01670458 3.6585414000000003 -1.67002 1.86168 -1.640953
20980 0.35671122 11.77840593 3.3998811300000003 -1.836625 1.542853 -1.685505
21000 -0.12903093000000002 9.314526330000001 3.11142789 -2.319285 0.6924899999999999 -1.731584
21020 -0.37407492000000003 9.52603974 2.43633312 -2.245582 0.360327 -1.846011
21040 -0.041309910000000005 11.0880468 2.2162948200000003 -2.307095 -0.254297 -2.068912
21060 0.8553240900000001 11.853854640000002 3.1593301200000004 -2.5064450000000003 -0.5505439999999999 -2.40321
21080 1.1424235500000002 11.93168718 3.4232289300000005 -2.756212 -1.05449 -2.1693
21100 1.5817644000000004 11.94127155 2.37675699 -2.77489 -1.228695 -1.746191
21120 1.9067304600000001 11.64473487 1.28762136 -2.477419 -1.328245 -1.085961
21140 2.10058587 12.14200377 1.2271525200000002 -1.867487 -1.543591 -0.509926
21160 1.75435173 12.72623832 3.4274178000000006 -1.164597 -1.584179 -0.027469
21180 0.9484308 12.103234650000001 3.0716091000000003 -0.304058 -1.643684 0.25421900000000003
21200 0.00808344 9.592649640000001 3.26111868 0.5123770000000001 -1.665272 0.4159100000000001
21220 -1.09212768 7.919583570000001 4.13410077 1.305434 -1.013285 0.517822
21240 -1.64193894 6.97070151 4.706367120000001 2.002403 -0.170153 0.5878399999999999
21260 -0.21914559000000003 6.34695228 3.73698216 2.632115 0.388934 0.620364
21280 1.2320869500000002 7.206612389999999 2.22437826 3.14536 0.398996 0.855741
21300 1.23538311 9.246268350000001 0.40385808000000006 2.633165 1.0901299999999998 1.090559
21320 0.43454376000000006 10.623405960000001 0.13981212 2.2250400000000004 1.965818 0.90392
21340 0.44712018000000003 11.5016364 2.25805599 2.952501 0.679338 -0.35091999999999995
21360 1.74956445 13.45177611 4.90320477 0.3413 -0.7248829999999999 -0.70385
21380 3.41454708 13.45626909 3.10200048 0.652595 -0.095204 -0.7323930000000001
21400 4.237684560000001 12.75497181 1.96242183 1.262982 0.641138 -0.25585
21420 3.42936999 10.970836920000002 2.3267652300000004 1.126702 0.7483989999999999 0.742916
21440 3.17729223 9.747883080000001 2.1775257 0.899294 0.522208 1.027901
21460 2.23409997 11.391313140000001 3.8047888800000003 0.884784 0.7261340000000001 0.6600699999999999
21480 1.95149349 12.43224243 4.08155841 0.693758 0.308933 0.728705
21500 1.12101813 12.921732 3.12505398 0.709702 0.016096 0.686462
21520 0.9473811300000001 12.792848220000002 3.1605269400000005 0.8762110000000001 0.205395 0.622221
21540 0.26944146 10.71052857 3.4829620200000004 0.907055 -0.210493 0.703086
21560 -0.33260805000000004 9.167533290000002 4.54679766 0.6831649999999999 -0.3622510000000001 0.752991
21580 -1.4293758600000002 6.2526487500000005 5.46842754 0.6209100000000001 -0.195901 0.765162
21600 -1.14153084 4.82551938 5.598655290000001 0.879935 0.031001 0.8072729999999999
21620 -0.74485368 4.14038898 6.036495210000001 1.06044 0.198193 0.931165
21640 -0.02425032 4.0182446700000005 4.93014303 1.018344 0.020716 0.861664
21660 0.45849978 2.4427684800000002 3.1723578000000003 0.892385 -0.220705 0.871776
21680 0.6153714899999999 0.8604154800000001 3.60540063 0.933695 -0.235969 0.923359
21700 0.23636214000000003 -0.26689086 3.99653514 1.030204 -0.301541 0.987142
21720 -1.24316244 -0.96773688 2.9073995100000003 0.902948 -0.190067 0.92629
21740 -1.39225482 -2.14773273 -0.43334694 0.549162 -0.214988 0.8052779999999999
21760 0.09624591 -2.6503873200000005 1.53011475 0.26052600000000004 -0.164741 0.744445
21780 4.795128 3.9155535900000005 7.618858020000001 0.021611 0.196672 0.6141270000000001
21800 1.12955283 20.32188588 8.23243428 -0.4506810000000001 0.7998770000000001 0.42632
21820 1.98576963 34.05418875 -2.5210620900000005 -0.904628 1.056365 0.082058
21840 0.79709193 13.04492598 3.50480889 -1.314136 0.946322 -0.547708
21860 -0.84858462 -0.89574129 4.34755656 -1.389695 1.048284 -1.2042540000000002
21880 1.6860937500000002 -2.47959522 4.233495690000001 -1.121007 0.7638050000000001 -1.69019
21900 3.11382153 5.78472156 3.4983735300000003 -1.1861389999999998 0.08526900000000001 -1.644911
21920 2.08291806 14.763951900000002 3.7799401500000003 -1.423779 0.383531 -1.169457
21940 0.08592579000000002 16.169823 2.0749817700000004 -1.7199259999999998 0.770946 -1.358961
21960 -1.47039147 12.245881859999999 1.94939415 -1.795187 1.141824 -1.334325
21980 -1.5467328900000001 9.0696393 2.80426698 -1.718857 1.286483 -1.07974
22000 -0.6054928200000002 9.063949500000001 2.3989079700000002 -1.973287 0.6431 -1.136241
22020 0.40521186000000003 11.226799440000002 1.3927060800000002 -2.129718 -0.117581 -1.514509
22040 0.9741722400000001 12.247235640000001 2.47450383 -2.24311 -0.352047 -1.921993
22060 0.93779676 11.420203590000002 4.121975610000001 -2.339475 -0.471805 -1.7270279999999998
22080 1.29809844 11.07996336 3.9131599500000003 -2.4122630000000003 -0.8449120000000001 -1.332885
22100 1.52262972 11.83948299 2.06270946 -2.297009 -1.073075 -0.8521559999999999
22120 1.03165884 11.914029180000002 0.7661021400000001 -2.004487 -1.014283 -0.357737
22140 0.9710330400000001 11.69068491 0.91818657 -1.429964 -1.051655 -0.035345999999999995
22160 1.24181847 11.54115108 2.29548114 -0.72711 -1.201667 0.106488
22180 1.59972651 10.99179108 2.89213515 -0.034816 -1.616688 0.196245
22200 0.32198382000000003 11.19297456 3.2566257 0.727899 -1.5823 0.259212
22220 -1.1422764000000003 9.19553103 3.95238033 1.434478 -0.8929309999999999 0.411747
22240 -0.9578582100000002 7.834854600000001 4.65607125 2.224224 0.465379 0.771241
22260 0.4837899600000001 7.88964345 4.37720238 2.290805 1.142456 1.355156
22280 1.2582796500000002 8.64526851 1.72141956 1.623325 1.573442 0.981405
22300 0.08023599000000001 8.64392454 -0.09370512 3.960522 1.879472 -0.051656
22320 -0.41777847 9.13175622 1.4867055 2.528703 0.333862 -0.16863499999999998
22340 -0.26135802 11.654466390000001 4.31822466 0.549736 0.312187 -0.22516
22360 1.8726014700000002 12.64765041 3.1551412500000002 1.332048 -0.218439 -0.340792
22380 4.244718330000001 11.68455366 1.10380158 1.722748 0.027722000000000004 0.098524
22400 4.37914476 10.363244759999999 1.32953949 0.893645 0.42847 0.765199
22420 4.2369390000000005 11.11632903 4.40923203 1.1431440000000002 0.758392 0.8936370000000001
22440 2.38978467 8.97758226 5.32397529 1.3921 0.635951 0.92758
22460 2.36477898 11.341164420000002 2.8569564900000004 1.110669 0.04531 0.75866
22480 2.2439884500000002 13.35043881 1.80314667 0.739665 -0.162176 0.487142
22500 1.45407744 13.24086111 3.69836019 0.501398 -0.471366 0.492284
22520 0.35371917 12.29378409 6.26926689 0.50352 -0.515837 0.688908
22540 0.2951829 11.46002238 5.217105149999999 0.721414 -0.28189000000000003 0.869592
22560 0.6390234 9.3645279 3.8719971900000005 0.979731 0.086449 0.973474
22580 0.24578955000000002 7.72528671 4.13335521 1.086254 0.013783000000000002 0.937991
22600 -0.08726976 5.84429769 5.278319550000001 1.056852 -0.061026 0.757352
22620 -0.20551950000000002 5.24389626 5.669463870000001 0.958583 -0.409748 0.670587
22640 -0.4128440400000001 5.38010811 5.13552519 1.042189 -0.489158 0.742843
22660 -0.7048877400000001 4.73464935 4.08874914 1.031947 -0.338079 0.799194
22680 -0.4192794 2.16868689 3.4528649399999995 0.802553 -0.357453 0.781593
22700 -0.5203224 -1.52862363 3.98500839 0.628023 -0.321441 0.718371
22720 -0.52166637 -4.7165400900000005 2.00403585 0.40869 0.072072 0.535805
22740 1.37159496 -4.45623174 1.11443562 -0.139189 0.478447 0.35199600000000003
22760 3.5423811900000004 3.5425381500000004 6.943606290000001 -0.7155199999999999 0.727255 0.169259
22780 -2.4111900900000003 13.73648193 0.47450970000000003 -1.3173860000000002 0.631498 -0.13713
22800 3.5114012100000003 21.81024927 1.02327129 -1.791225 0.714389 -0.7408859999999999
22820 1.71003996 25.32269034 7.081171919999999 -1.777635 1.001189 -1.344704
22840 -0.44202879000000006 5.73696648 2.9075564700000003 -1.653201 1.446653 -1.763149
22860 0.64950048 0.6962058900000001 2.7643010400000003 -1.5213299999999998 1.2644959999999998 -1.612443
22880 2.44531908 3.89998512 2.7821160000000003 -1.759103 0.874266 -1.32198
22900 2.5215035400000003 10.27373832 3.1469106600000005 -2.074333 0.671094 -1.65507
22920 1.60032492 13.46045796 2.3852916900000003 -2.194071 0.8919790000000001 -1.378452
22940 -0.30596409 14.83639875 1.72336194 -2.133103 0.471014 -1.1200450000000002
22960 -1.3066331400000002 11.97090756 2.54890287 -2.420575 -0.452222 -1.226624
22980 -0.79305021 8.78074461 2.18800278 -2.541402 -0.502236 -1.933498
23000 0.44068482 7.73860869 2.7012816 -2.471238 -0.558937 -1.934004
23020 1.48191822 8.18303112 2.8901927700000005 -2.377209 -0.97037 -1.424346
23040 1.8582396300000001 9.92226564 2.8584574200000006 -2.081379 -1.263637 -1.069391
23060 1.7112367800000001 11.90863368 1.88757153 -1.429566 -1.06319 -0.613237
23080 1.3662092700000001 13.17544803 0.2881491300000001 -0.921118 -1.275225 -0.244082
23100 1.10425284 13.06961775 0.7036909200000001 -0.5555770000000001 -1.5991799999999998 -0.000763
23120 1.63610199 11.60926191 2.4866289900000003 -0.043806 -1.796373 0.117364
23140 2.06285661 10.66262634 2.98464345 0.6408689999999999 -1.302657 0.199494
23160 1.6067602800000003 10.4347989 3.1153224600000002 1.599028 -0.426657 0.348206
23180 0.33260805000000004 9.49101804 4.19008644 2.652196 0.303924 0.816098
23200 0.04550859 9.12622338 4.53616362 1.948781 0.721654 0.5916640000000001
23220 0.8416980000000001 8.90064243 3.4211394 2.502362 0.953657 -0.096974
23240 1.38656502 10.07554689 1.95942978 2.183455 1.060731 -0.48924
23260 1.1862840600000002 11.244918509999998 1.04542227 0.957602 -0.30803 0.276276
23280 0.5215192200000001 11.572582319999999 1.5864045300000003 1.832735 0.499355 0.074119
23300 0.6719555700000001 11.21692077 3.8375739 1.207472 0.471978 0.5355310000000001
23320 1.3534857000000002 12.32566659 5.42427273 1.46028 0.769202 0.8456319999999999
23340 2.2558095 10.6630776 1.73743929 1.540834 0.821282 0.5395479999999999
23360 3.59342262 9.0462915 -0.51537816 1.166548 0.79835 0.4718020000000001
23380 3.7958029200000003 10.681638120000002 1.2766930200000002 1.250204 0.883331 0.459459
23400 2.4776430300000003 9.74473407 6.33781917 1.259727 0.688112 0.5195960000000001
23420 3.39928272 9.26962596 4.782110129999999 1.205236 0.300121 0.624398
23440 3.5121467700000006 11.417652990000002 0.78616359 0.957338 0.155394 0.801245
23460 1.8781441200000002 14.08675779 3.5298145800000005 0.580137 -0.235114 1.01596
23480 -0.13202298 13.24341171 6.19831116 0.7952100000000001 -0.48654 1.101106
23500 -0.05403348 8.8350822 5.1683004 1.0887209999999998 -0.045235 1.04277
23520 0.64950048 6.808895370000001 4.56925275 1.207241 0.180323 1.010194
23540 -0.09580446000000001 4.7635398 5.40196479 1.275699 0.261832 0.8140149999999999
23560 -0.5001138 4.35668967 5.31619596 1.251493 -0.15348299999999998 0.799423
23580 -0.06795387 5.188960260000001 4.06749087 1.307294 -0.203147 0.916312
23600 -0.39368511 5.220244350000001 3.44822481 1.460859 -0.163421 0.971813
23620 -0.09310671 2.9192303699999997 4.03890453 1.277875 -0.368047 0.887476
23640 0.3153915 -0.36644274000000004 4.29636798 1.023866 -0.4627350000000001 0.811048
23660 0.27961443 -3.63084777 2.08545885 0.68192 -0.01037 0.669211
23680 0.7626686400000001 -2.7117586800000004 3.5073594900000002 0.161276 0.33710500000000004 0.539078
23700 0.73362123 7.089255360000001 5.89309263 -0.411557 0.657254 0.361615
23720 -1.4991347700000002 18.52682265 3.1883677200000005 -1.069898 0.891619 0.132389
23740 7.740099810000001 18.888321150000003 4.76114616 -1.795964 0.853085 -0.257193
23760 0.9563572800000001 8.60800032 4.24980972 -2.000553 0.7752899999999999 -0.870613
23780 -1.16158248 4.90559841 1.93562091 -1.821895 1.165119 -1.541776
23800 1.7811428400000002 7.455698100000001 5.3989727400000005 -1.835177 1.19741 -1.879469
23820 2.58976152 10.415944080000001 3.15199224 -1.76308 0.798037 -1.7021970000000002
23840 1.66663071 11.14686756 1.6163348400000004 -2.201233 1.245373 -1.569098
23860 0.65683836 10.825933410000001 3.06397692 -2.413586 1.054031 -1.753002
23880 -0.30790647 10.161619830000001 2.94512877 -2.466133 1.115621 -1.392389
23900 -0.41853384000000005 9.66585186 2.1143493000000007 -2.232801 0.344675 -1.140876
23920 -0.28845324000000006 9.416619 1.6251736500000002 -2.634247 -0.526122 -1.474781
23940 0.2282787 9.61780248 1.052613 -2.898206 -0.617169 -2.185807
23960 0.37032750000000003 10.07210358 2.66445486 -2.858718 -0.706418 -2.278352
23980 1.6700740200000002 10.955268450000002 3.1747514400000005 -2.884244 -1.327354 -1.488319
24000 1.86676452 11.23248924 2.7946924200000005 -2.414026 -1.355543 -0.974388
24020 1.6355035800000002 11.667189960000002 1.4311710900000003 -1.763937 -1.2490450000000002 -0.465783
24040 1.51050456 12.100389750000001 0.01886463 -1.089519 -1.147171 -0.153555
24060 2.2975706700000007 12.4560513 1.4260797 -0.4883770000000001 -1.337467 0.027145
24080 2.66356215 12.657224970000001 1.8163215000000001 0.237771 -1.514245 0.181994
24100 2.7039793500000004 12.207112740000003 1.8492536700000002 1.008223 -1.28548 0.380431
24120 1.9145196 11.927645459999999 3.4902900900000002 1.504289 -0.13436099999999998 0.593929
24140 0.01241946 11.15974809 5.83411491 2.188017 0.788953 0.603931
24160 -0.9813629700000001 9.893522339999999 4.57493274 2.395715 0.6512720000000001 1.021096
24180 -0.45804852 8.25023943 3.42293463 2.520485 0.8829309999999999 0.789867
24200 -0.3153915 7.820482950000001 2.66356215 2.96723 1.342854 -0.592018
24220 -1.35528093 8.48824965 0.9096616800000001 1.322278 0.371145 -0.187792
24240 -1.3364163 10.33750332 0.14130323999999997 1.154964 -0.361885 -0.012833
24260 0.9047174400000001 11.25973161 1.20618855 2.013845 0.629949 0.026078
24280 3.4419464100000003 12.89762883 4.8529089 1.628339 0.635429 0.5874
24300 3.31590753 13.82375169 3.46005567 1.513847 0.655796 0.920927
24320 2.3155327800000003 11.40119181 1.03943817 1.467408 0.5184770000000001 0.669747
24340 2.90635965 9.17262468 0.99737289 1.213131 0.38111 0.610463
24360 2.4022041300000003 10.47401928 3.97857303 1.168423 0.317696 0.523706
24380 3.70853316 8.82384975 4.8440799000000005 1.256318 0.381417 0.496464
24400 4.25968839 10.142755200000002 1.7648288100000002 1.146254 0.069927 0.6990569999999999
24420 2.626137 13.281876720000001 1.0340524800000002 0.932626 -0.143769 0.7779550000000001
24440 0.67449636 13.484404170000001 4.11000741 0.791764 -0.37556 0.790087
24460 -0.87298209 9.0841581 5.586530130000001 0.721064 -0.410582 0.81848
24480 0.32153256 5.137761870000001 3.8552319 0.958365 -0.110848 0.781297
24500 0.4379870700000001 3.8230452900000005 4.28169222 1.143608 0.011123 0.7546609999999999
24520 0.43394535 4.024081620000001 5.1819264899999995 1.200823 0.131415 0.726065
24540 0.8226862200000001 5.125489560000001 5.761373760000001 1.364172 0.107609 0.67703
24560 -0.17963091 5.313949470000001 5.144648490000001 1.174844 -0.066174 0.610768
24580 -0.48005235 3.0916705500000004 4.26223899 1.195966 -0.5850529999999999 0.614785
24600 -0.07873506000000001 0.6753988800000001 4.44874671 1.342651 -0.209611 0.6377619999999999
24620 -0.4326013800000001 0.6717986100000001 6.07287069 0.903365 -0.28412600000000005 0.738406
24640 -0.09385227000000002 0.62390619 3.9375574200000005 0.581266 -0.077191 0.6835479999999999
24660 2.16135882 -1.03853565 2.2987674900000004 0.125305 0.368269 0.502468
24680 3.3611120100000003 4.53451554 7.57903923 -0.416868 0.973254 0.196667
24700 -2.14787988 21.23618769 6.32539971 -0.993965 1.193688 -0.08217999999999999
24720 3.78712107 22.313345310000003 0.96728562 -1.709587 1.193113 -0.383075
24740 3.18088269 11.25793638 6.422989590000001 -1.804278 1.408733 -0.941625
24760 0.76296294 2.9177294400000005 2.23650342 -1.559665 1.848027 -1.519455
24780 1.3181598900000002 3.8128723200000003 3.2085763199999997 -1.783473 2.531868 -1.841293
24800 2.0348686800000007 10.535841900000001 3.64327704 -1.960674 2.0626990000000003 -1.575943
24820 1.7950632300000002 13.05315657 1.8226097100000003 -2.271843 2.353757 -1.365913
24840 0.9577110600000001 12.105922590000002 1.9257422400000002 -2.980418 0.564802 -1.4615049999999998
24860 0.27961443 10.711725390000002 2.8478233800000003 -3.118387 0.087962 -0.910655
24880 0.24009975 9.146726280000001 2.93779089 -2.891793 0.7728430000000001 -0.552096
24900 0.03382488 8.772357060000001 2.06839926 -3.061835 1.013592 -0.936016
24920 0.25536411 9.2925225 1.7904231000000002 -3.1304540000000003 0.03444 -1.36787
24940 0.05972328000000001 9.61031745 1.9576247400000002 -2.894925 -0.783141 -1.17717
24960 0.2894931 9.703571310000001 2.6271866700000004 -2.477129 -1.450736 -0.5581010000000001
24980 1.06158915 10.04336028 3.1213065600000003 -1.7662779999999998 -1.975464 0.043605
25000 1.53685422 10.637032050000002 2.23141203 -0.8290639999999999 -2.0056540000000003 0.38668
25020 1.6585472700000001 11.391764400000001 1.89565497 0.159306 -1.849551 0.452136
25040 1.41844752 11.78424288 2.04684669 1.153747 -1.058549 0.513616
25060 0.7279314299999999 12.594656790000002 -0.34967745000000006 1.85911 0.371896 0.490005
25080 0.75578202 12.212949690000002 2.3632878600000002 2.462758 1.333519 0.31352800000000003
25100 1.5293691900000002 11.369760569999999 4.45683015 2.773136 1.343083 0.582739
25120 1.4167994400000001 10.21880232 2.04534576 3.783757 1.295259 0.477696
25140 1.1192229 9.548347680000001 3.4298212500000003 4.727905000000002 2.070059 -0.159772
25160 0.89888049 9.270371520000001 4.04144532 2.313931 1.241882 -0.615679
25180 1.6703781300000002 9.17217342 3.4627534200000003 0.8289989999999999 -1.569413 -0.386372
25200 1.5033236400000003 10.52520786 1.81273104 1.373382 -0.262765 -1.278346
25220 0.66387213 11.6607546 -0.29818476 2.297464 1.305403 0.02933
25240 1.6774119 11.4239412 1.5012243 1.725006 2.001073 1.577635
25260 4.0838049000000005 11.61285237 5.2196459399999995 1.898026 2.25623 1.555015
25280 3.87634302 13.00046706 6.28797456 1.954737 2.2570240000000004 1.041596
25300 2.7440924399999997 12.68342748 1.5736809600000001 1.69314 1.779233 0.606683
25320 4.67418051 10.71366777 -0.06811083000000001 1.658135 1.4676 0.247915
25340 4.185446310000001 10.801241639999999 -1.2549933 1.605399 1.371884 0.254079
25360 4.11240105 9.82466595 4.01075964 1.405489 1.135833 0.5830649999999999
25380 4.60008558 9.22082121 6.49050201 1.178801 0.793682 0.82868
25400 2.61850482 11.865528540000001 4.42180845 0.898123 0.649331 0.940136
25420 0.8834591700000001 12.9738231 3.87453798 0.855024 0.613981 0.760419
25440 -0.9090632700000001 10.9090143 4.21568073 0.910642 0.7039890000000001 0.58123
25460 -1.5310172700000002 5.82454035 3.0822431400000005 0.960322 1.167795 0.435705
25480 -0.94214259 3.52173114 3.62635479 0.7422949999999999 1.22858 0.342237
25500 -1.46545704 3.0326928300000002 5.664068370000001 0.570857 1.266605 0.305739
25520 -1.57203288 4.801563360000001 4.99435929 0.4814270000000001 1.291488 0.287991
25540 -1.3627659600000002 2.31598404 4.7244763800000005 0.452624 1.548244 0.306689
25560 -0.17992521 -1.14871176 4.2858909 0.413581 1.734441 0.396977
25580 -0.49007817000000004 -1.14272766 2.7244822500000003 0.363734 1.682998 0.517403
25600 0.8439444899999999 -0.23516532 0.98091171 0.436794 1.332227 0.527977
25620 3.20393619 -0.32138541 3.10169637 0.5363979999999999 1.003422 0.35070100000000004
25640 -1.31261724 3.8853191700000003 2.4709133700000003 0.505642 0.7639050000000001 0.06878300000000001
25660 -2.26344168 16.06938822 2.6866156500000002 0.437758 0.366728 -0.181146
25680 5.59446642 39.83650686000001 2.96309088 0.352613 0.6769109999999999 -0.154365
25700 6.4852634700000005 17.497116000000002 3.3783285600000004 0.075849 0.786764 0.052933
25720 5.160668220000001 -3.04646607 4.421504340000001 -0.078555 0.4929310000000001 0.40688
25740 5.93126334 -5.94847989 3.72186495 -0.21902600000000005 0.5425449999999999 0.375925
25760 4.78046205 4.93508727 2.24009388 -0.338129 0.967379 -0.000397
25780 2.5176187800000003 13.365251910000001 2.06540721 -0.637069 0.724089 -0.438008
25800 0.7800323400000001 15.87897612 -0.46882971 -1.040847 0.7142229999999999 -0.8168300000000001
25820 -2.17572066 12.920976630000002 -0.33186249000000007 -1.438708 1.236309 -1.029649
25840 -3.9748354200000002 9.039247920000001 0.5116405499999999 -1.685301 2.430123 -0.992309
25860 -3.09601638 7.168588830000001 -0.18022932 -1.804452 3.102347 -0.631875
25880 -1.5778698300000003 6.956035560000001 0.10552617 -1.497869 3.124126 -0.217428
25900 0.49636638 8.242155990000002 0.25387299 -1.233016 3.240043 -0.397324
25920 2.85022683 9.80461431 0.8768766600000001 -1.295527 2.256365 -0.768242
25940 3.32458938 9.82841337 1.6396924500000003 -1.580572 1.756722 -0.514288
25960 1.7215667100000003 8.53539651 1.07581365 -1.449552 2.265254 -0.194626
25980 0.77329287 8.65574559 0.055230299999999996 -1.240523 1.799954 -0.165864
26000 0.54292464 9.35419797 -0.33964182000000004 -1.426556 0.526528 -0.16553099999999998
26020 0.32423030999999997 9.51466014 -0.47780586 -1.499133 -0.105276 -0.078703
26040 0.63243108 9.811343970000001 -0.27977139 -1.535267 -0.363692 0.107247
26060 0.92073717 8.98296795 -0.20551950000000002 -1.316354 -0.171171 0.257012
26080 1.13613534 8.2137168 -0.57854475 -0.934497 0.262326 0.475973
26100 0.64575306 8.38796202 -0.40416219000000003 -0.487594 0.7433109999999999 0.750875
26120 -1.43281917 9.26902755 0.8918467200000001 -0.110733 0.953365 0.90813
26140 -3.99219912 10.58733459 2.28439584 0.292392 0.987897 0.980336
26160 -4.6783693799999995 11.602218330000001 2.24473401 0.600514 0.946323 0.986814
26180 -3.0214701900000005 11.71748583 2.24757891 0.897394 0.900984 0.878919
26200 -0.67210272 10.1743434 2.5397697600000004 1.147639 0.8826069999999999 0.729003
26220 0.79050942 9.899064990000001 1.4518309500000002 1.259048 0.8316959999999999 0.577091
26240 1.84745844 10.44976896 1.2317926500000003 1.377731 0.98419 0.434583
26260 2.0658584700000002 12.24932517 0.89678115 1.369784 0.706868 0.262899
26280 2.3870869200000002 13.829588640000003 0.72225144 1.157335 0.096562 0.156443
26300 3.1364237700000004 14.038110000000001 0.94827384 0.907741 0.444212 0.014316999999999996
26320 4.65262794 13.5784134 2.13321393 0.42779 1.721745 -0.16906500000000002
26340 5.5121409 11.45493099 3.81227391 0.1018 2.164462 -0.30971
26360 5.529200490000001 9.705670650000002 3.73877739 0.166738 1.468637 0.216132
26380 5.825433060000001 9.29117853 2.9328466500000006 0.011966 0.515811 0.467304
26400 7.078483980000001 10.21490775 2.34322641 -0.471016 0.056236 -0.068524
26420 9.1214361 11.81822472 1.19690829 -0.526542 0.695736 -0.369901
26440 7.8086619 9.807007950000001 -0.7212017700000001 1.089246 2.730026 -0.341994
26460 3.50241525 9.86613282 1.01549196 1.788004 2.889259 0.788589
26480 1.7958186 9.53202384 1.2156257700000002 0.962837 1.907754 1.333149
26500 1.11338595 9.234143190000001 0.21390705000000002 1.409922 2.884689 0.394985
26520 -0.5020561800000001 8.99315073 0.22483539 1.849799 2.712407 -0.324908
26540 -0.45999090000000004 8.183933640000001 2.15102889 1.503059 2.51308 -0.526832
26560 1.2546891900000001 7.01006904 3.0656250000000003 1.569858 2.197686 -0.03458
26580 2.61386469 6.104606040000001 3.42217926 1.710525 3.049882 0.381918
26600 3.0539511 5.35810428 3.8428124400000003 1.717516 3.282743 0.484217
26620 3.05364699 4.970118780000001 3.6952111800000003 1.5850229999999998 3.035813 0.279578
26640 1.6164918 4.60532412 3.29734701 1.418315 2.721029 0.023512
26660 0.09609875999999999 5.09181183 3.5531623800000003 1.205026 2.909538 -0.046586
26680 -0.5812425 5.9040209699999995 3.5136477 1.110116 3.254623 0.051654
26700 -0.70413237 6.27539814 3.53445471 0.805283 3.183908 0.151096
26720 -0.56253483 6.7156317 3.7305468000000004 0.639031 2.857016 0.25824400000000003
26740 -1.3594698 7.14524103 4.1893408800000005 0.531357 2.65492 0.27484200000000003
26760 -2.03831199 7.2512184600000005 4.67327799 0.448559 2.194264 0.194738
26780 -1.95089508 7.89098742 5.03268696 0.529262 1.92521 0.009776
26800 -2.03367186 9.30464766 6.1929254700000005 0.470604 1.826759 -0.094125
26820 -1.7485147800000003 12.171335670000001 8.593030259999999 0.316389 1.643329 0.089835
26840 -1.5239835 15.0449103 10.477609740000002 0.157264 1.33945 0.296348
26860 1.77291225 14.86469079 9.17247753 0.100533 1.4052639999999998 0.403758
26880 7.097044500000001 13.165422210000001 7.073991 0.09528 1.366098 0.346087
26900 11.03160987 14.037207480000001 4.6821168 0.287568 1.123851 0.286852
26920 9.492656310000001 16.65616356 1.55990772 0.351812 0.971158 0.32061100000000003
26940 1.78249662 8.25219162 0.35999757000000004 0.331093 1.070456 0.281883
26960 -0.29713509 0.47900268000000007 0.43080615000000005 0.248933 0.875617 0.326424
26980 5.14555101 -3.9549211200000003 -1.8679613400000001 0.162894 0.8954610000000001 0.499918
27000 7.55658414 3.9431000700000003 1.01444229 0.154299 1.164823 0.545447
27020 2.88419886 18.61244433 0.90995598 0.157624 1.231766 0.584908
27040 1.4129146799999999 21.649326029999997 -4.2348396600000004 -0.04369 1.279333 0.31959
27060 2.87058258 11.32679277 -2.13531327 -0.378828 1.0267959999999998 0.094315
27080 2.46851973 5.012478360000001 0.48065076 -0.682125 1.617063 -0.201253
27100 1.56110454 6.22839843 0.61462593 -1.290409 1.573412 -0.212924
27120 0.69276258 8.71861788 -1.95553521 -1.6843669999999995 1.738881 -0.225502
27140 0.20207619000000002 11.382327179999999 -2.6882637300000005 -1.618219 1.785227 -0.417379
27160 0.42241860000000003 12.30636051 -2.94183261 -1.637373 1.7353619999999998 -0.717619
27180 -0.78226902 10.97921466 -1.9423603800000002 -1.883916 1.250306 -0.947319
27200 -0.40685013000000003 8.67206943 0.24129657000000002 -2.278585 0.898542 -1.082085
27220 0.55204794 8.37777924 0.69845238 -2.535661 0.985416 -1.006011
27240 -0.33934752000000007 9.787250610000001 -0.13262139 -2.403952 1.293079 -0.803592
27260 -2.626137 10.13423031 0.011673900000000001 -2.319191 1.721637 -0.956305
27280 -3.7305468000000004 10.74855213 -0.5185173599999999 -2.1987330000000003 2.330771 -1.275642
27300 -3.43341171 10.928477339999999 0.036071370000000005 -2.034832 2.179074 -1.57661
27320 -1.63565073 9.90190989 1.19271942 -2.107517 1.5003799999999998 -1.751436
27340 0.00359046 8.59273596 1.55466918 -2.365984 0.368311 -1.873568
27360 0.9370512 7.747584840000001 1.56739275 -2.724262 -0.733276 -2.07228
27380 0.21345579 8.248444200000002 0.95905503 -2.867329 -1.216363 -1.819492
27400 -0.21001248 9.420955020000001 0.18202455 -2.852574 -1.67131 -1.28149
27420 0.08861373 9.963428400000002 -0.24997842000000003 -2.650392 -1.953431 -0.968864
27440 0.9632439 10.14739533 0.5298969600000001 -2.03135 -1.753661 -0.581304
27460 0.19235448000000002 11.87181675 1.32175035 -1.238741 -1.68848 -0.25324800000000003
27480 -0.23545962 12.657381930000001 0.43499502 -0.431109 -1.734679 -0.056336
27500 1.89804861 13.81117527 1.56544056 0.24603000000000005 -1.523117 -0.003807
27520 2.8584574200000006 13.68409653 2.02948299 0.750492 -1.1751120000000002 -0.089392
27540 1.61589339 13.29729804 0.43529913000000003 1.249097 -0.620877 -0.328038
27560 1.46440737 14.742242370000001 0.2860596 1.830412 -0.223239 -0.371488
27580 0.92238525 15.66252828 0.6497947800000001 2.095963 0.295746 0.413776
27600 -0.33590421000000004 13.910727150000001 3.29823972 1.162214 0.362451 0.525741
27620 -0.54561258 11.956388760000001 2.35849077 3.013819 0.064739 0.111768
27640 0.26808768000000005 11.152410210000001 1.8450648 2.250228 0.40484 -0.094828
27660 1.8010571400000002 11.45777589 1.81991196 1.051321 -0.589562 0.269813
27680 3.5233694100000004 11.22052104 1.80614853 1.84987 -0.045675 0.227693
27700 2.71819404 11.36092176 0.14505066000000003 1.756655 0.790148 0.678896
27720 1.62037656 11.063198069999999 -1.0876347 1.6394990000000005 0.954239 1.03679
27740 2.736009 11.515105530000001 0.43769277 1.5436219999999998 0.998092 0.809602
27760 4.86548532 12.723687720000001 2.8975208400000003 1.297326 0.890863 0.665945
27780 5.516781030000001 12.389882850000001 3.62575638 1.251468 0.763827 0.77261
27800 5.33700297 11.60910495 2.73271284 1.157541 0.294311 0.786442
27820 4.1185323 10.47267531 2.6208984600000003 1.003863 0.090138 0.829427
27840 2.3096958300000003 10.97667387 2.7598080600000006 0.852376 -0.053513 0.92042
27860 1.34570637 10.640024100000002 2.18291139 0.6554409999999999 -0.205113 0.907489
27880 0.49007817000000004 11.795171220000002 1.66229469 0.669828 -0.149529 0.8476969999999999
27900 -0.42586191 10.600058160000001 1.57008069 0.8848590000000001 0.107962 0.7377739999999999
27920 -0.28245933 8.598720060000002 1.3527401400000003 1.007862 0.276403 0.599549
27940 0.063765 5.75642952 1.6763622299999998 1.068294 0.479348 0.411704
27960 1.4305726800000003 3.0359889900000003 2.34083277 0.66951 0.29113 0.407023
27980 1.18418472 1.8473112900000002 4.05357048 0.518556 -0.13405699999999998 0.573156
28000 0.33440328 1.8525498300000003 4.9539519 0.998509 0.39443 0.662357
28020 -0.84619098 2.35011303 5.276082870000001 0.8344 0.003878 0.703372
28040 -1.12596237 2.60293635 4.49335278 0.936857 -0.05374 0.6379319999999999
28060 -1.7453657700000003 1.78697979 4.488114240000001 0.909924 0.13911400000000002 0.651384
28080 -2.9952676800000004 2.23230474 5.3510705100000004 0.753033 0.12157 0.646037
28100 -1.63445391 1.9227501900000001 3.60884394 0.677136 0.473737 0.555325
28120 2.11225977 0.53020107 4.17855969 0.322247 0.808359 0.565236
28140 7.29462771 9.43458111 10.16251254 -0.24217600000000006 1.201577 0.489219
28160 0.10896948000000001 17.4595437 7.40031084 -0.88045 1.191768 0.29890300000000003
28180 0.91070154 17.584385760000004 -1.8974502000000002 -1.4403709999999998 0.632617 -0.309974
28200 1.16652672 11.389665059999999 6.28917138 -1.298283 0.778277 -1.160541
28220 1.32309432 6.159542040000001 3.3078240900000004 -1.254648 1.11181 -1.7556630000000002
28240 1.99579545 5.936354730000001 3.30467508 -1.533875 0.942332 -1.7552599999999998
28260 2.70592173 10.58164479 3.5634923100000013 -1.979334 1.048522 -1.285285
28280 1.60257141 11.953092600000002 2.26329453 -2.40693 1.097954 -1.288335
28300 0.33844500000000005 11.04687423 2.21045787 -2.476722 0.994883 -1.292964
28320 -0.55324476 9.967322970000001 2.4662732400000005 -2.368774 0.379625 -1.23801
28340 -0.5070004200000001 9.72497673 1.97335017 -2.492259 -0.234975 -1.679261
28360 -0.48723327000000005 9.608669370000001 2.2162948200000003 -2.555246 -0.220265 -2.371927
28380 -0.5144756400000001 9.59190408 1.90823139 -2.69166 -0.596097 -2.306169
28400 -0.03562992 9.42006231 1.7221651200000003 -2.714194 -1.399831 -1.891894
28420 0.53020107 9.38398113 2.38783248 -2.376367 -1.474332 -1.403398
28440 0.7517402999999999 10.10338767 2.5768908000000006 -1.8933830000000005 -1.301117 -0.91741
28460 0.5870794500000001 10.477756890000002 2.5872207300000003 -1.325762 -1.151223 -0.53335
28480 0.5605826400000001 11.29086855 2.6461984500000004 -0.786794 -1.348994 -0.294324
28500 0.82478556 11.780348309999999 0.42676443000000003 -0.189305 -1.465521 -0.176769
28520 0.9654903900000001 11.235785400000001 2.3900789700000002 0.513592 -1.551835 0.019463
28540 1.454823 11.073969450000002 3.30527349 1.239031 -1.072807 0.276017
28560 1.2855220200000002 11.39865102 1.1216165400000002 1.7141509999999998 -0.123809 0.437284
28580 1.24975476 11.116633140000001 4.39591005 2.01631 0.349506 0.624659
28600 0.67016034 8.995995630000001 2.8451354400000004 1.968885 0.246541 1.106228
28620 0.6748004700000001 7.7746800600000014 2.7878058000000006 1.915841 0.607626 1.1630790000000002
28640 0.53319312 7.82392626 3.6398337300000003 2.720684 1.482835 0.045946
28660 0.59322051 8.772357060000001 3.0918177 2.006621 0.825199 -0.30964400000000003
28680 1.07296875 11.08879236 2.3156799300000004 0.609517 -0.7219220000000001 -0.079207
28700 1.1379305700000002 12.465478710000001 -0.19623924 1.532251 0.270609 -0.0035310000000000007
28720 0.6921641700000001 12.274625160000001 -1.75495014 1.565542 0.404483 0.32127
28740 1.58475645 11.59054443 2.5232987700000002 1.226897 0.3397 0.830666
28760 2.15686584 13.07381643 5.73681933 1.190014 0.30193200000000003 0.451237
28780 1.19226816 12.50050041 2.6858602800000004 0.781763 0.153124 0.456054
28800 2.0868126300000003 10.4259699 0.2863539 0.919815 0.365223 0.5753189999999999
28820 3.17669382 10.818006930000001 1.69447149 1.173592 0.581611 0.587497
28840 1.90105047 10.79196138 5.5043517600000005 1.082036 0.443222 0.642582
28860 3.44104389 11.288926170000002 2.79259308 0.82885 -0.015393 0.7322
28880 2.4941140200000005 12.269082510000002 0.48663486 0.675229 -0.348957 0.63221
28900 0.6212084400000001 13.61703537 2.65188825 0.75638 -0.199686 0.528968
28920 -0.7021899899999999 11.607309720000002 4.9539519 0.796295 -0.121979 0.508851
28940 -0.8855585100000001 8.09307342 3.6169273800000004 0.817136 0.08004800000000001 0.584581
28960 -0.44113608000000004 4.625385570000001 3.22534161 0.707961 0.086479 0.669268
28980 -0.16944813 3.52800954 4.15521189 0.8076300000000001 0.240379 0.724247
29000 -0.07409493 4.357739340000001 4.665047400000001 0.706393 -0.152579 0.779591
29020 -0.2989303200000001 5.36094918 4.8993102 0.922334 -0.244084 0.8314229999999999
29040 -0.07334936999999998 5.50001574 4.972512419999999 1.084832 0.161794 0.688896
29060 -0.5307994800000001 3.4121534400000004 4.58047539 0.954308 0.14483800000000002 0.513886
29080 -0.39218418 1.5320669400000002 4.3822839600000005 0.960747 0.129995 0.490449
29100 -0.8244814500000002 0.74021355 4.3604370900000005 0.68612 0.255649 0.474483
29120 -1.14153084 1.1255111100000001 3.6994098600000003 0.272355 0.260436 0.435267
29140 0.5334874200000002 1.06488531 2.3947191 -0.408565 0.381306 0.369467
29160 3.4643916900000002 3.4040700000000004 3.91690737 -1.044466 0.91684 0.196628
29180 5.01456789 7.974362610000001 11.0706831 -1.578698 0.8817 -0.14248
29200 -3.1311852300000003 22.318740809999998 1.34540226 -1.869022 0.8769600000000001 -0.835642
29220 0.35625996000000004 20.3432913 0.53468424 -1.84619 0.900278 -1.62386
29240 -0.08981055 7.5137733 5.66811009 -1.591081 0.599238 -1.952841
29260 0.07619427 1.8546393600000002 1.88892531 -1.400111 0.222351 -1.375252
29280 1.21831371 4.847964660000001 2.51372421 -1.865487 0.982068 -1.282268
29300 2.5128216900000004 12.63103227 2.75696316 -2.338761 0.670033 -1.6932349999999998
29320 1.43820486 13.736786040000002 1.67576382 -2.396033 0.278291 -1.447442
29340 0.14684589 11.39026347 2.50114779 -2.125719 0.023279 -1.312768
29360 0.3065625 9.66614616 3.7115350200000004 -2.241654 -0.496845 -1.677175
29380 0.7138638900000001 9.07922367 2.79962685 -2.448753 -0.618359 -2.011751
29400 0.25028253 9.69070059 1.4537733300000002 -2.646553 -1.1791049999999998 -2.003868
29420 -0.50564664 11.310625889999999 1.0115973900000002 -2.566912 -1.264379 -1.527844
29440 -0.37422207 11.731259070000002 2.03097411 -2.355042 -1.272717 -0.959127
29460 -0.06660990000000001 10.28510811 2.42615034 -1.922224 -1.131178 -0.500155
29480 1.16053281 9.703571310000001 2.9494647900000004 -1.293758 -1.068469 -0.21063
29500 1.88308836 10.415492819999999 2.6866156500000002 -0.5781930000000001 -1.215425 -0.04521
29520 1.5181465500000002 10.86021936 2.25805599 0.030013 -1.391362 0.001993
29540 0.72509634 10.799740710000002 1.25274681 0.6444300000000001 -1.378741 0.042588
29560 1.13239773 11.263174919999999 1.0538098200000001 1.236377 -1.103079 0.123281
29580 1.28792547 12.081829230000002 3.30033906 1.866393 -0.14913800000000002 0.2461
29600 0.9348047100000001 12.277921319999999 2.7665475300000004 2.42762 0.593558 0.5086470000000001
29620 0.39712842 10.605149550000002 4.3297416 2.033574 0.786643 0.782316
29640 -1.22594589 9.37949796 4.76339265 1.463928 0.7289439999999999 -0.011005
29660 -1.8646749900000001 8.24365692 2.90949885 3.855507 0.540549 -1.056939
29680 -0.3305087100000001 7.45270605 1.8443192400000001 0.6208560000000001 -0.253679 -0.235688
29700 2.06091423 8.37149103 2.5083385200000006 1.473823 0.29225500000000004 -0.03815
29720 2.19608622 10.715619960000001 1.72875744 1.978447 0.388211 0.30281
29740 0.49143195 11.27709531 1.2454089300000002 1.180669 0.576042 0.90802
