time Ax Ay Az Gx Gy Gz
20 -2.7581599800000003 11.227701960000001 0.7044364800000001 0.326982 0.236988 0.124826
40 -3.0400307100000004 11.472745950000002 0.64381068 0.214302 0.45419 0.250879
60 -3.16861038 11.459119860000001 0.5161237200000001 0.036997 0.475846 0.316911
80 -3.27099735 11.580969870000002 0.26001405 -0.288259 0.192865 0.237021
100 -2.7542752200000002 12.36488697 -0.9922913100000001 -0.646775 -0.214304 0.073737
120 -2.30071968 11.548930409999999 -2.52898857 -0.8509479999999999 -0.490872 -0.11641
140 -2.21524515 14.944475520000001 -2.7580128299999997 -0.937287 -0.567955 -0.211986
160 -2.83660074 15.140410650000002 -2.45639457 -0.932718 -0.5263220000000001 -0.237645
180 -2.2667378400000002 13.05749259 -2.8009708200000003 -0.657945 -0.167076 -0.00545
200 0.47930679000000004 16.89057351 -3.7115350200000004 -0.48289 -0.033813 0.349184
220 0.56641959 11.94935499 -3.7910156400000004 -0.542474 -0.091708 0.4930520000000001
240 0.92267955 8.648564669999999 -4.00970997 -0.448199 -0.127653 0.609124
260 0.46448388 7.235649990000001 -3.60525348 -0.32228 -0.102604 0.6292
280 -0.31344912 7.18745346 -2.6376637499999998 -0.216522 -0.025396 0.676841
300 -1.13957865 7.580088900000001 -1.87575048 -0.299713 0.024783000000000003 0.721061
320 -1.65526092 7.9754122800000005 -1.2880726200000001 -0.44793 0.074176 0.752009
340 -2.00942154 9.2170836 -1.10126079 -0.472454 0.049871 0.7240949999999999
360 -2.36553435 11.12995512 -1.51215264 -0.463394 -0.060988 0.7339140000000001
380 -2.5491971700000002 11.801910690000001 -2.52719334 -0.359999 -0.12933499999999998 0.686654
400 -2.6984367 11.38531923 -1.82679858 -0.311525 -0.222458 0.489491
420 -1.9923521400000002 10.3741731 -0.8918467200000001 -0.543747 -0.131144 0.4995020000000001
440 -0.6635680199999999 9.393114240000001 -0.43858548 -0.902735 -0.011742 0.255424
460 -0.30835773000000005 8.920851030000001 -0.36867942 -1.154827 0.132939 -0.009305
480 0.01616688 8.181383040000002 -0.36508896 -1.202939 0.164736 -0.193416
500 0.13426947 7.655979060000001 -0.14519781 -1.070469 0.312865 -0.321935
520 0.41134311000000007 7.244037540000001 -0.07394777999999999 -1.192178 0.5655140000000001 -0.5271399999999999
540 0.29338767 6.12122418 -0.1300806 -0.921481 -0.23631 -0.311645
560 0.21300453 5.79864195 0.23591088000000002 0.364325 0.399303 0.52653
580 -0.19518957000000003 6.29979561 0.9607031100000001 1.426564 1.105709 0.372811
600 -0.80502822 6.06284487 1.68759468 1.2484110000000002 0.5038020000000001 0.0016649999999999998
620 -0.64904922 8.15444478 2.24862858 0.590212 -0.437814 -0.248485
640 -0.18771435 9.64189584 2.51642196 0.262542 -1.013765 -0.32160700000000003
660 0.7156591200000001 10.75169133 2.57599809 0.15795399999999998 -1.237194 -0.300686
680 1.20618855 11.40837273 2.32392033 0.198099 -0.998009 -0.209914
700 3.0259533600000004 12.378208950000001 -0.51822306 0.351243 -0.564184 -0.141034
720 0.9139977 13.839624270000002 -0.5848329600000001 0.468974 -0.234397 -0.13102
740 -3.1952543400000004 16.076265030000002 3.8905577100000004 0.411197 -0.038166000000000005 -0.135948
760 -2.35984455 17.06286654 -0.07619427 0.19222 0.047129 -0.230522
780 -0.8089129800000001 8.794665 -3.7347356700000005 0.036685 0.214344 -0.3536
800 -0.78481962 9.700432110000001 -3.52382067 0.04853 0.53885 -0.529121
820 -1.06787736 8.647220700000002 -1.53071316 0.111523 0.870548 -0.68293
840 -0.44277435000000004 7.90610463 -0.49307022000000006 0.113515 1.020968 -0.738657
860 0.35715267000000006 8.26656327 -0.5498112600000001 0.12257 0.953606 -0.684028
880 0.6108785100000002 9.06904089 -0.7005419100000001 0.241263 0.844258 -0.614692
900 0.50160492 9.67917384 -0.8234415900000001 0.262933 0.754404 -0.540719
920 0.11570895 10.161914130000001 -0.93435345 0.056238 0.695004 -0.42565
940 -0.21465261000000002 10.770850260000001 -0.7575772500000001 -0.036761 0.74079 -0.339832
960 -0.28860039000000004 11.429778149999999 -0.42032907 0.028996 0.7773479999999999 -0.215506
980 0.10583028000000001 11.244015990000001 -0.29697813 0.05526 0.791747 -0.109587
1000 0.61582275 10.662930450000001 0.054190440000000006 0.074085 0.7998310000000001 -0.016531
1020 0.4596966 9.10092339 0.09370512 0.13258499999999998 0.7676390000000001 -0.008603
1040 0.25506981 7.43025096 -0.21435831 0.196539 0.664446 -0.098823
1060 -0.15837263999999998 6.16583025 -0.6017454 0.21656 0.5071260000000001 -0.201031
1080 -0.47331288 5.291641530000001 -0.94393782 0.224467 0.299642 -0.26907600000000004
1100 -0.88376328 5.186262510000001 -1.12101813 0.264996 0.031165 -0.297291
1120 -1.5051188700000002 5.7490916400000005 -0.942741 0.358931 -0.193942 -0.29527800000000004
1140 -1.9875648600000002 7.176230820000001 -0.8182030499999999 0.490546 -0.289434 -0.238689
1160 -2.4069914100000003 7.510182840000001 -0.4767561900000001 0.576861 -0.221922 -0.147374
1180 -2.91877911 7.9561062 -0.15253569 0.600504 -0.013894 0.02344
1200 -3.1216106700000004 8.610099660000001 0.033383430000000006 0.593487 0.172209 0.109679
1220 -3.4027260300000006 9.553134960000001 -0.11391372000000001 0.552762 0.16699 0.383934
1240 -4.044290220000001 10.37118105 -0.19534653000000002 0.519821 -0.00583 -0.058318
1260 -4.4393193 10.65349323 -0.21135645000000003 0.607471 -0.14391700000000002 -0.233786
1280 -4.60457856 10.35785907 -0.20941407000000004 0.7309399999999999 -0.247522 -0.27231500000000003
1300 -4.3872282 10.07210358 -0.37168128 0.598124 -0.064082 -0.21045300000000006
1320 -4.0478806800000005 10.019119770000001 -0.21151341 0.240485 0.107775 0.012224
1340 -3.5025624000000004 10.175834520000002 0.2225889 -0.192668 0.068013 0.207939
1360 -2.95799949 10.51383807 0.78601644 -0.5204989999999999 -0.124107 0.318058
1380 -2.1157030800000003 10.67400594 0.7202992500000001 -0.573427 -0.24758 0.33921100000000004
1400 -1.5031764900000002 11.64518613 -0.4366431 -0.493096 -0.26031 0.256467
1420 -1.95822315 10.928624490000002 -1.25274681 -0.329588 -0.356124 0.099635
1440 -3.0148778700000003 13.5291672 -1.9315791900000001 -0.22730300000000006 -0.553948 -0.068176
1460 -4.13605296 14.609915280000001 -2.7163988100000003 -0.358863 -0.750073 -0.191689
1480 -3.4120062900000003 15.13891953 -4.028270490000001 -0.599511 -0.818736 -0.12812
1500 -2.13306678 14.11909155 -4.06569564 -0.689063 -0.747169 0.16706
1520 -0.40670298000000005 11.726010720000001 -3.36589929 -0.849223 -0.807095 0.373253
1540 0.9530709300000001 9.35988777 -2.6343675900000005 -0.8222809999999999 -0.923549 0.434479
1560 1.15155666 8.198599589999999 -1.96675785 -0.527057 -0.97153 0.455831
1580 0.38036313000000005 8.33586111 -1.82320812 -0.08828899999999999 -0.864584 0.503624
1600 -0.42796125 8.42403339 -2.00583108 0.26721100000000003 -0.73193 0.58819
1620 -1.31007645 8.168816430000001 -2.35924614 0.30448400000000003 -0.599495 0.7367640000000001
1640 -2.04355053 8.227490040000001 -2.35310508 0.065339 -0.482099 0.889835
1660 -2.7165557700000003 9.302254020000001 -2.1255817500000003 -0.172691 -0.382701 1.014095
1680 -3.2292361800000005 10.90063656 -1.86377247 -0.24951 -0.373948 1.023161
1700 -3.13313742 11.798310420000002 -1.9567320300000002 -0.25345100000000004 -0.494598 0.8288719999999999
1720 -2.61386469 11.03265954 -1.4488389000000002 -0.331244 -0.590908 0.472734
1740 -2.139649290000001 9.564661710000001 -0.60623838 -0.481689 -0.638251 0.188665
1760 -1.5786153900000002 8.331976350000001 -0.00538569 -0.5941270000000001 -0.463383 -0.020648
1780 -1.6462749600000002 7.78096827 0.19369845 -0.571495 -0.237374 -0.082736
1800 -1.5796650600000002 7.395366600000001 0.055083150000000004 -0.5470079999999999 -0.071037 -0.142599
1820 -0.8704413 7.2302643 -0.02544714 -0.499498 0.116993 -0.318764
1840 0.022602240000000003 7.2533178000000005 0.12768696000000002 -0.531507 0.319645 -0.353431
1860 0.8416980000000001 6.978039389999999 0.27692649 -0.6039399999999999 0.162018 -0.299255
1880 1.25035317 6.7180253400000005 0.46029501 0.235753 0.337615 0.347318
1900 1.03120758 6.86233044 1.03449393 1.267821 0.522392 0.928994
1920 -0.016461180000000002 7.600591800000001 1.9002951000000001 1.551254 0.7159840000000001 0.48955
1940 -1.42593255 7.9062615900000015 2.39562162 1.075277 0.196665 0.235858
1960 -1.7139345300000002 8.83717173 2.35894203 0.53101 -0.626825 -0.083082
1980 -1.3939029000000003 9.711654750000001 1.6200822600000002 0.001566 -1.12697 -0.29017
2000 -1.34061498 11.16288729 1.5920845200000002 -0.463758 -1.259185 -0.38939
2020 -2.27437002 11.9527983 1.7606399400000001 -0.456647 -1.091999 -0.379941
2040 -1.5193433699999999 12.167598060000001 0.060174540000000006 -0.218529 -0.761721 -0.330631
2060 -1.47039147 14.067441900000002 0.3094074 0.02156 -0.42523 -0.238586
2080 -2.25311175 16.073125830000002 1.1118850200000001 0.24048000000000005 -0.093819 -0.189412
2100 -0.75638043 11.79636804 -1.1106882 0.342175 0.192493 -0.215774
2120 0.37766538 11.70385974 -1.8883269 0.333618 0.372765 -0.268407
2140 1.1105410500000001 10.44168552 -1.93951548 0.510465 0.475791 -0.34528400000000004
2160 0.8327218500000001 9.91313253 -1.3765392 0.704023 0.370482 -0.551033
2180 0.51477975 9.67498497 -1.25154999 0.692512 0.175499 -0.797622
2200 1.06698465 9.656571600000001 -1.4012407800000002 0.5260239999999999 0.032794 -0.929994
2220 1.60915392 9.80490861 -1.41635799 0.570761 0.032573000000000005 -0.913658
2240 1.28477646 10.33106796 -0.8994789 0.688876 0.136926 -0.738846
2260 0.17124336 10.959163020000002 -0.26704782000000005 0.6865020000000001 0.31603000000000003 -0.505152
2280 -0.9512757000000001 11.323349460000001 0.173637 0.530887 0.382596 -0.233927
2300 -1.66947561 10.654395749999999 0.26989272000000003 0.324259 0.366757 -0.090072
2320 -1.3931573400000001 9.43592508 -0.10628154000000001 0.17943399999999998 0.3866 -0.131702
2340 -0.8535288600000001 8.53584777 -0.48469248000000004 0.170158 0.375253 -0.216141
2360 -0.96264549 7.856260020000001 -0.5959084500000001 0.272625 0.29430100000000003 -0.307189
2380 -1.55916216 7.22981304 -0.5312409300000001 0.310687 0.135771 -0.388973
2400 -2.17048212 6.47103897 -0.88795215 0.29741 0.045208 -0.373995
2420 -2.4411204 6.268070070000001 -1.3757936400000002 0.27215700000000004 0.046781 -0.212872
2440 -2.20491522 6.0773636699999996 -1.6589985300000003 0.35983200000000004 0.171844 -0.129098
2460 -1.6121459699999998 6.628813200000001 -1.51694973 0.522513 0.394548 -0.019288
2480 -0.8542744200000001 7.38684171 -1.2322341 0.688847 0.445871 0.055515
2500 -0.39517623 8.174054970000002 -0.6846791400000001 0.742749 0.3508 0.074173
2520 -0.5471135100000001 8.52058341 -0.36972909000000004 0.525634 0.247097 0.088813
2540 -1.28223567 8.362809180000001 -0.28261629000000005 0.223665 0.284183 0.133658
2560 -2.4379812 8.1843849 -0.44442243000000003 0.002941 0.382563 -0.034653
2580 -3.4419464100000003 8.53151175 -0.7954438500000001 -0.096783 0.600917 0.058374
2600 -4.2968192400000005 9.102865770000001 -1.02162321 -0.190528 0.7106520000000001 0.136627
2620 -4.85845155 9.77737194 -1.06218756 -0.357783 0.584242 0.192237
2640 -4.98703122 10.319237099999999 -1.10231046 -0.472093 0.33315300000000003 0.212056
2660 -4.613701860000002 11.21931441 -1.1289544200000001 -0.58868 0.0342 0.215898
2680 -3.4307139600000003 11.06903502 -1.4733835200000003 -0.689214 -0.182116 0.053103
2700 -2.4496551 13.41795123 -2.8491771600000004 -0.708082 -0.316498 -0.157296
2720 -1.5988239899999999 13.50312165 -3.05649189 -0.830676 -0.50166 -0.366218
2740 -1.94056515 14.50588023 -2.4559433100000008 -0.97365 -0.588175 -0.451496
2760 -2.41642863 12.738961890000002 -2.06629992 -0.956982 -0.586471 -0.359514
2780 -1.3078299600000003 17.049848670000003 -3.0525973200000003 -0.747851 -0.656034 -0.194527
2800 -0.7722432 13.355078940000002 -3.6967121100000004 -0.439261 -0.5920449999999999 0.05217
2820 -0.025594290000000002 9.98139051 -3.97289304 -0.189498 -0.569361 0.289962
2840 -0.004188870000000001 7.850874330000001 -3.8574783900000003 -0.060055 -0.471778 0.549251
2860 -0.13636880999999998 7.25451462 -3.4919381700000005 -0.130842 -0.345605 0.759035
2880 -0.43365105000000004 7.607782530000001 -2.6337691800000003 -0.233102 -0.182773 0.8862979999999999
2900 -1.0267146 7.9396352100000005 -2.04519861 -0.311026 -0.135855 0.94231
2920 -1.46170962 8.84630484 -1.69147944 -0.310796 -0.168541 0.857964
2940 -2.03157252 10.55395116 -1.24495767 -0.188426 -0.16618 0.6943090000000001
2960 -2.7388539 11.76194475 -1.1374891200000001 0.020111 -0.15054800000000002 0.6006739999999999
2980 -3.24420624 11.72377404 -1.3980917700000002 0.073799 -0.091012 0.5838810000000001
3000 -3.2953948200000003 10.584636840000002 -1.41904593 -0.175008 0.098404 0.584037
3020 -2.7496350900000004 8.79361533 -1.38207204 -0.4902220000000001 0.34182 0.45761
3040 -2.0231947800000003 7.64340264 -1.28522772 -0.645891 0.390084 0.244952
3060 -1.3931573400000001 7.47949716 -0.77463684 -0.68365 0.267717 -0.023278
3080 -0.70173873 7.6550765400000005 -0.05837931 -0.583833 0.100264 -0.324673
3100 -0.2891988000000001 7.90162146 0.13950801 -0.427434 0.264524 -0.777786
3120 0.15926535 7.86479472 0.1158561 -0.685675 0.626005 -0.642252
3140 0.25042968 7.3199277 0.16151184 -0.723499 0.437907 -0.72346
3160 0.16466085 6.72911064 0.30611124000000006 0.048284 0.750097 0.454439
3180 -0.09071307 6.3250956 0.6185106900000001 0.86797 0.932147 0.571026
3200 -0.03981879 7.082368740000001 0.89454447 1.138511 1.030324 0.293984
3220 -0.08786817 7.672597199999999 1.20245094 0.8491690000000001 0.556977 0.103494
3240 -0.07619427 8.23631904 1.50197967 0.34526100000000004 -0.132069 -0.03908
3260 -0.10867518 9.28384065 1.68384726 -0.10648 -0.567923 -0.141021
3280 -0.6032463299999998 9.584723160000001 1.35258318 -0.387014 -0.816125 -0.166164
3300 -1.2506474699999999 11.09357964 1.4394114900000001 -0.416895 -0.7799550000000001 -0.12796300000000002
3320 -1.6218774900000001 13.04432757 0.41433516000000004 -0.273114 -0.35330900000000004 -0.120028
3340 -0.71087184 12.978757530000001 -1.2979512899999999 -0.083084 0.15520499999999998 -0.112943
3360 -2.8273204800000005 17.377816590000002 0.90726804 0.030224 0.618446 -0.172565
3380 -2.39576877 14.79957201 1.0463247900000001 0.131537 0.984947 -0.271672
3400 -1.03764294 13.435462079999999 -1.15170381 0.204081 1.185111 -0.307741
3420 -0.25193061 11.850411330000002 -1.9020903300000003 0.17652 1.187488 -0.345324
3440 0.33755229 8.95079115 -1.8136237500000003 0.094736 1.06184 -0.554038
3460 0.31898196000000006 8.49439071 -1.51095582 -0.03324 0.898935 -0.729911
3480 0.44906256 8.72820225 -1.6872905700000003 -0.129037 0.785939 -0.893874
3500 0.68707278 9.214837110000001 -1.89266292 -0.075411 0.78176 -0.960792
3520 0.39996351 9.899967509999998 -1.5506274600000003 0.09333 0.882124 -0.897785
3540 0.05852646 10.7126181 -1.02432096 0.161092 0.920682 -0.7424689999999999
3560 -0.18860706000000002 11.01095001 -0.7849667699999999 0.097116 0.916803 -0.5164479999999999
3580 -0.30596409 11.34221409 -0.30221667 -0.067993 0.791566 -0.223679
3600 -0.0025407900000000002 10.88820729 -0.00958437 -0.241438 0.654755 -0.225784
3620 0.34877493 9.40898682 -0.05613282 -0.297852 0.648702 -0.261421
3640 0.5376861000000001 8.06492853 -0.22273605000000002 -0.247336 0.653103 -0.340123
3660 0.34997175 7.466469480000001 -0.50235048 -0.220981 0.566787 -0.35585100000000003
3680 -0.48259314000000003 6.77745432 -0.6634208699999999 -0.137657 0.431954 -0.276048
3700 -1.6262135100000001 6.755303340000001 -0.8562168 0.063963 0.298718 -0.16551
3720 -2.73091761 6.96157821 -1.09886715 0.23576 0.187911 -0.043459
3740 -3.53400345 7.39701468 -1.5359517 0.305966 0.253263 0.069111
3760 -3.55735125 7.92346833 -1.738332 0.302727 0.311596 0.136311
3780 -3.0835871100000003 8.36864613 -1.49988033 0.33579499999999995 0.34755 0.17388399999999998
3800 -2.51117361 8.057296350000001 -0.77808015 0.440655 0.385653 0.14465699999999998
3820 -2.0127177 8.21192157 0.08876088000000001 0.513465 0.466271 0.167495
3840 -1.96481547 7.7050781100000005 0.68408073 0.509013 0.593333 0.097867
3860 -2.31658245 7.45778763 0.8704413 0.391293 0.639042 0.224104
3880 -2.96907498 7.31034333 0.65459187 0.176547 0.64991 -0.17585599999999998
3900 -3.80209113 7.534129050000001 0.38410074000000005 0.086713 0.480378 -0.05983
3920 -4.54649355 7.97077215 0.01975734 0.340179 0.554208 -0.360461
3940 -4.935832830000001 8.14815657 -0.20656917 0.805245 0.588579 -0.301709
3960 -4.77087768 8.4881025 -0.017363700000000003 0.866718 0.731348 0.17176
3980 -4.133806470000001 9.2287575 0.27108954 0.532625 0.983935 0.697872
4000 -3.80209113 9.895170420000001 0.5749542900000001 0.17422200000000002 1.036389 1.210184
4020 -3.4682862600000006 10.288257119999999 0.84992859 -0.001038 0.907187 0.905751
4040 -2.63586852 10.03692492 1.0548594900000001 -0.21705500000000005 0.63576 0.506143
4060 -2.1603091500000002 10.19259981 1.24735131 -0.254189 0.255174 0.076946
4080 -1.6693284600000002 11.354790509999999 1.0008162 -0.176859 -0.113756 -0.169869
4100 -2.33784072 12.7597689 0.92208114 -0.147793 -0.449854 -0.327332
4120 -3.5411843700000003 14.8046634 0.82239192 -0.206285 -0.723114 -0.40537
4140 -4.30594254 13.47153345 -0.21929274 -0.257619 -0.817475 -0.4729060000000001
4160 -4.882397760000001 16.50707118 -2.2897913400000003 -0.211639 -0.6690020000000001 -0.346725
4180 -5.00214843 14.883996870000002 -3.93097491 -0.078734 -0.225419 -0.036581
4200 -4.095930060000001 13.415999039999999 -3.74640957 -0.002512 0.169431 0.25507
4220 -2.5864751700000004 11.750859450000002 -2.99721987 0.021702000000000003 0.473457 0.394787
4240 -0.15118191 10.65829032 -2.6274907800000005 -0.021597 0.782647 0.367383
4260 0.5505568200000001 8.506358910000001 -2.50339428 -0.228758 0.848875 0.235528
4280 0.52001829 7.891438679999999 -2.1369515400000005 -0.554122 0.7237779999999999 0.099888
4300 -0.18306441 7.9575973200000005 -2.06270946 -0.8490700000000001 0.5280819999999999 0.010484
4320 -0.59171958 8.25233877 -2.35221237 -1.147371 0.347116 -0.029824
4340 -1.0118916900000001 8.75109879 -2.6587748700000002 -1.333523 0.301681 0.038369
4360 -1.8256017600000003 9.78261048 -2.18829708 -1.248227 0.345898 0.095524
4380 -2.72014623 10.46189412 -1.7687233800000002 -0.941989 0.374579 0.116854
4400 -3.0443667300000006 10.434946049999999 -1.60810425 -0.486736 0.326039 0.139324
4420 -2.1547665 10.198289610000002 -1.3151678400000002 -0.000254 0.133461 0.191039
4440 -0.77958108 10.04890293 -0.7987400100000002 0.30678 -0.093696 0.254363
4460 0.28396026 9.33204699 -0.76595499 0.380051 -0.340301 0.322489
4480 1.1404811700000002 8.589734100000001 -1.21337928 0.31011500000000003 -0.477453 0.315767
4500 1.57876254 8.27015373 -1.32265287 0.103331 -0.546589 0.202248
4520 1.57457367 8.414605980000001 -1.39120515 -0.025892 -0.455118 0.083724
4540 1.03419963 8.88522111 -1.28582613 0.010074 -0.17563099999999998 -0.043502
4560 -0.06795387 9.43577793 -0.8752285799999999 -0.040248 -0.10676 -0.17319600000000002
4580 -1.29450798 9.457183350000001 -0.6125265900000001 -0.34241 -0.282044 -0.298996
4600 -2.3107455000000003 8.566533450000001 -0.38948643000000005 -0.60761 -0.523578 -0.406293
4620 -2.8298612700000003 7.17682923 -0.07155414 -0.528986 -0.31311100000000003 -0.36008
4640 -2.82507399 5.627997000000001 0.03831786 -0.145722 0.360472 0.024158
4660 -2.70113445 4.63331205 0.2544714 0.262047 0.906618 0.28802
4680 -2.7315160200000004 4.48242444 0.66956193 -0.123553 1.070838 0.313958
4700 -2.5288414200000005 4.9034990700000005 1.19286657 -0.8348540000000001 1.582653 0.277356
4720 -2.1055203 5.74265628 1.7874310500000001 -0.420243 2.031557 0.34483800000000003
4740 -1.5488322300000001 6.7555976399999995 2.50669044 0.287739 2.086958 0.262118
4760 -0.9273196800000001 7.979159699999999 2.5972465500000004 0.213769 1.620166 0.110512
4780 -0.15642045 9.767493270000001 1.23119424 -0.469162 0.908592 -0.103786
4800 0.45879408 11.18608794 0.31898196000000006 -0.993624 0.619145 -0.258766
4820 0.31734369000000007 12.30516369 0.51193485 -1.022451 0.541664 -0.570789
4840 -1.51559595 13.3410114 1.43776341 -0.415891 0.8434020000000001 -0.6299640000000001
4860 -3.4590060000000005 13.01004162 1.58535486 0.227331 0.998097 -0.446208
4880 -3.5411843700000003 10.70543718 0.9276237900000001 0.357373 1.087725 -0.328978
4900 -1.9850240700000001 9.95714019 0.69231132 0.114939 1.426694 -0.171941
4920 -0.58004568 14.15875338 0.5578947 -0.297606 1.725512 0.050189
4940 0.45011223 18.17251488 2.06361198 -0.589653 1.838182 0.09928
4960 0.9951264000000001 17.439030990000003 1.39359879 -0.567542 2.020118 -0.129398
4980 3.0996068400000003 12.94433424 -1.50093 -0.333909 2.169737 -0.45163
5000 4.11104727 10.29034665 -3.4120062900000003 -0.097059 2.144403 -0.714862
5020 3.0624858 8.89749342 -2.8565052300000002 0.026635 2.066462 -0.777991
5040 1.73533995 7.259606010000001 -1.43042553 -0.199144 1.954186 -0.743105
5060 -0.28650105 6.4665558 -1.07550954 -0.643062 1.911193 -0.529301
5080 -1.62157338 6.891368040000001 -2.02573557 -0.917986 1.817172 -0.222385
5100 -1.6082514 8.17719417 -2.7789669900000002 -0.830683 1.790291 0.03036
5120 -1.15949295 9.71734455 -2.1188422800000004 -0.524714 1.893003 0.186189
5140 -0.053140770000000004 10.88086941 -1.23672708 -0.158694 1.959705 0.237798
5160 1.25963343 11.223356129999999 -0.73481805 0.07157100000000001 1.925851 0.24586
5180 1.9535830200000002 10.67609547 -0.53109378 0.102772 1.7319209999999998 0.231371
5200 1.8598779 9.525294180000001 -0.37137717000000003 0.018857 1.556524 0.210713
5220 0.6523453800000001 8.31775185 -0.66251835 -0.150633 1.357883 0.216193
5240 -0.7056333 8.167462650000001 -1.2320869500000002 -0.243744 1.093865 0.254337
5260 -1.8928100700000001 9.03386223 -2.07693396 -0.223198 0.921204 0.257907
5280 -2.7397564200000004 9.346418640000001 -2.5712010000000003 -0.060565 1.026095 0.25997600000000004
5300 -3.2458543200000003 9.45119925 -2.0676537 0.101097 1.168209 0.278015
5320 -3.2416556400000003 9.52544133 -0.4980144600000001 0.286963 1.302405 0.124249
5340 -3.0954081600000007 8.6011137 1.4365665900000002 0.556718 1.207842 -0.170711
5360 -2.9150415000000005 7.45165638 2.6195544900000005 0.363299 1.379899 -0.406223
5380 -2.25954711 6.7120412400000005 2.57794047 0.046402 1.557942 -0.699221
5400 -2.0231947800000003 6.57193482 1.7598943800000002 0.014902 1.939294 -0.667883
5420 -2.0070279 7.274419110000001 1.16413308 -0.049517 1.834116 -0.683154
5440 -1.9383186600000002 8.1843849 0.28905165000000005 -0.090962 1.903372 -0.650417
5460 -2.57899014 8.681800950000001 -0.23860863000000002 -0.234396 1.911938 -0.53713
5480 -3.28895946 9.70985952 0.29578131 -0.660784 1.943564 -0.351074
5500 -3.8363770800000006 10.917696150000001 1.7006125500000002 -1.128692 2.17382 0.014968
5520 -3.66033663 11.095522020000002 2.9222224200000007 -1.330929 2.34163 0.315647
5540 -2.10462759 11.005113060000001 2.672244 -1.222816 2.595153 0.491266
5560 -1.2633710399999998 11.36481633 3.09915558 -1.0027469999999998 2.5735360000000003 0.644518
5580 -0.82418715 12.36159081 1.1696659200000001 -0.866397 2.314098 0.6703720000000001
5600 -0.8156524500000002 13.034596050000001 0.54890874 -0.622908 2.289062 0.593056
5620 0.07439904 15.35207121 -0.32841918 -0.4389520000000001 2.17742 0.38084
5640 1.06578783 13.23518112 -2.8520220600000004 -0.6775770000000001 1.776557 0.13506400000000002
5660 2.45115603 12.45560004 -5.8905518400000005 -1.013533 1.2295049999999998 0.035142
5680 1.9760381100000002 11.320955820000002 -6.4674485100000005 -0.91149 0.94139 0.069339
5700 1.4456898900000001 10.41264792 -5.26754817 -0.48069 0.709566 0.127124
5720 1.28582613 10.5127884 -2.7622017 0.016609 0.542547 0.171405
5740 1.50167556 10.64511549 0.42167304000000005 0.323633 0.296284 0.217662
5760 1.839375 9.8652303 1.3304322000000002 0.228134 -0.075114 0.204652
5780 1.3563306 8.45981046 0.1038879 0.027039 -0.090904 0.065467
5800 0.54890874 7.90521192 -1.68145362 -0.00987 -0.156173 -0.097077
5820 -1.9296368099999999 8.32748337 -1.5694822800000003 -0.229538 -0.283692 -0.251204
5840 -3.3488397 9.2000142 -1.08748755 -0.370726 -0.228459 -0.35481
5860 -3.6140824800000004 9.55732383 -1.2819315599999999 -0.170159 -0.022375 -0.383583
5880 -3.09571227 9.325758780000001 -1.0548594900000001 0.341499 0.145208 -0.1121
5900 -3.1284972900000003 8.68583286 0.05194395 0.444491 0.341754 0.197083
5920 -3.2699476800000005 7.8920370900000005 1.8191664 0.006883 0.738755 0.39648
5940 -2.7650466000000002 7.17772194 3.2524368299999997 -0.5263720000000001 1.419601 0.558525
5960 -2.7012816 6.65396604 3.5176894200000004 -0.689067 1.842816 0.624145
5980 -2.75277429 6.1846850700000005 2.94707115 -0.274689 1.836453 0.5244979999999999
6000 -2.7544223700000003 6.534215370000001 2.6909516700000005 0.051378 2.093629 0.397191
6020 -3.2162085 7.178173200000001 2.7523230300000003 -0.446995 1.26469 0.068964
6040 -2.84049531 8.145762930000002 1.85973075 -1.1220450000000002 0.497223 -0.29369
6060 -2.08650852 9.03087018 1.94670621 -1.014337 0.130869 -0.412109
6080 -1.1078433 10.564428240000002 2.6039860200000002 -0.18956 0.427164 -0.365067
6100 -0.26779338 11.83963014 3.48055857 0.537511 0.6436689999999999 -0.259853
6120 0.06586434000000001 12.18077289 3.5464229100000004 0.8173520000000001 0.944196 -0.265761
6140 1.25918217 10.77713847 2.2978747800000003 0.850146 1.418944 -0.203115
6160 1.4365665900000002 10.1282364 2.58407172 0.796335 1.709321 -0.045766
6180 2.4688140300000003 13.697418509999999 2.6456000400000006 0.602205 1.758839 -0.006593000000000001
6200 3.4569066600000005 18.02431521 1.1289544200000001 0.223351 1.6814349999999998 -0.300765
6220 2.9174351400000003 17.546813460000003 -0.8544215700000001 -0.21882 1.6695939999999998 -0.685194
6240 2.9963173500000004 14.342573159999999 -2.95785234 -0.443971 1.833518 -0.990351
6260 4.05311922 10.032588900000002 -6.29186913 -0.293403 1.999587 -1.092062
6280 2.11779261 10.47012471 -5.21216091 -0.005117 1.914015 -0.988457
6300 -1.0011203100000001 10.944644220000002 -3.27817827 0.07259199999999999 1.732377 -0.654396
6320 -3.3283269900000003 9.687855690000001 -2.0022406200000002 -0.104171 1.60407 -0.38307
6340 -4.36821642 8.713977750000002 -1.98547533 -0.227589 1.513666 -0.312246
6360 -2.1806649 8.85034656 -1.14421878 -0.224479 1.338508 -0.46796
6380 -0.05883057 9.465718050000001 -0.28276344 -0.100522 1.192897 -0.658119
6400 1.72501002 9.36916803 -0.32377905 0.17335 1.065402 -0.713727
6420 3.28477059 8.85543795 -0.29414304 0.452923 0.862993 -0.688014
6440 3.8663073900000002 9.06140871 -0.31598991000000004 0.4610770000000001 0.662204 -0.565922
6460 2.67717843 8.935664130000001 -0.4337982 0.18261 0.648417 -0.340318
6480 0.48768453 8.773102620000001 -0.59202369 -0.003691 0.86598 0.02557
6500 -1.7970154200000001 9.05841666 -0.85637376 0.219077 1.062364 0.271497
6520 -3.8437051500000003 9.25944318 -1.19781081 0.683067 1.230417 0.466803
6540 -5.179081590000001 9.37141452 -1.73474154 0.89479 1.319234 0.450008
6560 -5.72918715 8.68494015 -1.81452627 0.64231 1.170951 0.454844
6580 -5.17518702 8.04382722 -0.9951264000000001 0.082996 1.000775 0.34006
6600 -4.117933890000001 7.86269538 -0.11915226000000001 -0.24185 0.766012 0.455596
6620 -3.05799282 8.24605056 0.41404086 -0.106766 0.814826 0.11998699999999997
6640 -2.6613156600000005 8.30652921 1.1180260800000001 -0.074036 0.613985 0.233705
6660 -2.122884 8.292157560000001 1.11967416 -0.326457 -0.06134700000000001 0.172987
6680 -2.40744267 8.50815414 0.77403843 -0.8654649999999999 -0.679196 -0.161135
6700 -3.1484017800000004 9.386227620000001 0.9723770100000001 -1.345476 -0.902383 -0.407757
6720 -3.5947764 10.73238525 1.6949227500000001 -1.207218 -0.7336020000000001 -0.378165
6740 -3.4816082400000004 11.35179846 2.16315405 -0.640211 -0.351051 -0.100162
6760 -3.3801237900000003 12.95196642 1.34270451 -0.435946 0.13885899999999998 0.284129
6780 -2.9349459899999997 14.355747990000001 -1.5147032400000002 -0.546528 0.314752 0.615348
6800 -4.23588933 15.874041690000002 -6.00910569 -0.535691 -0.038232 0.7002649999999999
6820 -4.123770840000001 15.761020680000003 -6.48885393 -0.264216 -0.624088 0.720004
6840 -3.12175782 14.160548610000001 -4.45683015 -0.054396000000000014 -0.948633 0.71334
6860 -0.8186445 10.920393899999999 -3.6051063300000004 -0.15090499999999998 -0.8395600000000001 0.693298
6880 2.9526138000000004 11.15570637 -3.9953383200000006 -0.341963 -0.577013 0.736492
6900 2.9038090500000004 10.03887711 -3.98471409 -0.4920600000000001 -0.145644 0.617387
6920 1.5087093300000003 9.51211935 -3.09107214 -0.578071 -0.223387 0.6863199999999999
6940 -0.51223896 8.24635467 -2.5572806100000003 -0.69158 -0.379334 0.6227020000000001
6960 -2.6743433400000005 7.69324725 -1.79641701 -0.749898 -0.4743 0.446159
6980 -3.8124210600000006 8.11073142 -1.2347847 -0.655317 -0.387115 0.140129
7000 -4.44754989 9.12098484 -1.22819238 -0.623246 -0.249348 0.025876
7020 -4.78150191 10.122703560000001 -2.04998589 -0.670014 0.013991 0.012394
7040 -4.63032 10.25846415 -2.50593507 -0.527316 0.678181 0.02429
7060 -3.3205476600000003 9.83245509 -2.17377828 -0.401259 1.192258 0.027716
7080 -1.6542112500000001 9.65507067 -1.25514045 -0.33920300000000003 0.742553 0.013771
7100 -0.72389952 8.980427160000001 0.08172711 0.6323300000000001 0.949117 0.7936850000000001
7120 -0.06002739000000001 7.859703330000001 1.2055901400000002 1.430997 1.2364540000000002 0.70596
7140 0.7731457200000001 6.917413590000001 1.2263971500000002 1.287251 1.063093 0.228751
7160 1.738332 6.48496917 0.90711108 0.54618 0.43602 -0.021313
7180 1.9218574800000001 4.66055442 0.6786852300000001 -0.060202 -0.106408 -0.243839
7200 1.15529427 5.9174901 1.18882485 -0.300785 -0.412569 -0.19492
7220 -0.41194152000000006 7.362287280000001 1.69747335 -0.28023000000000003 -0.448351 -0.055862
7240 -1.8988039800000003 8.45921205 1.8315956700000002 -0.031068 -0.026532 0.001953
7260 -3.16875753 9.083559690000001 1.53250839 0.249981 0.475598 -0.071502
7280 -3.0121899300000003 11.047178339999999 1.8473112900000002 0.332932 0.817558 -0.145069
7300 -2.03456457 10.83192732 0.54336609 0.345005 1.040519 -0.235001
7320 1.62756729 12.029885279999998 -2.3905302300000004 0.306384 1.113564 -0.352868
7340 1.2084350400000001 15.223197240000003 0.90621837 0.340109 1.114028 -0.497912
7360 -0.7819747200000001 16.25230548 2.7939370500000003 0.366059 1.054829 -0.634387
7380 -0.08786817 14.497051230000002 -0.30206952000000004 0.341564 0.96689 -0.732722
7400 0.67779252 10.227180060000002 -3.21606135 0.30398000000000003 0.903143 -0.742516
7420 0.68872086 8.145762930000002 -3.00320397 0.34196 0.8824700000000001 -0.667449
7440 0.9324110700000001 7.37606052 -1.4995860300000001 0.350924 0.8521620000000001 -0.555184
7460 1.41635799 7.955959050000001 -0.5748071400000002 0.302311 0.8326950000000001 -0.4401310000000001
7480 1.76961609 9.20690082 -0.8675963999999999 0.306711 0.758636 -0.30540900000000004
7500 1.32833286 10.636286490000002 -0.41913225000000004 0.22432600000000005 0.540255 -0.234134
7520 0.66147849 11.33667144 -0.15657741000000003 0.076317 0.34272800000000003 -0.259484
7540 0.11616021000000001 10.94029839 -0.28081125 0.009994 0.254738 -0.308973
7560 -0.14325543000000002 10.66262634 -0.22812174000000002 0.030365 0.14865699999999998 -0.437949
7580 -0.19908414 10.246191839999998 -0.40849821 0.168751 0.024823 -0.492372
7600 -0.22153923 9.59924196 -0.82478556 0.347025 -0.10822 -0.409771
7620 -0.7201521000000001 8.77250421 -0.8684891100000001 0.467365 -0.112016 -0.36406
7640 -1.6929803700000001 8.09082693 -0.70413237 0.578639 0.06400800000000001 -0.257755
7660 -2.3543019000000003 7.28295381 -0.6650689500000001 0.732023 0.256356 -0.008034
7680 -2.40849234 6.58899441 -0.9909375300000001 0.8337129999999999 0.240497 0.140111
7700 -2.25820314 6.30354303 -1.26052614 0.6771119999999999 0.141622 0.226738
7720 -2.1472814700000002 6.4695478500000005 -1.2819315599999999 0.452549 0.091012 0.290396
7740 -2.0420496000000004 6.91351902 -1.2680111699999999 0.33687 0.122947 0.662357
7760 -1.9562807700000002 7.378159860000001 -0.94408497 0.451794 0.176173 0.306305
7780 -2.3685264 7.859252070000001 -0.34503732000000004 0.419847 0.529543 0.409247
7800 -2.9271666600000006 8.505760500000001 0.1070271 0.267181 0.5703010000000001 0.472221
7820 -3.4202368800000005 9.17008389 0.11915226000000001 -0.024998 0.325405 0.4299020000000001
7840 -3.85073892 9.25345908 -0.10956789 -0.451071 -0.1699 0.254508
7860 -4.299212880000001 9.605373210000002 -0.18650772000000002 -0.714483 -0.664266 -0.029777
7880 -4.60398015 10.52685594 0.13845833999999996 -0.712627 -0.890515 -0.195048
7900 -4.00298031 10.792559790000002 0.57660237 -0.6281770000000001 -0.987211 -0.32893
7920 -3.3656049900000005 11.88378495 0.7803266400000001 -0.656981 -0.633904 -0.213148
7940 -2.23964262 13.25927448 -0.95680854 -0.5181399999999999 -0.14089000000000002 0.250798
7960 -1.6962765300000002 14.25470499 -2.31134391 -0.536279 -0.11843800000000003 0.512357
7980 -2.3667311700000004 14.578631190000001 -2.5999443000000007 -0.514987 -0.345499 0.533093
8000 -3.2684565600000006 15.366148560000001 -2.72343258 -0.386457 -0.51727 0.487209
8020 -2.7852552000000004 15.61043718 -3.3549709500000002 -0.237828 -0.459135 0.472149
8040 -1.33521948 13.97449215 -4.249515420000001 -0.158626 -0.367939 0.507837
8060 0.10478061 10.618765830000001 -4.68764964 -0.210286 -0.34694 0.6292270000000001
8080 0.8749342800000001 8.042924700000002 -4.765040730000001 -0.351615 -0.319309 0.768141
8100 0.63498168 7.069203720000001 -3.78831789 -0.378009 -0.15875699999999998 0.8670959999999999
8120 -0.31344912 7.10946396 -2.66580864 -0.280306 -0.032288 0.856934
8140 -1.2600748800000001 7.193594520000001 -1.7193202200000002 -0.326596 0.050153 0.79348
8160 -2.0246859 7.74250326 -1.34255736 -0.7021149999999999 0.048188 0.545168
8180 -2.7101106 9.44206614 -1.07102637 -1.132413 0.176371 0.032456
8200 -3.07041228 11.18743191 -1.6631874 -1.288055 0.07940900000000001 -0.093488
8220 -2.85142365 11.637701100000001 -2.36029581 -1.195433 0.078803 -0.288325
8240 -2.21434263 10.755880200000002 -1.9507479300000001 -0.953268 0.668597 -0.405962
8260 -1.24466337 9.14088933 -1.30214016 -0.957718 1.011997 -0.497232
8280 -0.52181352 8.163577890000001 -0.5676164100000001 -0.933249 0.5432130000000001 -0.236883
8300 -0.50100651 7.80911316 -0.16810416000000003 0.090537 0.679547 0.478325
8320 -0.62465175 7.031327310000001 0.030832830000000002 1.235191 1.096577 0.6908850000000001
8340 -0.46658322 6.75904095 0.0464013 1.248365 1.004446 0.276625
8360 -0.041309910000000005 6.5985787799999995 0.019011780000000002 0.6029180000000001 0.18783 -0.07507799999999999
8380 0.48723327000000005 5.8998321 0.11047041 0.149301 -0.526724 -0.27602
8400 0.23411565 6.201156060000001 0.77104638 -0.067892 -0.955055 -0.331467
8420 -0.36359784 8.689727430000001 1.47907332 -0.035026 -0.894876 -0.224493
8440 -1.0627859700000002 10.21595742 2.2324617 0.11655 -0.320488 -0.140849
8460 -0.58737375 12.32521533 2.86594245 0.254927 0.307596 -0.153506
8480 -0.89873334 10.778482440000001 2.61266787 0.272262 0.6164149999999999 -0.14096199999999998
8500 -0.95366934 11.746219320000002 2.3942678400000004 0.098179 0.72285 -0.233113
8520 0.027095220000000003 11.37634308 0.08786817 -0.053795 0.941302 -0.385074
8540 1.1918169 13.130390700000001 -1.09571814 0.030146 1.233323 -0.491684
8560 -1.6097523300000003 12.431948130000002 2.00193651 0.25738 1.41915 -0.539473
8580 -2.4581898000000004 13.993346970000003 2.27541969 0.432595 1.414516 -0.598063
8600 -1.25423793 12.47281659 -1.6823561400000002 0.482296 1.316337 -0.59759
8620 -0.27647523 10.033932870000003 -3.87469494 0.477161 1.1956870000000002 -0.524833
8640 -0.43200297000000004 9.537566490000001 -3.0329969400000003 0.428342 1.093278 -0.447062
8660 -0.02529999 8.489740770000001 -1.81392786 0.306336 1.025458 -0.430736
8680 0.7695454500000001 8.31820311 -1.2359815200000002 0.23852 0.964679 -0.357424
8700 1.1455725600000002 9.111400470000001 -0.9804604500000001 0.305654 0.801088 -0.264879
8720 1.2805875900000003 10.063725840000002 -0.8232846300000001 0.405544 0.5203909999999999 -0.218956
8740 1.3910580000000001 10.49886801 -0.99722574 0.364943 0.234117 -0.25519200000000003
8760 1.20140127 10.679695740000001 -0.8376562800000001 0.33575 0.06199 -0.341702
8780 0.52106796 11.109746520000002 0.07244685 0.358293 -0.010113 -0.445069
8800 0.06975891000000001 10.922640390000002 0.8087658299999999 0.358216 -0.101427 -0.519728
8820 -0.06242103000000001 9.922716900000001 0.39981636000000004 0.170932 -0.232966 -0.762286
8840 -0.30042144 8.4972258 -0.2980278 -0.043325 -0.20765100000000006 -0.7798390000000001
8860 -0.7235954100000002 7.40000673 -0.8195470199999999 0.01775 -0.133359 -0.763484
8880 -1.5224825700000002 6.52582782 -1.2524427 0.06476900000000001 -0.048357 -0.217403
8900 -2.00972565 5.967344520000001 -1.43566407 0.166188 0.05851 -0.123896
8920 -2.17932093 5.88156588 -1.49284656 0.257656 0.407008 0.290766
8940 -2.3912757900000003 6.21462519 -1.5239835 0.142415 0.573971 0.4617310000000001
8960 -2.65263381 6.852451770000001 -1.4678506800000002 0.024507 0.637659 0.8870459999999999
8980 -2.99736702 7.367231520000001 -1.4136602400000002 0.01543 0.8258469999999999 0.7200989999999999
9000 -3.2555760300000003 7.85177685 -1.28537487 -0.030239 0.716908 0.56396
9020 -3.46903182 8.57476404 -0.91070154 -0.13990999999999998 0.087466 0.358901
9040 -3.8040433200000003 9.393418350000001 -0.41987781 -0.432392 -0.693399 0.08439400000000001
9060 -3.8416156200000002 10.382707800000002 -0.37391796 -0.753233 -1.103583 -0.156603
9080 -3.56438502 10.76471901 0.01272357 -0.751185 -1.199158 -0.23337800000000006
9100 -3.5582537700000003 11.81164221 0.74110626 -0.4553 -1.038594 -0.150332
9120 -3.39374007 11.2329405 0.95711265 -0.260589 -0.6769890000000001 0.094119
9140 -3.65136048 13.091778540000002 0.53288901 -0.319684 -0.370525 0.494965
9160 -3.41739198 11.05899939 -0.8358610499999999 -0.582321 -0.551098 0.591638
9180 -2.9204271900000003 14.97036411 -3.3765333300000004 -0.679331 -0.831749 0.530432
9200 -2.81444976 13.806387990000003 -2.7792711000000003 -0.553187 -0.860611 0.445892
9220 -3.70015542 13.69756566 -1.52518032 -0.305663 -0.682265 0.386504
9240 -2.61520866 13.306284000000002 -1.6880361300000002 -0.062819 -0.477745 0.445622
9260 0.53049537 12.55574052 -2.8328631300000002 -0.01529 -0.438021 0.593318
9280 0.7023371400000001 9.08506062 -3.78113697 -0.18553 -0.440091 0.725659
9300 -0.25806186000000003 7.754922720000001 -4.03965009 -0.303956 -0.4280100000000001 0.737635
9320 -1.88772849 7.54056441 -3.4063164900000005 -0.279097 -0.304734 0.7899930000000001
9340 -3.2034849300000006 7.291635660000001 -2.54590101 -0.145708 -0.162046 0.689261
9360 -3.8142162900000005 7.46108379 -1.6281657 -0.059262 -0.053147 0.5540609999999999
9380 -3.7071891900000002 8.068675950000001 -1.0105477200000001 -0.131885 -0.153757 0.469293
9400 -3.26037312 9.69818562 -0.56687085 -0.280479 -0.14618699999999998 0.30374
9420 -2.4887283300000003 11.3544864 -0.8556183900000001 -0.430051 0.051276 0.070638
9440 -2.12199129 11.591594100000002 -1.3692013200000002 -0.492351 0.28325900000000004 -0.07964600000000001
9460 -1.4635048499999999 11.07472482 -1.01968083 -0.54155 0.337323 -0.237087
9480 -0.75652758 9.62962353 -0.3441348 -0.457452 0.450283 -0.319966
9500 -0.39098736000000006 8.16401934 0.12393954 -0.572851 0.528824 -0.6797949999999999
9520 -0.33036156 7.31633724 0.08532738000000001 -0.5120279999999999 0.663479 -0.307802
9540 -0.030391380000000003 6.474040830000001 -0.13726152 0.64759 0.651101 0.18315
9560 0.10313253 6.229899360000001 -0.06466752 1.6869299999999998 0.964058 0.937765
9580 0.03726819 6.5386985399999995 0.14759145 1.788802 0.976789 0.596629
9600 0.06361785 6.16837104 0.5387259600000001 1.088559 0.323306 0.256085
9620 0.13113027000000002 6.76383804 1.0270187100000001 0.606921 -0.5187229999999999 -0.010051
9640 -0.19863287999999998 7.40031084 1.35752742 0.359879 -1.039235 -0.163865
9660 -0.5828905799999998 9.09149598 1.7961129 0.07369099999999999 -1.200808 -0.269275
9680 -1.04273433 9.26453457 2.3456200500000004 -0.128356 -1.100843 -0.317816
9700 -0.98540469 9.82946304 2.4002617500000003 -0.189131 -0.8439450000000001 -0.306819
9720 -0.29084688000000003 10.35307179 1.87500492 -0.201735 -0.5159819999999999 -0.260326
9740 -0.35655426000000007 11.454028470000003 1.53655011 -0.181688 -0.277635 -0.209217
9760 -1.6455294 11.748465809999999 1.40483124 -0.06324500000000001 -0.034108 -0.206565
9780 -2.4343907400000004 12.779673390000001 0.5936619599999999 0.120948 0.27981500000000004 -0.282593
9800 -3.03553773 13.68723573 1.18733373 0.296587 0.568286 -0.380012
9820 -3.32383401 15.881222610000002 1.18972737 0.402505 0.7282850000000001 -0.523687
9840 -2.52389718 10.32403419 -0.33664977 0.395819 0.764019 -0.6626479999999999
9860 -0.47017368 11.82375756 -1.9422132300000001 0.309734 0.7487 -0.752961
9880 0.32766381 11.88617859 -2.3104413900000003 0.214697 0.634367 -0.849618
9900 0.47914983 10.75902921 -1.77336351 0.185326 0.5024 -0.8560629999999999
9920 0.41373675 9.76898439 -1.1337417 0.138679 0.403201 -0.783623
9940 1.10290887 8.93866599 -1.41860448 0.123928 0.360025 -0.629847
9960 1.20858219 9.03416634 -1.9916065800000002 0.131614 0.354997 -0.444984
9980 0.7912549800000002 9.636657300000001 -2.11539897 0.05474 0.229062 -0.320378
10000 0.017667810000000003 9.97361118 -1.6163348400000004 -0.030088 0.141869 -0.286675
10020 -0.6316855199999999 10.25367687 -1.28044044 0.046577 0.123431 -0.271161
10040 -1.4009366699999999 10.60664067 -0.80307603 0.180589 0.06423999999999999 -0.237034
10060 -1.69013547 10.539285210000001 -0.1360647 0.17239300000000002 -0.038238 -0.17714000000000002
10080 -0.9657945 9.824822910000002 0.032785020000000005 0.059385 -0.169228 -0.089099
10100 -0.16151184 8.83088352 -0.04491018000000001 -0.039256 -0.20115 -0.012835
10120 0.05223825 8.27180181 -0.30297204000000005 0.031191000000000007 -0.182268 -0.000617
10140 -0.38664153 7.628432580000001 -0.7424600400000001 0.13228399999999998 -0.20195 0.038571
10160 -1.0389869100000002 6.8034998700000004 -1.21247676 0.211275 -0.189456 0.042311
10180 -1.51290801 6.981178590000001 -1.55571885 0.289664 -0.054529 0.065118
10200 -1.99310751 7.028629560000001 -1.7329463100000002 0.371623 0.038275 -0.036977
10220 -2.24458686 7.27651845 -1.5778698300000003 0.429476 -0.015713 0.093819
10240 -2.4848337600000003 7.59310677 -1.1750516100000001 0.475118 -0.078789 -0.155745
10260 -2.65368348 7.675589250000001 -0.9330094800000001 0.471035 0.054125 0.175205
10280 -2.94453036 7.70178195 -0.44726733 0.549523 0.020331 -0.232265
10300 -3.37053942 7.914492180000001 -0.41628735 0.322276 0.270456 0.017928
10320 -3.63383982 8.03648934 -0.7499450700000001 0.063904 0.47384 0.262622
10340 -3.38371425 8.01477981 -0.9548661600000001 -0.174989 0.398466 0.404191
10360 -3.2537808000000004 8.3810754 -0.94319226 -0.449137 0.13962 0.37163
10380 -3.18133395 8.725357350000001 -0.7355734200000001 -0.649254 -0.156248 0.20931
10400 -3.2675540400000003 8.95438161 -0.50355711 -0.673415 -0.426275 0.091982
10420 -3.5392419900000003 9.53546715 -0.5415708599999999 -0.6267510000000001 -0.641008 -0.06124
10440 -3.8417627700000003 9.94591755 -0.30790647 -0.652576 -0.829974 -0.202184
10460 -3.9131599500000003 10.61352729 -0.01406754 -0.756421 -0.8829819999999999 -0.176136
10480 -3.6425216700000003 10.89659484 0.4128440400000001 -0.7042510000000001 -0.6455930000000001 0.086707
10500 -3.2364171 12.36682935 -0.9996193800000001 -0.508034 -0.403386 0.351618
10520 -3.5847407700000002 12.53179431 -2.3107455000000003 -0.426217 -0.41776 0.412028
10540 -4.34860623 13.98391956 -2.5008534900000003 -0.30685300000000004 -0.427838 0.4310350000000001
10560 -4.044290220000001 12.66381729 -2.32825635 -0.07854900000000001 -0.441372 0.420896
10580 -2.88495423 17.24039811 -3.4654413600000002 0.038562 -0.50566 0.412183
10600 -2.02678524 14.14483299 -3.87424368 -0.009802 -0.5832609999999999 0.413013
10620 -0.22588506000000003 11.19163059 -3.78608121 -0.095544 -0.636362 0.446665
10640 0.69231132 8.901387990000002 -3.15887886 -0.187635 -0.6628689999999999 0.495194
10660 0.58677534 7.74818325 -2.46552768 -0.162313 -0.618648 0.603204
10680 -0.31928607000000003 7.7667535800000005 -1.89760716 -0.048825 -0.6419199999999999 0.7300770000000001
10700 -1.09287324 8.15833935 -1.71139374 0.014406 -0.709681 0.8374280000000001
10720 -1.8068940900000001 8.329877009999999 -1.6631874 -0.06237 -0.722111 0.815543
10740 -3.0067944300000002 8.77250421 -1.25768124 -0.222932 -0.487761 0.691276
10760 -4.134404879999999 10.03917141 -0.42676443000000003 -0.327375 -0.16709300000000002 0.510674
10780 -4.5773361900000005 11.267216640000001 0.15687171 -0.398311 0.00117 0.318751
10800 -3.97438416 11.27470167 -0.17035065000000002 -0.490435 0.092186 0.015684
10820 -2.95111287 10.065364109999999 -0.47601063 -0.411788 0.146707 -0.100273
10840 -1.8805377600000002 9.10541637 -0.4568517 -0.39176 0.6330939999999999 -0.27274
10860 -1.18853055 8.538545520000001 -0.1240965 -0.40888 0.7348560000000001 -0.397972
10880 -1.20245094 8.11986453 0.34503732000000004 -0.072883 0.642487 -0.234205
10900 -1.4747373 7.98454539 0.59681097 0.58627 0.804707 0.450649
10920 -1.24855794 7.52365197 0.36015453000000003 1.067353 1.027676 0.218715
10940 -0.9398961000000001 7.521405479999999 0.13831119 1.041648 0.926881 0.13961600000000002
10960 -0.71101899 7.204964310000001 0.26944146 0.6774600000000001 0.212909 -0.017973
10980 -0.61611705 6.975498600000001 0.59276925 0.22811 -0.410413 -0.127136
11000 -0.61506738 6.85125495 1.05440823 -0.031557 -0.725949 -0.114658
11020 -1.06009803 7.040754720000001 1.55512044 -0.020598 -0.826415 -0.041814
11040 -1.3834258200000003 7.54161408 1.9603224900000003 0.114924 -0.548987 -0.00704
11060 -1.04677605 8.14231962 1.81048455 0.2264 0.003654 -0.044357
11080 -0.52556094 9.53172954 1.5242778 0.202974 0.587001 -0.184137
11100 -0.39742272 10.878779880000002 1.54807686 0.053934 0.958941 -0.360843
11120 -1.31711022 11.37289977 1.7604927899999998 -0.051568 1.104663 -0.480339
11140 -0.92806524 13.130841960000001 0.6825798 -0.01495 1.128185 -0.533525
11160 -0.44996508 14.791037310000002 0.12633318000000002 0.101616 1.149246 -0.57333
11180 -1.80718839 15.59352474 1.82949633 0.172336 1.164126 -0.626266
11200 -1.1183203800000001 13.139229510000002 1.0761079500000001 0.244031 1.206508 -0.631161
11220 -0.7857123300000001 12.10517703 -1.08614358 0.321075 1.267983 -0.620019
11240 -0.29084688000000003 9.61031745 -2.12123592 0.348967 1.346536 -0.57506
11260 -0.26839179 9.352854 -2.0291788800000004 0.372074 1.370534 -0.469175
11280 0.32796792 8.59497264 -1.2862773900000002 0.328537 1.289279 -0.35828000000000004
11300 0.9128008800000001 8.93327049 -1.47907332 0.268728 1.1261450000000002 -0.269826
11320 1.06608213 9.52290054 -1.8507546000000001 0.186457 0.903622 -0.228455
11340 0.8714909700000001 10.368787410000001 -1.6805511 0.11200999999999997 0.655924 -0.291683
11360 0.47406825 11.021132790000001 -1.15021269 0.131499 0.450385 -0.32333
11380 0.13981212 11.287729350000001 -0.67016034 0.191735 0.291572 -0.353684
11400 0.00958437 11.470646610000001 -0.15806852999999998 0.233494 0.108116 -0.332861
11420 0.10193571 10.883567160000002 0.10463346000000001 0.225235 -0.007148999999999998 -0.271882
11440 0.53812755 9.28249668 0.12334113000000002 0.247605 0.038366 -0.218373
11460 0.56926449 8.020773720000001 0.030087270000000003 0.346404 0.245494 -0.153855
11480 -0.17483382000000003 7.425610830000001 -0.23156505000000002 0.537396 0.362619 -0.03944
11500 -1.37144781 7.171286580000001 -0.7111759500000001 0.704186 0.413285 -0.067182
11520 -2.24428275 6.812181720000001 -1.1306025000000002 0.533654 0.433236 0.152724
11540 -2.5991987400000003 6.448740840000001 -1.6220246400000002 0.26305700000000004 0.268058 0.13609000000000002
11560 -2.5896143700000005 6.40937331 -1.8682654500000002 0.105361 0.318763 0.379546
11580 -2.44052199 6.96096999 -1.61604054 0.267928 0.391656 0.125283
11600 -2.3088031200000003 7.48339173 -1.1996060400000002 0.321091 0.592791 0.12967
11620 -2.28469995 7.73965836 -0.78302439 0.149149 0.566709 0.141321
11640 -2.46073059 7.768548810000001 -0.61432182 -0.206377 0.312126 0.178688
11660 -3.18327633 7.80132402 -0.59171958 -0.673379 -0.097441 0.175951
11680 -3.88517202 8.04367026 -0.6271925400000001 -0.854259 -0.39759 0.00202
11700 -4.480482060000001 8.647063740000002 -0.58633389 -0.670668 -0.491519 -0.110877
11720 -5.04256563 9.50807763 -0.35221824000000007 -0.466063 -0.377962 -0.181164
11740 -4.975798770000001 10.43854632 0.12349809 -0.54076 -0.08711 -0.124375
11760 -4.31148519 11.47768038 0.6084848700000001 -0.6110720000000001 0.266539 0.207966
11780 -3.2994365400000003 11.994559470000002 0.6730052400000001 -0.846211 0.134462 0.407319
11800 -2.03187663 12.934749870000001 -0.5096883600000001 -1.043211 -0.242019 0.42138
11820 -1.55167713 14.83699716 -3.1054437900000007 -0.984449 -0.475461 0.407135
11840 -2.02484286 15.049256130000002 -2.6997904800000003 -0.65132 -0.383017 0.443526
11860 -3.2956989300000004 15.028145010000001 -2.1323114100000007 -0.304177 -0.203492 0.535452
11880 -2.7039793500000004 15.98630733 -2.58886881 -0.225364 -0.088238 0.6822010000000001
11900 -1.12819905 13.32813087 -3.42757476 -0.32612800000000003 -0.026775 0.850197
11920 -0.2083644 10.578947040000001 -4.08291219 -0.487718 -0.02559 0.960162
11940 0.06601149 8.39064996 -4.04548704 -0.548333 0.003444 0.944747
11960 -0.22947552000000002 7.69819149 -3.4995703500000004 -0.549006 -0.054558 0.79847
11980 -1.00097316 7.7915925 -2.6206041600000005 -0.668833 -0.14261300000000002 0.5456449999999999
12000 -1.7591390100000002 7.79907753 -2.14323975 -0.773981 -0.168459 0.174271
12020 -2.12812254 8.082743490000002 -1.9725948000000002 -0.784872 -0.153875 5.600000000000001e-05
12040 -2.40863949 9.03326382 -1.6766663400000001 -0.7993239999999999 -0.195832 -0.150611
12060 -3.00231126 10.577004660000002 -1.37489112 -0.6706439999999999 -0.03124 -0.130695
12080 -2.672244 11.227849110000001 -2.00688075 -0.383496 0.582004 -0.024789
12100 -1.68040395 10.483005240000002 -1.99296036 -0.50965 0.899231 -0.125421
12120 -1.34345988 9.17906004 -1.08793881 -0.30427 0.928705 -0.214823
12140 -1.50841503 7.98409413 -0.20761884 0.983109 1.035432 0.217048
12160 -1.62501669 7.71660486 -0.01571562 1.819557 1.255127 -0.036969
12180 -1.53655011 7.451057970000001 -0.20551950000000002 1.559672 1.149365 -0.003397
12200 -1.31711022 7.6690067399999995 -0.17483382000000003 0.78282 0.478403 -0.169265
12220 -0.7738912800000001 7.75282338 0.13816404 0.199429 -0.07408200000000001 -0.29441
12240 -0.26315325 7.55239527 0.6318326700000001 -0.0747 -0.35307 -0.351514
12260 0.24444558 7.683368580000002 0.8201454300000001 -0.12873099999999998 -0.320713 -0.404276
12280 0.33455042999999995 8.18003907 0.92133558 -0.017377 -0.026957 -0.435921
12300 -0.12993344999999998 8.522525790000001 1.2317926500000003 0.092857 0.290099 -0.432353
12320 -0.28530423000000005 9.04419216 1.93592502 0.053256 0.521314 -0.4104930000000001
12340 -0.8813696400000001 8.36101395 2.36778084 -0.141801 0.774565 -0.436749
12360 -1.04557923 8.796156120000001 2.7388539 -0.37968 1.02359 -0.434457
12380 -0.72089766 9.593552160000002 2.7015857100000003 -0.439695 1.268541 -0.366824
12400 -0.00164808 10.7410671 0.7258419 -0.358997 1.185158 -0.364017
12420 -0.2977335 14.181208470000003 0.52376571 -0.173126 0.938677 -0.42436
12440 -2.88584694 16.34869854 3.4420935600000004 0.046512 0.693866 -0.399011
12460 -1.5483809699999997 14.116697910000001 0.668061 0.173413 0.491892 -0.349796
12480 -0.7717919400000001 12.09230631 -1.6039153800000001 0.251103 0.46068 -0.337463
12500 0.67599729 8.288567100000002 -2.6113239 0.36453 0.521065 -0.35170300000000004
12520 1.2952535399999998 8.355324150000001 -2.0995362 0.461878 0.557034 -0.373502
12540 1.34405829 8.46130158 -0.6418683000000001 0.365113 0.494105 -0.270479
12560 0.9780668100000001 8.98207524 -0.08831943 0.085636 0.375334 -0.163321
12580 1.04197896 9.934390800000001 -0.13785993 -0.260967 0.2834 -0.049188
12600 0.97627158 10.76082444 -0.44322561 -0.459705 0.238202 -0.029154000000000006
12620 0.61058421 11.30119848 -0.76461102 -0.380422 0.310372 -0.030829
12640 -0.19549368000000003 12.088117440000001 -0.56492847 -0.183276 0.489746 -0.037159
12660 -1.31830704 12.50798544 0.02694807 0.010421 0.654055 -0.002902
12680 -1.7404313400000002 11.251049759999999 0.47974824000000005 0.04334 0.6357659999999999 0.013375
12700 -1.1192229 8.85812589 0.38754405000000003 -0.118312 0.4819890000000001 -0.018536
12720 -0.27348318 6.965315820000001 -0.11451213 -0.183769 0.400183 -0.016752
12740 -0.6051887100000001 5.99907006 -0.52719921 -0.029089 0.491936 0.080351
12760 -1.8886212 5.41588518 -0.8147597400000001 0.103413 0.544712 0.087619
12780 -2.72837682 4.84752321 -0.80367444 0.15813 0.608455 0.083646
12800 -3.00963933 4.629270330000001 -0.9638423100000001 0.200049 0.666941 0.07318200000000001
12820 -3.2111269200000003 5.32188576 -1.3739886 0.070213 0.708 0.041244
12840 -3.3172515000000002 7.563176460000001 -1.62606636 0.080342 1.016969 -0.24322800000000006
12860 -3.1461552900000003 8.987608080000001 -1.5387966000000002 0.123064 1.342372 -0.40358
12880 -2.4128283600000002 9.665253450000002 -0.8598072600000001 0.107847 1.476813 -0.444451
12900 -1.94939415 9.88110288 0.09160578000000001 0.209839 1.433636 -0.391341
12920 -1.82739699 9.45583938 0.91490022 0.377773 1.420706 -0.500178
12940 -1.91317563 8.617280580000001 1.5385023 0.380642 1.6398099999999998 -0.6831050000000001
12960 -2.5191099 7.73382141 2.17377828 0.054659000000000006 1.817392 -0.8533200000000001
12980 -2.8984233600000002 7.3606392000000005 2.18501073 -0.460899 1.724529 -0.893122
13000 -2.80426698 7.61840676 1.97694063 -0.941311 1.562634 -0.7499239999999999
13020 -2.7279255600000005 8.20967508 1.5003315900000003 -1.182205 1.470519 -0.416066
13040 -2.60428032 8.76367521 1.15918884 -1.125688 1.530884 -0.11023800000000003
13060 -2.2547598300000002 8.92728639 0.8509782600000001 -0.993627 1.727564 0.140397
13080 -2.0242444500000003 9.15975396 0.9497747700000001 -0.8793190000000001 1.882208 0.26277399999999995
13100 -2.5566822000000005 9.27875907 1.31112612 -0.7602720000000001 1.782725 0.262665
13120 -2.8580061600000004 10.610682390000001 1.21098564 -0.565333 1.689471 0.237441
13140 -2.46043629 11.502529110000001 1.0160903700000001 -0.422824 1.576105 0.225763
13160 -1.78144695 13.79965833 2.3695760700000004 -0.564882 1.299641 0.22192
13180 -1.92454542 14.260247640000003 1.9088298000000001 -0.8712989999999999 0.965341 0.172138
13200 -1.6238198700000002 15.907268160000001 0.50355711 -0.903962 0.7399359999999999 0.092082
13220 -1.5331166100000002 14.70421881 -1.69343163 -0.586645 0.535632 0.026194
13240 -0.2870994600000001 13.64413059 -4.60681524 -0.120467 0.29535 0.037236
13260 0.6968043 12.61905426 -5.86599741 0.255344 0.108716 0.030486000000000006
13280 0.45594918 11.053319400000001 -5.86735119 0.348504 -0.11931 -0.035869
13300 0.84528846 9.45433845 -4.355944110000001 0.123931 -0.320591 -0.121569
13320 1.1394315000000002 8.63090667 -2.23784739 -0.086399 -0.343339 -0.111259
13340 1.7082447299999999 8.927884800000001 -0.17887554 -0.10386 -0.267344 -0.186253
13360 2.17377828 9.30809097 0.6542877600000001 -0.035986000000000004 -0.257441 -0.323593
13380 1.3973462100000003 8.91920295 0.15851979 0.0432 -0.43989 -0.320669
13400 -0.26944146 7.91673867 -1.12969998 0.096723 -0.5077109999999999 -0.189886
13420 -2.51716752 7.694002620000001 -1.80854217 0.067802 -0.307183 0.037187
13440 -4.15461348 8.308775700000002 -1.40572395 -0.272179 -0.15703499999999998 0.345472
13460 -4.76938656 8.48346237 -1.15200792 -0.443992 0.373806 0.41089
13480 -4.50293715 8.505162089999999 -1.14601401 -0.479499 1.138318 0.530371
13500 -3.5063098200000002 8.85109212 -0.5545985400000001 -0.635247 1.587461 0.499866
13520 -3.0217644900000002 9.16004826 0.8186445 -0.410693 1.3664459999999998 0.165228
13540 -2.6322780600000004 9.07038486 2.43064332 -0.266477 1.54425 0.064526
13560 -2.30655663 8.68314492 3.07026513 -0.576459 1.227674 0.114041
13580 -2.48648184 7.437735990000001 2.6753832 -0.919945 0.773961 0.121837
13600 -3.0340368 6.86711772 1.9437043500000002 -0.959803 0.578533 0.010714
13620 -3.68997264 6.76996929 1.62127908 -0.56108 0.747491 -0.229204
13640 -4.08246093 6.694530390000001 1.5648421500000003 -0.008639 0.944746 -0.220256
13660 -4.114941840000001 6.71473899 1.32040638 0.301139 1.09149 -0.156324
13680 -3.38237028 7.09224741 1.06937829 0.300338 1.472521 -0.07136
13700 -2.54171214 8.78957361 0.7764320700000001 0.122548 1.94021 0.074214
13720 -2.31942735 10.7931582 1.13314329 -0.115396 2.094857 0.234723
13740 -1.52532747 12.107119410000001 1.29420387 -0.295202 2.1298790000000003 0.157578
13760 -0.8583161400000001 11.1748653 1.01728719 -0.503576 2.181017 -0.195388
13780 -0.5342427900000001 11.40193737 2.5268990400000004 -0.754855 2.21088 -0.518716
13800 -0.53708769 12.87382977 3.82454622 -0.7056520000000001 2.342277 -0.653137
13820 1.01833686 16.69148937 1.75509729 -0.440802 2.463606 -0.588417
13840 2.03651676 18.65496087 0.22363857000000004 -0.339443 2.412439 -0.401773
13860 1.1280519 17.02679517 -0.27093258000000003 -0.568029 2.157507 -0.121032
13880 2.4092379 12.96887886 -3.03523362 -0.7808689999999999 2.005098 0.081707
13900 2.4051961800000003 9.79173378 -4.21134471 -0.6698189999999999 2.05148 0.10806
13920 1.437165 8.704697490000001 -3.20483871 -0.233705 2.173776 0.048993
13940 -0.24279750000000003 7.7067261899999995 -1.63624914 0.196861 2.043493 0.022257
13960 -2.52644778 7.8174909 -1.44943731 0.292316 1.642767 -0.015018
13980 -3.2216040000000006 8.184826350000002 -1.9224558900000002 0.090612 1.1895209999999998 0.019405
14000 -2.07662985 8.69481882 -1.13164236 -0.056168 0.917972 0.122345
14020 -0.10912644 9.795334050000001 -0.38140299 -0.034176 0.941931 0.238904
14040 1.19481876 10.82085183 -0.34188831000000003 -0.014853 1.1212799999999998 0.392633
14060 2.25206208 10.8162117 -0.6634208699999999 -0.057957 1.340566 0.470031
14080 2.55024684 9.73425699 -0.5224119300000001 -0.057305 1.522577 0.507191
14100 1.5513730200000002 8.64676944 -0.52076385 0.002463 1.786361 0.290421
14120 -0.19623924 7.89937497 -0.7500922200000001 0.283846 1.858129 -0.051673
14140 -1.53655011 8.028700200000001 -1.2928599000000003 0.116549 1.920213 -0.513325
14160 -2.4608777400000004 8.39679102 -1.84880241 -0.016978999999999998 1.758085 -0.8783129999999999
14180 -3.48310917 8.53180605 -1.8874243800000001 0.100287 1.386354 -0.992386
14200 -4.40803521 8.589586950000001 -0.6740451000000001 0.194625 0.766069 -1.000546
14220 -4.67822223 8.534798100000001 1.02537063 -0.032868 0.606538 -0.868403
14240 -4.24607211 8.034242850000002 2.33005158 -0.6929609999999999 0.775794 -0.532468
14260 -3.6763563599999998 7.61541471 2.15117604 -1.343298 1.050193 -0.125028
14280 -2.83435425 7.37620767 1.25154999 -1.792539 1.340275 0.182314
14300 -2.6011411200000003 7.074736560000001 0.25088094 -1.873975 1.420879 0.341876
14320 -3.13582536 7.531441110000001 0.06825798 -1.61179 1.273309 0.255234
14340 -3.3214403700000004 8.864561250000001 0.7803266400000001 -1.293177 1.04162 0.110341
14360 -3.0320944200000004 9.711654750000001 1.8535995 -0.7487010000000001 0.6688109999999999 -0.104363
14380 -2.5803341100000003 10.081383839999999 2.8862982 -0.321047 0.4677060000000001 -0.266693
14400 -2.0408527800000003 10.45964763 3.6705194100000003 -0.68881 -0.104412 -0.198026
14420 -0.90726804 11.255395590000001 2.3504171400000002 -1.1673790000000002 -0.717282 0.034426
14440 -0.70084602 12.96155079 2.36642706 -1.04293 -0.5132770000000001 0.324522
14460 -0.9466355700000001 14.70826053 -0.9243276300000001 -0.477507 -0.08237699999999999 0.766958
14480 -0.9767228400000001 15.534547020000002 -3.42413145 0.070035 0.361438 0.926174
14500 -1.1782006200000001 14.862297150000002 -4.984784729999999 0.415446 0.544512 0.931557
14520 0.48094506000000004 11.944116450000001 -7.160063940000001 0.46784 0.166825 0.764696
14540 1.06578783 10.45875492 -7.45749333 0.267951 -0.426873 0.490596
14560 -0.1764819 10.933117470000001 -5.29613451 -0.099641 -0.905581 0.376479
14580 -0.58573548 11.52378738 -2.10896361 -0.502474 -0.918634 0.26045
14600 -0.38319822000000003 11.386820160000001 0.46642626 -0.62525 -0.489855 0.232337
14620 -0.01392039 11.001816900000001 1.0011203100000001 -0.263748 0.25949 0.071533
14640 -0.31434183000000004 9.52334199 -0.30177522 0.409986 0.764671 0.226211
14660 -1.49538735 7.9125498 -1.3278914099999999 0.658097 1.2205700000000002 0.553167
14680 -3.33655758 7.647601320000001 -0.64261386 0.227054 0.865661 0.437379
14700 -5.52111705 8.585398080000001 0.10432935000000002 0.393067 1.239025 0.430583
14720 -5.916744540000001 10.039024260000001 -0.57645522 0.768764 0.787038 0.182754
14740 -5.056181909999999 10.910211120000001 -1.4844590100000001 0.8654360000000001 0.399066 -0.114107
14760 -4.94152263 10.56578202 -0.31434183000000004 0.881467 0.29930100000000004 -0.22069
14780 -4.347409410000001 8.94539565 3.2787864900000003 0.72024 0.043093 -0.211873
14800 -2.5336287 7.52305356 4.747078620000002 0.6127859999999999 0.093712 0.009501
14820 -0.59202369 6.75963936 3.80419047 0.570059 0.365432 0.29407
14840 0.2630061000000001 6.50472651 2.30909742 0.491296 0.805018 0.455326
14860 -0.34159401 7.067849939999999 1.40483124 0.357422 1.347932 0.399216
14880 -1.4754828599999998 7.5461070600000015 1.56873672 0.17086400000000002 1.616928 0.15828699999999998
14900 -2.5653640500000003 7.864941870000001 1.8059915700000002 -0.019306 1.745516 -0.131626
14920 -2.3137375500000004 8.622519120000002 1.70016129 -0.195025 1.729325 -0.458641
14940 -1.8564444 10.43779095 2.00642949 -0.190281 1.879226 -0.653216
14960 -1.69417719 11.932138440000001 3.27803112 0.062491 2.040501 -0.7104090000000001
14980 -1.4868624600000002 12.54451788 3.78847485 0.254246 2.181646 -0.742366
15000 1.03570056 9.51945723 0.7845155100000001 0.242894 2.239322 -0.770293
15020 3.1581333000000003 12.118047749999999 -0.5415708599999999 0.136392 2.050048 -0.764385
15040 -0.19145196 21.28408992 3.05544222 0.147119 1.703332 -0.6484979999999999
15060 0.39562748999999997 16.748524709999998 0.25252902000000005 0.21947 1.273416 -0.558779
15080 1.54658574 10.958113350000001 -2.9570969700000003 0.219041 0.903915 -0.595696
15100 0.8273263500000001 9.67782006 -2.96113869 0.277694 0.7222569999999999 -0.772379
15120 -0.08547453 7.8638922 -2.48423535 0.285704 0.6473810000000001 -0.968779
15140 -0.37197558000000003 7.41602646 -1.7000141400000002 0.298267 0.620598 -0.941952
15160 -0.42781410000000003 8.26776009 -1.5976271700000002 0.309518 0.485379 -0.969474
15180 -0.3912816600000001 9.51362028 -1.0699767 0.32213600000000003 0.513927 -0.660706
15200 -0.04371336 10.349481330000001 -0.34712685000000004 0.22456 0.702797 -0.123246
15220 0.8586104400000001 10.36564821 -0.05837931 0.162332 1.016759 0.270091
15240 1.46979306 10.04500836 -0.11630736000000001 -0.168941 1.120347 0.493039
15260 2.01331611 10.361155230000001 -0.22483539 -0.4301640000000001 1.068351 0.402619
15280 1.3850739 9.77721498 -0.10896948000000001 -0.421541 0.9327 0.485106
15300 0.0059841 8.64062838 -0.48215169 -0.300072 0.802696 0.389981
15320 -1.3572233100000002 7.50913317 -1.27489779 -0.199278 0.344663 0.294064
15340 -2.67389208 6.35159241 -1.90045206 -0.413913 -0.429077 0.035046
15360 -3.31485786 5.77424448 -2.12438493 -0.780878 -0.98468 -0.296885
15380 -3.3343209000000003 5.701944780000001 -2.7024784200000003 -0.95382 -1.210168 -0.500767
15400 -3.03823548 6.195770370000001 -2.90306349 -0.7838579999999999 -0.980229 -0.341777
15420 -3.1195113300000004 7.1317718999999995 -1.56904083 -0.472061 -0.357204 0.22682800000000006
15440 -3.6624359699999998 8.95543128 -0.060920100000000005 -0.491758 0.096533 0.793335
15460 -4.046831010000001 10.4783553 0.9638423100000001 -0.56342 0.210148 0.947581
15480 -4.608021870000002 11.468547270000002 0.97163145 -0.237938 0.003365 0.96187
15500 -4.518358470000001 11.420203590000002 0.20627487000000003 0.000111 -0.134213 0.79493
15520 -4.909188870000001 13.55267196 -0.66775689 0.038324 -0.122958 0.611448
15540 -4.58377155 12.51247842 -1.11847734 -0.126719 -0.05949500000000001 0.601668
15560 -3.2232520800000004 15.798445830000002 -3.8227509900000003 -0.392118 0.026535000000000003 0.629614
15580 -1.19302353 13.846805190000001 -3.3822133200000004 -0.5414329999999999 0.248738 0.602649
15600 -1.2481066800000002 12.920682330000002 -1.90224729 -0.5735520000000001 0.161857 0.7787930000000001
15620 -0.6027950700000001 13.739778090000001 -1.53326376 -0.543334 0.215109 0.7554350000000001
15640 0.64950048 10.94808753 -2.80651347 -0.514352 0.193946 0.6947760000000001
15660 1.19226816 9.484572870000001 -4.11838515 -0.602003 0.327571 0.388481
15680 -0.15687171 8.726102910000002 -4.74917796 -0.797095 0.23925700000000005 0.265454
15700 -2.52360288 7.95745017 -4.15221984 -0.987162 0.089002 -0.089263
15720 -4.223018610000001 7.693698510000001 -3.3280326900000006 -1.145609 0.08141799999999999 -0.452487
15740 -4.768788150000001 8.18662158 -1.73249505 -1.29574 0.423633 -0.6537310000000001
15760 -4.7105559900000005 8.964407430000001 -0.09430353000000001 -1.556929 -0.106628 -0.755289
15780 -3.5563015800000004 9.793087560000002 -0.07813665 -0.499054 -0.168757 0.010617
15800 -2.6490433500000004 10.594819619999999 -0.74545209 1.030822 0.381858 0.581414
15820 -2.00807757 10.40786064 -1.25334522 1.5524209999999998 0.938662 0.213671
15840 -0.37496763 9.27531576 -1.0220744700000002 1.038416 0.392228 -0.15241400000000002
15860 0.29503575000000004 9.06095745 0.04955031 0.210342 -0.579782 -0.380211
15880 0.15043635 8.87953131 0.57345336 -0.051757 -1.211647 -0.380164
15900 -0.04056435 7.9504164 0.6114769200000002 0.022312 -1.420299 -0.213805
15920 -0.10208286000000001 7.4184201000000005 0.7048877400000001 0.218101 -0.952696 -0.104078
15940 0.68303106 8.4047175 0.58947309 0.424165 -0.272436 -0.16974
15960 -0.011673900000000001 6.268511520000001 0.1240965 0.483991 0.111292 -0.278773
15980 -0.39383226000000005 7.18924869 0.89438751 0.440357 0.252545 -0.399967
16000 -1.2501962100000001 8.31849741 1.6735173300000001 0.38903 0.334208 -0.530754
16020 -1.8606332700000001 8.56908405 1.90359126 0.5057560000000001 0.595089 -0.6039800000000001
16040 -1.8239536800000002 7.934995080000001 1.74102975 0.635834 0.771642 -0.646026
16060 -1.40722488 10.927721970000002 2.05567569 0.567473 0.756955 -0.64328
16080 -0.8273263500000001 11.543250420000001 1.55840679 0.447371 0.639055 -0.6258090000000001
16100 0.99976653 12.26159748 -1.94161482 0.404896 0.5323289999999999 -0.539442
16120 -0.283509 15.75893115 0.6126737400000001 0.364804 0.543588 -0.390186
16140 -3.49268373 16.06159908 3.6866862900000004 0.263852 0.6208 -0.164527
16160 -2.3611885200000002 13.26451302 1.1214693900000001 0.29471 0.729903 -0.036265
16180 -0.9554645700000001 9.2110995 -2.3192802 0.312415 0.645637 -0.024282
16200 -0.72419382 7.040009159999999 -3.4000282800000003 0.35969 0.389115 -0.117627
16220 -0.27542556 7.15093083 -1.86003486 0.44544 0.094323 -0.264065
16240 -0.36494181 7.97212593 -0.65533743 0.4797520000000001 -0.011743 -0.408968
16260 -0.032785020000000005 9.23998995 -0.1329255 0.508538 -0.089314 -0.482374
16280 -0.30521853 10.817104409999999 0.21390705000000002 0.516699 -0.185167 -0.495013
16300 -0.44202879000000006 11.47813164 0.08592579000000002 0.48243 -0.157577 -0.438672
16320 -0.32662395 11.249705790000002 -0.05912487 0.574988 0.001019 -0.220312
16340 -0.5957612999999999 11.26587267 0.31838355 0.697416 0.105507 0.183129
16360 -0.8732862 10.53823554 0.72988362 0.698867 0.192846 0.185164
16380 -0.64710684 9.18953712 0.58213521 0.522652 0.264387 0.296005
16400 -0.37721412000000004 7.80761223 0.41449212 0.30037800000000003 0.462292 0.813354
16420 -0.70668297 6.547978800000001 0.37077876000000004 0.330197 0.539376 0.425699
16440 -1.30064904 5.55524604 0.055083150000000004 0.255351 0.916037 0.602019
16460 -1.6040625300000002 4.9274550900000005 -0.51327882 0.131677 0.963226 0.6299359999999999
16480 -1.9552311 5.035679010000001 -0.66102723 -0.212104 0.493226 0.448676
16500 -2.2731732 5.82244101 -0.61866765 -0.717298 -0.178082 0.13408699999999998
16520 -2.5225532100000003 7.48578537 -0.81715338 -1.007439 -0.7233350000000001 -0.188776
16540 -2.76594912 8.264463930000002 -0.84379734 -1.005573 -0.977161 -0.383922
16560 -3.3317703000000005 9.099275310000001 -0.62420049 -0.905039 -0.918934 -0.38009
16580 -3.6600423300000005 9.18729063 -0.33485454 -0.7237520000000001 -0.317098 0.006033
16600 -4.11120423 9.42051357 -0.08891784 -0.541601 0.16477 0.555754
16620 -4.66490025 10.110274290000001 -0.038023560000000005 -0.539067 0.206606 0.74693
16640 -4.9310455499999994 10.666668060000001 -0.01078119 -0.41826 0.012354 0.735204
16660 -4.95649269 10.981912410000001 0.3646377 -0.198452 -0.050983 0.6663180000000001
16680 -4.56101235 11.27081691 0.06930765000000003 -0.069858 -0.0031780000000000003 0.588106
16700 -3.40227477 12.58822143 -0.55728648 -0.147759 -0.043241 0.551294
16720 -2.553543 14.887440180000002 -3.20947884 -0.397124 -0.072779 0.694868
16740 -2.46058344 14.48597574 -2.81863863 -0.603388 -0.072379 0.773544
16760 -3.5893907100000004 15.051649770000001 -1.66258899 -0.624423 0.062711 0.84159
16780 -1.5037749000000002 17.10134136 -2.3285604600000003 -0.502985 0.150076 0.733367
16800 0.29728224000000003 13.792467600000002 -3.5214270300000003 -0.411132 0.15398199999999998 0.476563
16820 1.1632305600000001 11.17561086 -4.77896112 -0.4280560000000001 -0.096116 0.430831
16840 0.9744763500000001 8.83447398 -5.0448121200000005 -0.664171 -0.194375 0.166525
16860 -0.29129814000000004 7.62768702 -4.22945397 -0.962315 -0.19611 -0.206228
16880 -1.73459439 7.43054526 -3.0398737500000004 -1.106658 0.303408 -0.589232
16900 -2.82777174 7.522906410000001 -2.13201711 -1.293633 0.438347 -0.871653
16920 -3.5586952199999997 7.69953546 -1.3614219900000002 -0.95876 -0.239525 -0.806488
16940 -3.77843922 8.78687586 -0.71835687 0.767942 0.00998 0.301249
16960 -3.0078441000000002 10.202184180000001 -1.4000341500000002 1.865863 0.6235350000000001 0.425636
16980 -2.43977643 10.44258804 -1.6639427700000002 1.455451 0.6452060000000001 -0.108165
17000 -1.76932179 9.672287220000001 -1.0945213200000001 0.330164 -0.215027 -0.325362
17020 -0.60788646 8.89405011 -0.40117014 -0.148806 -0.989635 -0.404627
17040 -0.17528508000000004 9.05646447 0.21599658 0.008572 -1.474247 -0.297153
17060 -0.37721412000000004 8.530462080000001 0.021552570000000004 0.247137 -1.408605 -0.136406
17080 -0.8937891 7.53488442 -0.20238030000000004 0.362326 -0.675149 -0.106631
17100 -0.83660661 8.10295209 0.10657584 0.31419400000000003 0.034394 -0.08223899999999999
17120 -0.78347565 7.146437850000001 0.23890293 0.117618 0.368835 -0.164157
17140 -0.39068325000000004 7.48772775 0.32272938000000007 0.068827 0.544216 -0.290773
17160 -0.67569318 8.048614500000001 0.7741855799999999 0.220187 0.8202709999999999 -0.458849
17180 -0.27497430000000006 10.83701871 1.9130186700000003 0.389954 0.979902 -0.565758
17200 -1.6428316500000002 7.77947715 2.17408239 0.435906 0.872649 -0.690281
17220 -2.0246859 10.09111536 2.5950000600000007 0.43149 0.74415 -0.786287
17240 -1.87529922 10.679244480000001 2.6403615 0.431289 0.6994090000000001 -0.786231
17260 1.26815832 10.86500664 -1.44704367 0.377447 0.676871 -0.697916
17280 0.9909375300000001 13.87629405 -2.0686935600000007 0.290274 0.715757 -0.490272
17300 -2.8258195500000003 15.38186418 3.2934524400000003 0.300993 0.7360329999999999 -0.242395
17320 -2.7973803600000005 13.714929360000001 1.37668635 0.35109 0.641497 -0.0881
17340 -0.06392196 8.526714660000001 -2.66880069 0.379927 0.4166 -0.08227000000000001
17360 -0.44053767000000005 7.9040151000000005 -4.58241777 0.502482 0.294037 -0.174192
17380 -0.28216503000000004 8.37807354 -2.9987109899999997 0.602887 0.202547 -0.291946
17400 -0.13157172 8.54423532 -1.4310239400000002 0.56038 0.090379 -0.4427180000000001
17420 0.16720164 9.43144191 -0.5348412000000001 0.41721 0.030214 -0.457528
17440 -0.11750418000000001 11.40133896 -0.26779338 0.315431 0.035494 -0.357833
17460 -0.7086253500000002 11.78948142 -0.34143705 0.335491 0.055394000000000006 -0.29042
17480 -0.56088675 10.992840750000001 -0.6394746600000001 0.380119 0.024418 -0.042241
17500 -0.37467332999999997 11.394452339999999 -0.16794720000000002 0.384543 -0.045375 0.091407
17520 0.2809682100000001 11.010351600000002 0.35805518999999997 0.332382 0.034485 0.145419
17540 0.960399 9.633518100000002 0.39502908 0.256397 0.15114 0.076373
17560 0.86999004 8.04906576 0.11750418000000001 0.265438 0.423285 0.475602
17580 -0.329616 6.854099850000001 -0.22153923 0.259012 0.67877 0.260517
17600 -1.52503317 5.7910097700000005 -0.83540979 0.093097 0.693712 0.39714
17620 -2.16360531 5.023102590000001 -1.41186501 -0.190496 0.278118 0.410647
17640 -2.5765965 5.08178601 -1.5777226800000002 -0.5547300000000001 -0.250328 0.211159
17660 -2.7643010400000003 5.99712768 -1.75121253 -0.831435 -0.594533 -0.050979
17680 -2.88959436 7.040313270000001 -1.8136237500000003 -0.880583 -0.7185630000000001 -0.160122
17700 -3.05799282 7.89937497 -1.31337261 -0.833564 -0.717598 -0.175818
17720 -3.4097598000000002 8.677307970000001 -0.6011469899999999 -0.8145979999999999 -0.376342 -0.018026
17740 -3.64536657 8.89121502 -0.36838512000000007 -0.6515310000000001 0.094028 0.49312
17760 -3.58654581 9.358386840000001 -0.38140299 -0.654041 -0.015473 0.705819
17780 -3.84819813 10.39169376 -0.14414814 -0.5561119999999999 -0.303437 0.705804
17800 -4.07243511 11.13833286 0.28186092 -0.360011 -0.360535 0.695496
17820 -4.07467179 11.90219832 0.3972755700000001 -0.20317 -0.221129 0.596
17840 -3.82155417 13.430674800000002 -0.19414971 -0.193271 -0.140262 0.610921
17860 -3.26785815 13.41899109 -2.63721249 -0.342781 -0.122896 0.660061
17880 -3.05155746 13.95248832 -3.7145270700000004 -0.457935 -0.003602 0.763789
17900 -3.7365309000000004 13.64547456 -2.2870935900000005 -0.34765 0.123688 0.803921
17920 -4.211795970000001 13.621371390000002 -1.3867121699999998 -0.147883 0.20174 0.8255120000000001
17940 -2.6295803100000006 11.62706706 -2.34966177 -0.130842 0.147543 0.7776310000000001
17960 0.73826136 12.680435430000003 -3.9321717300000003 -0.317603 0.032384 0.434643
17980 1.15021269 9.155260980000001 -4.385580120000001 -0.577929 -0.143795 0.496075
18000 0.88690248 7.92332118 -4.25595078 -0.721222 -0.230703 0.243085
18020 -0.3558087 7.502403510000001 -3.50092413 -0.777917 -0.251969 0.016253999999999998
18040 -1.8045004500000001 7.387587270000001 -2.6680551300000004 -0.790708 -0.231864 -0.20498400000000006
18060 -2.6520354000000004 7.75776762 -2.00433015 -0.704372 0.197143 -0.470917
18080 -3.5251646400000003 8.65275354 -1.42982712 -0.838093 0.5492130000000001 -0.7532449999999999
18100 -4.40758395 10.468476630000001 -1.1148770700000001 -0.438877 0.393206 -0.713937
18120 -4.1876928 11.865822840000002 -2.032170930000001 0.929064 0.812292 0.387872
18140 -3.2337291600000007 11.74772025 -2.5415649900000004 1.62858 1.161574 0.346377
18160 -2.2546126800000006 10.42267374 -1.66244184 1.244272 0.948274 -0.057685
18180 -1.16906751 9.381440340000001 -0.48215169 0.615196 -0.010138 -0.395205
18200 -0.41837688 8.940157110000001 0.015264360000000001 0.263676 -0.650003 -0.448115
18220 -0.21225897000000002 7.9794540000000005 0.048353490000000006 0.14712999999999998 -1.029448 -0.295687
18240 -0.048353490000000006 7.7824692 0.1995354 0.137204 -1.056118 -0.011575
18260 -0.26435007 6.998993550000001 0.27961443 0.202717 -0.627423 0.084473
18280 0.54756477 7.674990840000001 0.3469797 0.198775 -0.103201 0.061341
18300 0.18516375000000002 5.68083366 -0.01107549 -0.0008349999999999999 0.181533 -0.108129
18320 -0.21316148999999998 6.409971720000001 0.25402014 -0.092628 0.412895 -0.344075
18340 -0.8732862 7.49535993 0.9879454800000002 0.00746 0.585095 -0.603175
18360 -1.8778498200000002 6.77147022 1.4651529300000001 0.24042600000000006 0.723512 -0.787596
18380 -1.40378157 9.04074885 1.9856224800000002 0.376766 0.8033680000000001 -0.8957040000000001
18400 -0.95231556 9.689346810000002 2.1308202900000004 0.341344 0.7990550000000001 -0.8521489999999999
18420 -0.85681521 11.10196719 2.1953308500000004 0.274254 0.781471 -0.659247
18440 -0.70338681 11.29461597 1.9007463600000003 0.154921 0.802295 -0.435781
18460 1.1214693900000001 12.76081857 -1.5126039000000002 -0.028447000000000007 0.795736 -0.235159
18480 -0.65174697 19.0125648 0.9657945 -0.147607 0.808226 -0.05868200000000001
18500 -3.02850396 17.87523264 3.74281911 -0.103642 0.7892819999999999 0.111496
18520 -0.90457029 12.545861850000001 0.01856052 0.028121 0.635567 0.076294
18540 -0.32512302000000004 8.943747570000001 -3.7073363400000003 0.105772 0.486549 -0.021249
18560 -0.39861954000000005 7.29807102 -4.14757971 0.111001 0.411106 -0.073459
18580 -0.2832147 6.644528820000001 -2.26628658 0.141003 0.369737 -0.143699
18600 -0.38844657000000005 7.531882560000001 -1.48236948 0.223204 0.30902 -0.215686
18620 0.18202455 8.84645199 -1.98547533 0.312269 0.111931 -0.289587
18640 0.50595075 10.64406582 -2.14773273 0.32143 -0.07735299999999999 -0.381147
18660 0.46478799 11.064993300000001 -1.9107721800000002 0.254695 -0.21876 -0.392115
18680 0.7156591200000001 10.917696150000001 -1.67501826 0.240991 -0.335165 -0.307672
18700 0.1588239 11.368406790000002 -0.6556317300000001 0.303016 -0.36485 -0.130944
18720 -0.42377238 10.650354029999999 -0.06856209 0.321955 -0.346054 -0.052854999999999985
18740 -0.36508896 9.24073551 -0.10298538000000002 0.232365 -0.274739 -0.226624
18760 -0.15014205 7.7427975600000005 -0.48184758000000005 0.352295 -0.191788 0.236647
18780 -0.34877493 6.78524346 -0.87448302 0.7729239999999999 -0.197357 -0.066987
18800 -0.9217868400000001 5.99937417 -1.02537063 0.935953 0.010912 0.18919
18820 -1.57936095 5.44223484 -1.13613534 0.721063 0.049456 0.326508
18840 -1.96137216 5.44747338 -1.42623666 0.246844 0.012443 0.40336
18860 -2.14743843 6.058803149999999 -1.5073653599999999 -0.15826400000000002 -0.192661 0.364473
18880 -2.3852916900000003 7.2393974100000005 -1.43252487 -0.269162 -0.478585 0.302108
18900 -2.69678862 8.84645199 -1.1563439400000002 -0.235406 -0.7061 0.159494
18920 -3.0967619399999995 9.402394500000002 -0.6506973 -0.302441 -0.8563700000000001 -0.031994
18940 -3.4658926200000004 9.7143525 -0.21899844000000002 -0.398531 -0.996151 -0.157468
18960 -3.7380220200000003 9.39835278 0.18037647 -0.494539 -0.973526 -0.137871
18980 -4.04893035 9.187447590000001 0.17543223 -0.657874 -0.801167 0.05732
19000 -4.218074370000001 9.27665973 -0.07648857 -0.664458 -0.526506 0.374184
19020 -3.93726312 9.302558130000001 0.004492980000000001 -0.5914149999999999 -0.416926 0.6127670000000001
19040 -3.5540550900000003 9.70955541 0.52705206 -0.561634 -0.398014 0.652475
19060 -3.37981968 10.27882971 0.8765725499999999 -0.5219060000000001 -0.418085 0.575867
19080 -3.16246932 11.3544864 0.78706611 -0.397359 -0.333995 0.484762
19100 -2.5691114699999997 12.029139720000002 -1.15349904 -0.346804 -0.280754 0.446591
19120 -3.38505822 13.591588230000001 -1.25664138 -0.426914 -0.27101 0.476997
19140 -4.469700870000001 15.083237970000003 -0.34233957000000004 -0.536916 -0.203885 0.569078
19160 -4.06734372 12.650789610000002 -1.45048698 -0.52174 -0.076404 0.643796
19180 -2.7482813100000003 16.40319309 -3.13627662 -0.340554 0.081844 0.606403
19200 -2.3845461300000004 12.93206193 -3.5194846500000003 -0.046172000000000005 0.104093 0.6479550000000001
19220 -1.75689252 10.216104569999999 -3.5100474300000006 0.149313 0.13334 0.623645
19240 -1.2623213700000002 8.36699805 -3.61947798 0.111012 0.121897 0.588141
19260 -0.77838426 7.313188230000001 -3.70195065 -0.082424 0.201742 0.5022979999999999
19280 -1.00456362 7.7005851299999994 -3.64536657 -0.216803 0.346439 0.397557
19300 -1.59538068 8.319547080000001 -3.2651604000000005 -0.322511 0.39861 0.230109
19320 -2.06390628 8.681045580000001 -2.96937909 -0.458346 0.329704 -0.002556
19340 -2.29637385 9.49819896 -2.8256724 -0.5846359999999999 0.217213 -0.26607600000000003
19360 -2.5921551600000003 10.365795360000002 -2.28724074 -0.627778 0.122408 -0.495924
19380 -2.7919946700000002 11.24521281 -1.38866436 -0.90722 0.5338430000000001 -0.579588
19400 -2.42420796 11.34176283 -1.16757639 -0.8800690000000001 0.355927 -0.8654540000000001
19420 -1.66782753 10.27194309 -1.23343092 0.232897 0.395227 0.327996
19440 -1.0463247900000001 8.85169053 -1.2798420300000002 1.352184 0.908157 0.8222659999999999
19460 -0.70922376 8.00580366 -1.20185253 1.549714 1.244681 0.4108810000000001
19480 -0.6523453800000001 7.937692830000001 -1.09392291 0.96159 0.581453 0.278368
19500 -0.66536325 8.42283657 -0.7851139200000001 0.498978 -0.206688 0.1063
19520 -0.75562506 8.75753415 -0.42451794000000004 0.179972 -0.803774 -0.016941
19540 -0.6195603599999999 8.39064996 -0.09190989000000001 -0.199437 -1.252805 -0.083109
19560 -0.43544628 7.41482964 0.03382488 -0.437999 -1.419131 -0.106995
19580 -0.31598991000000004 6.731053020000001 0.25177365 -0.369876 -1.254101 -0.144118
19600 -0.42676443000000003 5.67994095 0.47855142 -0.16559100000000002 -0.934041 -0.17407999999999998
19620 -0.5001138 5.89369104 0.86250501 -0.027249 -0.645401 -0.281374
19640 -0.68497344 6.694530390000001 1.09946556 0.164872 -0.334279 -0.463097
19660 -0.8458868700000001 7.988292810000001 1.5256315800000002 0.263586 -0.131579 -0.6229
19680 -1.00800693 8.285123790000002 1.51844085 0.388459 0.031315 -0.7076939999999999
19700 -0.5201654400000001 9.51870186 1.6777160100000001 0.556036 0.208939 -0.783663
19720 -0.9529139700000001 10.603501470000001 1.7727651000000002 0.6971390000000001 0.33071 -0.721945
19740 -1.48161411 11.46600648 1.76782086 0.6714439999999999 0.40605 -0.626081
19760 -2.16284994 12.1785264 1.0377900899999999 0.544127 0.379649 -0.573526
19780 -0.8698428900000001 13.004057520000002 -1.24091595 0.341443 0.351727 -0.60802
19800 -2.62838349 17.95815657 0.37795968 0.136483 0.461508 -0.711074
19820 -3.2778839700000004 14.677878960000001 2.0915999100000002 0.033486 0.580076 -0.702331
19840 -1.67441985 12.915296640000003 0.24878160000000002 0.06952 0.663555 -0.5643859999999999
19860 -1.0490225400000002 11.760747930000003 -1.8152718300000001 -0.02131 0.559873 -0.398245
19880 -0.8090699400000001 10.294986780000002 -2.01391452 -0.215883 0.36932 -0.262627
19900 -1.14871176 8.57956113 -1.37534238 -0.323734 0.227544 -0.145695
19920 -0.7125199200000001 7.956998909999999 -1.50347079 -0.182321 0.154474 -0.11043
19940 0.13995926999999997 8.85453543 -2.09803527 0.055062 0.013121 -0.132092
19960 0.38604312 10.30562082 -2.25550539 0.279374 -0.140096 -0.105759
19980 -0.10073889000000001 10.79809263 -1.7497116 0.369521 -0.226832 -0.071904
20000 -0.28755072000000004 10.842551550000001 -1.20783663 0.403483 -0.170875 0.024402
20020 -0.8119148400000001 11.1546567 -0.6331864500000001 0.469863 -0.059492 0.084543
20040 -1.7452186200000002 11.10481209 0.00538569 0.579565 0.20510100000000006 0.154405
20060 -1.9454995800000001 10.23107463 0.017363700000000003 0.673499 0.485875 0.187816
20080 -1.5916430700000002 8.967703590000001 -0.10328949000000001 0.6379 0.494136 0.283697
20100 -0.7427543400000001 8.36415315 -0.21135645000000003 0.400157 0.448433 0.197705
20120 -0.3526695 7.61496345 -0.67524192 0.297031 0.371661 0.038986
20140 -0.26539974000000005 6.81308424 -1.0373388300000002 0.410569 0.4748020000000001 0.520347
20160 -0.27632808 5.98710186 -1.02491937 0.6051 0.385211 0.112692
20180 -0.37077876000000004 5.96135061 -0.86265216 0.513618 0.489749 0.15678399999999998
20200 -0.72239859 5.9112117 -0.88166394 0.199572 0.372729 0.122694
20220 -1.3727917800000002 7.01486613 -1.0060547400000002 -0.201575 0.062298 0.046582
20240 -1.9685530800000002 7.8540135300000005 -1.2148704000000001 -0.345723 -0.102714 0.14513099999999998
20260 -2.18965086 8.191712970000001 -1.3823761500000002 -0.169103 -0.134529 0.22225
20280 -2.8241812800000003 8.44723404 -1.13209362 -0.061575 -0.218925 0.188926
20300 -3.7483519500000004 8.268054390000001 -0.70128747 -0.280138 -0.327316 0.045464
20320 -4.73495346 7.81045713 -0.48319155 -0.578716 -0.403597 -0.06655
20340 -5.2558742700000005 7.6673586600000005 -0.6153714899999999 -0.766632 -0.5293329999999999 -0.161705
20360 -5.277878100000001 8.168816430000001 -0.8348113800000001 -0.7536430000000001 -0.522845 -0.196874
20380 -4.850368110000002 8.8439112 -0.6059440800000001 -0.481526 -0.387928 -0.073369
20400 -4.17257559 9.72078786 0.18681183 -0.224518 -0.299796 0.041545
20420 -3.74176944 11.14717167 0.6491963700000001 -0.040917 -0.232443 0.088674
20440 -3.3465932100000004 12.538975230000002 0.84992859 0.117094 -0.129976 0.167627
20460 -2.1914460900000003 13.220358210000002 0.15687171 0.194802 -0.034911000000000005 0.302644
20480 -2.0122664400000003 14.940580950000001 -2.1911419800000003 0.073854 -0.015740999999999998 0.408597
20500 -2.66566149 14.38478559 -2.1891996000000002 -0.214343 0.039249 0.493039
20520 -3.6872847 15.02186661 -1.90478808 -0.560016 0.054242 0.506629
20540 -3.78637551 14.74733376 -2.59695225 -0.756041 0.013796 0.401694
20560 -2.5896143700000005 15.29743932 -3.3998811300000003 -0.630192 0.027003 0.186775
20580 -2.17557351 12.03945984 -3.2998878000000005 -0.317345 0.12152 -0.010918
20600 -1.53685422 9.37710432 -3.1451056200000003 -0.027276 0.215783 -0.125449
20620 -1.18089837 7.47815319 -2.6955918000000003 0.098729 0.189981 -0.17581
20640 -1.22520033 6.830143830000001 -2.1802136400000003 0.037644 0.124168 -0.181494
20660 -1.3239968400000002 7.42710195 -1.9625689800000001 -0.102407 0.069225 -0.172788
20680 -1.3397124600000003 7.793691840000001 -2.20581774 -0.134442 0.059762 -0.176204
20700 -1.4956914600000002 8.099960040000001 -2.3140416600000004 -0.028199 0.172413 -0.201244
20720 -1.7738147700000002 8.861127750000001 -2.10343077 0.038675 0.266198 -0.26926300000000003
20740 -1.76961609 9.8968185 -1.5798122100000003 -0.048769 0.198633 -0.346699
20760 -1.8952135200000002 10.859463990000002 -0.6511485600000001 -0.22554 0.011856 -0.371195
20780 -1.8995495400000002 11.102114340000002 0.02185668 -0.319793 -0.040133 -0.341877
20800 -1.5699335399999998 9.926758620000001 0.07364366999999998 -0.102721 0.201462 -0.208211
20820 -1.27205289 8.29335438 -0.41523768 0.157349 0.436938 0.085997
20840 -1.28178441 6.868314540000001 -0.85547124 0.168646 0.410092 0.395895
20860 -1.34659908 6.1022124 -1.06682769 0.117127 0.579647 0.396386
20880 -1.26815832 6.23588346 -1.0593426599999998 -0.102623 1.092683 0.427308
20900 -0.9554645700000001 6.92295624 -0.9428881500000001 -0.12046099999999997 1.853424 0.409117
20920 -0.64650843 7.60254399 -0.68452218 0.556651 2.1677720000000003 0.332259
20940 -0.16720164 7.978561290000001 -0.19623924 0.6062850000000001 1.880674 0.15778499999999998
20960 0.05988024 8.01477981 0.29338767 -0.486251 1.262791 -0.220795
20980 -0.22483539 8.02197054 0.6936552900000001 -1.450943 0.394014 -0.5714560000000001
21000 -0.7664062500000001 7.74818325 0.9939295800000001 -1.831192 -0.06447 -0.93672
21020 -1.2350790000000003 7.19104392 1.07521524 -1.567733 -0.029475 -1.125068
21040 -1.69821891 7.16140791 1.1533518900000002 -0.8256879999999999 0.29099 -0.923743
21060 -2.04564987 7.25526018 1.31681592 -0.002418 0.751352 -0.613071
21080 -2.22512382 7.315885980000001 1.5646950000000002 0.172734 1.205016 -0.19689
21100 -2.37301938 7.83575712 2.0270893500000002 -0.166698 1.672783 0.06933099999999999
21120 -2.44022769 8.71113285 1.90703457 -0.524249 2.027103 0.216999
21140 -2.7331641 9.94845834 1.4844590100000001 -0.570275 2.156462 0.141736
21160 -2.97505908 11.22635799 0.94962762 -0.454927 2.128477 -0.152252
21180 -3.5904305700000005 12.18825792 0.84095244 -0.41028 1.975284 -0.50853
21200 -4.5640044 12.2738796 1.04197896 -0.414015 1.843147 -0.760487
21220 -4.92116688 10.797945480000001 0.7188081300000001 -0.385133 1.766722 -0.854191
21240 -3.7601828100000003 9.03715839 -0.57330621 -0.45136 1.812504 -0.790618
21260 -3.30168303 7.795035810000001 0.54876159 -0.63918 2.017887 -0.574276
21280 -1.97484129 11.61254826 0.5686660799999999 -0.852081 2.1868 -0.273673
21300 -0.5897772000000001 16.860034980000002 0.50983551 -0.934159 2.23182 -0.00618
21320 0.22034241 19.41357798 0.26644941 -0.877033 2.239676 0.110645
21340 1.7687233800000002 16.580420550000003 -1.24017039 -0.77161 2.171228 0.0869
21360 4.58076969 11.98827126 -3.88606473 -0.690552 2.059518 -0.019213
21380 4.93898184 10.336453650000001 -4.05012717 -0.704661 1.871556 -0.15473499999999998
21400 3.6782987400000002 9.393418350000001 -2.05986456 -0.721417 1.601448 -0.258123
21420 1.5470370000000002 7.7029787700000005 -0.33919056000000003 -0.708703 1.335122 -0.267307
21440 -0.97222986 6.95828205 -0.78690915 -0.728803 1.254817 -0.147704
21460 -3.2419597500000004 7.506739530000001 -1.99714923 -0.645053 1.337869 0.055737
21480 -3.99653514 7.95550779 -2.17572066 -0.471442 1.427191 0.211727
21500 -3.03523362 8.63179938 -1.7036045999999998 -0.254984 1.47726 0.290087
21520 -1.3368675600000002 10.11895614 -1.55167713 0.011828 1.49445 0.288724
21540 0.54845748 11.151360539999999 -1.5971759099999998 0.322146 1.434886 0.263194
21560 2.12618016 11.06798535 -1.25963343 0.457162 1.271657 0.206662
21580 2.44022769 10.280624940000001 -0.79919127 0.680376 1.218041 0.101468
21600 0.97911648 9.06215427 -0.9668441700000001 0.862798 1.305347 -0.044784
21620 -0.70144443 8.11283076 -1.7142386400000003 0.7889649999999999 1.588371 -0.428086
21640 -1.8034507800000001 7.909400790000001 -2.39876082 0.5438529999999999 1.769726 -0.546467
21660 -2.80725903 8.08678521 -2.5523461800000002 0.476566 1.583267 -0.4794
21680 -3.51604134 8.59527675 -2.39457195 0.352417 1.3170389999999998 -0.660455
21700 -3.7778408100000003 8.84645199 -1.63160901 0.044847000000000005 1.244515 -0.904997
21720 -3.53205126 8.653057650000001 -0.26030835 -0.717433 1.060913 -1.215598
21740 -2.84169213 8.100558450000001 1.061442 -1.515009 1.144944 -0.7598050000000001
21760 -2.3635821600000004 7.697288970000001 1.51125993 -1.702028 1.413856 -0.181411
21780 -2.42420796 7.79818482 1.36156914 -1.41649 1.611035 0.34375900000000004
21800 -2.9660829300000007 8.1843849 0.9060614100000001 -1.168417 1.959739 0.571508
21820 -3.53654424 8.7514029 0.4601478600000001 -0.843283 1.950944 0.623997
21840 -3.77649684 9.509274450000001 0.35446473 -0.297399 1.804428 0.5607
21860 -4.06703961 9.61840089 0.7057804500000001 0.07631900000000001 1.7630860000000002 0.452268
21880 -4.17975651 9.33114447 1.4388032700000002 -0.192967 1.623586 0.406769
21900 -4.15086606 9.0260829 2.6815242599999998 -0.909346 1.168446 0.295526
21920 -4.04099406 8.47432926 3.72395448 -1.2220879999999998 0.794979 0.189134
21940 -3.75538572 7.658971110000001 4.3822839600000005 -0.958038 0.5962350000000001 0.111117
21960 -3.2723413199999998 7.338193919999999 4.0478806800000005 -0.497681 0.520946 0.158226
21980 -3.20214096 8.52747003 2.7744838200000004 -0.049567 0.393258 0.266205
22000 -3.78398187 10.078695900000001 2.4010073100000002 0.210009 0.255883 0.295968
22020 -3.48849486 11.02292802 0.29278926000000005 0.223953 0.071396 0.332622
22040 -2.8130959800000004 13.45880988 -1.5356574000000003 0.160111 -0.119101 0.340966
22060 -1.7221651200000003 15.36180273 -2.7937899 0.170257 -0.301034 0.27504
22080 -0.16839846000000003 13.32528597 -5.07744018 0.192729 -0.444288 0.116215
22100 0.7896069 12.09230631 -6.780897629999999 0.17955 -0.492432 -0.08677699999999999
22120 0.42466509 12.01850568 -6.14412072 0.02075 -0.5532699999999999 -0.186085
22140 1.19690829 11.801753730000001 -4.41656991 -0.259415 -0.567723 -0.058769000000000016
22160 1.52443476 11.07202707 -1.7613855 -0.415388 -0.417764 0.137571
22180 2.5372191600000003 10.889855370000001 1.15170381 -0.346411 0.118315 0.282644
22200 2.7210389399999997 10.10683098 1.1784949200000001 -0.087826 0.7988270000000001 0.640364
22220 0.6039918900000002 8.410112999999999 -0.71820972 -0.153108 1.099029 0.748482
22240 -1.8925157700000002 7.050937500000001 -2.38469328 -0.399938 1.439913 0.697183
22260 -4.64753655 7.786952370000001 -2.29548114 -0.6990810000000001 1.684394 0.55698
22280 -5.655837780000001 8.951831010000001 -2.24607798 -0.37436 1.879789 0.429743
22300 -5.65284573 8.89061661 -2.6490433500000004 0.021343 2.02144 0.360754
22320 -4.421504340000001 8.96650677 -2.28439584 -0.351692 1.6741099999999998 0.164177
22340 -3.4922422800000006 9.231003990000001 -0.42736284 -1.175889 0.911708 -0.004041
22360 -2.78900262 8.931024 1.78788231 -1.18319 0.719841 -0.234582
22380 -2.15327538 8.400077370000002 3.07624923 -0.7335020000000001 0.7589600000000001 -0.549821
22400 -1.9008935100000002 7.707471750000001 2.9457271800000004 -0.404575 0.962772 -0.6546069999999999
22420 -2.4617802600000003 6.656653980000001 2.2248197100000002 0.0016760000000000002 1.330273 -0.469574
22440 -3.5296576200000005 6.354731610000001 1.53895356 0.38022 2.022457 -0.203966
22460 -4.188438360000001 6.89600817 1.2813331500000003 0.433915 2.650589 0.110729
22480 -3.96360297 7.62694146 1.4094713700000001 0.158802 2.77698 0.442999
22500 -3.3112674 8.21551203 1.44898605 -0.119882 2.660084 0.613186
22520 -2.7807720300000005 8.772062759999999 1.2620270700000003 -0.425892 2.599667 0.270363
22540 -2.11644864 9.708809850000002 0.9660888000000001 -0.8193360000000001 2.380447 -0.24378200000000005
22560 -1.4498885700000002 10.50231132 0.9023238000000001 -0.985607 2.245254 -0.656036
22580 -0.4939727400000001 10.73208114 1.4835663000000001 -0.68216 2.406826 -0.831448
22600 0.2689902 10.94388885 2.82866445 -0.405618 2.448501 -0.8370479999999999
22620 1.2717585900000001 11.19971403 2.83435425 -0.310281 2.387083 -0.745504
22640 2.6092245600000004 11.551324050000002 2.87955873 -0.110916 2.345944 -0.7536729999999999
22660 1.6789128300000002 13.943208060000002 2.05672536 -0.04292 2.192669 -0.8438
22680 1.78099569 18.282377070000003 0.5022033300000001 -0.131733 1.915823 -1.0641200000000002
22700 0.66596166 18.45901593 -0.26539974000000005 -0.171926 1.704182 -1.116472
22720 1.2148704000000001 15.22289313 -1.7667711900000003 -0.12226 1.366293 -1.110351
22740 1.97244765 11.49564249 -4.44515625 -0.069128 1.002213 -0.951416
22760 1.8764960400000001 10.234066680000002 -5.697903060000001 -0.061937 0.8005680000000001 -0.614618
22780 0.46897686000000005 9.3645279 -3.72096243 -0.061834 1.00342 -0.195066
22800 -1.38866436 8.6273064 -2.7333112500000003 0.040424 1.463286 0.065705
22820 -3.0476628900000002 8.34843753 -2.36073726 0.138604 1.692145 0.290424
22840 -3.7068948900000005 8.30069226 -2.5590758399999998 0.15635 1.68632 0.133527
22860 -2.17482795 8.36311329 -2.20551363 0.289873 1.420859 0.069638
22880 0.09430353000000001 9.373504050000001 -1.33836849 0.601266 1.075998 -0.005725
22900 2.1333610800000002 10.61173206 -1.19271942 0.619726 1.045562 0.130107
22920 2.6887051800000004 10.55978811 -1.1410795800000002 0.441035 0.97474 0.4130970000000001
22940 2.65188825 9.44790309 -1.24975476 0.5142439999999999 1.006062 0.7746270000000001
22960 1.9227501900000001 8.95019274 -1.7637791400000002 0.383564 0.808706 0.691714
22980 -0.15208443 8.6705685 -2.0411568900000003 -0.047558 0.6201939999999999 0.522302
23000 -2.55563253 9.0636552 -2.41028757 -0.326086 0.261419 0.17578
23020 -4.02482718 9.684412380000001 -2.61192231 -0.35773 -0.066949 0.002928
23040 -4.80844998 10.14710103 -2.1814104600000004 -0.394223 -0.197522 -0.079413
23060 -4.68750249 9.16858296 -1.1946618 -0.309452 -0.150698 -0.140837
23080 -3.7233560700000004 7.698044340000001 -0.2565707400000001 -0.202972 -0.135339 -0.07815599999999999
23100 -2.61386469 6.72775686 0.2891988000000001 -0.25737 -0.162615 0.129802
23120 -2.70592173 6.61608963 0.6848262900000002 -0.42873 -0.07560399999999999 0.363502
23140 -3.4467336900000003 6.611449500000001 0.91818657 -0.676817 -0.005224 0.560369
23160 -3.9808195200000003 7.49281914 1.0933245 -0.8819899999999999 -0.027088 0.611306
23180 -4.191734520000001 8.032447620000001 1.0565075700000002 -0.975984 -0.165849 0.49546
23200 -4.4557804800000005 8.5982688 1.15918884 -0.8985709999999999 -0.14967 0.378475
23220 -4.61790054 9.87301944 1.83353805 -0.627979 -0.023753 0.356703
23240 -4.277954610000001 12.44691819 2.4941140200000005 -0.188187 0.133018 0.4642600000000001
23260 -3.0621816899999996 12.920976630000002 3.3184483200000003 0.183004 0.296108 0.64931
23280 -3.0544023600000005 13.57332201 2.4501063600000004 0.349114 0.398158 0.825527
23300 -3.3681457800000003 13.51613952 -0.15178032 0.220196 0.488948 0.8768540000000001
23320 -4.83449553 12.74869341 -1.0334540700000001 -0.067926 0.363743 1.00212
23340 -4.97056023 12.595255200000002 -2.23919136 -0.43221 0.176786 0.91863
23360 -3.64447386 12.84644025 -3.5301088800000002 -0.855922 -0.002254 0.77169
23380 -1.92829284 12.26369682 -4.7901935700000005 -1.144606 -0.16000599999999998 0.5124340000000001
23400 -0.7819747200000001 11.50851321 -5.19434595 -1.229116 -0.28946500000000003 0.193679
23420 -0.182466 9.64219995 -4.7006773200000005 -1.158351 -0.34786300000000003 -0.181766
23440 -0.5215192200000001 9.03221415 -3.64492512 -0.985868 0.187546 -0.7570180000000001
23460 -1.2325382100000002 9.425448000000001 -2.70831537 -0.936723 0.532153 -0.664181
23480 -1.7311510800000003 9.36048618 -2.75696316 -0.774239 0.20720500000000006 -1.061077
23500 -1.9978947900000001 9.087454260000001 -3.2744406600000002 0.432311 0.720912 -0.038497
23520 -1.88772849 9.231308100000001 -3.3810165000000003 1.459023 1.2822360000000002 0.687937
23540 -2.06645688 9.83843919 -2.68721406 1.424474 1.011326 0.268232
23560 -2.61341343 10.421182620000002 -1.7173778400000002 0.622096 -0.140002 -0.15998099999999998
23580 -2.44472067 10.08377748 -1.41215931 0.111297 -1.031051 -0.396348
23600 -1.73878326 9.61510473 -1.34255736 -0.043742 -1.547307 -0.362586
23620 -0.8674492500000001 9.66704868 -1.2710032199999999 0.03493 -1.630477 -0.145081
23640 -0.9848062800000001 10.03617936 -0.5469663599999999 0.13475399999999998 -1.070184 0.045042
23660 -1.18238949 9.70851555 0.09879651 0.193836 -0.219432 0.09457
23680 -0.96130152 8.940009960000001 0.44338257000000003 0.189402 0.31167100000000003 -0.050351
23700 -0.67344669 7.634877750000001 0.71401104 0.233253 0.514049 -0.34833800000000004
23720 -0.70428933 7.4562965100000005 0.7081740900000001 0.409515 0.743658 -0.644367
23740 -0.7171600499999999 6.42059595 0.69545052 0.575087 0.898063 -0.772663
23760 -1.0282155300000004 5.85387225 0.20207619000000002 0.64276 0.883383 -0.889676
23780 -0.78915564 6.63749505 0.2576106 0.5786859999999999 0.7265229999999999 -1.034132
23800 -0.96967926 7.55119845 0.48079791 0.448174 0.606769 -1.076551
23820 -0.76925115 8.336910779999998 0.97342668 0.374349 0.642913 -0.993792
23840 -0.34428195 9.41556933 1.4801229900000001 0.333291 0.768854 -0.751754
23860 0.023799060000000004 10.91874582 2.0694489300000005 0.334097 0.770849 -0.452648
23880 -0.38814245999999997 11.54743929 1.4937392700000003 0.350163 0.515365 -0.246042
23900 0.75742029 12.05772606 -1.48326219 0.343683 0.186515 -0.320441
23920 -1.10320317 16.58476638 -0.046705409999999996 0.378091 0.107059 -0.460036
23940 -3.40856298 17.280364050000003 2.9809058400000006 0.411367 0.239641 -0.610593
23960 -1.87140465 14.10726069 -0.1414602 0.450459 0.341972 -0.660658
23980 -0.04116276 9.47215341 -3.72754494 0.463568 0.434508 -0.636115
24000 -0.7146094500000001 8.77011057 -3.66633054 0.338954 0.419323 -0.4607100000000001
24020 -0.45206442 7.487580600000001 -1.96302024 0.199932 0.170397 -0.161192
24040 0.11121597 7.138658520000001 -1.33117776 0.059747 -0.058234 0.6574479999999999
24060 0.24204213000000002 8.3062251 -1.40902011 0.191151 0.061251 0.500116
24080 -0.04475322 10.27149183 -1.1365866 0.212564 0.389937 0.336407
24100 -0.47795301 11.368112490000001 -0.5469663599999999 0.092354 0.452204 0.32053200000000004
24120 -0.59396607 11.12516784 -0.50789313 0.001944 0.535522 0.342227
24140 -0.7156591200000001 11.10300705 -0.28485297000000004 -0.124267 0.607824 0.485462
24160 -0.66057597 10.79719992 0.24578955000000002 -0.345445 0.297531 0.485383
24180 -0.14534496 9.493107570000001 0.30027429 -0.738398 -0.281666 0.215257
24200 -0.07499745000000001 7.549099110000001 -0.11376657 -1.0161129999999998 -0.689476 -0.123718
24220 -0.62794791 5.68382571 -0.5146326 -0.969576 -0.761197 -0.343355
24240 -1.5054229799999999 4.37525019 -1.32265287 -0.730731 -0.6328159999999999 -0.4209
24260 -2.0430992700000004 4.14383229 -1.8989511300000002 -0.626555 -0.21559 -0.15472
24280 -2.5146169200000004 4.960534409999999 -2.00762631 -0.601744 0.334167 0.3372
24300 -2.8560637800000004 6.26118345 -2.07902349 -0.691825 0.391361 0.497799
24320 -3.17055276 7.70986539 -2.2132929600000004 -0.527099 0.189687 0.439387
24340 -3.5848977300000002 9.405837810000001 -1.5444864 -0.260734 0.080221 0.4104100000000001
24360 -4.0203440100000005 10.37043549 -0.57600396 -0.1316 0.079809 0.401698
24380 -3.9421975500000004 10.234517940000002 0.22737618 -0.096533 0.074257 0.427588
24400 -3.95133066 10.798995150000001 0.7997896800000001 -0.122072 -0.022038 0.554651
24420 -4.4652177 11.96775855 0.5580418500000002 -0.240233 -0.065845 0.689546
24440 -4.39531164 11.63919222 0.20432268 -0.247379 0.099983 0.784355
24460 -4.63765788 13.645621710000002 -1.40483124 -0.148768 0.315433 0.899068
24480 -4.4638639200000005 12.56801283 -4.17092751 -0.061141 0.387403 0.94018
24500 -4.7720745 12.29767866 -4.18649598 -0.12298599999999997 0.319745 0.863991
24520 -5.41319724 12.61486539 -2.77403256 -0.33415300000000003 0.127445 0.652323
24540 -4.38902343 13.504769730000001 -2.08262376 -0.5773659999999999 0.057126 0.333452
24560 -1.1642802300000001 12.559782240000002 -2.5268990400000004 -0.617761 0.047739 0.05224
24580 0.9824028300000001 10.26250587 -3.3265317600000004 -0.647907 0.141812 -0.26962600000000003
24600 1.59538068 8.58525093 -3.7326363300000005 -0.673922 0.275114 -0.282798
24620 0.70323966 8.10130401 -3.41994258 -0.974922 0.8687020000000001 -0.611468
24640 -1.18657836 7.847431020000001 -2.4739054200000004 -0.747146 0.660535 -0.699341
24660 -2.65308507 7.72873002 -1.51635132 0.71239 1.189398 0.31003200000000003
24680 -3.3620047200000003 8.092622160000001 -1.18209519 1.613253 1.800955 0.837901
24700 -3.8872615500000003 9.21378744 -0.8658011700000001 1.42181 1.6641130000000002 0.327197
24720 -4.1065641 10.813366799999999 -0.45834282000000004 0.752192 0.694172 -0.022341
24740 -3.55899933 11.9385738 -1.23852231 0.324343 -0.082925 -0.322368
24760 -2.48708025 11.31047874 -1.49658417 0.095648 -0.488725 -0.407835
24780 -1.8043434900000002 10.10338767 -0.9725241600000001 -0.022579 -0.558056 -0.28359
24800 -1.62037656 8.82145611 -0.28769787 -0.057239 -0.337819 -0.184769
24820 -1.5971759099999998 7.86988611 0.043860510000000005 -0.057604 0.059515 -0.181008
24840 -1.6082514 7.0663588200000005 -0.030391380000000003 -0.073187 0.384501 -0.186875
24860 -1.5001844400000002 6.05670381 -0.09160578000000001 -0.114081 0.507297 -0.223637
24880 -1.4188987800000001 6.296058 0.33919056000000003 -0.117481 0.585536 -0.339129
24900 -1.6164918 6.007006350000001 0.27348318 0.015004 0.7442880000000001 -0.460184
24920 -0.48364281 6.067779300000001 0.30371760000000003 0.258936 0.998581 -0.594471
24940 -0.36508896 6.91083108 0.58198806 0.376795 1.085621 -0.618328
24960 -0.6779396700000001 7.945923420000001 1.06218756 0.323799 0.971637 -0.572619
24980 -1.22699556 8.696918160000001 1.68578964 0.166328 0.8464149999999999 -0.556466
25000 -1.44673956 9.65447226 2.03936166 -0.037229000000000005 0.772095 -0.442425
25020 -1.07132067 10.340642520000001 1.74776922 -0.268618 0.734815 -0.509155
25040 -0.88600977 12.19424202 1.6175316599999998 -0.301676 0.783749 -0.463515
25060 -1.3063290300000001 11.344156470000001 0.80802027 -0.13592200000000002 0.714662 -0.380016
25080 0.35116857000000007 13.800256740000002 -1.88921961 -0.034606 0.5159779999999999 -0.332052
25100 -3.0344880600000006 17.75248011 1.25319807 -0.010624 0.447494 -0.276249
25120 -3.32593335 15.678400860000002 2.69903511 0.024166 0.441695 -0.188404
25140 -0.73617183 11.60266959 -0.78122916 0.12301 0.427223 -0.118261
25160 -0.38993769 10.89554517 -3.3103648800000003 0.228126 0.35638000000000003 -0.075775
25180 -0.68812245 9.139094100000001 -2.50444395 0.264359 0.123966 -0.061337
25200 -0.76311009 8.064781380000001 -1.46440737 0.265596 -0.127235 -0.11335
25220 0.20582361000000002 7.59505896 -1.7458170300000002 0.28935700000000003 -0.362492 -0.17590699999999998
25240 1.4280318900000002 8.46115443 -2.3772082500000002 0.409927 -0.464757 -0.280688
25260 1.49538735 9.59564169 -2.23949547 0.5594600000000001 -0.35796500000000003 -0.210346
25280 0.67554603 9.85759812 -1.7775523800000002 0.74047 -0.232766 -0.241289
25300 -0.07229970000000002 9.854753220000003 -1.56230136 0.732201 -0.001091 0.17069
25320 -0.82748331 10.313557110000001 -1.2434665500000002 0.578541 -0.052680999999999985 -0.114464
25340 -1.77905331 10.42686261 -1.10963853 0.439023 -0.171654 0.188089
25360 -2.2213764 9.78859458 -1.0958751 0.463103 0.085786 0.7882680000000001
25380 -1.8381781799999999 8.93551698 -1.01279421 0.511588 0.221742 0.580129
25400 -1.57397526 7.4820379500000005 -1.09287324 0.265527 0.344959 0.61564
25420 -1.2487050900000003 6.59917719 -1.37130066 -0.063331 0.169747 0.494995
25440 -1.2060414 6.514752330000001 -1.4003382600000003 -0.411197 -0.201403 0.372332
25460 -1.51365357 6.12675702 -1.37862873 -0.727932 -0.591588 0.187953
25480 -1.63146186 6.73179858 -1.14332607 -0.8187979999999999 -0.8991239999999999 -0.081479
25500 -1.7765027100000002 7.10243019 -1.06847577 -0.71325 -1.054463 -0.22048
25520 -2.10911076 7.2533178000000005 -1.2552876 -0.5742520000000001 -0.918867 -0.151317
25540 -2.7264344400000002 7.47560259 -1.00157157 -0.635322 -0.653633 0.172656
25560 -3.7065907800000004 7.9198778700000005 -0.38844657000000005 -0.687193 -0.411073 0.564021
25580 -4.24801449 8.275088160000001 -0.06242103000000001 -0.805705 -0.321616 0.6731050000000001
25600 -4.54259898 8.38122255 -0.04999176 -0.8148850000000001 -0.312719 0.587572
25620 -4.56610374 8.47567323 -0.19264878 -0.596565 -0.294837 0.455546
25640 -4.58496837 8.82310419 -0.33605136 -0.3677 -0.274982 0.353502
25660 -4.53676203 9.32860368 -0.02185668 -0.283403 -0.331497 0.294343
25680 -4.50473238 10.04935419 0.14849397 -0.351865 -0.348396 0.317387
25700 -4.569547050000001 11.084750640000001 0.5146326 -0.386268 -0.268936 0.455914
25720 -3.96600642 11.425442129999999 0.5667237 -0.34065500000000004 -0.065725 0.480541
25740 -3.3614063100000005 13.14327123 -0.8720893800000001 -0.22890700000000005 0.008971999999999999 0.617958
25760 -2.73765708 12.90616353 -1.6378972200000002 -0.194772 0.020519 0.631001
25780 -3.1921151400000003 15.19370838 -1.69417719 -0.366293 -0.023225 0.530514
25800 -4.01899023 14.678026110000001 -2.44231722 -0.6552899999999999 0.028713 0.313716
25820 -3.53145285 13.22394867 -2.85831027 -0.8771329999999999 0.034741 0.064331
25840 -2.6662599000000005 15.572717730000003 -3.6564420600000003 -0.844274 -0.005991 -0.167191
25860 -1.96601229 11.869717410000002 -3.62261718 -0.660899 -0.011206 -0.619898
25880 -1.2816372600000001 9.67797702 -4.06404756 -0.7485430000000001 0.485179 -0.801676
25900 -1.18418472 8.34484707 -4.0760255700000005 -0.8837010000000001 0.221868 -0.903763
25920 -1.41755481 8.104443210000001 -3.5164827900000004 -0.055353999999999993 -0.094018 0.11617
25940 -1.8959590800000001 8.21641455 -3.1714552800000004 1.071773 0.404471 0.7515189999999999
25960 -2.40909075 8.105944140000002 -2.77941825 1.404484 1.01706 0.449683
25980 -2.7193908600000003 8.447086890000001 -2.11016043 0.966982 0.457348 0.140764
26000 -2.87671383 9.66585186 -1.25334522 0.5583020000000001 -0.278467 -0.110043
26020 -2.72613033 10.7641206 -0.86265216 0.352108 -0.6534909999999999 -0.185778
26040 -2.0239403400000002 10.468780740000001 -0.8617594500000001 0.108866 -0.837144 -0.134899
26060 -0.9575541000000001 9.74848149 -0.79888716 0.008902 -0.733591 -0.103684
26080 -0.6819813900000001 8.983419210000001 -0.63438327 0.074371 -0.433316 -0.127112
26100 -0.8813696400000001 8.339157270000001 -0.43963515000000003 0.073637 -0.168935 -0.174458
26120 -0.98899515 8.131685580000001 -0.38634723000000004 0.002762 -0.099184 -0.240204
26140 -1.16981307 7.65433098 -0.29219085 -0.010249 -0.050627 -0.383498
26160 -1.36156914 7.16739201 -0.12469491 0.083569 0.043307 -0.5122180000000001
26180 -0.92642697 6.641242470000001 0.15837263999999998 0.273861 0.25296 -0.6254569999999999
26200 -0.83556675 6.14517039 0.35506314 0.49428 0.533822 -0.723622
26220 -0.60773931 5.86555596 0.8559225 0.664678 0.7100380000000001 -0.716249
26240 -1.0809050400000002 6.88627665 1.3771376100000001 0.641473 0.636195 -0.61163
26260 -1.7059982400000002 8.327336220000001 2.2933818 0.474045 0.464008 -0.563441
26280 -1.81991196 8.28422127 2.04324642 0.226229 0.263121 -0.461297
26300 -1.0623445200000001 10.329567030000002 1.54852812 0.053115 0.22846 -0.434688
26320 -1.4296799699999998 11.371398840000001 1.9981989000000002 0.030888 0.308272 -0.394353
26340 -2.28350313 9.42215184 2.02304763 0.104583 0.386601 -0.33305
26360 -0.95082444 13.138631100000001 -0.38529756 0.168211 0.345718 -0.287688
26380 -3.13658073 14.971717890000003 1.22041305 0.159149 0.259338 -0.256662
26400 -3.7715526000000006 13.96356381 1.71244341 0.13936099999999998 0.175066 -0.210759
26420 -2.54665638 13.064084910000002 -0.23366439 0.161482 0.140784 -0.181718
26440 -1.55242269 10.98221652 -1.7642304000000002 0.250079 0.13839500000000002 -0.193915
26460 -0.78750756 9.55792224 -1.6013745900000003 0.382111 0.078287 -0.195052
26480 -0.8753757300000001 8.7716115 -0.84708369 0.466708 -0.039391 -0.144104
26500 -0.19743606000000002 8.64407169 -0.9487251000000001 0.5231359999999999 -0.099107 -0.177817
26520 0.6231508200000001 9.171123750000001 -1.2295461600000002 0.584861 -0.006091 -0.049318
26540 0.24100227 10.070455500000001 -0.92267955 0.6222489999999999 0.148727 0.096023
26560 -0.41942655 10.433307780000002 -0.71027343 0.698519 0.369616 0.202027
26580 -0.8271792000000001 10.78163145 -0.8081674200000002 0.598589 0.571872 0.324983
26600 -1.3537800000000002 11.23563825 -0.60354063 0.36404 0.527321 0.4804310000000001
26620 -2.14084611 11.04852231 -0.22752333 0.249401 0.250368 0.309069
26640 -2.77283574 9.979899390000002 -0.11181438 0.439399 0.247668 0.286899
26660 -2.83301028 8.712633779999999 0.015264360000000001 0.432053 0.577665 0.352654
26680 -2.23529679 7.69654341 -0.0344331 0.261283 0.653529 0.443231
26700 -1.6691813100000001 6.496338960000001 -0.36867942 -0.10994 0.33137 0.343843
26720 -0.9855518400000001 5.70118941 -0.67643874 -0.433074 -0.16372 0.292014
26740 -0.88600977 5.4386443799999995 -0.7879588200000001 -0.493571 -0.493092 0.128576
26760 -1.27279845 5.5733553 -0.6379737300000001 -0.416627 -0.598284 -0.005348
26780 -1.78025013 6.1869315600000006 -0.47450970000000003 -0.4097270000000001 -0.639243 -0.158003
26800 -2.3088031200000003 7.196733720000001 -0.51253326 -0.6399590000000001 -0.6573479999999999 -0.225818
26820 -2.7946924200000005 8.0833419 -0.48139632000000004 -0.830383 -0.5128520000000001 0.034381
26840 -3.3416489700000005 8.70440319 -0.3930867 -0.835844 -0.461909 0.352608
26860 -3.96360297 9.13235463 -0.52824888 -0.745731 -0.445757 0.4974270000000001
26880 -4.29636798 9.12876417 -0.36644274000000004 -0.474952 -0.214635 0.539614
26900 -4.75366113 9.1852011 -0.09609875999999999 -0.171347 0.131693 0.514586
26920 -5.22727812 9.25135974 -0.06541308000000001 -0.037242 0.336665 0.554784
26940 -5.006641409999999 9.16948548 -0.30297204000000005 -0.095996 0.372876 0.607738
26960 -4.35190239 8.99838927 -0.18891117000000002 -0.221509 0.29949000000000003 0.687072
26980 -4.33184094 9.926454510000001 0.10762551000000001 -0.315676 0.266675 0.716367
27000 -3.8769414300000005 10.30247181 0.5936619599999999 -0.24983200000000005 0.221613 0.739317
27020 -3.42248337 10.75169133 0.6875240400000001 -0.153513 0.237461 0.688695
27040 -2.7466430400000004 13.44698883 -1.23747264 -0.193914 0.17831 0.5976899999999999
27060 -2.4288480900000002 13.901741190000001 -2.7126612 -0.406421 0.028211 0.489575
27080 -4.03979724 15.23351736 -2.28035412 -0.5630390000000001 -0.065483 0.346528
27100 -4.55024097 15.4670346 -2.21673627 -0.572624 -0.06766599999999999 0.101841
27120 -3.2331307500000004 14.59869264 -3.15947727 -0.5783590000000001 -0.086149 -0.065886
27140 -2.15088174 12.516971400000001 -4.034558700000001 -0.6094109999999999 -0.103226 -0.296817
27160 -1.0382413499999998 9.879307650000001 -4.2400782 -0.780575 0.19382 -0.373169
27180 -0.46957527000000004 7.488777420000001 -4.00492269 -0.963416 0.020933 -0.935041
27200 -0.81115947 6.593340240000001 -3.3864120000000004 -0.32308000000000003 0.023461000000000003 -0.25866
27220 -1.86391962 6.987770909999999 -2.7791239500000002 0.847815 0.616359 0.7048180000000001
27240 -2.5312350600000006 7.522906410000001 -2.4966548100000003 1.226244 0.87449 0.559716
27260 -2.8015692299999997 8.62057674 -2.5408194300000004 1.051396 0.408474 0.30165
27280 -3.07206036 10.51413237 -2.5035414300000003 0.799461 -0.162556 -0.001685
27300 -3.1039428600000005 12.239593650000002 -2.37586428 0.587417 -0.48614 -0.149098
27320 -2.8032173100000004 12.30920541 -2.31313914 0.336124 -0.6353810000000001 -0.172026
27340 -2.39261976 11.121420420000002 -1.4123162700000003 0.106327 -0.68376 -0.128704
27360 -1.69447149 9.77257485 -0.31225230000000004 -0.131636 -0.633108 -0.06847400000000001
27380 -1.0139910300000001 8.50695732 0.11465928000000002 -0.240722 -0.479228 -0.094003
27400 -0.7839171000000001 7.752529080000001 -0.029184750000000002 -0.236486 -0.37328 -0.219091
27420 -0.7876645200000001 7.51976721 -0.22363857000000004 -0.185872 -0.261739 -0.450684
27440 -0.76386546 7.265737260000001 -0.54636795 -0.07435499999999999 -0.066511 -0.617866
27460 -0.63213678 6.668779140000001 -0.83047536 0.103379 0.249505 -0.678987
