time Ax Ay Az Gx Gy Gz
20 -0.0022464900000000003 0.7626686400000001 -1.84910652 -2.5157700000000003 1.049511 -1.333899
40 1.25753409 0.38919213 -4.3843833000000005 -1.976836 0.418821 -1.522674
60 3.00769695 4.29995844 -6.7241664 -1.079881 -0.353352 -1.272933
80 -0.84379734 3.8694564000000002 -5.397923070000001 -1.05695 -0.410038 -0.970394
100 -4.58436996 4.3285447800000005 -2.0999874600000004 -1.265877 -0.150265 -0.7510640000000001
120 -3.7583875800000004 11.64683421 -0.85456872 -1.223557 -0.4582020000000001 -0.503614
140 -9.74234043 14.588813970000002 -2.39531751 -1.0398379999999998 -1.016409 -0.395862
160 -2.7849609000000006 14.546454390000001 2.0119623300000002 -0.999177 -0.919893 -0.325199
180 -2.08052442 13.412114279999999 -1.62696888 -1.118773 -0.8494360000000001 0.007161
200 -3.9510363600000002 13.357178280000001 -0.25581537 -1.360415 -0.01226 0.249023
220 -3.30512634 12.568611240000001 -0.28860039000000004 -1.555783 0.646861 0.223313
240 -2.80785744 11.29282074 -0.6828839100000001 -1.607481 0.521406 0.206021
260 -2.06121834 10.378813229999999 -0.27273762 -1.597295 0.271496 -0.176011
280 -1.96421706 9.41647185 -1.1106882 -0.745819 -0.269302 -0.737665
300 -1.9293425100000001 8.50396527 -0.7770304800000001 -0.302008 -0.768249 -0.756358
320 -1.38761469 7.55254242 -0.86430024 -0.110194 -0.292944 -0.704353
340 -1.75599981 6.43736124 -0.88630407 0.224817 -0.024714 -0.6735140000000001
360 -2.00088684 6.61953294 -1.42279335 0.503201 0.174783 -0.4549760000000001
380 -1.37010384 7.856260020000001 -1.2434665500000002 1.015878 0.5025310000000001 -0.011708
400 -2.06914482 8.97203961 -0.39832524 1.56991 0.8308620000000001 0.250251
420 -3.1335788700000005 9.31423203 -0.60968169 2.127867 1.382636 0.574976
440 -1.80555012 10.17209691 0.6974027100000001 2.306031 3.036523 0.808042
460 -1.41516117 11.38876254 -0.53169219 2.190832 4.396499 0.737128
480 -0.72838269 13.102255620000001 -1.43970579 1.920755 2.791593 0.588816
500 -1.7925224400000002 13.35957192 -2.8051695 1.532637 0.7209260000000001 0.601577
520 -3.1603797900000004 12.43269369 -3.6001620900000004 1.233715 0.664715 1.064237
540 -3.09331863 14.8106475 -3.83337522 1.268814 1.146301 1.811621
560 -3.33311427 17.05238946 -3.0612791700000006 2.1768400000000003 0.268348 1.865022
580 -6.131554110000001 15.398178210000001 -3.88606473 2.632199 -0.256271 1.862465
600 -7.091207550000001 14.30066484 -4.22361702 3.416465 -1.024619 1.786675
620 -5.30167716 13.14611613 -4.31942148 3.82808 -1.598003 1.496524
640 -4.49859132 12.44242521 -0.14010642 3.968899 -1.783225 1.074729
660 -6.689586149999999 11.69921961 1.4648586300000002 3.739837 -1.377169 0.694458
680 -7.81569567 10.57430691 2.10207699 3.291507 -1.180925 0.226399
700 -5.538784860000001 7.938742500000001 0.25476570000000004 2.589067 -0.860892 -0.07588400000000001
720 -3.44104389 8.489142359999999 -2.1323114100000007 1.54398 -0.221635 -0.258123
740 -3.38027094 8.15339511 -1.5530210999999998 0.556079 0.190098 -0.334986
760 -1.65794886 8.28900855 1.3937557500000002 -0.151286 0.025009 -0.261735
780 0.34772526 8.0602884 -1.03584771 -0.660845 -0.6674829999999999 -0.337046
800 -0.27857457 7.10766873 -2.4029496900000002 -1.445814 -0.711317 -0.682167
820 -1.0704279600000002 5.75044542 -0.9467827200000001 -2.488367 0.120439 -0.521736
840 -2.7547166700000005 3.96421119 -0.8301712500000001 -3.85473 0.704779 -0.012873
860 -3.80388636 3.45242349 -1.9347282000000001 -3.637882 1.024581 0.010664
880 -3.25393776 3.48849486 -2.3144831100000003 -2.828147 0.7651939999999999 0.238843
900 -2.02872762 2.50069653 -2.8927335600000004 -3.116527 1.610033 0.203699
920 -1.4563239300000002 1.14362037 -3.9800739600000004 -3.397278 1.993561 -0.092514
940 0.9800091900000001 2.35580283 -5.5342918800000005 -3.499252 2.399182 -0.740021
960 2.1844123200000003 4.41896355 -7.205415570000001 -3.545414 2.691379 -1.576067
980 4.0639004100000005 5.7389186699999994 -12.38134815 -3.250135 2.35072 -1.622706
1000 3.64342419 5.61960945 -6.717731040000001 -2.776068 1.891266 -1.687172
1020 -8.47282833 -4.58750916 -0.75428109 -2.575839 1.786284 -1.714481
1040 -4.52658906 11.339967600000001 -14.34227886 -2.41171 1.593519 -1.869048
1060 -6.924153060000001 20.156489280000002 6.34709943 -1.937418 1.170558 -1.469951
1080 -4.74153597 12.38060259 -5.1659067599999995 -1.299756 0.363285 -1.0094
1100 -2.05148682 4.62448305 -2.5008534900000003 -1.285428 0.015962 -0.745004
1120 -3.1216106700000004 6.25100067 -2.498607 -1.527729 0.592715 -0.378899
1140 -5.397030360000001 11.307937950000001 -1.7185746599999998 -1.647882 1.139911 0.079964
1160 -6.12196974 14.901507720000001 -0.49876002 -1.6879529999999998 1.749486 0.587377
1180 -4.691240100000001 15.22499247 0.07020036 -1.567567 1.950614 1.067592
1200 -2.05792218 13.056001470000002 0.42136893000000003 -1.308722 1.822029 1.031108
1220 -2.5131258000000005 11.943213929999999 0.23680359 -0.550728 1.991511 0.615306
1240 -3.0997539900000004 13.114076670000001 -0.6599775600000001 -0.455598 2.115367 0.461988
1260 -3.86675865 13.619281860000001 -0.89364195 -0.5114489999999999 0.875459 0.492029
1280 -2.03067981 12.741051420000002 -0.94752828 0.16623800000000002 0.249426 -0.181824
1300 -1.1981051100000002 9.865387259999999 -1.94505813 0.251822 0.498454 -0.460352
1320 -0.3589577100000001 7.791298200000001 -1.30483791 -0.200955 0.384007 -0.484732
1340 0.66028167 5.676644790000001 -0.54307179 -0.965147 0.290793 -0.753801
1360 2.02768776 4.36791231 0.01377324 -1.055511 -0.179583 -1.060409
1380 2.5427618100000005 4.21283583 0.46388547 -0.8520059999999999 -0.792621 -1.376533
1400 1.4956914600000002 4.0430934 -0.92523015 -1.062603 -0.824203 -1.5542200000000002
1420 -0.5557953599999998 4.75411239 -2.1654005400000003 -1.203916 0.044491 -1.289265
1440 -0.34877493 6.43931343 -0.13247424000000002 -1.141399 1.2965 -0.8887809999999999
1460 -1.2039420600000001 6.1846850700000005 1.5385023 -0.944896 0.341634 -0.698178
1480 -1.87604478 7.594009290000001 -0.20702043 -0.440316 0.604971 -0.6565340000000001
1500 -3.04376832 10.920393899999999 0.21120930000000002 0.244396 0.8972379999999999 -0.5463720000000001
1520 -4.05940743 10.155635730000002 0.11360961 0.488885 1.579828 0.102872
1540 -2.7433468800000003 10.21744854 0.99707859 0.737229 2.133655 0.714919
1560 -1.69178355 12.63612366 1.4756300100000002 1.2545620000000002 1.751298 1.311886
1580 -2.41327962 16.048728360000002 -1.26891369 1.215007 1.920063 1.499401
1600 -4.3225606800000005 17.18232291 -2.50788726 1.620753 1.4150790000000002 1.158914
1620 -6.42508893 15.966393030000003 -0.33095997000000005 1.879092 0.589075 0.772945
1640 -4.43946645 16.42848327 1.8835298100000002 1.473615 0.505659 0.938998
1660 -3.6039095100000003 11.910281759999998 -0.15806852999999998 0.6743600000000001 1.415127 1.168327
1680 -2.7562176 8.992395360000002 1.5453889200000002 0.380225 1.40806 1.325447
1700 -7.4383344 9.99995103 -0.27063828 0.665988 1.580818 1.2983790000000002
1720 -7.46003412 10.64361456 -1.0985630400000002 0.948488 1.548758 1.079272
1740 -2.62448892 11.76478965 -0.9202859100000002 0.764811 0.485492 1.002439
1760 -0.49322718000000004 10.70858619 -0.78092505 1.1991120000000002 1.140486 0.929858
1780 -1.17401175 9.358690950000002 0.57705363 1.543684 1.738291 0.585395
1800 -4.74138882 9.9340965 0.21615354000000003 1.585879 0.925206 0.352791
1820 -7.12937826 10.75783239 -0.7566747300000001 1.7240220000000002 0.7851319999999999 0.097562
1840 -7.14538818 10.01747169 -2.0270893500000002 1.553552 0.6003649999999999 0.097676
1860 -6.63210936 9.346418640000001 -1.29900096 1.466907 0.146571 0.169224
1880 -6.1543035 8.59198059 -0.83915721 1.185318 0.057426 0.062685
1900 -6.348600360000001 7.61316822 1.8089836200000002 0.8556239999999999 -0.038003 -0.029226
1920 -5.70508398 6.649473060000001 2.4029496900000002 0.2804 -0.010803 -0.205263
1940 -5.3940285 7.2533178000000005 -2.08456614 -0.355745 0.03561 -0.337952
1960 -5.50630395 8.29290312 -2.97177273 -0.971037 0.003004 -0.441553
1980 -5.5679696100000005 7.57934334 -1.41590673 -1.626536 -0.261415 -0.614572
2000 -5.485192830000001 5.9374044 -0.37616445 -2.355244 -0.543144 -0.6577569999999999
2020 -3.7107796500000005 5.676193530000001 0.028586340000000002 -2.974064 -0.5695560000000001 -0.44306
2040 -1.7606399400000001 5.746698 -0.74335275 -2.261912 0.348123 -0.114522
2060 -0.73272852 6.4694007000000004 -0.78750756 -0.698383 0.222436 0.124092
2080 -0.21316148999999998 5.723203050000001 -0.9961760700000001 1.105016 -0.274426 0.269785
2100 -0.41268708000000004 4.45024764 -0.8490358800000001 1.871909 -1.163831 0.37883
2120 -1.49658417 3.2467470300000003 -0.5749542900000001 1.419299 -0.553901 0.09074
2140 -1.8193135500000002 2.75097906 -1.27564335 1.48589 1.242624 -0.350136
2160 -1.63310013 2.7463389300000003 -1.81811673 1.764825 2.796014 0.151886
2180 -1.20170538 3.11382153 -2.63826216 -0.6223 0.385646 -0.263351
2200 -0.05583852 3.9986344800000007 -3.5890866000000003 -3.004971 1.053262 -0.250939
2220 1.57577049 6.28692489 -5.56976484 -3.640779 3.270541 -1.140573
2240 0.8586104400000001 12.852120240000001 -9.0406017 -3.4720720000000003 2.7711900000000003 -2.150361
2260 -1.57442652 25.32807603 -13.98302685 -2.340107 0.976201 -1.800459
2280 0.6191091000000001 21.694383360000003 -9.61061175 -0.373381 -0.11147 -0.8367469999999999
2300 0.7924517999999999 11.47678767 -8.32434417 0.073817 -0.7246319999999999 -0.534803
2320 -2.2050623700000003 11.04253821 -2.7876488400000006 -0.8140930000000001 0.39619 -0.070287
2340 -12.227468490000001 16.4561769 0.26435007 -1.516704 0.341972 0.244273
2360 -10.12734369 15.009143040000001 -2.5851213900000003 -1.829795 -1.024468 0.172266
2380 -1.62037656 -2.26449135 2.00492856 -1.761368 -2.405457 -0.055154
2400 -4.13919216 -8.34843753 6.71069727 -1.583207 -2.154845 -0.277489
2420 -3.71467422 2.07229383 5.845043250000001 -1.6772650000000002 -0.626419 -0.134827
2440 -5.07310416 14.408584650000002 7.07368689 -1.6829599999999998 0.5845090000000001 0.208617
2460 -7.3569015900000005 21.169881900000004 2.9855459700000004 -1.46811 1.535409 0.12023699999999997
2480 -3.1392686700000008 17.46373257 -0.90112698 -1.096818 1.701553 -0.191439
2500 -0.9147432600000001 9.490115520000002 -1.31741433 -1.264773 1.064178 -0.493034
2520 -1.69447149 7.78351887 2.03172948 -1.5008290000000002 -0.086109 -0.8734959999999999
2540 -2.50219746 8.23093335 1.5777226800000002 -1.338069 -0.883692 -1.091391
2560 -2.7942411600000003 9.11558934 0.25806186000000003 -1.015165 -0.457771 -1.057635
2580 -2.6705959200000002 8.80259148 -0.13472073 -0.8312379999999999 0.232462 -0.934389
2600 -2.54620512 8.326884960000001 0.17872839 -0.50358 0.7055939999999999 -0.7233350000000001
2620 -2.22782157 8.025413850000001 0.53618517 -0.238528 0.8960670000000001 -0.634134
2640 -1.5666373800000002 8.129144790000002 0.3731724 -0.22719 0.446026 -0.520246
2660 -2.447114310000001 7.9358976000000006 -0.03922038 -0.14824600000000002 0.233763 -0.254504
2680 -3.6155834100000006 7.9993683 0.14579622 0.217893 0.537176 0.008311
2700 -3.5911859400000004 8.59123503 -0.13097330999999998 1.142832 0.462937 0.188987
2720 -3.0485556 8.50711428 0.14729715000000002 2.0719 0.124589 0.612517
2740 -3.30811839 8.09307342 -0.40550616000000006 2.894728 -0.459985 1.164875
2760 -2.9882339100000004 9.357494130000001 -0.24219909 3.784951 0.094123 1.151155
2780 -1.3455494099999998 11.486509380000001 -1.4124634200000001 3.674168 1.6918799999999998 1.286134
2800 -1.01114613 11.675567700000002 -1.12431429 2.962961 2.174178 1.437577
2820 -1.20214683 12.47685831 0.28006569000000003 2.494434 1.780014 1.314101
2840 -0.8346642300000001 12.01192317 1.4016822299999998 2.031362 0.4633020000000001 1.190776
2860 -0.6318326700000001 11.57961609 0.85382316 1.735093 0.296032 1.186784
2880 -1.78293807 11.8315467 -0.01406754 1.6840689999999998 0.09171 1.178144
2900 -2.1595635900000003 13.943051100000002 -1.3654637100000002 1.60158 -1.936806 1.83926
2920 -0.48902850000000003 14.82412644 -0.30985866000000006 2.144284 -1.209353 1.933986
2940 0.1038879 14.68326465 -0.22677777 2.364864 -1.929389 1.986656
2960 -2.91548295 13.967752680000002 -2.60068986 2.128925 -2.484458 1.939786
2980 -6.01119522 10.7325324 -0.34578288 2.142998 -2.942569 1.672347
3000 -5.611084560000001 11.51135811 4.24427688 1.774046 -3.183026 1.385931
3020 -6.24516372 13.60221246 5.517075330000001 1.461762 -3.512694 0.982521
3040 -6.576270840000001 15.110774640000002 3.43999422 0.996003 -3.293368 0.617927
3060 -4.96892196 13.993651080000001 0.84753495 0.407399 -2.680229 0.444251
3080 -3.2714486100000006 13.83154083 0.71356959 -0.34141 -1.845046 0.292672
3100 -1.6377402600000002 12.56741442 0.054190440000000006 -1.098812 -1.120228 0.042898
3120 0.46718163 11.311224300000001 3.2638164300000003 -1.6611790000000002 -0.7018409999999999 -0.467903
3140 0.41942655 9.48681936 2.3267652300000004 -1.435263 -1.241851 -0.950606
3160 -1.67815746 7.38189747 2.14099326 -0.554513 -1.991867 -0.6337079999999999
3180 -1.90763298 6.19052202 2.53812168 0.362568 -2.254957 0.160314
3200 -1.87305273 5.38744599 2.1724343100000003 0.406275 -1.016106 0.936698
3220 -1.87290558 3.98920707 2.00507571 0.695133 0.056059000000000005 1.360357
3240 -2.64949461 3.32698302 2.90066985 0.989121 -1.486477 1.110151
3260 -3.5833968 3.39359292 3.4073661600000005 0.20989 -2.2586630000000003 0.419899
3280 -5.0404662899999995 3.8703491100000003 2.75607045 0.619571 0.311537 0.142797
3300 -5.573512260000001 3.83801535 1.2506474699999999 1.606168 -1.080662 -0.474505
3320 -4.972208310000001 3.4185888 -0.87253083 0.838432 -1.116984 -0.848358
3340 -4.23813582 5.113070100000001 -3.55256397 -0.901636 -0.036556 -0.731574
3360 -1.69432434 9.33144858 -6.60980142 -1.939723 0.930001 -0.718699
3380 0.20163474 13.517336340000002 -8.97803352 -2.220386 1.174507 -1.413181
3400 0.3526695 17.052840720000003 -10.861563330000001 -1.934128 -0.114983 -2.066485
3420 1.93353138 17.632287990000002 -7.237896480000001 -0.192251 -3.874385 -1.7012599999999998
3440 2.80725903 14.791037310000002 -6.8949585 0.8444389999999999 -4.703926 -0.547822
3460 3.9454937100000005 9.18729063 -8.631348120000002 -0.18464 -3.250931 0.087266
3480 5.84968338 7.29912069 -5.30856378 -1.467424 -2.620935 0.561403
3500 -3.20468175 10.08812331 5.79115692 -1.965504 -2.419597 0.726445
3520 -19.97071731 21.377942190000002 -7.46003412 -1.959521 -2.206947 0.5563670000000001
3540 -4.07093418 10.63059669 5.060979000000001 -2.086047 -1.6546169999999998 0.536615
3560 -1.3148637300000001 -1.6833960000000001 8.66563407 -1.921337 -0.478715 0.434778
3580 -1.0681814699999999 -1.71049122 6.421047210000001 -1.829501 0.039434 -0.017103
3600 -1.72815903 5.461246620000001 5.749395750000001 -1.47216 -0.375657 -0.417862
3620 -5.34898098 14.686560810000001 3.49447896 -1.124369 0.431171 -0.556404
3640 -4.6937907 22.27173129 -2.17961523 -1.028756 0.429305 -0.705285
3660 0.7831715400000001 14.733560520000001 -1.6178357700000001 -0.838398 -0.619849 -0.905573
3680 -1.7504571599999998 9.31707693 2.3276579400000004 -0.945129 -1.356587 -0.921398
3700 -1.96271613 7.585180290000001 2.54635227 -0.8776729999999999 -0.6661090000000001 -0.758373
3720 -2.36268945 7.162006320000001 1.8622813500000002 -0.6857409999999999 -0.236214 -0.539666
3740 -3.5621385300000004 6.6304612800000005 1.52772111 -0.406583 -0.29056 -0.510941
3760 -4.374504630000001 7.607929680000001 0.83107377 0.26329400000000003 -0.254915 -0.681496
3780 -4.0749759 7.650593370000001 -0.0005984100000000001 0.767738 -0.713915 -0.6197010000000001
3800 -4.90859046 7.29792387 -0.60085269 1.355335 -0.900583 -0.269253
3820 -4.926258270000001 7.45359876 -0.27348318 2.34894 -1.012803 0.026251
3840 -3.05349984 8.245599299999999 -0.08861373 3.416152 -0.675639 0.298193
3860 -3.3623088300000004 8.11776519 0.67000338 4.045946 -0.309363 0.5958829999999999
3880 -3.9152592900000003 6.86292885 2.18994516 3.750078 -0.6839069999999999 1.009835
3900 -3.412899 9.743684400000001 2.0540276100000003 3.634965 -0.35036300000000004 1.081243
3920 -2.43498915 12.4591905 -1.4024376 3.5528410000000004 0.5894510000000001 0.8262959999999999
3940 -2.09009898 12.004290990000003 -3.0144266100000006 2.968587 -0.498547 0.35572800000000004
3960 -1.9895170500000001 12.850325009999999 -2.4170270400000002 1.457975 -1.023602 0.036065
3980 -0.40057173 13.20284736 -0.6665600700000001 0.829189 1.223725 0.947464
4000 -0.26375166 13.420344870000001 -1.2223554300000001 1.7206860000000002 0.781324 1.317453
4020 -1.85614029 14.63117355 -1.85838678 2.130771 -0.7191310000000001 1.630957
4040 -1.0553009400000002 16.86303684 -1.18448883 2.037666 -0.318221 1.620179
4060 0.77478399 16.595537760000003 -1.4043799799999999 2.328575 -1.132056 1.359403
4080 -0.91938339 12.82846833 1.01234295 2.533955 -2.146173 1.175198
4100 -3.24315657 10.44198963 1.6139412000000002 2.281744 -2.511723 0.901508
4120 -4.0359026700000005 11.76373998 7.03881234 1.996705 -2.891793 0.5581729999999999
4140 -4.96651851 13.93077879 8.681349690000001 1.27775 -2.575344 0.366875
4160 -5.97572226 15.128893710000002 3.3793684200000005 0.342657 -2.069952 0.265692
4180 -6.60980142 16.10979561 -2.8180402200000003 -0.661362 -1.245753 0.151869
4200 -5.688622800000001 12.87397692 -0.15701886 -1.5760809999999998 -0.547347 -0.016717
4220 -3.7444671900000004 10.111019850000002 2.0547731700000003 -1.673482 -0.7732829999999999 -0.174136
4240 -2.8256724 8.72700543 4.05521856 -0.157722 -0.701242 0.209168
4260 -0.006582510000000001 7.78366602 1.8329396400000002 0.994849 -0.337624 0.983737
4280 -2.28814326 6.214026780000001 1.02282003 0.375117 -0.261085 1.028448
4300 -2.75712012 5.1403124700000005 1.98337599 0.881531 -0.033144 0.862914
4320 -2.11615434 3.61004076 2.25671202 0.97661 -0.872289 0.707625
4340 -2.69903511 2.0001412800000002 3.01159152 1.170424 1.250708 0.298197
4360 -3.71302614 1.55152017 3.3459948 2.122933 0.8536790000000001 0.192128
4380 -4.45563333 1.32684174 2.46073059 -0.579439 -0.686249 0.288457
4400 -4.140094680000001 1.30678029 1.19422035 -2.6758450000000003 1.758671 -0.8509530000000001
4420 -3.19869765 2.08605726 -0.26629245 -3.2813550000000005 4.809737 -1.9518830000000005
4440 -2.1305161800000003 5.78531997 -3.8269398600000004 -3.707925 2.858948 -2.047435
4460 -2.0871069300000005 10.780434630000002 -8.379878580000002 -2.826986 0.120591 -1.862584
4480 -2.9479736700000005 20.262908160000002 -13.333222260000001 -1.465725 -1.154426 -1.208372
4500 0.32363190000000003 19.201171860000002 -12.66262047 -0.637975 -1.759326 -0.106888
4520 -0.00928026 13.217062050000001 -6.528819870000001 -0.554851 -1.682463 -0.485624
4540 -1.2623213700000002 10.703337840000001 -9.334136520000001 -1.126635 -2.9243200000000003 -0.320316
4560 -2.50788726 15.79335444 -9.22442148 -2.19332 -2.200012 0.357104
4580 -7.18311744 27.835217730000004 -1.6593026400000002 -2.6430860000000003 -1.021822 0.481707
4600 -7.647601320000001 0.05134554 8.964711540000001 -2.3065740000000003 -0.461544 0.470521
4620 -7.80416892 -11.232793350000001 5.42755908 -2.155168 1.179628 0.709825
4640 -2.06375913 -0.41748417 5.58548046 -2.222084 1.922393 0.434941
4660 -7.00812666 12.153373560000002 9.448952760000001 -2.051985 1.066095 -0.290232
4680 -9.3967047 20.457509130000002 -0.12364524000000002 -1.318778 0.464309 -0.948774
4700 -2.52989109 15.15374244 1.5518242800000004 -1.181775 -0.497776 -1.298029
4720 -0.25836597 13.060190340000002 1.5633510300000002 -1.432343 -1.291027 -1.175917
4740 1.47098988 10.706634 1.32609618 -1.2409290000000002 -0.8997879999999999 -0.880252
4760 1.7872839 9.10646604 -2.0251371600000003 -0.7291810000000001 0.845994 -0.474059
4780 -1.02941235 8.864266950000001 -0.83870595 -0.250475 0.825895 -0.657628
4800 -0.44951382000000006 9.61405506 1.40078952 -0.285227 -0.180987 -0.5786
4820 -1.5627526200000001 8.25832287 0.21135645000000003 -0.189482 0.14946800000000002 -0.184181
4840 -3.2123237400000004 7.28415063 -0.7545852000000001 0.8276629999999999 0.004445 0.301673
4860 -3.5215741800000004 6.03814329 -0.22378572 1.7000669999999998 -0.675237 0.8854780000000001
4880 -5.20123257 6.66518868 -0.9365999400000001 2.791284 -0.982335 1.345351
4900 -6.235579350000001 7.120843560000001 0.31629402 3.748177 -0.070542 1.335912
4920 -5.590571850000001 8.71622424 -0.03876912000000001 3.670484 0.862193 1.514703
4940 -3.3983802 8.443045170000001 -1.4921010000000001 3.136878 1.1269209999999998 1.575798
4960 1.02805857 8.70170544 -1.1696659200000001 2.640657 0.739151 1.209634
4980 3.294198 11.64803103 -1.34315577 2.10181 0.469345 0.95091
5000 -0.7807779 12.391835040000002 -0.9907903800000001 1.7808580000000005 1.465298 0.7166560000000001
5020 -1.64986542 12.999564540000002 0.64575306 1.156692 3.129481 1.201546
5040 0.7997896800000001 12.478947840000002 0.09909081000000002 1.465933 -0.150612 1.759112
5060 1.0160903700000001 13.41061335 -0.7439511600000001 1.555078 -0.107735 2.147444
5080 0.92672127 15.407605620000002 -1.04886558 2.142679 -0.4113270000000001 1.901974
5100 -0.49172625000000003 16.33822146 -0.31194819 2.201808 -1.613873 1.547142
5120 -2.35250667 15.688877940000001 -1.7860870800000002 2.286455 -2.312827 1.240981
5140 -6.613097580000001 12.214450620000003 -0.21854718 2.0501150000000004 -2.445238 0.99274
5160 -7.81299792 11.45822715 4.23963675 1.407636 -2.48044 0.762903
5180 -7.583228100000001 14.55557769 5.82813081 0.5618340000000001 -2.266366 0.442663
5200 -8.204289390000001 16.22221821 4.76998497 -0.30268 -1.661448 0.166657
5220 -7.9646409 15.720760440000001 0.52226478 -1.046586 -0.979452 -0.042375
5240 -6.83867853 13.095967410000002 -0.65459187 -1.664622 -0.393402 -0.342272
5260 -4.68750249 12.718154880000002 -0.56821482 -2.045629 -0.165465 -0.802425
5280 -2.7677443500000005 9.94591755 1.67710779 -1.361043 -0.636907 -0.715854
5300 1.14032421 9.03835521 4.56490692 0.636059 0.035208 0.234065
5320 -1.10740185 7.021154340000001 1.94670621 0.696601 -1.119914 0.8042630000000001
5340 -2.62194813 5.24958606 1.04857128 0.5908720000000001 0.118004 0.87885
5360 -2.2957754400000003 3.00380238 1.8160272000000002 0.8597309999999999 -0.011308 0.749502
5380 -2.56057677 1.4343200999999999 2.14983207 0.302333 -1.016586 0.082463
5400 -3.0120329700000004 0.6740451000000001 1.6833960000000001 0.403396 1.369705 -0.555481
5420 -2.73765708 0.7803266400000001 2.29727637 1.327803 1.7713849999999998 0.222786
5440 -3.2654547000000003 0.97836111 2.8409465700000003 0.166825 0.921454 0.123898
5460 -3.3271301700000007 1.0557522 2.18889549 -2.381662 2.29416 -0.487457
5480 -2.49785163 2.01032406 -0.1707921 -2.960819 4.861141 -1.764908
5500 -1.9742428800000003 4.934783159999999 -4.14802116 -3.203986 3.536242 -2.162287
5520 -0.63438327 11.689193790000001 -10.0849743 -3.149376 0.921102 -1.971616
5540 1.0377900899999999 23.760241830000002 -16.005171960000002 -2.184132 -0.418501 -1.339315
5560 2.99377656 24.525304110000004 -14.75242515 -1.3236139999999998 -1.012444 -0.874276
5580 0.14714019 13.404030839999999 -7.4414736 -0.991982 0.209044 -0.799818
5600 -1.59508638 6.9548387400000005 -8.001614790000001 -1.515216 -0.373834 -0.5698529999999999
5620 -0.7246450799999999 7.0064785800000005 -7.459435710000001 -2.297699 -0.7137899999999999 0.140826
5640 -4.75576047 13.79801025 1.74731796 -2.390625 0.287698 0.455087
5660 -11.43441828 26.30165967 0.02529999 -1.913626 0.940443 0.375329
5680 -7.28250255 2.46432105 6.49439658 -1.969916 1.463723 0.366788
5700 -6.693176610000001 -4.142037060000002 4.9036560300000005 -1.993871 1.768725 0.304273
5720 -5.12099658 3.4154496000000005 7.266188520000001 -1.62958 1.975738 0.167683
5740 -8.49992355 13.12844832 4.99376088 -1.174661 1.7453610000000002 -0.156788
5760 -6.773412600000001 15.645762990000001 3.54747258 -1.046424 1.297469 -0.414896
5780 -3.1097798100000005 13.201797690000001 3.37608207 -0.930569 0.7790159999999999 -0.5992930000000001
5800 -0.29713509 12.686115420000002 3.0765533400000002 -0.8749790000000001 -0.033479 -0.724982
5820 1.47278511 13.0028607 2.5972465500000004 -0.673049 -0.5790609999999999 -0.859605
5840 2.50114779 12.08931426 -1.8726014700000002 -0.939281 0.239056 -0.625368
5860 2.1013314300000006 10.906022250000001 -0.8815167900000002 -0.967214 1.022734 -0.510131
5880 1.11712356 9.731863350000001 0.38259981000000004 -0.6173529999999999 1.284469 -0.466362
5900 -0.20642202000000004 7.807465080000001 -1.5283195200000002 -0.240767 1.194123 -0.31086
5920 -1.94670621 7.425159570000001 -2.16584199 0.175822 1.172123 0.033908999999999995
5940 -1.17325638 7.847735129999999 -0.68183424 0.898526 0.699338 0.423055
5960 -1.2862773900000002 9.05631732 -0.44771859 1.5083879999999998 -0.05707200000000001 0.709226
5980 -0.6333336 9.89801532 0.10298538000000002 1.97243 -0.060854 0.71995
6000 -1.3843185300000003 9.152121780000002 -0.08636724000000001 2.105371 0.431457 0.832411
6020 -2.5765965 9.083706840000001 0.11451213 2.21047 0.8570399999999999 1.13918
6040 -3.75478731 9.896524200000002 1.7143857900000001 2.33029 1.6109639999999998 1.108072
6060 -4.26328866 12.113711730000002 1.9248495300000001 2.4729520000000003 1.68213 0.770351
6080 -3.08448963 13.388011109999999 -0.08203122 2.286357 1.196937 0.256923
6100 -3.22744095 13.786630650000001 -0.6259957199999999 1.886257 0.8705709999999999 0.16908900000000002
6120 -3.35108619 13.324844520000001 -0.20372427 1.6854189999999998 0.669661 0.502297
6140 -2.30311332 12.97067409 -0.44248005 1.7138209999999998 2.13295 1.109506
6160 -0.45206442 13.330681470000002 -0.38515041 1.386676 2.542186 2.148213
6180 0.5688132300000002 13.53679938 0.31434183000000004 1.912135 1.156054 2.543561
6200 -0.8652027600000002 12.865000770000002 0.24952716000000003 2.351545 -0.23168200000000005 2.6157060000000003
6220 -3.9311220600000003 11.262282210000002 -1.05799869 2.4838560000000003 -0.985222 2.3323810000000003
6240 -4.62598398 12.04469838 -0.38230551 2.916401 -1.8529400000000005 1.837655
6260 -4.16614023 13.20493689 0.9770171400000001 2.9999990000000003 -2.208326 1.395382
6280 -4.60398015 13.712535720000002 3.0505077900000006 2.6012150000000003 -2.274747 1.035895
6300 -5.996234970000001 12.695248529999999 4.57284321 1.597961 -1.628007 0.81121
6320 -6.393951990000001 11.936474460000001 3.51604134 0.6320279999999999 -1.706924 0.338819
6340 -6.39769941 12.19543884 2.47256145 -0.235309 -1.777192 0.015589
6360 -6.82894701 10.038425850000001 0.92836935 -0.798211 -1.6509459999999998 -0.430749
6380 -5.384601090000001 9.027279720000001 -0.70099317 -1.150193 -0.72287 -0.7132029999999999
6400 -2.2748212800000003 10.04605803 -0.25193061 -1.366843 0.239712 -0.684971
6420 -0.43020774 11.37035898 -0.96654006 -3.217029 -0.19425 -0.8468889999999999
6440 -2.2568591700000002 9.79218504 -0.9949792500000001 -3.720648 1.4988860000000002 -1.045925
6460 -2.1604563000000003 8.99479881 -1.58789565 -2.956427 1.512331 -1.340775
6480 0.054936000000000006 9.15631065 -0.29668383 -2.291605 0.627946 -1.066874
6500 -0.0059841 8.421188490000002 1.0041123600000001 -1.562989 0.797128 -1.11648
6520 -1.3721933700000002 7.48353888 -0.30581694000000004 -1.368993 0.645634 -1.228163
6540 -2.24712765 4.84467831 -0.6331864500000001 -0.883551 0.16566 -1.232703
6560 -1.77979887 2.8629504 -1.59224148 -0.744417 -0.21087 -1.231248
6580 -0.39502908 2.030228550000001 -2.8506682800000003 -1.402576 0.411984 -1.110594
6600 0.40835106000000004 2.6403615 -4.80380985 -1.529583 0.7592220000000001 -0.990148
6620 1.63190331 3.0590424900000004 -3.97333449 -1.208508 -0.409457 -0.718284
6640 -0.5334874200000002 2.4658219800000003 -0.7137167400000001 -0.982908 -1.18061 -0.408072
6660 -4.21058934 1.82859381 -4.10491602 -0.8856280000000001 -1.6716939999999998 -0.228371
6680 -5.09540229 5.24359215 2.1751222500000003 -0.930849 -1.549888 -0.014130000000000004
6700 -7.457042070000001 12.30141627 0.7789826700000001 -1.027004 -0.54311 0.311852
6720 -10.902578940000001 20.124302670000002 -2.16853974 -1.549568 0.458032 0.55261
6740 -4.39740117 14.188693500000001 2.04474735 -1.616539 0.684366 0.486691
6760 -0.71910243 10.60634637 0.10313253 -1.303524 0.611394 0.083047
6780 -3.0075498000000005 10.89030663 -1.13254488 -1.160936 0.171199 -0.513598
6800 -3.36125916 10.69600977 -0.030832830000000002 -0.8227120000000001 -0.285128 -0.975327
6820 -1.2356774099999999 9.82646118 -0.45745011 -0.777235 -0.310045 -0.910884
6840 0.22333446 9.561816810000002 -0.27422874 -0.7776850000000001 -0.719774 -0.744788
6860 0.06990606 10.4749218 0.08756406 -0.6195350000000001 -0.664928 -0.744821
6880 0.42002496 11.10360546 -1.3841713800000002 -0.6232949999999999 -0.540324 -0.7332569999999999
6900 0.30042144 9.986334750000001 -1.15275348 -0.339455 -0.309016 -0.7486619999999999
6920 -0.51028677 9.36902088 -0.65055015 0.517972 0.003871 -0.351037
6940 -1.07237034 8.68389048 -0.7864677000000001 1.206381 0.37413 -0.034782
6960 -1.0517104800000001 8.2424601 -0.43963515000000003 1.990997 0.389955 0.122366
6980 -0.7544282400000001 8.88672204 -0.74724732 2.710566 0.686032 0.31502
7000 -2.10462759 8.931475260000001 -0.7876645200000001 2.948336 1.763681 0.47767
7020 -4.27615938 9.46736613 -1.04138055 2.403263 3.938793 0.728517
7040 -5.512582350000001 9.55402767 -0.21943989 1.902835 4.4783 1.04266
7060 -4.71579453 10.44632565 0.8340658200000001 1.984492 2.384027 0.957251
7080 -1.17909333 11.414209679999999 0.33410898 1.475114 0.443658 1.257418
7100 0.34368354000000007 12.14633979 0.02829204 1.343419 0.102381 1.734431
7120 -0.36838512000000007 11.693833920000001 -0.40954788000000003 2.245732 0.561492 2.0232240000000004
7140 -1.7601886800000002 12.507387029999999 -0.7381142100000001 3.176222 -0.322743 2.295776
7160 -3.33655758 14.30605053 -1.65390714 3.371714 -1.765509 2.222078
7180 -3.68982549 16.882038809999997 -0.8822623500000001 3.3611480000000005 -1.7368419999999998 1.989095
7200 -4.00970997 15.397726950000001 -1.00590759 3.4154089999999995 -1.860459 1.421339
7220 -5.085072360000001 14.036461920000002 -2.22886143 3.049328 -1.469189 1.127724
7240 -6.05385891 12.5892711 -3.3970362300000003 2.55212 -1.59917 0.7644270000000001
7260 -6.1340949 11.80415718 -3.53474901 1.828868 -1.412173 0.449351
7280 -5.07983382 11.6203374 -1.08045378 1.130617 -1.285219 0.209302
7300 -3.89669877 11.82391452 1.12281336 0.213189 -1.178078 0.052137
7320 -4.0757214600000005 10.083483180000002 2.25535824 -0.8844040000000001 -1.2102389999999998 -0.277023
7340 -4.20400683 7.572152610000001 2.3234690700000002 -1.464853 -0.530842 -0.7765350000000001
7360 -1.63610199 8.20278846 1.51305516 -1.198792 0.08482100000000001 -0.724191
7380 -0.94812669 10.04081949 0.6980011199999999 -2.62512 -1.362947 -0.5389510000000001
7400 -1.71288486 9.62618022 -4.71085029 -2.802848 1.130334 -0.518818
7420 -2.56027266 9.74069235 -3.9273844500000004 -3.195317 0.838039 -0.608779
7440 -1.3823761500000002 8.4158028 0.73077633 -3.22702 0.953007 -0.561078
7460 -1.32369273 6.12675702 -0.5415708599999999 -2.943121 1.381606 -0.630147
7480 -2.37541302 4.88120094 -1.73084697 -3.105044 1.17549 -0.8927280000000001
7500 -2.736009 3.9234898800000004 -2.9764128600000004 -2.790257 0.983465 -1.09645
7520 -2.06165979 4.48332696 -3.4130559600000003 -1.843209 0.386982 -1.136072
7540 -1.56349818 4.6988820900000015 -3.4332645600000005 -1.107564 -0.509065 -1.203493
7560 -1.3362691500000001 3.38027094 -3.3780244500000003 -0.967611 -1.031067 -1.054431
7580 0.54321894 2.7274743000000004 -5.204224620000001 -1.2598280000000002 -0.433779 -0.718612
7600 2.2103009100000004 3.94623927 -6.34829625 -1.397458 -0.153197 -0.436854
7620 -0.07753824000000002 4.890481200000001 -7.606732860000001 -1.17556 -0.4190140000000001 -0.222387
7640 -3.86810262 6.633453330000001 -5.27054022 -1.11173 -0.900877 -0.188209
7660 -7.0883626500000005 6.0185331 -0.06586434000000001 -0.991714 -0.691808 -0.094703
7680 -7.084468080000001 12.20981049 -4.719090690000001 -1.218445 -0.088019 0.157176
7700 -5.536538370000001 11.6263215 -1.1859799500000001 -1.659239 0.329165 0.373616
7720 -2.9933253000000004 10.873384380000001 0.42301701 -1.896728 0.404642 0.352633
7740 -3.82963761 10.67699799 -1.1570895 -1.612401 0.14418599999999998 -0.027471
7760 -3.45675951 12.215647440000001 -0.30926025 -1.255867 -0.178365 -0.393104
7780 -3.9142096200000003 12.290939190000001 0.00494424 -0.717723 -0.4366100000000001 -0.746868
7800 -2.9298546 11.71149192 -0.06856209 -0.156637 -0.813071 -0.862107
7820 -1.07521524 10.64406582 -0.30177522 0.050625 -0.905735 -0.779356
7840 -0.85757058 10.12045707 -0.86130819 0.373133 -0.435712 -0.851413
7860 -1.4374593 9.22906161 -1.09796463 0.673551 0.16103599999999998 -0.627889
7880 -2.3785522200000004 9.17801037 -0.82194066 1.2103700000000002 0.730147 -0.091826
7900 -3.2506416000000002 8.76322395 -1.63086345 1.819531 1.261578 0.214055
7920 -3.3521260500000007 8.485551899999999 -1.53924786 2.114263 1.478302 0.372865
7940 -2.62793223 8.32344165 -1.7642304000000002 2.094535 1.991319 0.767312
7960 -1.77994602 8.170454700000002 -1.34570637 1.904717 4.052715 0.909691
7980 -1.4883535800000003 7.741904850000001 -0.39084021 2.098375 3.757576 0.490542
8000 -1.60047207 9.37156167 -0.53917722 1.87936 0.906336 0.554623
8020 -1.34121339 10.706781150000001 -0.34488036 1.540226 -1.183356 1.285595
8040 -1.4341631400000003 10.99643121 -0.74110626 2.132877 0.8410280000000001 2.012464
8060 -1.2928599000000003 12.059972550000001 -1.3470503400000002 2.754322 0.048148 1.819131
8080 -1.8375797700000003 12.405304169999999 -2.6617669200000003 3.021712 -1.024314 1.786054
8100 -3.30347826 12.104578620000002 -4.11209694 3.42087 -1.7509720000000002 1.7417029999999998
8120 -3.93876405 13.93572303 -4.47165306 3.327477 -1.07892 1.590638
8140 -4.116138660000001 17.22018951 -3.7223064000000003 3.205073 -1.068798 1.2970780000000002
8160 -6.051916530000001 16.7914827 -1.8021068100000002 2.828784 -1.024872 1.028406
8180 -7.73246763 13.635890190000001 -1.76901768 2.379265 -0.8530270000000001 0.801787
8200 -7.51841343 12.90870432 -3.51798372 1.790727 -1.107404 0.457239
8220 -5.90911236 12.58822143 -2.47315986 0.908378 -0.778857 0.312855
8240 -3.30512634 12.29662899 0.92806524 -0.029483 -0.67179 0.191867
8260 -4.88105379 10.38405177 3.184326 -1.0686209999999998 -0.8952260000000001 -0.0405
8280 -4.48931106 7.21844325 4.54589514 -2.084747 -0.733273 -0.498595
8300 0.54441576 7.322027040000001 0.27348318 -1.758057 0.996367 -0.955729
8320 -2.6456000400000006 7.003486530000001 -3.70793475 -2.104215 -0.13631400000000002 -0.31683
8340 -4.1788638 5.22114687 -1.93173615 -2.682726 0.4200430000000001 -0.418792
8360 -3.1760954100000003 4.55038812 -1.07461683 -2.633548 1.061543 -0.512206
8380 -0.60563997 7.17308181 -0.55624662 -3.2436990000000003 0.917449 -0.445781
8400 -0.77298876 7.674088320000001 -0.9128008800000001 -2.937125 1.575278 -0.5833510000000001
8420 -2.7707364000000005 6.99794388 -3.1485489300000005 -2.7621330000000004 1.252254 -0.673582
8440 -3.5025624000000004 5.632333020000001 -2.6737351200000004 -2.59311 0.82778 -0.962414
8460 -3.2150116800000004 5.49686673 -2.57839173 -1.986902 0.811012 -1.024388
8480 -2.33588853 5.087917260000001 -3.1684632300000004 -1.590077 0.381156 -0.964449
8500 -2.31777927 3.73114521 -3.8119698 -1.598482 -0.063041 -0.96287
8520 -0.5382845100000001 3.26441484 -5.059026810000001 -1.627867 -0.151519 -0.92237
8540 0.8360082000000001 3.71856879 -7.000788780000001 -1.594718 0.012889 -0.7738659999999999
8560 1.86931512 3.99549528 -6.33557268 -1.380203 -0.5094810000000001 -0.5975779999999999
8580 -1.7402841900000001 3.2055842700000006 -4.96412487 -1.203451 -1.044827 -0.340353
8600 -5.980666500000001 9.15002244 -9.49145949 -0.938008 -1.335374 -0.106322
8620 -7.96224726 12.441826800000001 0.45520362000000003 -0.764822 -0.964311 0.189242
8640 -7.212449340000001 12.56771853 -1.2464585999999998 -1.023852 0.067756 0.459575
8660 -3.62187162 7.600140540000001 -0.7607164500000001 -1.192407 0.658053 0.57194
8680 -2.44860543 9.73275606 0.12977649 -1.2802639999999998 0.593305 0.5895699999999999
8700 -4.697528310000001 12.138707609999999 -1.58116599 -1.304214 0.177048 0.278015
8720 -3.1397199300000005 13.195656629999998 -0.48753738 -0.985892 0.276868 -0.184566
8740 -3.1545428400000004 11.94680439 -0.4504163400000001 -0.795528 0.394277 -0.406645
8760 -2.5336287 10.1367711 -0.7520346000000001 -0.665763 -0.14211500000000002 -0.379414
8780 -1.4422465800000002 8.98896186 -0.5824393200000001 -0.404324 -0.74647 -0.5199550000000001
8800 -0.92358207 9.09194724 -0.66671703 -0.15599200000000002 -0.71902 -0.673148
8820 -1.9523862 8.94943737 -0.8414037000000001 0.116803 -0.380958 -0.735769
8840 -2.26554102 9.270518670000001 -0.7050348900000001 0.55705 0.054201 -0.4501729999999999
8860 -1.84551606 8.852740200000001 -0.8759741400000002 0.960674 0.476443 -0.099654
8880 -1.28597328 8.44828371 -1.4705386200000001 1.548534 1.08002 0.031865
8900 -1.2386694600000003 8.16985629 -1.66349151 2.184566 1.257269 0.176018
8920 -0.6999435 8.58824298 -1.58236281 2.532943 2.068019 0.387852
8940 -1.20694392 8.60321304 -1.0298538000000002 2.355912 3.4092620000000005 0.5259020000000001
8960 -2.1427983000000004 8.89390296 -1.88308836 1.823394 3.4428160000000005 0.5883689999999999
8980 -2.86503993 10.088270459999999 -1.3235455800000002 1.661775 1.7842669999999998 0.70687
9000 -2.07813078 11.365414740000002 -0.9969314400000001 1.104572 1.037532 1.449554
9020 -1.27279845 12.02269455 -0.90127413 1.513001 1.26523 1.961657
9040 -1.27250415 11.79741771 -0.7165616400000001 2.083946 -0.127993 1.959953
9060 -2.5643143800000003 11.03265954 -1.23852231 2.884612 -1.049782 1.880201
9080 -4.33378332 11.657154330000001 -2.13290982 3.472779 -0.742795 2.122129
9100 -5.9680900800000005 13.414203810000002 -2.6452959300000005 3.543878 -1.417011 1.7688400000000002
9120 -5.70508398 15.753535650000002 -2.43154584 3.4611589999999994 -1.563868 1.270659
9140 -4.444557840000001 15.55984701 -2.1547665 3.089516 -1.567365 0.8696209999999999
9160 -5.1801312600000005 14.0005377 -2.01944736 2.622745 -1.589786 0.488238
9180 -5.15303604 12.79688994 -2.90485872 1.6525580000000002 -1.674934 0.245494
9200 -4.20580206 12.334495590000001 -2.12826969 0.442421 -1.601068 0.13867000000000002
9220 -3.73294044 12.823533900000001 -0.7289811 -1.148621 -1.405058 -0.07993
9240 -4.13469918 12.16924614 1.38581946 -2.487916 -0.258781 -0.5265880000000001
9260 -4.55847156 8.8814835 2.39606307 -2.241114 1.857348 -0.8629979999999999
9280 -1.93817151 7.4022532199999995 2.35415475 -3.764314 -0.770135 -0.48037
9300 0.49411989 9.062752680000001 -2.33289648 -3.919856 1.52882 -0.367966
9320 -5.00244273 6.714591840000001 -4.75545636 -3.565802 2.052214 -0.760337
9340 -3.50600571 8.275245120000001 2.3685264 -2.986121 0.7217399999999999 -0.743901
9360 -0.7589212200000001 11.08220004 -1.81706706 -2.012579 0.569348 -0.774293
9380 -1.8947622600000003 10.44991611 -3.3141123000000006 -1.432332 0.076289 -0.519645
9400 -2.5414178400000003 8.483305410000002 -2.9416854600000004 -1.33571 0.062698 -0.667435
9420 -3.1952543400000004 6.956928270000001 -2.51492103 -1.386606 0.051376 -0.988243
9440 -2.42166717 6.58824885 -2.7690883200000003 -1.564791 -0.128389 -1.166582
9460 -1.78293807 6.36357042 -3.72904587 -1.6647189999999998 -0.321776 -1.203351
9480 -1.49329782 4.2858909 -3.2058785700000003 -1.398131 -1.070394 -0.969794
9500 -0.32646699000000007 1.82021607 -3.61842831 -0.992699 -1.664453 -0.613688
9520 0.12873663 -0.31479309 -4.3204613400000005 -0.838454 -1.780825 -0.150989
9540 -0.28965006000000004 -2.37286242 0.448317 -0.740034 -1.393664 0.179283
9560 -3.6705194100000003 -0.04685256 -5.35855554 -1.02766 -0.936046 0.5409510000000001
9580 -2.70292968 6.1011627299999995 4.06913895 -1.42034 -0.474374 0.779035
9600 -3.94833861 14.212649520000001 -2.7966348 -1.6774189999999998 0.037633 0.567211
9620 -8.81112618 18.742524930000002 -1.28477646 -1.465883 -0.03733 -0.049716
9640 -2.54605797 15.992291430000002 -0.28081125 -1.258958 -0.041386 -0.280069
9660 -0.72389952 13.313612070000001 -2.19668463 -1.156777 -0.208642 -0.6327229999999999
9680 -2.744838 10.958113350000001 -2.0881566 -0.8958290000000001 -0.566329 -0.653942
9700 -3.19555845 9.19493262 -1.0933245 -0.571442 -0.809208 -0.669525
9720 -2.8993160700000002 8.70170544 -1.50197967 -0.398565 -0.99746 -0.628552
9740 -2.1544722000000003 9.59235534 -0.8652027600000002 -0.205161 -0.816435 -0.512065
9760 -1.6181398800000002 11.273652 -0.45625329000000003 0.207633 -0.255837 -0.4030780000000001
9780 -0.73617183 12.48613857 -0.9924384600000001 0.652576 0.584882 -0.044261
9800 -0.00748503 11.4874119 -1.4760812700000003 1.286033 1.318555 0.280758
9820 -0.3990708 9.29971323 -1.24151436 2.176839 1.328153 0.305128
9840 -1.19601558 8.16222411 -0.76850559 2.669742 0.895782 0.111504
9860 -1.1422764000000003 7.792799130000001 -0.27692649 2.810869 1.985833 0.186937
9880 -2.26314738 6.91277346 -0.42870681 2.587452 3.519776 0.39385
9900 -4.010308380000001 6.786734580000001 -1.04034069 2.137979 3.380054 0.559669
9920 -4.35339351 6.89391864 0.029184750000000002 2.219029 1.259669 0.345035
9940 -3.81706119 8.398439100000001 0.10508471999999999 2.373386 -0.430698 0.154931
9960 -2.24368434 9.63441081 0.5041555199999999 2.8828240000000003 1.047673 0.569997
9980 -1.68714342 11.131004790000002 0.24519114 2.352815 1.418108 1.36485
10000 -2.06345502 11.26752075 -0.8722365300000001 2.818762 -0.228725 1.206777
10020 -2.5104280500000002 11.85909318 -2.7943883100000004 3.657402 -0.049305 0.899416
10040 -3.01607469 11.36661156 -3.8487965400000004 3.775531 -0.170933 0.843781
10060 -2.6882637300000005 15.06317652 -3.3175556100000003 3.945973 -0.382788 0.928564
10080 -3.3425514900000004 16.09812171 -2.39292387 4.056648 -0.8852770000000001 0.486669
10100 -6.380482860000001 14.81379651 -0.6060912300000001 3.978781 -0.730304 0.161187
10120 -7.348671 14.76799362 -0.6890151600000001 3.931281 -0.793345 -0.016388999999999997
10140 -6.879546990000001 13.240115549999999 -2.02858047 3.5928690000000003 -0.60902 -0.26361100000000004
10160 -6.565342500000001 12.30351561 -0.35027586000000005 2.811482 -0.053167999999999986 -0.329602
10180 -7.43309586 12.939988410000002 0.99976653 1.881561 0.454182 -0.392295
10200 -7.634720790000001 12.31953534 2.16315405 1.275008 0.36242 -0.362231
10220 -6.37883478 10.98401175 1.2463114499999999 0.76639 0.202219 -0.351692
10240 -4.0749759 11.6291664 0.63766962 0.250772 -0.109154 -0.359167
10260 -0.85068396 12.6994374 -3.9519290700000003 -0.373987 -0.487276 -0.363047
10280 -5.82813081 8.762478390000002 -6.958429199999999 -0.824183 -0.902442 -0.312248
10300 -5.610780450000001 6.79272849 3.1931550000000004 -1.140242 -1.21966 -0.097201
10320 -1.6015217400000001 8.03529252 0.16989939 -1.446071 -1.960536 0.028731
10340 -1.5944879699999999 8.15504319 -3.2352202800000005 -1.674852 -1.862654 -0.008244
10360 -2.40684426 6.583608720000001 -3.7308411 -1.159844 1.019476 -0.859713
10380 -2.95694982 4.6807630200000006 -1.1782006200000001 -0.57903 0.654134 -0.842369
10400 -2.3763057300000003 3.2337291600000007 -0.93570723 -2.193918 1.056054 -0.054066
10420 -1.6208278200000001 2.0052326700000003 -0.83346741 -2.696285 2.354765 -0.452345
10440 -2.15461935 1.79551449 -1.4373121500000001 -2.870343 1.668246 0.084635
10460 -2.63122839 1.13883309 -2.7280727099999997 -2.57837 1.29143 0.0252
10480 -1.3644140400000002 0.65084445 -3.9580701300000003 -2.603496 1.2887620000000002 -0.084999
10500 -0.14265702 0.94647861 -4.530032370000002 -2.856023 1.546583 -0.13836700000000002
10520 0.85786488 0.40565331 -6.06045123 -3.095334 1.7135900000000002 -0.137048
10540 1.6540640999999998 0.36853227000000005 -8.13498174 -3.227805 1.859141 -0.190503
10560 1.72232208 0.9535123800000002 -10.0878192 -3.353506 2.100488 -0.230146
10580 1.8925157700000002 1.98232632 -11.447897220000002 -3.401421 2.266146 -0.323629
10600 2.08126998 2.86099821 -12.513979350000001 -3.445578 2.3793490000000004 -0.356129
10620 1.79776098 3.91375836 -12.49482042 -3.3455730000000004 2.522936 -0.386593
10640 -0.37991187 2.4783984000000006 -9.55088847 -2.985139 2.151348 -0.480807
10660 -13.102255620000001 1.56349818 -6.42958191 -2.6722080000000004 2.024299 -0.681421
10680 -24.73830864 17.41479048 -16.651523429999997 -2.4268560000000003 1.687189 -0.773278
10700 -2.24877573 4.5595212300000005 -1.87395525 -2.2827040000000003 1.386751 -0.624472
10720 -1.02432096 -2.6003955600000004 -7.222033710000001 -2.078763 1.249429 -0.559846
10740 -2.65937328 8.16401934 -6.036348060000001 -1.862252 1.274081 -0.518841
10760 -4.11389217 10.96724646 -6.1989095700000005 -1.71432 1.509736 -0.437993
10780 -5.14405008 8.7371784 -3.3054304500000002 -1.725267 1.59865 -0.28649600000000003
10800 -4.75545636 6.728512230000001 -3.15693648 -1.772959 1.450777 -0.029198
10820 -4.356836820000001 6.37269372 -1.9297839600000002 -1.6414490000000002 1.432644 0.128772
10840 -4.177666980000001 7.740099810000001 -2.15267697 -1.312748 1.270429 0.183619
10860 -4.49978814 9.10885968 -1.60840836 -1.05286 1.066488 0.076737
10880 -4.45338684 10.041869160000001 -1.38895866 -1.0239969999999998 0.931691 -0.071372
10900 -3.21756228 10.13497587 -1.49284656 -1.118478 1.054456 -0.054029
10920 -1.8832355100000002 9.88978473 -0.86070978 -1.178438 1.151024 0.090706
10940 -1.5359517 9.880651620000002 -1.1563439400000002 -1.143764 1.136635 0.195653
10960 -1.83922785 9.30136131 -0.9996193800000001 -0.955078 1.069 0.162874
10980 -2.6490433500000004 8.93522268 -1.28537487 -0.855718 1.34453 0.170693
11000 -2.7387067500000004 8.8091838 -0.70697727 -0.885015 1.58175 0.280211
11020 -2.3384391300000003 9.07353387 -0.42317397000000007 -0.8120109999999999 1.909644 0.269619
11040 -1.96541388 9.72048375 -0.18396693 -0.559947 2.088218 0.149373
11060 -2.08516455 9.85595004 0.12589173 -0.475811 2.0898060000000003 -0.054071
11080 -2.1490767 9.80222067 0.30386475 -0.657235 1.920629 -0.213219
11100 -2.06495595 9.53082702 0.27647523 -0.6580090000000001 1.424561 -0.300183
11120 -1.92110211 9.711654750000001 0.34607718 -0.74422 0.754818 -0.3042
11140 -1.8425141999999999 9.493558830000001 0.35147268 -1.012915 -0.151889 -0.298505
11160 -1.88787564 9.71823726 -0.015568470000000001 -1.013291 -0.495879 -0.321568
11180 -2.0044773 10.025702279999999 -0.25806186000000003 -0.956986 0.133621 -0.350823
11200 -1.94056515 9.649086570000001 0.31434183000000004 -0.546514 1.665503 -0.17793499999999998
11220 -1.96646355 9.283095090000002 0.6779396700000001 -0.220788 2.419987 0.270958
11240 -1.84236705 9.39416391 0.6867686700000001 -0.184118 2.26245 0.7403649999999999
11260 -1.74177531 9.74862864 0.40311252 -0.246971 1.828176 1.237206
11280 -1.83174282 9.860747130000002 0.52286319 0.5568890000000001 2.065611 1.369635
11300 -2.26030248 9.44790309 -0.0025407900000000002 2.221966 2.241912 1.391722
11320 -2.26733625 9.102865770000001 0.48454533 2.937298 2.581423 1.382397
11340 -2.2339528200000003 8.84496087 0.94064166 2.611428 3.117616 1.3089309999999998
11360 -2.25626076 9.06126156 1.11577959 1.6329209999999998 4.351816 0.6734680000000001
11380 -2.4819888600000004 9.115295040000001 1.27070892 1.018854 4.796579 0.5372180000000001
11400 -2.62658826 9.37006074 1.18807929 0.680796 3.783049 0.67716
11420 -2.93958612 8.94659247 0.9961760700000001 1.54503 2.033168 0.103258
11440 -3.0919746600000004 8.999438940000001 -0.19219751999999998 2.084036 1.289233 0.261801
11460 -2.3863413600000003 9.99262296 -0.52286319 1.686276 2.228382 0.445826
11480 -1.08195471 11.06903502 -0.8273263500000001 2.198941 1.6883290000000002 0.257819
11500 0.3376994400000001 11.120076450000001 -1.25873091 2.678643 0.998887 -0.105415
11520 0.9398961000000001 10.563378570000001 -0.8198413200000001 2.809819 0.787246 -0.306122
11540 0.5074418700000001 10.741508549999999 -0.57390462 2.531807 0.625324 -0.331357
11560 -0.18037647 10.77758973 -0.9560629800000001 2.638645 -0.283867 -0.562318
11580 -2.1323114100000007 11.878850520000002 -2.92551858 2.807485 -0.614074 -0.715608
11600 -3.77649684 13.040285850000002 -4.61685087 2.662243 -0.48978 -1.03618
11620 -5.3706807 12.34063665 -2.7440924399999997 2.232685 -0.14862999999999998 -1.261808
11640 -6.21373248 10.710224460000001 -1.30618188 1.505533 0.091867 -1.36654
11660 -9.14987529 12.53044053 2.98943073 0.973039 0.186981 -1.247535
11680 -11.6929314 16.01385381 5.794296120000001 0.724966 0.133236 -1.178697
11700 -10.8885114 12.577744350000001 3.0460148100000004 0.670497 -0.056438 -1.117945
11720 -7.394925150000001 12.51547047 0.09340101 0.740066 -0.587717 -0.985387
11740 -5.257963800000001 12.11744934 -0.15373251000000002 0.8589709999999999 -1.010715 -0.801349
11760 -4.9135347 11.69876835 -0.52166637 1.116584 -1.3165209999999998 -0.740405
11780 -5.82872922 10.804979250000002 -0.42092748 1.093297 -1.571868 -0.800061
11800 -5.817800879999999 10.039926779999998 -2.2526703000000006 1.377185 -1.3449799999999998 -1.307911
11820 -4.37390622 8.80588764 -1.3900083300000001 1.334682 -0.241671 -1.192117
11840 -1.2331366200000002 10.50590178 -1.82545461 -0.601406 1.32003 1.01426
11860 -0.11989782 9.620941680000001 -2.16195723 -2.424216 1.230149 0.563671
11880 -1.38627072 9.16379568 -0.3526695 -2.468444 0.971093 0.65022
11900 -2.5791372900000002 7.032828240000001 0.24683922000000003 -3.629091 1.979573 0.675004
11920 -2.18051775 3.76706943 -1.7937192600000003 -3.690471 2.525151 0.156857
11940 -1.12056687 2.3276579400000004 -4.072876560000001 -3.611877 3.102263 -0.376377
11960 -1.03943817 3.8002959000000005 -5.4645329700000005 -2.882814 2.80734 -0.515116
11980 -1.0204263900000001 4.45353399 -5.128481610000001 -2.523517 2.7623740000000003 -0.504003
12000 -0.55728648 4.39172118 -5.59312245 -2.4937720000000003 2.868148 -0.607548
12020 -0.6836294700000001 4.11718833 -6.88942566 -2.648342 2.861372 -0.643871
12040 -0.26360451 4.3755543 -9.04224978 -2.856189 2.829379 -0.721125
12060 -0.7188081300000001 6.02871588 -12.14588853 -2.76833 2.984205 -0.887352
12080 -2.1582098100000007 6.931785240000001 -13.129792290000001 -2.431803 2.673849 -0.8226469999999999
12100 -3.2639635800000004 4.6969299 -11.597578200000001 -2.004467 1.94547 -0.72793
12120 -8.43300954 4.91682105 -14.261738760000002 -1.680797 1.312674 -0.7366090000000001
12140 -10.067169150000002 9.902802600000001 -6.25459113 -1.35667 0.943305 -0.821466
12160 -5.928575400000001 5.48399601 -0.75846996 -1.165593 0.682897 -0.866799
12180 -5.735926620000001 -3.72186495 -2.50997679 -1.053311 0.242749 -0.650738
12200 -0.52824888 4.639305960000001 -3.29464926 -1.051308 -0.322563 -0.473743
12220 -5.095107990000001 5.93111619 5.34059343 -1.104296 -0.0005769999999999999 -0.229903
12240 -9.87765957 12.18436335 -2.9876355 -1.153363 0.6837310000000001 -0.021751
12260 -10.116866609999999 16.439411610000004 -1.40378157 -1.189766 1.098377 -0.053515
12280 -7.334299350000001 16.667091900000003 -2.56955292 -1.390799 1.21739 -0.071095
12300 -4.1195819700000005 10.706781150000001 -1.3940500500000002 -1.593848 1.143521 -0.07028200000000001
12320 -3.29374674 6.96995595 -1.53551025 -1.526863 0.7877569999999999 -0.137725
12340 -1.8220113000000002 6.29830449 -1.62861696 -1.1835129999999998 0.4968520000000001 -0.147772
12360 -0.2809682100000001 8.10280494 -1.19257227 -1.144866 0.37916 -0.319335
12380 0.021258270000000003 10.173146580000001 -1.32818571 -0.762572 -0.177714 -0.716535
12400 0.16241436 10.27972242 -1.8160272000000002 -0.498237 -0.574504 -0.818866
12420 0.26255484 9.5757372 -2.24278182 -0.235863 -0.28275900000000004 -0.744768
12440 -0.034727400000000005 8.99793801 -2.4478598700000003 -0.004534000000000001 0.031281 -0.6249819999999999
12460 -0.6271925400000001 9.11663901 -1.7702145 0.260685 0.539144 -0.254175
12480 -1.2482538300000001 9.44835435 -1.86647022 1.039789 1.290948 0.205366
12500 -2.06495595 9.74518533 -1.7613855 2.260602 2.548176 0.694051
12520 -1.7449243200000002 10.20292974 -1.85599314 3.22065 4.32749 0.851232
12540 -1.4980851 10.387053629999999 -1.4542245900000002 2.8026720000000003 4.724803 0.955694
12560 -1.3115773800000001 10.153232280000001 -1.7304055200000004 2.486819 2.150934 1.003788
12580 -1.33253154 9.61180857 -1.9422132300000001 2.205448 -2.407858 1.366587
12600 -2.06660403 9.46796454 -1.7122864500000001 2.84976 0.37142 1.081242
12620 -2.1375597600000003 10.273885470000002 -1.3531815900000002 2.590239 0.417488 0.7086979999999999
12640 -2.23754328 11.09537487 -1.46440737 2.4986740000000003 0.26976 1.233812
12660 -1.9899585000000002 11.19581946 -0.30237363000000006 2.172876 0.396906 1.687505
12680 -0.96639291 10.56906837 -0.02095416 2.157241 -0.626253 1.292396
12700 -2.25760473 10.698854670000001 -1.0548594900000001 2.044698 -1.042239 0.989836
12720 -2.47794714 11.402241479999999 -2.10477474 1.344297 -1.319426 0.585784
12740 -2.25775188 10.10114118 -3.14166231 0.498982 -1.222582 0.277449
12760 -2.63856627 10.266547590000002 -4.09697973 -0.530366 -1.172253 0.039458
12780 -2.6131191300000003 12.058922879999999 -4.58825472 -1.701307 -0.860265 -0.242585
12800 -2.49980382 15.00599403 -3.7842761700000005 -2.450271 -0.357205 -0.454628
12820 -3.2609715300000004 15.03174528 -3.2953948200000003 -2.163852 0.281699 -0.637181
12840 -3.5043674400000002 12.56442237 -1.9164619800000002 -2.208621 -0.051047 -0.5035390000000001
12860 -5.137761870000001 14.078674350000002 0.13591755 -3.266612 0.268803 -0.984562
12880 -7.88065749 11.27305359 0.8973795600000001 -3.364754 1.367917 -0.8371049999999999
12900 -9.17322309 11.52154089 -4.92670953 -2.328338 1.7740650000000002 -1.005574
12920 -9.05676858 12.18646269 1.8835298100000002 -1.874078 -0.093155 -0.918823
12940 -5.06561913 10.320885180000001 1.25693568 -1.331517 0.171791 -0.779709
12960 -2.60832204 12.24154584 -0.67016034 -1.131707 -0.06289700000000001 -0.60496
12980 -2.23260885 14.95704213 -2.71146438 -0.75016 -0.8897120000000001 -0.6290100000000001
13000 -2.5258493700000004 12.54196728 -3.14286894 -0.3925300000000001 -1.36799 -0.6803779999999999
13020 -2.1157030800000003 8.34963435 -0.59621256 -0.468769 -1.027689 -0.4677020000000001
13040 -1.21847067 4.9741605 -1.52413065 -0.726911 -0.765746 -0.215604
13060 -1.73474154 2.4343907400000004 -1.32609618 -0.8684040000000001 -0.7796390000000001 -0.081979
13080 -1.2510987299999998 0.43993926 -1.2998936700000001 -0.934307 -0.732399 0.149305
13100 -0.22722903 -2.03981292 -1.10320317 -0.8905850000000001 -0.622225 0.264837
13120 -0.05927202000000001 -3.056796 -0.67509477 -0.844786 -0.477096 0.428409
13140 0.8000839800000001 -1.98876168 -1.4488389000000002 -0.951878 -0.09417 0.664315
13160 -0.04101561 0.621954 -6.03110952 -1.049677 0.292582 0.734707
13180 -0.5987533500000001 4.12182846 -0.31239945 -0.8272120000000001 0.686669 0.292444
13200 -4.47883398 6.00102225 4.263131700000001 -0.827052 0.678214 0.009377
13220 -8.809478100000002 15.200889300000002 1.00920375 -0.8197030000000001 -0.065463 -0.234241
13240 -9.930496230000001 19.80157329 -2.8038157200000002 -0.719905 -0.215957 -0.5142939999999999
13260 -1.3572233100000002 12.8064645 2.17677033 -0.835907 -0.401924 -0.527684
13280 -1.2846293100000001 10.4145903 1.7474651099999998 -0.807226 -0.49126 -0.589326
13300 -3.3513804900000004 11.552373720000002 -0.5373819900000001 -0.7554390000000001 -0.708322 -0.697645
13320 -2.8322647200000004 11.491904880000002 -1.2846293100000001 -0.5758220000000001 -1.116875 -0.715095
13340 -2.8377975600000003 11.711050470000002 -1.10904012 -0.448707 -1.036542 -0.668376
13360 -2.75532489 11.04777675 -0.47376414 -0.352899 -0.724176 -0.545262
13380 -2.12527764 10.40052276 0.18636057 -0.038376 -0.219575 -0.4668
13400 -1.4341631400000003 10.15398765 -0.00748503 0.613373 0.129138 -0.324893
13420 -1.16861625 9.59040315 -0.24952716000000003 1.147617 0.14296 -0.24854
13440 -1.56349818 9.60178275 -0.25402014 1.773075 -0.059401 -0.268481
13460 -2.032170930000001 9.22531419 -0.21075804 2.368959 0.17563399999999998 -0.154593
13480 -2.0348686800000007 8.91097236 -0.2874035700000001 2.724957 1.075618 0.112727
13500 -2.9532122100000002 7.32621591 -0.71820972 2.74589 2.735 0.43976
13520 -3.90583188 7.08072066 -0.9767228400000001 2.235854 4.714724 0.7712180000000001
13540 -4.058661870000002 7.418871360000001 -0.06990606 1.82025 4.120641 0.779759
13560 -3.7353340800000003 7.600591800000001 1.2620270700000003 1.401455 2.370628 0.8175319999999999
13580 -2.2818550500000003 9.77032836 1.45048698 1.112296 1.120383 1.236925
13600 -2.00328048 11.4293367 1.5057172800000003 1.607757 1.142601 1.644146
13620 -2.07543303 11.605514490000001 1.0267146 2.736333 1.090031 2.356054
13640 -2.0122664400000003 11.635905870000002 0.3583593 3.208011 -1.067546 2.311907
13660 -1.8672157800000002 12.234512070000001 -0.1790325 3.665925 -1.7944490000000002 2.011594
13680 -1.9700540100000001 12.10548114 -0.8689403700000001 3.489322 -1.327936 1.6519080000000002
13700 -2.3872340700000003 12.81275271 -1.5024211200000002 3.343034 -1.471944 1.295353
13720 -2.7602593200000003 13.33097577 -1.81617435 2.9329970000000003 -1.540969 1.063978
13740 -2.39846652 14.70437577 -1.15619679 2.230241 -1.503444 0.548411
13760 -3.8956491000000004 13.667478390000001 -2.13096744 1.261601 -1.342124 0.207085
13780 -4.76773848 13.0088448 -3.29285403 0.137042 -1.413602 0.142706
13800 -5.035227750000001 11.932884 -3.68683344 -1.136876 -1.358406 -0.035042000000000004
13820 -5.8624069500000004 11.091186 -3.3120129600000006 -2.4581150000000003 -1.005459 -0.306438
13840 -7.00752825 11.4814278 -0.68272695 -2.18839 0.604111 -0.790521
13860 -6.87010977 11.836186829999999 0.7839171000000001 -2.451652 -0.759491 -0.5502630000000001
13880 -6.18798123 11.728110060000002 2.65263381 -3.172456 -0.029099 -0.627804
13900 -5.702396040000001 9.27111708 4.712498370000001 -2.628788 1.740572 -0.8943979999999999
13920 -2.7424443600000004 7.549550370000001 2.94183261 -3.477017 1.049902 -0.8652549999999999
13940 0.33619851000000006 10.50470496 -0.57825045 -3.225149 1.39594 -0.7731399999999999
13960 -0.76865274 11.34176283 -5.20183098 -2.653337 1.295354 -0.623739
13980 -4.11479469 8.63614521 -4.956943949999999 -2.053812 0.803246 -0.6231939999999999
14000 -1.7926695900000003 8.97069564 -0.75906837 -1.202113 0.082604 -0.699642
14020 -0.64455624 8.9338689 -1.35198477 -0.731118 -0.354443 -0.770568
14040 -1.54149435 8.056393830000001 -3.17759634 -1.072926 -0.338762 -0.666153
14060 -2.4520487400000004 5.60164734 -3.62515797 -1.294709 0.224238 -0.607535
14080 -1.50362775 4.43108871 -3.1665110400000005 -1.194059 -0.126763 -0.563654
14100 -2.06990019 4.52838429 -2.67972903 -1.113672 -0.616568 -0.422527
14120 -1.78099569 3.6724617900000003 -2.8836004500000003 -1.007846 -0.8860299999999999 -0.261209
14140 -1.4831150400000002 1.4349185100000001 -2.93420043 -0.909011 -0.662846 0.050047
14160 -0.73407249 -0.09655002 -3.5155900800000004 -1.09863 -0.265116 0.384703
14180 -0.9729754200000001 0.71087184 -5.44477563 -1.49031 0.070233 0.510792
14200 -0.16136469000000003 6.5687858100000005 -4.81459104 -1.730909 0.5583140000000001 0.407005
14220 -7.012766790000001 8.94434598 1.3365732600000002 -1.649643 0.408484 -0.022728
14240 -9.53532 14.221174410000001 -4.68315666 -1.600069 0.129712 -0.414062
14260 -7.841142810000001 11.012745240000003 0.92686842 -1.186479 -0.098151 -0.798646
14280 -1.6712708400000003 9.65057769 0.9729754200000001 -0.697529 -1.0985969999999998 -0.917862
14300 -0.88316487 12.01790727 0.10492776000000001 -0.28899 -1.312178 -0.874143
14320 -2.2369448700000003 13.573027710000002 -1.2376296 -0.19467 -0.7319680000000001 -0.864613
14340 -1.5759274500000002 11.96177445 -0.51807591 0.162191 -0.186435 -0.6694720000000001
14360 -1.4911984800000002 10.205774640000001 -1.8974502000000002 0.678771 0.049728 -0.236741
14380 -2.0995362 8.864414100000001 -2.06990019 1.3165 0.916016 0.220598
14400 -1.711845 8.277638759999999 -1.10095668 2.126987 1.285194 0.435158
14420 -1.8627228 8.71113285 -1.06773021 2.552341 1.6801240000000002 0.670495
14440 -1.4519781 9.30000753 -1.13479137 2.537291 3.389868 1.221538
14460 -0.42616602000000003 10.25921952 -1.3469031900000001 2.3018080000000003 4.857776 1.43593
14480 -0.71910243 10.56578202 -1.05770439 2.1502 3.239767 1.26496
14500 -1.6049650500000001 10.23152589 -1.33117776 1.895451 0.460329 1.518843
14520 -2.2371018300000003 9.835751250000001 -1.19945889 1.785879 0.687095 1.914097
14540 -3.01503483 9.337579830000001 -0.52645365 2.923302 0.812695 2.019089
14560 -4.03350903 10.55126322 -0.7399094400000001 3.483299 -0.350611 2.072562
14580 -4.028574600000001 10.070612460000001 0.16600482 3.474568 -1.413445 2.002292
14600 -2.15387379 9.939335040000001 0.14624748 3.669066 -2.012128 1.567515
14620 -1.21637133 11.625870240000003 -0.63407916 3.646088 -1.9089080000000005 1.083317
14640 -1.78982469 12.302171640000003 -1.63893708 3.010516 -1.855729 0.5906319999999999
14660 -3.02835681 11.30688828 -3.1491473400000003 2.212631 -1.6896490000000002 0.243015
14680 -3.3407562600000005 12.267444240000001 -3.45376746 1.270333 -1.491581 0.012921
14700 -1.8841282200000002 14.409938430000002 -3.9395096100000004 0.31852800000000003 -1.604049 -0.0737
14720 -2.43903087 13.74127902 -2.72194146 -0.858391 -1.514256 -0.196335
14740 -4.028574600000001 11.774217060000002 -2.53243188 -2.405884 -0.8413360000000001 -0.369309
14760 -4.76070471 11.53187082 -4.09219245 -2.919613 0.69117 -0.616279
14780 -5.67454545 11.74697469 -3.7732006800000004 -2.715089 0.363495 -0.634727
14800 -6.395148810000001 12.38763636 -1.4126105700000002 -3.726138 -0.255044 -0.387828
14820 -7.760906820000001 12.560684760000001 1.3202592299999998 -3.423377 2.186096 -0.265995
14840 -7.58353221 10.130934150000002 3.61333692 -3.119561 1.836811 -0.560391
14860 -2.60742933 9.9312516 3.1609782 -2.893342 1.024828 -0.429584
14880 -1.31441247 11.30718258 -0.49052943 -2.03767 0.974135 -0.482294
14900 -0.14729715000000002 13.79710773 -5.126843340000001 -1.4687059999999998 0.592817 -0.455399
14920 -1.01069487 11.831841 -6.65800776 -1.12113 0.311301 -0.685483
14940 -1.5630469200000001 9.290276010000001 -0.5986062000000002 -0.966281 0.248297 -0.781529
14960 -1.4287774500000001 7.07758146 0.13950801 -1.157593 0.394969 -0.7980079999999999
14980 -2.04654258 4.67372925 -2.10911076 -1.346917 0.7185819999999999 -0.842474
15000 -3.3132097800000007 3.3539212800000002 -2.7482813100000003 -1.327612 0.276384 -0.832158
15020 -2.67688413 3.17130813 -2.72283417 -1.09035 -0.398434 -0.646971
15040 -2.34921051 3.4483817700000006 -2.8337558400000002 -0.928796 -0.81842 -0.454092
15060 -1.4277277800000001 2.1794680800000004 -2.5653640500000003 -1.087904 -0.853959 -0.220149
15080 -0.88121268 0.49232466 -3.79536147 -1.367034 -0.439907 0.106383
15100 -0.13546629000000002 0.19429686000000002 -4.04952876 -1.670987 -0.037803 0.245818
15120 -2.4984500400000003 0.92896776 -2.55414141 -2.045851 0.193283 0.324088
15140 -2.6917070400000003 5.243445 -3.29000913 -2.036194 0.323693 0.204348
15160 -3.9594141000000005 9.75386718 1.5359517 -1.5746719999999998 0.004348 -0.25455900000000004
15180 -6.796466100000001 16.10290899 -0.53379153 -0.680894 -0.409718 -0.8438530000000001
15200 -7.032828240000001 14.443312050000001 -1.69103799 -0.286266 -1.216171 -0.909498
15220 -0.7319731500000001 11.58725808 0.17408826000000002 -0.055124 -1.43152 -0.802922
15240 -1.4265309600000002 12.035575080000001 -1.4985363600000001 0.12659 -0.483635 -0.641566
15260 -3.32847414 11.336377140000002 -1.64852145 0.539554 0.192873 -0.215464
15280 -3.30916806 9.78874173 -1.15664805 1.156097 0.90245 0.28893
15300 -3.2123237400000004 9.58561587 -1.8669214800000002 1.902135 1.6489619999999998 0.502556
15320 -2.5860239100000006 9.322315470000001 -1.1662226100000002 2.306406 2.49278 0.654917
15340 -1.7887848300000002 9.40882986 -0.32887044 2.5916240000000004 3.5846160000000005 0.957817
15360 -1.16652672 10.52221581 -0.80187921 2.600468 3.84682 0.913746
15380 -0.59635971 11.030707350000002 -1.0011203100000001 2.48064 2.281549 0.846549
15400 -0.06526593 11.6462358 -0.78736041 2.650547 0.7733260000000001 1.179749
15420 -0.9157929300000001 11.486067929999999 -0.8899043400000001 2.53835 0.06949 1.465082
15440 -2.36073726 10.76860377 -0.8020361700000002 3.431229 0.458538 1.168514
15460 -2.09818242 10.69705944 -0.4122456300000001 3.823785 -0.244935 1.192453
15480 -2.30565411 10.34573391 -0.76011804 3.385446 -0.077651 1.563055
15500 -2.4987541500000003 10.40052276 -1.70376156 3.536507 -0.840258 1.133526
15520 -3.3277285800000005 10.45411479 -1.3443525900000002 3.584264 -1.214232 0.575658
15540 -1.5003315900000003 11.143129950000002 -2.21060502 2.914732 -1.347401 0.093657
15560 -1.51425198 10.439890290000001 -3.22115274 1.916371 -1.382018 -0.240148
15580 -1.9318833 9.61106301 -4.837487580000001 0.810076 -1.152231 -0.268466
15600 -3.1585845600000004 10.444677570000001 -4.645142910000001 -0.414987 -0.885202 -0.183362
15620 -3.20333778 13.473779940000002 -3.8610688500000006 -1.774086 -0.55688 -0.12491
15640 -3.3217444800000004 14.094389970000002 -2.28859452 -2.694379 0.190137 -0.191048
15660 -4.7482754400000005 12.290792040000001 -1.8574842599999999 -2.873726 0.930698 -0.616265
15680 -4.50293715 12.39841755 -1.7691746400000001 -2.972963 0.811353 -0.255747
15700 -4.59214929 12.98609541 -1.1846359800000001 -3.847709 -0.240454 0.330218
15720 -6.77775843 13.436953200000001 -0.57375747 -2.49208 1.888143 0.176726
15740 -7.978855590000001 12.52998927 -0.09370512 -2.448864 0.26272 0.092585
15760 -4.2366447 8.60171211 0.64725399 -2.6796740000000003 1.204824 -0.073673
15780 -3.78068571 9.73605222 1.162485 -2.507003 1.363119 -0.115398
15800 -3.1570836300000003 8.709190470000001 0.6291447300000002 -2.538338 1.258788 -0.370788
15820 -2.54874591 11.599530390000002 -5.44971987 -2.212701 1.3064559999999998 -0.851411
15840 -1.87230717 11.287425240000003 -3.8251446300000005 -1.831922 1.102392 -1.032224
15860 -1.0282155300000004 8.31566232 -1.4662026 -1.693925 0.924102 -1.054533
15880 -0.9535123800000002 5.70613365 -1.6534656900000002 -1.713388 0.88256 -1.038592
15900 -0.68048046 3.9787299900000006 -2.5661096100000003 -1.6552950000000002 0.777857 -1.012415
15920 -1.3959924300000002 2.9636892900000005 -2.416271670000001 -1.573376 0.291644 -0.971695
15940 -1.29840255 2.05732377 -1.8959590800000001 -1.504633 -0.428059 -0.604961
15960 -0.78182757 1.5462816300000002 -2.1623986800000004 -1.367346 -0.397962 -0.25900500000000004
15980 -0.4972689 0.73646613 -3.27833523 -1.2361 0.129869 0.029655
16000 0.47301858 1.11577959 -3.97528668 -1.293241 0.633404 0.430262
16020 -0.05912487 2.18965086 -3.1590260100000003 -1.288195 1.307709 0.695421
16040 -1.6847497800000002 3.63024936 -7.1260821000000005 -1.140215 1.440489 0.662101
16060 1.5236793900000003 11.748024359999999 -6.50621763 -0.877067 1.127416 0.67075
16080 -5.00289399 16.188236370000002 3.02371668 -0.5291859999999999 0.98187 0.270647
16100 -11.19686913 14.071787730000002 -6.40697967 -0.385155 1.029958 -0.157834
16120 -3.0340368 6.845712300000001 -0.9618999300000001 -0.685459 0.703868 -0.134945
16140 -2.24578368 6.2945570700000015 -0.01257642 -0.933502 0.001033 -0.24794
16160 -4.70981043 9.35719002 -1.78264377 -0.936446 -0.612939 -0.684077
16180 -5.497170840000001 11.32559595 -0.7114702500000001 -0.8256819999999999 -1.166169 -0.958195
16200 -4.9713156000000005 12.000396420000001 -0.62330778 -0.707394 -1.194288 -0.955197
16220 -2.8036685700000006 11.268119160000001 -0.36583452 -0.792525 -0.886214 -0.933753
16240 -2.11375089 11.096728650000001 -0.64575306 -0.8635209999999999 -0.201405 -0.831509
16260 -2.2312648800000003 10.782975420000001 -0.46029501 -1.031612 0.4975270000000001 -0.713938
16280 -1.2813331500000003 11.053162440000001 -0.10492776000000001 -0.777342 1.115413 -0.408511
16300 -0.047902230000000004 11.40597909 -0.09624591 -0.099406 0.223834 -0.211421
16320 -0.09370512 11.0131965 -1.2012541200000002 0.430782 0.175258 -0.245043
16340 -0.26689086 9.791586630000001 -1.2695121 0.719241 1.188496 -0.268896
16360 -0.40371093 9.04269123 -1.05754743 1.104819 1.524941 -0.025215
16380 -0.49366863 8.2888614 -0.9648919800000001 1.565534 1.7142689999999998 0.4467100000000001
16400 -0.55713933 8.550817830000002 -1.4864112000000003 2.042582 1.984472 0.926123
16420 -1.3834258200000003 8.18228556 -1.39823892 2.188946 2.051094 1.187706
16440 -2.3343974100000002 7.793240580000001 -0.42661728 2.0893740000000003 1.481585 1.170648
16460 -2.4224127300000005 8.879982570000001 -0.66820815 1.7431029999999998 1.83418 0.941315
16480 -1.21816656 9.84098979 1.0529073 1.130386 2.453196 0.917014
16500 -0.9199916100000001 10.09141947 2.13216426 0.799692 2.55836 1.011777
16520 -2.2628432700000003 8.95138956 2.1746808 1.156699 1.349776 0.8427680000000001
16540 -3.51798372 9.77512545 1.79536734 1.661186 0.690067 0.215818
16560 -3.95252748 11.68500492 0.98824959 1.910923 -0.089282 -0.108315
16580 -2.95904916 12.21714837 -1.4826637800000002 1.969 0.681954 -0.152695
16600 -3.2512400100000005 11.75370435 -1.84207275 1.628831 1.391708 -0.194436
16620 -2.6515841399999998 10.8281799 -0.76296294 1.428088 1.473953 -0.075235
16640 -0.97536906 12.32521533 1.1937690900000002 1.626026 1.225603 -0.211335
16660 -0.7346709 12.53643444 0.5980077900000002 1.706724 1.102963 -0.248002
16680 -5.2087176 9.904303530000002 -1.98517122 1.454448 1.123452 -0.35768
16700 -6.51190743 11.273652 -2.70891378 1.371339 0.49488 -0.536917
16720 -4.721484330000001 11.2673736 -1.5937326 1.098193 0.43427 -0.594295
16740 -2.24622513 11.013049350000001 -1.02057354 0.7159760000000001 0.60819 -0.599324
16760 -1.85150016 10.748846430000002 -0.70458363 0.251529 0.782325 -0.5867680000000001
16780 -4.5176031 10.600205310000002 -0.18351567000000002 -0.186937 0.929228 -0.446877
16800 -8.959620150000001 10.05908571 -0.23905008000000003 -0.612129 0.970514 -0.280052
16820 -9.71299872 10.095608340000002 1.11427866 -0.997616 0.989586 -0.18663
16840 -8.27928684 10.276426260000001 -0.13981212 -1.312335 1.089363 -0.090679
16860 -7.56347076 9.50149512 -0.46582785000000004 -1.523301 1.364083 0.122208
16880 -7.794143100000001 8.95483287 -0.09999333 -1.5284870000000002 1.665559 0.392045
16900 -6.808738409999999 8.35742349 2.86130232 -1.214266 1.686293 0.52881
16920 -4.57987698 8.290215180000002 1.91676609 -0.895832 1.075775 0.281852
16940 -3.7737990900000002 8.57267451 -3.19944321 -0.4157770000000001 0.119383 -0.189996
16960 -4.10326794 8.557704450000001 -3.1988448000000007 0.028491 -0.327278 -0.497173
16980 -3.98755899 8.55980379 -1.7556957000000002 0.139334 0.021088 -0.598326
17000 -3.7112309100000003 7.68845997 -0.5911211700000002 -0.756648 -0.515451 -0.710719
17020 -3.6555493500000003 6.179446530000001 0.12214431 0.180176 2.0560810000000003 -1.244787
17040 -2.7541182600000003 5.24000169 -1.08045378 2.148771 1.1427969999999998 -1.001266
17060 -2.11869513 4.71938499 -1.21861782 0.444375 0.559782 -0.512496
17080 -1.33222743 4.5235970100000005 -0.7735871700000001 -1.556226 1.881664 -0.345499
17100 -1.2695121 4.03156665 -1.37115351 -2.22662 3.327018 -0.240938
17120 -0.9122024700000001 3.57980634 -1.8238065300000001 -2.551222 3.298307 0.027091000000000004
17140 -0.8705884500000001 3.2858202600000004 -1.8977543100000003 -2.0973490000000004 2.460214 -0.4354770000000001
17160 -0.67569318 3.8458044900000004 -3.0650265900000004 -1.853555 1.845859 -0.457556
17180 -0.004492980000000001 4.68451044 -4.12077879 -2.224562 2.298206 -0.303699
17200 0.51791895 5.39987526 -4.92774939 -2.726484 2.72253 -0.48721
17220 0.74050785 6.21163314 -5.89519197 -3.126481 3.112105 -0.594121
17240 0.23576373 7.5425166 -7.19134803 -3.000534 3.088374 -0.62953
17260 -0.7614620100000001 9.29612277 -8.8268418 -2.56846 2.910733 -0.802541
17280 -1.45542141 10.53957951 -10.62999828 -2.462403 2.362432 -0.973081
17300 -1.17565983 10.335256829999999 -10.623710070000001 -2.021664 2.054591 -0.8286030000000001
17320 -0.30895614000000005 9.32875083 -9.56091429 -1.7664830000000002 2.353082 -0.5708300000000001
17340 -1.51694973 7.959402360000001 -8.97203961 -2.308808 2.535027 -0.313137
17360 -2.48004648 6.686741250000001 -10.179876240000002 -2.364673 2.716307 -0.044567
17380 -12.77757405 7.3548022500000005 -3.1919581800000003 -1.856324 2.98237 0.111398
17400 -20.328625350000003 25.54168878 -5.96285154 -1.529165 3.230126 0.20737
17420 -11.65640877 24.52395033 -5.88486204 -1.226612 3.192605 0.27042
17440 3.01712436 -7.294186260000001 10.584038430000001 -0.6549550000000001 2.79597 0.39563
17460 1.9911553200000003 -8.47866528 -1.1118850200000001 0.071276 2.741173 0.415728
17480 0.94154418 8.48181429 1.93562091 0.255294 3.017914 0.580097
17500 -8.46040887 17.037125099999997 1.8946053 0.313379 3.378876 0.837482
17520 -5.832918090000001 19.32092253 -2.18784582 0.32147 3.4494300000000004 0.7690819999999999
17540 -2.2120961400000003 11.09657169 -0.03891627 0.253347 3.018087 0.5384220000000001
17560 -2.6345245500000005 6.82415973 1.93053933 -0.07461799999999999 2.38341 0.23357
17580 -3.4373062800000005 7.335349020000001 1.3787856900000002 -0.369846 2.066402 -0.15371400000000002
17600 -4.98852234 9.3875814 2.1921916500000003 -0.648922 1.128159 -0.244192
17620 -4.747529879999999 10.38405177 3.5515143000000005 -1.215998 -0.529234 -0.595338
17640 -3.4408967400000003 10.94044554 4.6970868600000015 -1.1128 -0.7961630000000001 -0.798305
17660 -2.70322398 13.589793 5.389692480000001 -1.03457 0.597379 -0.906367
17680 -1.4289246 14.681175120000002 5.372780040000001 -1.137544 1.631177 -0.937253
17700 0.07903917 12.43988442 3.7191672000000002 -1.330438 1.516497 -0.862609
17720 1.5124567500000001 11.427688620000001 0.17274429 -1.281932 0.966437 -0.810291
17740 2.13845247 10.841060430000002 -0.61192818 -1.059689 1.749823 -0.572597
17760 2.2040127000000003 10.315950749999999 -1.7063023499999999 -0.820684 2.627306 -0.171469
17780 2.4231582900000004 10.431502739999999 -3.26321802 -0.546524 -0.194744 -0.375309
17800 1.8661661100000002 10.746001530000001 -5.27054022 -0.07756 -0.528883 -0.604478
17820 1.0585971 10.228229729999999 -6.73779249 0.145828 0.993761 -0.357041
17840 0.8897473800000001 8.923695930000001 -5.43056094 0.624818 1.030365 -0.069595
17860 1.14017706 8.168963580000002 -3.1278988800000005 1.158748 0.896537 0.167178
17880 0.50879565 8.3147598 -2.3493674700000002 1.642553 0.610223 0.484982
17900 -0.27617112 8.283926970000001 -0.33978897 2.0250630000000003 0.533115 0.521936
17920 -2.40265539 7.36768278 -0.32018859000000005 2.185368 0.8287110000000001 0.52054
17940 -4.24067661 7.59161565 -0.034276140000000004 2.215693 1.158872 0.5128510000000001
17960 -3.06742023 8.52087771 3.4167935700000003 2.010919 1.7386259999999998 0.363263
17980 -4.04249499 9.429038460000001 3.1892702400000004 1.744804 2.5970560000000003 0.373123
18000 -5.22727812 11.596381380000002 -1.2644207100000002 1.734564 2.883836 0.326751
18020 -4.36926609 14.63342004 -2.19697893 1.891681 2.79442 0.17413900000000002
18040 -3.96809595 15.41764125 -1.5829612199999998 1.822502 1.548894 0.55447
18060 -4.0023819000000005 14.296623120000001 -1.54179846 1.881125 1.31873 1.051898
18080 -2.62134972 12.2246334 -1.6341498 2.457714 0.641832 1.462717
18100 -1.2394248300000001 11.23548129 -1.6759109699999999 2.951454 -0.134293 1.452205
18120 -1.4668010100000002 11.846811060000002 -1.0961694000000002 3.0859080000000003 -0.519663 1.53696
18140 -1.6807080600000002 12.81006477 3.3154562700000003 2.792765 -0.611789 1.386547
18160 -3.3123072600000003 13.09132728 -0.023347800000000002 2.34686 -0.675974 1.3076709999999998
18180 -5.60015622 10.226434500000002 -1.9173645000000001 1.998156 -0.990682 1.190271
18200 -4.45338684 10.880123850000002 -0.77853141 1.560429 -1.327783 1.155599
18220 -2.87342748 11.10121182 0.67150431 0.808301 -1.460955 1.011647
18240 -2.3992120800000003 11.338025220000002 1.0672789500000002 -0.16527 -1.678879 0.676113
18260 -3.23162982 11.33518032 1.02611619 -1.140328 -1.502806 0.11467
18280 -4.8791016 10.82549196 1.0975133700000002 -0.898423 0.092995 -0.365317
18300 -7.21170378 10.23391953 1.0927260900000004 -1.172124 -0.5830529999999999 0.037425
18320 -9.16963263 9.617949630000002 0.35776089000000005 -3.595054 -0.8791709999999999 -0.266471
18340 -9.08520777 9.20959857 -1.44449307 -3.558136 2.282493 -0.8118529999999999
18360 -6.76099314 8.41520439 -2.37301938 -3.216637 0.693723 -0.996507
18380 -5.07354561 7.7423463 -1.91377404 -2.457882 0.5503680000000001 -0.7036720000000001
18400 -4.121975610000001 8.255477970000001 -1.14586686 -1.728645 0.92795 -0.921252
18420 -1.82650428 7.839200430000001 -1.03046202 -1.6802740000000005 0.877285 -0.8140270000000001
18440 0.33560010000000007 9.28893204 -2.65009302 -1.568335 0.693267 -0.979652
18460 0.70338681 10.77340086 -2.6156599200000006 -1.309555 0.135028 -1.195047
18480 -2.77088355 9.39610629 -2.1941340300000003 -1.45435 -0.135599 -1.057911
18500 -3.2615699400000002 8.56788723 -2.18784582 -1.456685 0.127358 -0.74848
18520 -2.31763212 8.539889490000002 -3.03075045 -1.488715 0.434079 -0.435039
18540 -1.6860937500000002 7.91150013 -3.63024936 -1.096953 -0.08029 -0.282092
18560 -1.75135968 7.26814071 -3.80419047 -0.8754379999999999 -1.038003 -0.200269
18580 -2.04953463 6.523581330000001 -2.9873412000000004 -1.000919 -1.324514 -0.103571
18600 -0.97027767 4.716844200000001 -3.5953748100000005 -1.10694 -0.547113 0.050653
18620 0.07424208000000002 1.90763298 -5.096147850000001 -1.652268 0.500471 0.418311
18640 0.77688333 -0.06975891000000001 -6.090087240000001 -2.134777 0.7056140000000001 0.68387
18660 0.5382845100000001 0.90247095 -5.162767560000001 -2.08078 0.872259 -0.010311
18680 -2.56895451 2.13515631 -5.88096747 -1.4414559999999998 -0.222347 -0.688105
18700 -8.23976235 1.12790475 1.1335945500000002 -0.795613 -1.071669 -0.906832
18720 -9.22411737 4.24756323 1.41904593 -0.253462 -1.229258 -0.86225
18740 -9.067539960000001 17.48244024 -0.38469915000000005 -0.109786 -1.199303 -0.752326
18760 -9.91628154 18.414557010000003 -0.84004992 0.238244 -0.7081149999999999 -0.545426
18780 -1.91811006 15.875532810000001 1.0722231899999999 0.526483 0.238302 -0.109859
18800 -3.4904372400000003 12.787462529999999 -1.4784749099999999 0.887598 1.012984 0.318959
18820 -4.410880110000002 10.74315663 -1.02865698 2.056017 1.565893 0.3638
18840 -2.5232987700000002 8.96515299 0.2874035700000001 3.235702 3.202252 0.648749
18860 -0.9336078900000001 9.261836820000001 0.02080701 3.594209 5.017881 1.036691
18880 -0.21764466000000002 10.838509830000001 -0.6541406099999999 3.253458 5.084478 1.194459
18900 -0.8589145499999999 10.862760150000002 -0.57390462 2.368465 1.935181 1.24786
18920 -0.51118929 10.276426260000001 -0.27363033000000003 2.018792 -1.393392 1.181317
18940 -0.18336852 9.42276006 -0.20147778000000002 2.609468 -0.450864 1.262215
18960 -0.45071064 9.8128449 -0.14280417 3.228461 0.966458 1.930225
18980 -2.1927900600000005 10.05968412 -0.93435345 3.148561 -0.5156810000000001 2.084322
19000 -3.0039495300000003 11.03520033 -0.48110202 3.082619 -0.99155 1.798188
19020 -3.6890799300000006 10.605591 -1.43476155 2.795947 -1.281092 1.195147
19040 -3.0888256500000004 10.46114856 -0.02784078 2.444189 -1.526803 0.875743
19060 -3.1515507900000004 9.846522629999999 0.65323809 1.737691 -1.80677 0.639363
19080 -1.8994023900000003 9.68291145 -0.19205037000000003 0.782729 -1.6329360000000002 0.353664
19100 -0.49471830000000006 11.99485377 -1.34525511 -0.076872 -1.565061 0.109359
19120 -1.6096051800000002 10.993743270000001 -3.81436344 -1.069052 -1.482126 -0.056843
19140 -2.48363694 10.356210990000001 -6.14412072 -2.276772 -0.912746 -0.205945
19160 -3.5372898000000004 9.88844076 -5.74624674 -2.460751 0.351423 -0.500475
19180 -3.4979222700000006 11.17246185 -5.22218673 -1.941376 0.398248 -0.406108
19200 -3.63788154 12.28524939 -4.84093089 -2.76987 -0.303688 -0.5071359999999999
19220 -3.35871837 12.799734840000001 -4.19188167 -2.915134 0.88975 -0.463746
19240 -3.5057114100000004 13.109142240000002 -3.4299684000000004 -2.938839 1.494913 -0.996662
19260 -4.36761801 14.10561261 -0.54845748 -2.900259 0.596699 -0.983491
19280 -7.8538663799999995 13.37139297 3.51169551 -1.837184 0.757867 -0.91752
19300 -9.970315020000001 9.668539800000001 3.9649567500000003 -1.147216 0.19202 -0.936544
19320 -6.9672582 9.349704990000001 2.3912757900000003 -0.715079 -0.239988 -0.901994
19340 -0.9066598200000001 11.21063256 1.2760946100000001 -0.7231310000000001 -0.656176 -0.712441
19360 -0.41913225000000004 13.610747159999999 -6.7000632300000005 -0.971164 -0.366229 -0.545766
19380 -1.9254479400000002 13.341158550000001 -6.290073899999999 -1.124003 -0.244988 -0.363255
19400 -0.8062250400000001 10.49602311 -0.82777761 -0.961535 -0.664053 -0.13512000000000002
19420 -0.36194976 7.7275332 -1.7456698800000001 -0.786492 -1.000716 -0.011689
19440 -1.6193367 5.8784266800000005 -2.52630063 -0.853534 -0.965208 0.223874
19460 -2.7660962700000002 4.54814163 -2.7424443600000004 -0.964011 -0.495542 0.349619
19480 -2.71819404 3.2190534 -1.87500492 -1.11943 -0.092682 0.437748
19500 -1.53685422 2.04474735 -1.4147099099999998 -1.447142 0.043998 0.374395
19520 -0.95501331 0.96713847 -1.96406991 -1.630475 0.316187 0.131348
19540 -0.4685256 -0.15747012000000002 -2.13830532 -1.428064 0.220571 -0.374521
19560 0.0058369500000000005 0.46373832000000004 -4.41760977 -1.362362 -0.157662 -0.416307
19580 0.8590617000000002 3.8725956000000004 -7.887249810000001 -0.998832 -0.484793 -0.44219
19600 -3.6110904300000004 6.061795200000001 0.4628358 -0.64186 -0.775014 -0.6348090000000001
19620 -7.866894060000001 7.28056017 -0.33994593000000006 -0.349727 -1.018111 -0.8343510000000001
19640 -8.8991415 13.523183099999999 -0.60040143 -0.22477 -0.989781 -0.834583
19660 -6.49753578 12.959902710000001 0.22543380000000002 0.05714 -0.242746 -0.615654
19680 -1.3644140400000002 14.969471400000002 -0.48438837 0.6633220000000001 -0.131046 -0.303915
19700 -2.14624161 15.717611430000002 -1.38192489 1.207839 0.204822 -0.053783
19720 -1.9908610200000003 12.115801260000001 -0.5924651400000001 1.77132 0.443859 0.152809
19740 -2.23440408 9.99516375 -1.4566182300000001 2.311887 1.149145 0.464398
19760 -1.9730460600000002 9.58591998 -1.2376296 2.757287 3.252319 0.797031
19780 -0.77523525 10.03153923 -0.18202455 2.797188 5.265583 1.055376
19800 -0.393381 10.434200490000002 0.09909081000000002 2.605004 3.914947 0.922236
19820 -0.7137167400000001 10.07090676 -0.53588106 1.910379 0.769756 1.115831
19840 -1.7292087000000003 9.34027758 -0.36927783000000003 1.804909 0.367513 1.631561
19860 -2.79993096 8.47058184 -0.5469663599999999 2.404709 1.161259 2.14748
19880 -4.07707524 7.859703330000001 -0.7939527300000001 2.876316 -0.29220100000000004 2.110976
19900 -4.33363617 7.797439260000001 -1.3674060900000002 3.501747 -0.709859 2.119084
19920 -3.80419047 7.90894953 -0.7749409500000002 3.435659 -0.763688 2.051394
19940 -4.11329376 9.37485783 -0.47810997000000005 3.5322410000000004 -1.755234 1.6452779999999998
19960 -1.32504651 10.543022820000001 0.41718006 3.246609 -1.575948 1.280926
19980 0.09700128 11.45253735 -0.5697157500000001 2.640605 -1.761761 0.854984
20000 -0.8761311 11.852049599999999 -1.95178779 1.882962 -1.967331 0.439758
20020 -2.31523848 11.36167713 -2.20790727 0.729067 -1.55675 0.262392
20040 -3.25812663 11.08400508 -2.33784072 -0.477938 -1.284659 0.13183599999999998
20060 -3.0621816899999996 12.04485534 -2.85456285 -1.94476 -0.950737 -0.050822000000000006
20080 -2.71475073 13.85563419 -3.87304686 -2.717965 -0.1876 -0.545378
20100 -3.87649017 13.32528597 -3.6025557299999997 -2.0571900000000003 0.7574770000000001 -0.629568
20120 -5.441332320000001 12.723687720000001 -4.12452621 -3.012696 -0.953487 -0.301833
20140 -5.00678856 12.64765041 -5.07519369 -2.910817 1.210094 -0.391488
20160 -4.81683753 11.607309720000002 -3.70853316 -2.7783290000000003 0.920153 -0.725612
20180 -5.17099815 11.692784249999999 -0.73033488 -3.165828 1.009258 -0.827778
20200 -5.85387225 11.894262029999998 0.27108954 -2.958839 1.538835 -0.774668
20220 -7.34972067 10.610682390000001 1.53670707 -2.785479 1.2885209999999998 -0.665246
20240 -4.04773353 9.524391660000001 1.60870266 -2.504614 0.915487 -0.8614950000000001
20260 0.11077452 11.0191806 0.18037647 -1.914034 0.446278 -0.984955
20280 -3.3968890800000002 10.69376328 -2.70038889 -1.359953 -0.361247 -0.921298
20300 -2.62853064 10.72698975 -1.91317563 -1.1132 -0.664003 -0.814501
20320 -0.65967345 11.22605388 -2.96563167 -1.098255 -0.534604 -0.686375
20340 -1.19915478 9.10511226 -3.3890999400000004 -1.119486 -0.429396 -0.604405
20360 -1.6842985200000002 7.203021929999999 -2.2073088600000004 -0.945268 -0.910028 -0.441271
20380 -1.92365271 4.32165816 -2.8466265600000007 -0.733157 -0.8927959999999999 -0.13964100000000002
20400 -1.6277144399999999 3.52876491 -2.8830020400000005 -0.776766 -0.7269 0.235856
20420 -2.1198919500000004 2.94886638 -2.4929172000000004 -1.087897 -0.4283810000000001 0.444808
20440 -1.8679613400000001 1.27924362 -2.84109372 -1.574372 0.399635 0.791794
20460 -1.33822134 0.26284914 -3.3105120300000004 -1.6479720000000002 0.662816 0.575162
20480 -0.8482903200000002 -0.18367263 -4.73839677 -1.364596 0.187082 -0.047159
20500 -0.10777265999999999 2.41402518 -7.44297453 -1.283349 -0.307373 -0.341856
20520 -0.91954035 6.97129992 -6.081552540000001 -0.864525 -0.412267 -0.580214
20540 -5.045106420000001 6.97459608 -0.38874087000000007 -0.45811 -1.216593 -0.655393
20560 -7.4483602200000005 12.744494730000001 -3.90777426 -0.14721900000000002 -1.465458 -0.760793
20580 -9.42709608 13.19760882 -1.3570761599999999 0.15861 -1.061763 -0.748492
20600 -2.7038322 9.97346403 -0.06182262000000001 0.62847 -0.168804 -0.421614
20620 -0.9050215500000001 10.161914130000001 1.20274524 1.0509190000000002 0.587032 -0.12800799999999998
20640 -2.15387379 12.16580283 -1.44644526 1.7114060000000002 1.258332 0.054139
20660 -1.995354 12.73581288 -0.54426861 2.0467150000000003 1.261794 0.229529
20680 -1.5519714300000003 11.659557780000002 -0.47780586 1.951103 1.466311 0.58218
20700 -0.70742853 10.71861201 -0.76311009 1.803248 2.159946 0.941317
20720 -0.8256782699999999 9.83829204 -1.11472992 2.055459 3.946478 0.972837
20740 -1.77979887 9.051677190000001 -1.45946313 2.20808 4.424183 0.725463
20760 -2.05163397 9.02682846 -1.4425506900000002 2.489153 2.190144 0.520918
20780 -1.61424531 9.420955020000001 -1.3365732600000002 1.589564 -0.48559 0.974193
20800 -0.81730053 9.21978135 -0.89364195 1.958999 1.3686459999999998 1.82043
20820 -0.87298209 9.19672785 -0.29713509 2.789523 0.549657 1.847577
20840 -1.41275772 8.864414100000001 -0.98854389 3.688005 -0.903057 1.787348
20860 -1.5452319600000002 9.965674889999999 -0.57600396 3.718807 -1.273467 1.68442
20880 -3.7998446400000003 10.650354029999999 -0.95142285 3.82568 -1.593036 1.322381
20900 -3.7622723400000004 10.31624505 -0.43948800000000005 3.549787 -1.617266 0.961562
20920 -1.59972651 10.73806524 -0.6785380799999999 2.857659 -1.082314 0.7167600000000001
20940 -0.26344755000000003 11.502529110000001 -1.00425951 2.110044 -1.029714 0.46578
20960 -0.8102667600000001 10.864104120000002 -1.37384145 1.277525 -1.00496 0.325337
20980 -2.5312350600000006 10.36624662 -3.7758984300000002 0.316761 -0.988443 0.224601
21000 -4.551280830000001 12.03737031 -3.95462682 -1.00704 -0.904194 0.017625
21020 -4.22691318 14.089455540000001 -4.979242080000001 -2.4308490000000003 -0.4323 -0.340097
21040 -3.60106461 14.316978870000002 -3.76661817 -1.7191419999999995 1.576835 -0.96261
21060 -4.23275013 11.92944069 -2.5878191400000006 -2.344136 -1.007184 -0.5064649999999999
21080 -4.942866600000001 10.92248343 -2.7876488400000006 -2.797917 -0.451236 -0.347978
21100 -5.467534830000001 11.49399441 -3.80553444 -2.120356 0.905823 -0.909005
21120 -6.433917930000001 12.82248423 -3.33476235 -2.853734 0.69802 -0.7878109999999999
21140 -6.7222240200000005 12.420872640000002 1.44764208 -2.862277 1.3544770000000002 -0.842123
21160 -7.345826100000001 11.224258650000001 3.64596498 -2.775441 1.365267 -0.68557
21180 -6.082455060000001 8.621175150000001 3.9972905100000005 -2.71018 1.383239 -0.70757
21200 -3.4450856100000005 8.03020113 -0.96594165 -2.498325 1.257959 -0.730499
21220 0.7743425400000001 11.65176864 -4.92101973 -2.091637 1.020234 -0.774355
21240 -1.6537599900000002 10.935805409999999 -3.4139486700000004 -1.489449 0.31755900000000004 -0.8653879999999999
21260 -0.19264878 10.909465560000001 -0.81715338 -1.045914 -0.392664 -0.796219
21280 0.33021441000000007 9.477990360000002 -1.83069315 -0.995735 -0.431955 -0.6046060000000001
21300 -0.88391043 7.3429812 -1.1322407700000001 -1.023932 -0.233967 -0.542032
21320 -1.70495838 5.0552892 -3.04945812 -0.997066 -0.419454 -0.5330600000000001
21340 -2.6364669300000005 3.2150116800000004 -3.2254887599999997 -0.881434 -0.8976770000000001 -0.388498
21360 -1.8018027 3.3561677700000003 -3.57067323 -0.967044 -0.962223 -0.157209
21380 -1.4576679000000001 3.62216592 -3.2744406600000002 -1.21108 -0.422244 0.082881
21400 -1.1123362800000003 2.40878664 -3.5235263700000004 -1.30436 0.29033600000000004 0.186002
21420 -0.35042301000000003 1.09542384 -4.530326670000001 -1.447349 0.42768 0.329037
21440 -0.4451778 0.029184750000000002 -5.05199304 -1.5484870000000002 0.215071 0.305102
21460 -1.40827455 2.78690328 -15.16810428 -1.449458 0.054235000000000005 -0.051855
21480 -0.44398098 10.871147700000002 -4.058661870000002 -1.166393 0.091643 -0.32766300000000004
21500 -6.62177943 6.97594005 2.94781671 -1.196032 -0.318545 -0.553808
21520 -6.6764211300000005 12.86904249 -9.139398210000001 -0.70128 -1.507344 -0.72829
21540 -5.81241519 8.834179680000002 0.25476570000000004 -0.405224 -1.73803 -0.838089
21560 -2.8928807100000005 9.99306441 -2.06270946 -0.32985 -1.09068 -0.819164
21580 -2.9047115700000004 11.78409573 0.04550859 0.074004 -0.520753 -0.371625
21600 -3.2921084700000005 12.798989279999999 -1.6790599800000001 0.778963 0.021818 -0.004201
21620 -1.8154287900000001 12.212655390000002 -0.6054928200000002 1.590701 0.59582 0.136398
21640 -1.29675447 11.064836340000001 -1.16607546 2.264037 1.036988 0.315724
21660 -0.56926449 10.196641529999999 -1.55706282 2.528627 2.34173 0.673755
21680 0.36568737 9.52244928 -1.7841447000000001 2.566282 4.153419 0.993231
21700 -0.18755739000000002 9.25659828 -2.2519149300000003 2.299819 3.926568 0.944659
21720 -1.59568479 8.943453270000001 -2.43678438 1.856213 1.635505 0.976543
21740 -2.15267697 8.403520680000002 -1.7009166599999999 1.212134 0.514129 1.444566
21760 -1.77261795 8.192311380000001 -1.76722245 1.633901 1.731739 1.877514
21780 -1.12536396 8.631348120000002 -1.90045206 2.60564 -0.12546500000000002 2.207148
21800 -1.08942993 8.803042740000002 -1.7329463100000002 3.348396 -1.498136 1.979086
21820 -1.2663630900000002 8.92324467 -2.00298618 3.58206 -1.343075 1.893994
21840 -1.5646950000000002 9.98528508 -1.4296799699999998 3.389768 -1.337436 1.716387
21860 -2.23964262 10.810521900000001 -1.76841927 3.25009 -1.583028 1.449739
21880 -2.42795538 11.52273771 -1.01413818 2.754334 -1.49209 0.983619
21900 -2.19743019 10.385699850000002 -0.36958194 2.01911 -1.212005 0.5764729999999999
21920 -1.5437408400000001 9.731412090000001 -1.2120255 1.258202 -1.549076 0.282102
21940 -1.12924872 9.998312760000001 -1.22415066 0.30495 -1.649257 0.05445
21960 -0.8006823900000002 10.104290190000002 -2.1664404000000004 -0.974327 -1.632259 -0.156402
21980 -2.6515841399999998 11.68470081 -4.00088097 -2.420691 -0.8687549999999999 -0.425993
22000 -3.75478731 14.953902930000002 -4.0835106 -2.460817 1.117925 -0.90845
22020 -2.95845075 16.21442907 -3.2292361800000005 -2.651028 -0.325901 -0.383432
22040 -3.2446575 13.96835109 -2.6463456 -4.053228 -0.479287 -0.237069
22060 -3.9863621700000005 12.64660074 -3.72620097 -3.4403370000000004 2.488421 -0.464122
22080 -4.1532597 11.56375332 -4.281250770000001 -3.387173 1.331909 -0.8703299999999999
22100 -4.58032824 11.532017970000002 -1.9098794700000001 -2.670459 0.914466 -0.995112
22120 -5.338346939999999 12.04574805 0.38424789000000004 -1.549421 0.636818 -0.732689
22140 -6.65112114 11.78708778 0.92523015 -0.847842 0.189652 -0.60437
22160 -4.16373678 9.65102895 2.1139078500000004 -0.57907 0.054958000000000014 -0.719824
22180 0.05478885000000001 10.1282364 1.04243022 -0.587557 -0.038338 -0.824449
22200 -0.58109535 11.65401513 -4.87536399 -1.005745 0.203881 -0.828749
22220 -3.90897108 10.665019980000002 -4.292179110000001 -1.270025 0.363164 -0.7389319999999999
22240 -1.17669969 10.81306269 0.17977806 -1.248258 -0.147605 -0.632372
22260 -0.32003163 10.520420580000001 -2.53273599 -1.0667950000000002 -1.031533 -0.586174
22280 -1.36830861 8.95512717 -3.06756738 -1.057041 -1.542508 -0.417741
22300 -2.25446553 7.2295187400000005 -3.5304129900000003 -1.450865 -1.029972 -0.111364
22320 -1.3750382700000001 7.002888120000001 -3.90762711 -1.907674 -0.264843 0.218818
22340 -1.09138212 7.4541971700000005 -3.6664776900000002 -2.190505 0.23885100000000006 0.50889
22360 -0.6950090700000001 5.55524604 -2.8120561200000003 -2.289961 0.279196 0.362866
22380 -0.4685256 2.61551277 -2.032170930000001 -1.7418360000000002 0.07324299999999999 -0.022943
22400 -0.8991846000000001 -0.07603731000000002 -2.38393791 -0.6379520000000001 -0.938744 -0.718962
22420 -0.6748004700000001 -2.38603725 -3.9492411300000003 -0.061473 -1.029549 -0.887871
22440 -1.00291554 -0.9891423 -4.0983237 0.059406 -0.592658 -0.7583310000000001
22460 -2.39307102 4.43453202 -1.72232208 0.553646 -0.274771 -0.496777
22480 -3.41035821 4.46686578 3.4172448300000005 0.938253 0.389613 0.055192999999999985
22500 -6.427933830000001 13.933329390000003 -1.1560496400000002 1.6448919999999998 1.558499 0.43785
22520 -11.81492856 17.71535907 -2.681073 2.448435 2.767096 0.663035
22540 -1.23717834 16.10755893 -0.27153099 3.08734 3.74997 0.7356729999999999
22560 -0.17109621 14.09962851 -2.14069896 3.157828 3.423328 1.107257
22580 -2.13022188 10.77668721 -2.13725565 2.93858 1.264389 1.203564
22600 -1.9080842400000002 7.81988454 -1.4437475100000001 2.333105 -0.237629 1.722552
22620 -2.0817212400000003 7.71256314 -1.81751832 2.718889 0.576232 1.922893
22640 -1.67157495 8.776997190000001 -0.8973795600000001 3.684005 -0.06823 1.6121299999999998
22660 -1.21127994 9.7174917 -0.2894931 3.698558 -0.978527 1.737312
22680 -0.9313614 10.25293131 -1.12640382 3.222039 -0.400626 1.753539
22700 -0.1907064 11.559407490000002 -1.7163281700000002 3.3076830000000004 -1.052009 1.2721360000000002
22720 -0.24279750000000003 12.799734840000001 -0.8027817300000001 3.07661 -1.296965 0.9258
22740 -1.0891356300000001 12.6846243 -0.63273519 2.380403 -1.6993220000000002 0.651192
22760 -1.23418629 11.868667740000001 -1.23732549 1.4099389999999998 -1.630978 0.385816
22780 -1.20678696 11.03400351 -1.43865612 0.5119670000000001 -1.711369 0.222618
22800 -1.47278511 10.56862692 -1.77635556 -0.502504 -1.742734 0.154684
22820 -2.7581599800000003 10.04650929 -2.1026754000000003 -1.839207 -1.394447 -0.003582
22840 -3.64596498 9.37680021 -2.6770312800000005 -3.099445 -0.690461 -0.202363
22860 -1.8503033400000002 10.250086410000002 -4.67283654 -2.7085470000000003 0.620252 -0.64676
22880 -1.9685530800000002 9.14957118 -6.0495228899999995 -2.501668 0.168847 -0.361658
22900 -1.6976205000000002 10.28226321 -6.9843276 -3.887133 -0.353065 -0.510604
22920 -1.27744839 11.916569970000003 -6.765927570000001 -3.619421 2.031044 -0.481879
22940 -2.28469995 12.08616525 -4.93298793 -3.537174 1.860975 -0.912648
22960 -3.23536743 11.896508520000001 -3.69476973 -3.222034 0.845409 -0.830097
22980 -2.59679529 14.0961852 -2.19054357 -1.763251 0.381564 -0.6505340000000001
23000 -3.2648562900000004 14.84597331 0.46104057 -0.892094 -0.189318 -0.633035
23020 -5.85791397 12.978914490000001 1.08134649 -0.459293 -0.233578 -0.5957720000000001
23040 -5.9519232 12.168942030000002 0.79484544 -0.628603 -0.261347 -0.697332
23060 -5.69400849 13.342953779999998 -0.77089923 -1.00447 0.086401 -0.7548819999999999
23080 -4.095037350000001 12.891487770000001 -2.25116937 -1.352941 0.320329 -0.61127
23100 -2.98988199 12.92846166 -7.071440399999999 -1.26936 -0.292461 -0.353527
23120 -2.2091040900000003 12.16625409 -2.82507399 -1.005595 -1.024816 -0.188377
23140 -0.5822921700000002 10.43794791 -2.1106116900000003 -1.074303 -1.158536 0.011072
23160 -0.56821482 8.32508973 -3.89474658 -1.288052 -0.819774 0.195016
23180 -0.5382845100000001 6.5092096800000006 -3.4762225500000006 -1.678265 -0.105403 0.37404
23200 -1.0204263900000001 4.34381895 -2.6059284 -2.316623 0.435265 0.517372
23220 -1.0370445300000004 2.82686922 -1.8995495400000002 -2.021467 0.428385 0.117791
23240 -0.68303106 1.52023608 -1.2614286599999998 -1.377269 0.00581 -0.258523
23260 -1.3956981300000002 -0.7813763100000001 -1.26815832 -0.749316 -0.845461 -0.77327
23280 -1.37518542 -2.6845163100000007 -1.3274401500000002 -0.30242800000000003 -1.0528620000000002 -0.710063
23300 -0.7836228 -1.19781081 -4.35518874 -0.239773 -0.86459 -0.693843
23320 -0.7625116799999999 3.59102898 -5.20512714 -0.113392 -0.424386 -0.598453
23340 -4.0797631800000005 4.145029110000001 0.6331864500000001 0.244745 0.048229 -0.284636
23360 -3.7949102100000003 5.779483020000001 2.69350227 0.791158 0.6819109999999999 0.079428
23380 -6.90783903 13.08025179 1.6067602800000003 1.514248 0.8413930000000001 0.06291000000000001
23400 -8.596473569999999 18.27624582 0.00494424 2.181814 0.95328 0.008676999999999999
23420 -0.09176274 19.4580369 -0.90457029 2.637359 1.660216 0.248099
23440 -0.28006569000000003 15.933617819999998 -2.9476695600000005 2.921752 2.5147150000000003 0.496818
23460 -2.78660898 11.293419150000002 -1.4265309600000002 2.574263 2.068679 0.453301
23480 -3.65136048 9.394016760000001 -1.9375731 2.282955 0.6908890000000001 0.270366
23500 -2.8687873500000003 9.66061332 -0.5688132300000002 2.436466 0.378422 0.222701
23520 -1.45242936 9.936333180000002 0.5551969500000001 2.114046 1.552488 0.734895
23540 -0.33755229 10.24169886 0.38245266 2.000283 1.257541 1.065627
23560 0.29548701 10.66576554 -0.27317907 2.797886 -1.185048 0.619266
23580 0.0691605 10.52401104 -0.77329287 3.210597 -0.104849 0.79168
23600 -1.3052891699999998 9.77452704 -1.10336013 3.631608 -0.5309699999999999 0.695822
23620 -2.4237567 9.88020036 -1.14167799 3.865661 -0.847492 0.526947
23640 -1.75165398 9.94546629 -0.61582275 3.687729 -0.672874 0.17083099999999998
23660 -2.3312484 9.01276092 -1.00815408 3.571246 -0.32602 -0.154098
23680 -2.70622584 8.88492681 -1.3966006500000003 3.256366 -0.313497 -0.348594
23700 -2.08126998 9.97241436 -2.4152318100000008 2.823423 -0.175042 -0.498142
23720 -1.37324304 10.959006060000002 -3.00485205 2.079896 0.227405 -0.5957180000000001
23740 -2.0657015100000002 9.9167328 -4.2270603300000005 1.205635 0.529107 -0.428091
23760 -3.04331706 9.952205759999998 -4.26717342 0.453639 0.536215 -0.221845
23780 -1.49419053 12.215343330000001 -4.30055685 -0.016746 0.200768 -0.109333
23800 -1.5832555200000002 13.48965252 -2.8433402100000005 -0.438109 -0.170972 -0.021001
23820 -4.18110048 13.251348 -1.57682016 -1.071633 -0.494096 0.08181000000000001
23840 -4.885841070000001 14.12328042 -1.5679911599999998 -1.671082 -0.624404 0.154702
23860 -4.5655053300000015 13.92913071 -2.25341586 -1.941552 -0.408679 0.254017
23880 -4.97505321 13.52273184 -1.2361286699999998 -1.597311 0.086133 0.357269
23900 -7.17772194 13.76881569 -1.0687798800000001 -0.273743 1.500628 -0.740908
23920 -8.254134 12.898825650000001 -0.63512883 -0.363847 -1.325868 -0.8490110000000001
23940 -6.46820388 12.764556180000003 0.8843616900000001 -2.0071950000000003 0.27591 -0.125469
23960 -4.145029110000001 12.195585990000001 -1.23119424 -2.573169 2.027084 -0.398722
23980 -4.80785157 10.14755229 -4.64094423 -2.393494 1.844794 0.275747
24000 -6.4358701200000015 8.144262000000001 -0.21630069000000005 -2.221744 1.7794599999999998 0.215073
24020 -1.6735173300000001 9.90265545 2.33140536 -2.55893 1.967105 -0.064192
24040 0.58004568 10.87518942 -4.12527177 -2.884856 2.363305 -0.027452
24060 -2.70966915 7.91074476 -2.3137375500000004 -2.932852 2.437863 0.28297
24080 -3.60061335 4.9109841 -0.97387794 -2.789979 2.446836 0.312798
24100 -2.77777017 3.25138716 -0.17887554 -2.649971 2.231185 0.041656
24120 -2.6587748700000002 2.20790727 -0.5587874100000001 -2.491884 2.070592 -0.161065
24140 -2.16913815 1.6254679500000002 -0.04355640000000001 -2.418479 2.078529 -0.344296
24160 -1.5175481400000002 0.9259757100000001 -0.22588506000000003 -2.403634 2.332818 -0.5453439999999999
24180 -0.8828607600000001 0.8496342900000001 -1.5940367100000001 -2.369234 2.420885 -0.75352
24200 -0.6899176800000001 1.02057354 -2.24638209 -2.229091 2.322064 -0.937217
24220 1.86991353 1.4738347800000002 -3.74954877 -2.131009 2.142459 -0.8625940000000001
24240 2.6487392400000003 2.01930021 -5.18372172 -2.107414 2.263442 -0.7685810000000001
24260 2.69499339 1.7411769000000001 -6.91023267 -2.112853 2.33021 -0.677906
24280 1.62232875 1.8546393600000002 -9.43876998 -1.943838 2.0819650000000003 -0.549288
24300 0.49352148 2.8157937299999998 -10.785820320000001 -1.877059 1.623319 -0.196789
24320 -1.08105219 5.192550720000001 -11.09537487 -1.63611 1.4718870000000002 0.167215
24340 -5.829926040000001 7.0073811 -13.83662241 -1.60971 1.618923 0.137301
24360 -22.22697807 23.204299320000004 -23.33422296 -1.499128 1.684939 0.049326
24380 -5.704485570000001 17.53513956 -3.11097663 -1.375235 1.502245 0.074995
24400 0.5935148100000001 -10.081687950000001 3.29883813 -1.427123 1.572799 0.058519000000000015
24420 -2.82237624 1.59313419 -6.362520750000001 -1.365698 1.789577 0.139855
24440 -5.542522470000001 11.094482160000002 -1.8756033300000001 -1.171872 2.074955 0.266893
24460 -6.13110285 11.526328170000001 -5.13507393 -0.970478 2.272334 0.283002
24480 -3.8983468500000003 9.39266298 -4.9744548 -0.855794 2.6404650000000003 0.297218
24500 -1.95883137 8.14636134 -2.6605701 -0.751302 2.922164 0.356339
24520 -1.40183919 7.75867014 -1.8805377600000002 -0.72095 2.616074 0.418901
24540 -1.64672622 8.24485374 -2.86534404 -0.701779 2.136622 0.421785
24560 -2.1306731400000003 8.995093110000001 -3.2254887599999997 -0.7580640000000001 2.172062 0.398914
24580 -2.01375756 8.724160529999999 -2.17258146 -0.666045 2.134845 0.302396
24600 -2.06165979 8.711888220000002 -1.61828703 -0.840268 2.057603 0.056655999999999984
24620 -2.45130318 8.781038910000001 -1.42324461 -1.272932 1.6723880000000002 -0.204383
24640 -2.71699722 8.73268542 -0.7506906300000001 -1.440165 0.923297 -0.541081
24660 -2.75157747 9.41616774 -0.07499745000000001 -0.989603 0.146655 -0.917225
24680 -2.91040137 10.098600390000001 0.43470072 -0.946522 0.6824560000000001 -0.946453
24700 -2.61087264 10.74690405 0.83930436 -0.910322 2.02612 -0.533452
24720 -2.4581898000000004 10.78612443 0.6209043299999999 -0.740139 2.162044 -0.041055
24740 -2.0710970100000003 11.42858133 0.45714600000000005 -0.503666 1.374168 0.445511
24760 -1.6134899400000002 12.034221300000002 0.72988362 0.656463 1.046174 0.7435229999999999
24780 -0.44666892 10.997932140000001 0.70039476 1.238752 1.248827 1.240849
24800 0.25686504 9.832307940000002 0.32138541 1.876832 0.974223 1.427255
24820 -0.15492933000000003 9.54191232 0.1070271 2.220086 0.958875 1.238461
24840 -1.17011718 9.739642680000001 0.17678601 2.210694 1.924173 1.207248
24860 -0.42796125 9.556431120000001 0.5816937600000001 1.899558 2.692494 1.412394
24880 0.08726976 9.171123750000001 0.34817652000000004 1.375405 2.335527 1.358983
24900 0.53408583 8.95706955 0.22123512000000004 1.381608 1.2619200000000002 1.039936
24920 0.08083440000000001 8.91306189 -0.20656917 1.637682 0.8431219999999999 0.8542540000000001
24940 -0.052993620000000005 8.76128157 -0.11316816 1.770432 2.001248 0.962656
24960 -0.05658408 8.435707290000002 0.09310671 1.999398 3.392526 1.023361
24980 -0.21046374 7.6700466 -0.18157329000000003 2.418145 2.959714 0.472434
25000 -0.89139546 9.231308100000001 -0.13441662000000001 3.098191 0.8683290000000001 -0.054247
25020 -1.4733835200000003 10.33092081 0.79154928 3.682468 -0.087662 -0.450592
25040 -1.9398195900000001 9.81194238 0.84244356 3.537497 -0.114741 -0.7453310000000001
25060 -2.4789968100000004 9.10646604 0.61506738 2.930219 0.677294 -0.619197
25080 -3.2554288799999997 9.64624167 0.02664396 2.678564 -0.031309 -0.884966
25100 -3.81511881 10.71756234 -0.37795968 2.679159 -0.523928 -1.036018
25120 -2.2796085600000007 11.53620684 -0.7632670500000001 2.465734 -0.4510810000000001 -0.953212
25140 0.48170043 11.31571728 -1.17146115 2.402875 -0.36166 -0.8832629999999999
25160 2.7288280800000004 10.94388885 -0.6469498800000001 2.231511 -0.642822 -1.0186959999999998
25180 3.3450922800000003 10.396176930000003 -1.25184429 1.84704 -0.619664 -1.1485299999999998
25200 2.3881365900000002 10.547515800000001 -1.9224558900000002 1.651418 -0.617312 -1.300518
25220 0.70413237 13.127849910000002 -1.3397124600000003 1.59837 -0.944604 -1.457498
25240 -1.0096550100000001 14.982342120000002 0.8671451400000001 1.448921 -1.252804 -1.51049
25260 -2.44127736 12.36309174 -1.6395453 1.048515 -1.404377 -1.353928
25280 -5.63742441 11.15226306 -0.6450075000000001 0.567952 -1.297021 -1.1448459999999998
25300 -5.773793220000001 11.9499534 3.22863777 0.16030999999999998 -1.14184 -0.970567
25320 -6.449790510000001 14.293778220000002 5.646106260000001 -0.114679 -1.277407 -0.929585
25340 -7.34537484 15.70968495 4.30220493 -0.406436 -1.140185 -1.15933
25360 -8.420285970000002 15.606846720000002 1.4329663200000002 0.245213 0.970846 -1.371128
25380 -8.43376491 14.60378403 0.32557428000000005 -0.587109 1.605446 0.489497
25400 -9.390122190000001 13.12455375 0.47287143000000004 -2.973349 1.196263 0.456262
25420 -9.4368276 11.36436507 0.7051820400000001 -2.530085 2.613082 0.337901
25440 -7.84099566 11.061844290000002 0.18606627000000003 -3.258623 3.057964 0.271354
25460 -5.1742943100000005 9.17741196 0.7087725 -3.0563 2.7482740000000003 0.285982
25480 -3.07505241 8.45127576 0.9529139700000001 -3.086585 2.9249810000000003 0.078309
25500 -1.7956616400000003 7.04195154 -0.24129657000000002 -3.007771 3.354074 0.063355
25520 -0.79290306 6.4264329 0.30252078000000004 -2.887936 3.5862160000000003 -0.018359
25540 0.16615197 7.6092736499999996 -2.25356301 -2.888418 3.472151 -0.263907
25560 0.90950472 7.46587107 -1.88068491 -2.867687 3.301668 -0.538077
25580 1.02312414 6.9496002 -2.70038889 -2.550088 3.012735 -0.752337
25600 0.33021441000000007 5.15588094 -3.17998998 -2.308742 2.5571490000000003 -0.7831819999999999
25620 -0.47046798 4.0892004 -4.27465845 -2.101396 2.113477 -0.833508
25640 -1.2440649600000002 2.94602148 -5.12010387 -1.931427 1.878812 -0.904659
25660 -2.4204703500000004 2.88584694 -5.95161909 -1.719016 1.724319 -1.081371
25680 -3.4735248000000003 3.97617939 -7.0796808 -1.565474 1.531663 -1.2541719999999998
25700 -3.1735546200000004 4.87087101 -8.690777100000002 -1.245515 0.64071 -1.16961
25720 -2.55309174 5.26724406 -10.06911153 -1.010506 -0.388364 -0.836569
25740 -3.0840383700000005 5.34014217 -10.7211528 -1.167198 -0.056552 -0.2965
25760 -4.75576047 5.0781857399999994 -10.70753652 -1.075136 0.324304 0.017712000000000002
25780 -5.5342918800000005 4.05326637 -9.42694893 -1.329084 0.811944 0.035608999999999995
25800 -6.032306340000001 2.7662434200000003 -8.37972162 -1.644691 1.203552 0.146135
25820 -11.726314830000002 2.39172705 -6.26566662 -1.812373 1.454261 0.199121
25840 -12.85048197 8.511597450000002 -3.2534865 -1.76744 1.235648 -0.048112
25860 -5.83905915 2.38783248 -4.913681850000001 -1.706206 0.64505 -0.258436
25880 -2.41837101 3.40167636 -1.16741943 -1.336931 0.387014 -0.784295
25900 -2.61551277 12.118499009999999 -2.55414141 -0.914908 -0.138785 -0.729399
25920 -6.3580277700000005 9.49640373 0.67569318 -0.60131 -0.962945 -0.8254969999999999
25940 -6.670731330000001 11.710000800000001 -1.42279335 -0.08119900000000001 -1.01297 -0.754502
25960 -5.447767679999999 12.218345189999999 -0.9904862700000001 0.420898 -0.471953 -0.355378
25980 -4.85336016 10.14081282 -0.8652027600000002 0.691656 1.237754 0.223299
26000 -5.0404662899999995 8.83028511 -2.17976238 1.604451 2.803912 0.712641
26020 -3.71497833 8.856183510000001 -2.40010479 2.31705 2.699617 0.8683709999999999
26040 -1.46979306 9.38518776 -1.20663981 2.781178 3.248475 0.938208
26060 -0.65937915 9.63471492 -1.37594079 2.908 3.320061 1.041551
26080 -0.50100651 9.59369931 -1.85045049 2.624079 2.631606 1.092793
26100 -0.56043549 9.26393616 -2.01540564 2.230575 0.853748 1.411721
26120 -0.58423455 8.81576631 -1.8062956799999998 2.1766810000000003 0.03797 1.668763
26140 -0.8740317600000002 8.7630768 -2.23440408 2.861014 0.290424 1.346344
26160 -1.26996336 9.07937082 -2.38214268 2.926486 0.061588 1.506259
26180 -0.26794053 10.874885310000002 -2.16973656 2.72515 -0.6596569999999999 1.427797
26200 1.5871500900000002 11.8025091 -2.72672874 2.302068 -1.304869 0.909717
26220 0.6397689599999999 10.95631812 -3.1051396800000006 1.977915 -1.75663 0.413445
26240 -0.57165813 9.64189584 -2.4845296500000003 1.193651 -2.016064 0.171154
26260 -0.9657945 9.254057490000001 -2.7048720600000005 -0.075336 -1.632552 -0.063596
26280 -2.05567569 9.29103138 -1.72426446 -1.428806 -0.763203 -0.242943
26300 -2.20056939 9.47664639 -1.3518376200000002 -2.688089 0.763583 -0.5442520000000001
26320 -2.4845296500000003 9.62318817 -1.67501826 -3.5497620000000003 2.536852 -0.75871
26340 -2.0915999100000002 9.96148602 -1.39345164 -3.244569 2.213412 -0.8576450000000001
26360 -1.13883309 10.623111660000001 -0.9705817800000001 -4.412199 1.837114 -1.379133
26380 -0.28410741 11.11947804 -0.7973960400000001 -3.640682 2.317221 -1.166056
26400 -1.7877351600000002 10.83881394 -2.60293635 -1.731291 1.438361 -1.4870139999999998
26420 -3.7381789800000003 12.24049617 -4.418365140000001 -0.596168 -0.977146 -1.274096
26440 -3.52262385 14.60572641 -6.689743110000001 -0.436615 -0.8814690000000001 -0.83086
26460 -1.5239835 15.131287350000001 -5.47665813 -0.553869 -1.108866 -0.605993
26480 -3.41469423 13.302840690000002 -3.5254687500000004 -0.669709 -0.449506 -0.7604029999999999
26500 -4.70876076 11.03534748 -3.4328133000000003 -0.669966 -0.6925939999999999 -0.708819
26520 -3.70793475 12.48313671 -1.8299475900000002 -0.7544069999999999 -1.160018 -0.427867
26540 -4.46686578 13.5815526 -0.38125584000000007 -0.987393 -1.196595 -0.136755
26560 -6.13529172 13.177547370000001 3.08987532 -0.986336 -0.949393 0.113968
26580 -5.82349068 11.8694133 3.0856864500000003 -0.907196 -0.7691279999999999 0.253158
26600 -3.99055104 13.459859550000001 -0.6825798 -1.113312 -0.10781 0.48588
26620 -3.5609417100000003 13.60565577 -1.2695121 -1.382562 0.29690700000000003 0.7409220000000001
26640 -2.95934346 14.525647379999999 -6.5108577599999995 -1.500236 0.70201 0.502436
26660 -1.93891707 15.327379440000001 -1.4162010300000003 -1.090017 0.442068 -0.115002
26680 0.62704539 12.48717843 -1.03659327 -0.6852229999999999 -0.014004 -0.432057
26700 0.30311919 8.574018480000001 -0.73167885 -0.7507590000000001 -0.429988 -0.509962
26720 -0.90426618 4.71385215 -1.19630988 -0.818914 -0.438126 -0.546747
26740 -3.19869765 -0.022307940000000002 -0.8298769500000001 -0.931814 -0.463029 -0.6148020000000001
26760 -3.31620183 -4.9593375900000005 0.13113027000000002 -0.880066 -0.682247 -0.716709
26780 -2.8726721100000003 -8.40681684 2.19188754 -0.683621 -0.826995 -0.6531939999999999
26800 -1.80194985 -8.04966417 5.11979976 -0.511456 -0.8090930000000001 -0.484304
26820 -3.18642534 -3.6465633900000003 -6.18573474 -0.261954 -0.28617600000000004 -0.400978
26840 1.05949962 6.806648879999999 -1.43252487 0.320404 -0.216195 -0.291246
26860 -1.5651462600000001 14.757810840000001 7.6830742800000005 0.874811 -0.555746 -0.307235
26880 -7.14524103 26.828564580000002 -0.67329954 1.318637 -0.413099 -0.400457
26900 -4.43901519 19.9322523 -1.6301080800000003 1.59592 0.126736 -0.309481
26920 -0.39368511 10.153389240000001 1.40677362 1.848884 0.73168 0.036546
26940 -1.67606793 10.528209720000001 -1.8651262499999999 2.2132970000000003 1.720652 0.420248
26960 -2.72358954 10.50081039 -1.3097723400000003 2.682495 2.863201 0.66882
26980 -2.5746443100000005 12.29168475 -0.41418801000000005 2.684479 3.373186 0.7376149999999999
27000 -1.1273063400000003 12.64196061 0.03577707 2.193223 2.2185080000000004 0.876668
27020 -0.41059755000000003 11.011401270000002 0.10927359 2.129756 1.780288 1.029542
27040 -0.38020617 9.49040982 -0.00718092 2.054189 0.000377 1.585703
27060 -0.67030749 8.0602884 -0.49906413000000005 2.527543 -0.359866 2.018896
27080 -1.07387127 7.565570100000001 -0.87792633 3.368809 -0.6306149999999999 1.864886
27100 -2.06645688 6.91621677 -1.9687100400000002 3.782262 -0.7672439999999999 1.841243
27120 -2.6473952700000005 6.327342090000001 -2.2820022 3.465882 -1.011756 1.7239790000000002
27140 -3.07610208 6.38242524 -2.05761807 3.363836 -0.989003 1.1848530000000002
27160 -3.13986708 7.783067610000001 -1.1743060500000002 3.069003 -1.465762 0.787094
27180 -1.1976636600000001 9.12562497 -0.11929941000000001 2.599109 -1.781784 0.5705720000000001
27200 -0.90097983 10.29334851 0.00628821 1.612168 -1.784893 0.339356
27220 -1.5322140900000003 10.84898691 -0.0464013 0.221351 -1.528352 0.260946
27240 -1.86092757 11.133094320000001 -0.06242103000000001 -1.228075 -1.098711 0.101788
27260 -1.18643121 11.7245196 0.12933504 -2.294319 -0.63948 -0.063276
27280 -0.9806076 12.917837430000002 -0.18396693 -1.552264 0.638317 -0.572477
27300 -0.47945394 14.391672210000001 -1.10245761 -2.298624 -1.1453799999999998 -0.086159
27320 -1.46410326 15.34054446 -0.8619066000000001 -2.96541 0.275922 -0.096911
27340 -4.149973350000002 15.124999140000002 -1.28312838 -2.256593 1.263082 -0.623063
27360 -5.9058162 14.03107623 -2.93958612 -2.89134 0.4805180000000001 -0.708747
27380 -5.24164977 13.101205950000002 -3.7335388500000004 -2.576674 1.374417 -0.748287
27400 -4.428243810000001 11.94605883 -4.01090679 -2.541172 1.306761 -0.643266
27420 -4.45369095 12.119097420000001 -3.4844531400000003 -2.339202 1.001954 -0.783538
27440 -4.6158012 12.84269283 -1.80614853 -1.9475240000000005 0.8702049999999999 -0.943004
27460 -4.602626370000001 13.26362031 0.13965516000000006 -1.4983799999999998 0.32879899999999995 -1.004334
27480 -4.45757571 13.23502416 2.34801369 -1.296401 -0.334293 -0.790565
27500 -4.008817260000001 11.633355270000001 4.4638639200000005 -1.273313 -0.585956 -0.480297
27520 -3.07026513 8.326737810000001 3.15648522 -1.2838379999999998 -0.35130900000000004 -0.276641
27540 -1.9899585000000002 9.5321808 -2.74184595 -1.229548 -0.354788 -0.252757
27560 -3.7958029200000003 8.87280165 -1.3727917800000002 -1.057931 -0.7425689999999999 -0.130352
27580 -2.5882704000000003 7.59954213 -1.1374891200000001 -0.933386 -1.078311 0.07284199999999999
27600 -1.4009366699999999 8.041276620000001 -2.68781247 -0.933237 -0.776854 0.342717
27620 -0.48139632000000004 7.317828360000001 -1.2555917100000002 -1.105794 0.25178 0.597635
27640 -1.0370445300000004 6.75425367 -2.61386469 -1.324276 0.884884 0.704256
27660 -1.10051523 6.45637302 -2.57868603 -1.296757 1.170737 0.324864
27680 -1.9978947900000001 4.597839090000001 -2.1248361900000003 -1.24068 0.450873 -0.055178
27700 -1.89161325 1.89804861 -2.50638633 -1.0295299999999998 -0.264952 -0.514257
27720 -0.7535355300000001 -0.20192904000000003 -3.07624923 -0.935005 -0.900985 -0.58008
27740 -0.12469491 -0.14669874000000002 -3.44912733 -0.566186 -1.448755 -0.5789380000000001
27760 -0.48798864 0.42571475999999997 -3.88038474 -0.377692 -1.6385759999999998 -0.691678
27780 -1.5497249400000002 4.28813739 -11.086840170000002 -0.179707 -1.188962 -0.613959
27800 -0.8066763 10.01492109 -2.55892869 0.20540100000000006 -0.169024 -0.53246
27820 -7.407050310000001 11.567942190000002 0.28769787 0.8338129999999999 0.239307 -0.360883
27840 -9.49939578 14.275816110000001 -1.8468600300000002 1.599269 0.662445 -0.281303
27860 -3.4551114300000005 9.66045636 0.71805276 2.198442 0.945183 -0.377892
27880 -1.3506408 10.18826379 0.27901602 2.406633 1.618111 -0.210658
27900 -3.0725116199999998 12.759464790000001 -0.97477065 2.4096610000000003 2.3943830000000004 0.131268
27920 -1.9429587900000003 12.59091918 -0.34488036 2.397473 3.481115 0.37014
27940 -1.4030360100000001 11.709098280000001 -0.88600977 2.554012 3.221533 0.414295
27960 -0.97357383 10.649451509999999 -0.66461769 2.554326 2.040508 0.588862
27980 -0.15792137999999997 9.61151427 -0.47316573 1.971967 0.025628 0.671766
28000 0.16675038 8.781941430000002 -0.8665467300000002 1.901821 0.029621 1.331432
28020 -0.59635971 7.960295070000001 -1.07146782 2.062098 0.633101 2.1233310000000003
28040 -1.47892617 8.052803370000001 -1.51185834 2.9558 -1.495695 1.975273
28060 -1.60420968 8.78238288 -1.4672522700000001 3.250676 -1.674597 1.7040970000000002
28080 -0.86370183 9.381293190000001 -1.00530918 3.341035 -1.28508 1.4531969999999998
28100 -0.9689337 8.64093249 -1.75390047 3.368751 -1.356393 1.1479700000000002
28120 -1.0942270200000002 8.141574060000002 -1.6118516699999998 2.998995 -1.122561 0.802189
28140 -2.31823053 9.449698320000001 -1.9230543000000002 2.6149310000000003 -0.7682260000000001 0.436925
28160 -3.62247003 9.9340965 -1.13898024 2.225457 -0.819025 0.158668
28180 -2.6417054700000002 11.70191736 -0.77733459 1.684136 -1.021223 0.044051
28200 -0.69276258 11.63889792 0.04699970999999999 0.78338 -0.92086 -0.030736000000000006
28220 0.0038945700000000004 12.25276848 -0.46058931000000003 -0.412251 -0.802868 0.00349
28240 0.30117681 11.13085764 -1.10874582 -1.734916 -0.827736 -0.090106
28260 -1.22759397 10.327918949999999 -2.16674451 -2.159721 0.075837 -0.5749310000000001
28280 -3.91810419 11.94919803 -2.8894374000000003 -1.602013 0.24861100000000005 -0.57553
28300 -4.7362974300000005 15.32752659 -3.41349741 -2.429666 -1.256165 -0.239688
28320 -4.235290920000001 17.310451320000002 -3.20364189 -2.270088 0.612444 -0.406542
28340 -5.25272526 14.681018160000002 -2.9731167000000003 -2.9318470000000003 0.7459399999999999 -0.449792
28360 -5.7002967 12.792848220000002 -3.48669963 -3.406138 1.240207 -0.299914
28380 -5.52051864 11.649375000000001 -3.62845413 -3.4785440000000003 1.515277 -0.294363
28400 -4.988375189999999 12.47535738 -3.53474901 -3.062733 1.204944 -0.30388000000000004
28420 -5.107380300000001 13.00331196 -1.9272431700000001 -2.403455 0.567278 -0.451213
28440 -5.38355142 13.123661040000002 0.81175788 -1.45831 -0.005651 -0.5186529999999999
28460 -5.280723 10.245142170000001 5.3706807 -0.999959 -0.7404350000000001 -0.447212
28480 -3.8311287300000005 8.24470659 1.5771242700000003 -1.207822 -0.421361 -0.406344
28500 -0.09789399 7.118744220000001 -1.77920046 -1.493199 0.6862020000000001 -0.610582
28520 0.39068325000000004 9.55478304 -3.2512400100000005 -1.726257 0.7692359999999999 -0.6603859999999999
28540 -1.1126403900000001 7.85536731 -1.33028505 -1.846234 0.22196 -0.625272
28560 -0.07035732 6.68195397 0.5643300600000001 -1.847597 -0.612874 -0.443682
28580 -0.33126408 5.673054330000001 -1.64747178 -1.707116 -0.906291 -0.182747
28600 -2.7711876600000003 5.357957129999999 -3.61632897 -1.47651 -0.63003 0.060997
28620 -4.05357048 4.90844331 -3.5748621000000003 -2.179625 -0.242475 0.455104
28640 -3.1942046700000004 4.947506730000001 -3.24255816 -2.257989 0.299214 0.390837
28660 -2.11030758 5.821548300000001 -3.85313256 -1.807335 0.430328 -0.286641
28680 -1.6414876800000002 5.65688745 -4.02123672 -1.233991 -0.215204 -0.7892140000000001
28700 -1.67920713 4.0383061200000006 -4.474497960000001 -0.472526 -1.0167190000000002 -0.809574
28720 -1.1479662000000002 2.12018625 -5.3331084 -0.08179 -1.384738 -0.757234
28740 -0.3902418 2.05852059 -6.04068408 0.389398 -0.800194 -0.560276
28760 -1.84176864 0.8747773200000001 -7.06560345 0.811504 -0.2419 -0.149982
28780 0.0026977500000000005 5.154380010000001 -16.55961354 1.56016 0.737395 0.189414
28800 -3.5533095300000004 11.76673203 -4.612662 2.372437 1.439306 0.576612
28820 -8.430321600000001 5.67814572 -2.7660962700000002 2.890989 2.681666 0.863857
28840 -4.279455540000001 8.233326990000002 -2.6879596200000004 3.029593 4.438532 1.21936
28860 -4.25490111 7.8481765800000005 0.12020193000000001 2.229676 4.648428 1.370532
28880 -2.45759139 12.65049531 -0.25162650000000003 2.163618 2.112015 1.425664
28900 -1.77186258 16.186735440000003 0.72838269 1.889521 -0.258155 1.645772
28920 -0.41777847 14.813050950000001 -1.4229405000000002 2.370268 -0.108475 1.892493
28940 -0.08023599000000001 11.60491608 -0.87298209 3.327368 -0.317543 1.664438
28960 -1.44673956 9.31976487 -2.25880155 3.326247 -0.920972 1.785912
28980 -2.47016781 8.13378492 -2.8755170100000003 2.970781 -0.905055 1.843229
29000 -3.8297847600000003 6.77415816 -3.18358044 2.997402 -1.151455 1.368372
29020 -4.27556097 7.14494673 -1.95044382 2.665715 -1.281873 0.97098
29040 -2.241585 8.768462490000001 -0.40985199 2.075987 -1.7675439999999998 0.6598350000000001
29060 0.046548450000000005 10.50276258 -0.02529999 1.213511 -1.679209 0.363141
29080 0.8445429000000001 11.829153060000001 -0.7890084900000001 0.250839 -1.727205 0.147107
29100 -0.14086179000000001 11.720026620000002 -1.15559838 -0.696345 -1.540282 0.044112
29120 -0.69590178 10.98161811 -0.57465018 -1.833377 -1.147981 -0.10533900000000003
29140 -1.49688828 9.512570610000001 -0.86699799 -2.981928 -0.240018 -0.261939
