time Ax Ay Az Gx Gy Gz
20 -1.93053933 7.4759067 -0.8934948 0.230625 -0.168906 0.746378
40 -2.11494771 8.72011881 -0.55549125 0.016179 0.06833099999999999 0.745644
60 -1.19915478 9.81494424 -1.5187449600000003 -0.204341 0.167001 0.770683
80 -0.18112203000000002 10.77923781 -2.3936694300000005 -0.242939 0.145745 0.791805
100 0.04864779000000001 11.10196719 -2.01525849 -0.244018 0.013222 0.899858
120 0.40925358 9.39296709 -1.0568018700000001 -0.371246 0.031352 0.7387130000000001
140 0.51298452 8.891656470000001 -0.33514884 -0.568237 0.25921500000000003 0.403759
160 0.25716915 8.5345038 -0.0779895 -0.651187 0.376344 0.2225
180 0.44816985000000004 7.234453169999999 -0.43753581 -0.783597 0.278026 0.149062
200 0.8619066000000001 7.04510055 -0.87762222 -0.677683 0.516536 0.08540299999999999
220 0.89079705 6.88807188 -0.92657412 -0.4107520000000001 0.793778 0.31871700000000003
240 1.3214560499999999 7.83305937 -0.57390462 -0.5366029999999999 0.42418 0.414451
260 0.95366934 9.202564800000001 -0.033530580000000004 -0.735432 0.156091 0.23074
280 0.8464852800000001 10.651550850000001 0.5924651400000001 -0.018703 0.339924 -0.009112
300 1.26157581 10.205774640000001 0.7637085 0.885925 0.124498 -0.200138
320 1.7064495 10.59915564 0.49816161000000003 1.127266 -0.507219 -0.407014
340 1.9434100500000002 11.57722245 0.32227812 0.689973 -0.96478 -0.421233
360 2.55204207 10.239010920000002 -0.99722574 0.092055 -0.953565 -0.310056
380 3.17130813 10.56233871 -3.3516846000000005 -0.29262 -0.531759 -0.232098
400 1.34255736 12.03796872 -2.34771939 -0.416702 -0.115922 -0.219611
420 0.39397941000000003 14.506929900000001 -0.49741605 -0.349219 0.124823 -0.276064
440 0.84244356 13.696663140000002 -1.6387899300000002 -0.307911 0.191145 -0.380546
460 2.52315162 9.55208529 -4.10147271 -0.392302 0.229431 -0.557441
480 2.68137711 8.778498120000002 -4.974906060000001 -0.478006 0.386224 -0.7985909999999999
500 2.00373174 8.54692326 -4.02123672 -0.2376 0.552175 -0.948812
520 1.86437088 8.18558172 -2.6755401600000006 0.214912 0.559227 -0.973434
540 2.12767128 8.3349684 -1.5989711400000002 0.516595 0.5271899999999999 -0.948853
560 2.6478465300000003 8.6127876 -1.1268550800000001 0.590791 0.531803 -0.835109
580 3.0606807600000003 8.566533450000001 -0.84095244 0.489552 0.504781 -0.649911
600 3.0481141500000004 8.6793975 -0.52750332 0.371816 0.416898 -0.415612
620 2.4381283500000004 9.171280710000001 -0.26944146 0.300023 0.308756 -0.216217
640 1.7305526699999998 9.51570981 -0.046107 0.288376 0.193335 -0.113601
660 0.86116104 9.07203294 -0.46194309 0.30255 0.064224 -0.072745
680 -0.12094749 8.26281585 -1.2506474699999999 0.29351700000000003 -0.04335 -0.069465
700 -0.91459611 7.45869015 -1.67561667 0.327464 -0.090324 -0.07344099999999999
720 -1.5619972500000001 6.76338678 -1.6853481900000002 0.42021 -0.118299 -0.084507
740 -1.71513135 6.52597497 -1.52726985 0.489316 -0.21 -0.122363
760 -1.7479163700000002 6.924604320000001 -1.17669969 0.5070399999999999 -0.321836 -0.14239200000000002
780 -1.5313115700000002 7.45180353 -0.97192575 0.491654 -0.412369 -0.13277
800 -1.33148187 8.10324639 -1.0404878400000002 0.460485 -0.438991 -0.108384
820 -1.4349185100000001 8.69512293 -0.9982754100000001 0.376986 -0.397572 -0.004335
840 -1.63565073 9.30824793 -0.8562168 0.269974 -0.29032800000000003 0.17531
860 -1.96151931 9.94082616 -0.92777094 0.200336 -0.139683 0.391479
880 -2.06390628 10.39573548 -1.12505985 0.01931 -0.092062 0.361312
900 -2.12094162 10.52641449 -1.27924362 -0.191476 -0.011455 0.100158
920 -2.0399600700000002 10.55469672 -1.2946551300000002 -0.081075 0.139172 -0.101158
940 -1.64761893 10.89883152 -1.16413308 0.096389 0.327736 0.008799
960 -1.2249060300000003 11.65640877 -0.91698975 -0.01649 0.367682 0.239764
980 -0.69231132 12.41668377 -0.95516046 -0.28775300000000004 0.040639 0.209446
1000 -0.26150517 13.07485629 -1.90119762 -0.5736020000000001 -0.366677 0.019964
1020 -0.011673900000000001 13.397144220000003 -3.65988537 -0.743946 -0.46656 -0.161627
1040 0.09640287000000002 13.9541364 -4.31342757 -0.6781050000000001 -0.353644 -0.217928
1060 -0.0432621 14.089896990000002 -3.7540417500000003 -0.562505 -0.155302 -0.102007
1080 0.05209110000000001 13.278433410000002 -3.4467336900000003 -0.354069 0.202944 0.17138699999999998
1100 1.5852077100000002 11.74891707 -3.7272506400000003 -0.15338800000000002 0.388016 0.334921
1120 2.7834599700000004 9.60103719 -3.9302293500000003 -0.178957 0.139972 0.315833
1140 3.2229479700000003 8.43645285 -4.01989275 -0.187002 -0.240245 0.301308
1160 2.49456528 8.23003083 -3.65899266 -0.072716 -0.411239 0.339714
1180 0.94947066 8.1584865 -2.40490188 -0.028378 -0.367252 0.489518
1200 -0.50100651 8.333320319999999 -1.27924362 -0.091476 -0.201651 0.6896909999999999
1220 -1.6420860900000003 8.87594085 -0.72524349 -0.222062 0.010514 0.759009
1240 -1.98337599 10.14664977 -0.8911011600000001 -0.371915 0.103858 0.722592
1260 -1.3251936599999998 11.21647932 -1.7419322700000002 -0.35197 0.041959 0.7334930000000001
1280 -1.0942270200000002 11.382180029999999 -2.42975061 -0.183866 -0.043919 0.751868
1300 -1.15724646 10.5096492 -2.26628658 -0.049192 -0.005971 0.7356689999999999
1320 -0.47974824000000005 8.71861788 -1.42623666 -0.105494 0.140751 0.589809
1340 -0.13352391000000002 7.846979760000001 -0.42945237 -0.287556 0.282723 0.408895
1360 0.04116276 7.691903280000001 0.12948219000000002 -0.431859 0.28181100000000003 0.229495
1380 0.40565331 7.0680069 -0.16016787000000002 -0.43891 0.249317 0.103437
1400 0.9187849800000001 6.6244771799999995 -0.48349566000000005 -0.494065 0.180831 -0.037866
1420 1.20379491 6.4135621800000004 -0.75263301 -0.436525 0.23457 -0.206312
1440 1.21337928 6.655908419999999 -0.57825045 -0.060658 0.46485 -0.044816
1460 1.0904796 7.5244073400000016 -0.10867518 0.038625 0.48589 0.201541
1480 0.8899043400000001 8.77460355 0.32662395 -0.412372 0.42417 0.30956500000000003
1500 1.04782572 9.18400428 0.29324052 -0.47755 0.652316 0.32163600000000003
1520 1.656909 9.46256904 0.06452037000000001 -0.06678400000000001 0.5639 0.231683
1540 1.9561336200000001 10.033932870000003 -0.34817652000000004 0.536694 0.117012 0.109353
1560 1.8839810700000001 10.730433060000001 -0.49891698 0.659547 -0.435836 -0.004449
1580 1.1921210100000001 11.95548624 0.09789399 0.312819 -0.717801 -0.053511
1600 0.79154928 10.913654430000001 -0.32887044 -0.063263 -0.827318 -0.045315
1620 1.77994602 11.08444653 -1.9552311 -0.283634 -0.750798 -0.075795
1640 1.2495978 14.17058424 -1.09392291 -0.331506 -0.508709 -0.102077
1660 0.2832147 16.0280685 0.39697146000000005 -0.213986 -0.23640300000000006 -0.102673
1680 0.88914897 14.73670953 -0.8628091200000001 -0.036492 -0.027762 -0.218137
1700 2.22766461 10.43255241 -3.0231182700000003 0.084512 0.13231700000000002 -0.394821
1720 1.8959590800000001 8.338411709999999 -3.7679621400000003 0.071014 0.327811 -0.5201479999999999
1740 1.17221652 7.80806349 -2.95500744 0.063385 0.433686 -0.616477
1760 0.88825626 8.022421800000002 -2.04055848 0.051798 0.31502600000000003 -0.769162
1780 1.5447905100000001 8.54737452 -1.5304188600000002 0.074379 0.211127 -0.913081
1800 2.46027933 9.787996170000001 -1.31127327 0.21223000000000006 0.231006 -0.942054
1820 2.65113288 10.79196138 -1.22115861 0.36833 0.230871 -0.777525
1840 2.6981424 10.700502750000002 -1.0270187100000001 0.438846 0.247802 -0.5441819999999999
1860 2.57899014 10.571167710000001 -0.5263065 0.373689 0.225787 -0.310668
1880 2.21763879 9.923168160000001 -0.37108287 0.300155 0.192272 -0.1242
1900 2.01630816 8.74945071 -0.41538483 0.307062 0.144002 -0.047178
1920 1.7335447199999998 7.560478710000001 -0.6556317300000001 0.340053 0.117289 -0.055459
1940 0.91010313 6.762189960000001 -0.7039852200000001 0.360458 0.107788 -0.094829
1960 -0.37436922000000006 6.30099243 -0.80996265 0.382958 0.051562 -0.172579
1980 -1.4311710900000003 6.22645605 -0.9428881500000001 0.380378 -0.112221 -0.237549
2000 -1.94250753 6.579567 -1.21682259 0.373445 -0.249541 -0.25665
2020 -1.8636253200000001 7.30810665 -1.518588 0.394442 -0.332677 -0.263874
2040 -1.51559595 8.100852750000001 -1.2448105200000001 0.490546 -0.322326 -0.271762
2060 -0.96788403 8.73913059 -0.70982217 0.581018 -0.316464 -0.21772600000000006
2080 -0.6020495100000001 9.05317812 -0.08726976 0.51622 -0.364684 -0.090999
2100 -0.7771874400000001 8.94285486 0.24160068 0.348267 -0.385724 -0.012028
2120 -1.3418117999999999 9.15241608 0.17812998000000002 0.158315 -0.174074 -0.028581
2140 -1.96615944 9.74069235 -0.44113608000000004 0.104176 0.071339 -0.081617
2160 -2.6794249200000007 10.39557852 -0.91698975 0.086233 0.262447 -0.171718
2180 -2.95799949 11.022182460000002 -1.0856923200000002 -0.090516 0.470272 -0.042896
2200 -2.83959279 11.48965839 -0.9261228600000001 -0.389928 0.461154 0.099235
2220 -2.12139288 11.85145119 -0.96563754 -0.6236109999999999 0.246659 0.128856
2240 -0.69455781 12.222985320000001 -1.830546 -0.69581 0.012849 0.053875
2260 0.12484206 12.57520356 -2.4742095300000004 -0.602132 -0.144691 -0.057432
2280 0.59411322 13.277835 -2.70427365 -0.47097 -0.199316 -0.097038
2300 0.70982217 14.65616943 -2.4673229100000005 -0.44895 -0.237931 -0.049833
2320 1.21247676 15.251185170000001 -2.73227139 -0.410394 -0.051197 0.10508900000000003
2340 2.06930178 14.67996849 -3.45077541 -0.13358299999999998 0.201856 0.251977
2360 2.5243484400000002 12.213106650000002 -3.9161520000000003 0.032469 0.141522 0.277783
2380 2.736009 9.74204613 -4.0799201400000005 0.060912 -0.149506 0.30506
2400 2.48932674 8.24396103 -3.5200830600000006 0.099814 -0.476833 0.343139
2420 1.84372083 7.7185472399999995 -2.62778508 0.133273 -0.570926 0.401178
2440 0.52929855 7.7625549 -1.5632038799999999 0.130091 -0.442516 0.5259729999999999
2460 -0.6706017900000001 8.06373171 -1.19585862 0.089804 -0.284059 0.628038
2480 -1.79221833 9.166640580000001 -1.02297699 -0.159182 -0.233685 0.767239
2500 -2.4002617500000003 11.26797201 -0.6837766200000001 -0.342358 -0.262355 0.902729
2520 -2.3107455000000003 12.0863124 -0.9068167800000001 -0.311923 -0.250179 1.027908
2540 -1.4323679100000002 10.997932140000001 -1.1135331000000002 -0.21632 -0.197942 0.935573
2560 -0.50085936 9.25031007 -0.8458868700000001 -0.195424 -0.07130700000000001 0.684525
2580 -0.17035065000000002 7.773188940000001 -0.32841918 -0.196132 0.192988 0.392557
2600 -0.39921795000000004 7.46019108 -0.06047865000000001 -0.142886 0.393028 0.138435
2620 -0.35221824000000007 7.40824713 -0.3412899 -0.160843 0.521523 -0.011406
2640 0.5170262400000001 7.00049448 -0.7352693100000001 0.093447 0.854016 0.002763
2660 0.8286801300000001 6.93193239 -0.76102056 0.276506 1.127783 0.378637
2680 1.07387127 7.647748470000001 -0.48005235 -0.251382 0.96865 0.405064
2700 1.02132891 7.607929680000001 0.27961443 -0.743995 0.764785 0.132692
2720 1.2283493400000003 8.02211769 1.043784 -0.196438 0.806493 -0.115637
2740 0.97477065 8.37359037 1.4810157 1.009028 0.797847 -0.330464
2760 0.80218332 8.739729 1.3377700800000003 1.728721 0.406723 -0.379415
2780 0.88391043 9.52634385 0.7030925100000001 1.268206 -0.000667 -0.399201
2800 1.1193700500000001 10.373280390000001 0.19594493999999998 0.361458 -0.25195500000000004 -0.441533
2820 1.7546558400000003 10.2437982 -0.81115947 -0.21361 -0.241483 -0.430608
2840 3.56498343 10.435103009999999 -3.32787573 -0.267884 0.072776 -0.384388
2860 4.188144060000001 13.666428719999999 -1.37070225 -0.078721 0.4128810000000001 -0.352524
2880 2.1056674500000003 16.19167968 1.09542384 0.013394 0.508375 -0.337048
2900 1.69447149 14.99596821 -0.13127742 -0.06384 0.5813699999999999 -0.409252
2920 2.56701213 10.542130109999999 -2.6672997600000006 -0.172294 0.77507 -0.536308
2940 2.1664404000000004 8.75469906 -3.8645121600000003 -0.281426 1.048694 -0.66988
2960 1.7926695900000003 8.518788180000001 -3.0740027400000005 -0.37355 1.306287 -0.80545
2980 1.18104552 9.30299958 -2.04385464 -0.361405 1.48475 -0.956213
3000 1.7741090700000002 9.852212430000002 -1.71572976 -0.075494 1.682043 -0.991856
3020 2.8880934300000005 9.85340925 -1.84416228 0.377726 1.832007 -0.79233
3040 3.5947764 10.25217594 -2.07693396 0.632599 1.847044 -0.511763
3060 3.7550914200000003 10.396775340000001 -2.07918045 0.453191 1.83277 -0.250215
3080 3.50016876 10.025702279999999 -1.20364776 0.044624 1.7802330000000002 -0.077813
3100 3.3858135899999997 9.34701705 -0.40101318 -0.126916 1.779972 -0.130286
3120 3.32922951 8.3062251 -0.19040229 -0.000923 1.821955 -0.348445
3140 2.5676105400000004 7.53562998 -0.51148359 0.291625 1.862406 -0.5942810000000001
3160 1.07401842 7.2690334199999995 -0.8616123 0.573597 1.7683380000000002 -0.7577649999999999
3180 -0.6394746600000001 7.2618525 -1.20350061 0.62648 1.57464 -0.849015
3200 -1.91870847 7.17263055 -1.58370678 0.420497 1.318636 -0.8522620000000001
3220 -2.33903754 6.93567981 -1.91885562 0.174585 1.136635 -0.6796260000000001
3240 -1.9809823500000001 7.188355980000001 -2.36642706 0.175611 1.116545 -0.452062
3260 -1.3681516500000002 7.9415873999999995 -2.62539144 0.383786 1.08528 -0.273243
3280 -0.8072747100000001 8.65695222 -2.00343744 0.51041 0.971122 -0.073523
3300 -0.26599815 8.87878575 -1.12221495 0.379574 0.7864680000000001 0.12983
3320 0.15777423000000002 8.8439112 -0.6572798100000001 0.179314 0.756784 0.267338
3340 0.18157329000000003 8.85004245 -0.64710684 0.227699 1.060289 0.25019600000000003
3360 -0.39084021 8.82624339 -1.1118850200000001 0.50059 1.38146 0.149141
3380 -1.4579720100000002 8.523124200000002 -1.8209616300000002 0.469188 1.349218 -0.018748
3400 -2.8460281500000004 8.447086890000001 -1.8191664 0.115925 0.987581 -0.11796
3420 -3.7178232300000005 8.53899678 -0.90711108 0.005662 0.707635 -0.077779
3440 -3.7309882500000002 8.53180605 -0.23351724 0.153683 0.784327 0.062025
3460 -3.3662034000000003 8.4852576 -0.31524435000000006 0.25455 0.7442850000000001 0.131147
3480 -2.7334682100000003 9.49385313 -0.5622307200000001 0.006906999999999999 0.462915 0.113755
3500 -2.43962928 11.649522150000001 0.12139875000000001 -0.465097 0.23923000000000005 -0.015306
3520 -2.5122232800000006 13.605057360000002 1.1684691 -0.755382 0.28461 -0.189375
3540 -1.327293 14.60857131 1.21936338 -0.661587 0.4145970000000001 -0.276481
3560 0.20671632 15.49981962 -0.40416219000000003 -0.417614 0.552325 -0.298454
3580 0.9469298700000001 15.611486850000002 -0.9354031200000001 -0.245852 0.8359629999999999 -0.249548
3600 0.6409657799999999 14.387777640000001 -1.4889519900000001 -0.245392 1.0485719999999998 -0.138722
3620 -1.03465089 13.41106461 -2.90066985 -0.277508 1.172724 0.010446
3640 -0.70264125 12.952564830000002 -3.9817220400000006 -0.256266 1.283969 0.143979
3660 1.20933756 10.954817190000002 -5.20572555 -0.251913 1.332837 0.17385699999999998
3680 2.58392457 9.09029916 -5.63907249 -0.204568 1.382898 0.1346
3700 2.58946722 8.642727720000002 -4.63990437 -0.141652 1.272308 0.030495
3720 2.05672536 9.10257147 -3.2903034300000003 -0.216797 1.142713 0.003431
3740 1.71513135 9.5034375 -2.060168670000001 -0.435151 1.017641 0.035181
3760 1.72516698 9.783650340000001 -1.12760064 -0.667092 1.012761 0.124366
3780 1.6889386500000003 10.21670298 -0.8268849 -0.794303 0.997064 0.16409
3800 1.4579720100000002 10.65769191 -0.8051753700000001 -0.713595 0.920056 0.17116099999999998
3820 1.1588945400000001 10.24439661 -1.17325638 -0.5340239999999999 0.771299 0.186493
3840 1.1075490000000001 9.083706840000001 -1.8511960500000002 -0.35032 0.576784 0.185889
3860 0.9969314400000001 8.28976392 -2.08890216 -0.06013 0.329729 0.178619
3880 0.9217868400000001 7.710316649999999 -1.99445148 0.235024 0.040947 0.212029
3900 0.85547124 7.544458980000001 -1.88757153 0.357236 -0.15820399999999998 0.358416
3920 0.21031659 8.03110365 -1.61259723 0.217365 -0.286088 0.492199
3940 -0.05673123 8.992395360000002 -1.40916726 -0.234464 -0.381548 0.513734
3960 0.07334936999999998 9.63785412 -1.01264706 -0.5921390000000001 -0.336091 0.378718
3980 0.48933261000000006 9.369619290000001 -0.51253326 -0.490349 -0.276748 0.102684
4000 0.41045040000000005 8.344248660000002 0.16495515000000002 -0.216494 -0.344951 -0.128189
4020 -0.01990449 7.14329865 0.75038652 -0.18012 -0.4150140000000001 -0.22078000000000006
4040 -0.6301943999999999 6.25009815 1.09691496 -0.181707 -0.219296 -0.146266
4060 -1.45257651 5.4666323100000005 1.13404581 -0.243012 0.516595 0.22624
4080 -1.9842785100000002 5.120702280000001 1.0747639800000002 -0.13923 1.302483 0.473785
4100 -2.34502164 5.31708867 1.08793881 -0.095405 1.435982 0.351075
4120 -2.08650852 6.4349676 1.18613691 -0.302981 1.504915 0.076072
4140 -1.2789395099999998 7.81195806 1.51664562 -0.281773 1.328599 -0.072037
4160 -0.45819567 8.93776347 1.53670707 -0.011993 0.984939 -0.145556
4180 0.76715181 9.83080701 0.64022022 -0.198018 0.495166 -0.313938
4200 2.21718753 10.578348629999999 -0.19040229 -1.004884 -0.002983 -0.513353
4220 2.89811925 11.592938070000002 0.8077161600000001 -1.461768 0.035402 -0.658667
4240 2.5738987500000006 13.2718509 2.12378652 -0.70981 0.256377 -0.626992
4260 3.21321645 14.77098567 2.27362446 0.545187 0.240756 -0.472927
4280 3.06607626 14.06340018 1.71063837 1.139883 0.240252 -0.329904
4300 4.20895107 14.40050121 -0.23755896 0.932305 0.5236149999999999 -0.150119
4320 3.6786028500000003 14.931153540000002 -0.7312275899999999 0.417591 0.814525 0.007214
4340 3.3280326900000006 13.121865810000001 -1.18942326 -0.01821 0.945978 0.012547
4360 4.12242687 9.341778510000001 -2.45055762 -0.262409 1.01791 -0.18153
4380 4.394409120000001 8.29395279 -2.9642877000000003 -0.321384 1.009144 -0.601742
4400 3.3421002300000002 8.54438247 -1.7199186300000002 -0.186785 0.992806 -0.8945420000000001
4420 1.4286302999999998 8.82504657 -1.19257227 0.059713 0.952734 -0.944044
4440 -0.32018859000000005 9.49056678 -1.5802634699999998 0.274946 0.935823 -0.897653
4460 -1.22385636 10.25561925 -2.14010055 0.214315 0.982989 -0.652446
4480 -1.6802568 10.021209299999999 -1.9113705900000002 -0.190315 1.058523 -0.277219
4500 -0.5405211900000001 9.59040315 -1.54343673 -0.531937 1.290815 0.003176
4520 1.1587375800000002 9.41647185 -0.7744896900000001 -0.470217 1.35624 0.105004
4540 2.83929849 8.81561916 0.07574300999999999 -0.035514 1.100735 0.220532
4560 3.5983668600000005 8.136933930000001 0.6276438 0.33817600000000003 0.70415 0.238605
4580 3.76511724 7.41123918 0.6824326500000001 0.333863 0.381689 0.163144
4600 2.2703283 7.0130709 0.30192237 0.216434 0.111586 0.145579
4620 0.20507805 7.75178352 -0.41463927 0.023044 0.101395 0.197652
4640 -1.21847067 8.59467834 -1.16113122 -0.068375 0.34604 0.368684
4660 -2.380651560000001 8.8931574 -1.6938730800000001 -0.20753 0.5932189999999999 0.480627
4680 -2.8913895899999997 8.936566650000001 -1.23583437 0.038528 0.76463 0.025995
4700 -2.5939602 8.669371680000001 0.53094663 0.318844 0.984724 -0.644241
4720 -1.8312915600000002 7.65447813 2.15791551 0.466799 1.185168 -1.081435
4740 -1.04707035 5.87408085 2.9960230500000007 0.404194 1.0286620000000002 -1.315612
4760 -1.1770038 6.32404593 2.1435438600000003 0.310314 0.377864 -1.255614
4780 -2.80845585 8.91141381 1.0886843700000002 0.240494 -0.525853 -1.104324
4800 -3.75748506 10.79210853 0.71835687 -0.15002 -0.8065359999999999 -0.90373
4820 -3.2844664800000003 12.433890510000001 1.07491113 -0.574658 -0.308635 -0.640279
4840 -1.86407658 12.948375960000002 1.41516117 -0.774473 0.447001 -0.29013
4860 0.82792476 13.765823640000002 0.9563572800000001 -0.93499 0.980704 0.115058
4880 2.39531751 14.964232860000001 1.09571814 -0.635019 0.956694 0.530586
4900 3.4290658800000005 14.666950620000001 -0.9361486800000001 -0.044856 0.571995 0.585408
4920 2.9633851800000004 12.799734840000001 -2.69828955 0.513101 0.053435 0.311163
4940 2.77223733 11.245811220000002 -3.4389445500000004 0.808802 -0.512844 -0.056718
4960 2.7831656700000007 9.01769535 -3.8986411500000004 0.591591 -0.958275 -0.364245
4980 1.49688828 7.995620880000001 -4.45264128 -0.048682 -1.27649 -0.417447
5000 0.18367263 8.79226155 -3.83712264 -0.606142 -1.385276 -0.169101
5020 -0.35776089000000005 10.94673375 -1.54747845 -0.7815310000000001 -1.441165 0.106415
5040 -0.47795301 12.85871256 0.74050785 -0.485401 -1.519953 0.371367
5060 -1.9699068600000003 12.594205530000002 1.14945732 -0.011261 -1.5242790000000002 0.5092800000000001
5080 -3.02640462 11.19132648 0.68841675 0.330569 -1.269494 0.433361
5100 -3.04646607 9.596544210000001 -0.00942741 0.440217 -0.763257 0.280722
5120 -2.6345245500000005 8.005205250000001 -0.5545985400000001 0.419709 -0.54494 0.314483
5140 -2.64125421 7.049740679999999 -1.15619679 0.197637 -0.653485 0.478645
5160 -1.95883137 7.168588830000001 -1.39060674 -0.270646 -0.8193159999999999 0.530066
5180 -1.27205289 7.462427760000001 -0.7878116700000001 -0.703684 -0.501637 0.5821810000000001
5200 -1.30558347 7.60493763 0.44906256 -0.929766 -0.039336 0.785108
5220 -1.36830861 7.489827090000001 1.69776765 -0.571396 0.274444 1.125836
5240 -1.64687337 7.03567314 2.68645869 0.092255 0.51515 1.360899
5260 -2.35250667 7.01037315 2.9532122100000002 0.5707840000000001 0.737644 0.983669
5280 -2.4381283500000004 7.76494854 2.6159640299999998 0.500351 0.84906 0.621976
5300 -2.1146534100000003 8.58434841 1.9059849 -0.17837999999999998 0.423664 0.23322
5320 -1.7875782 8.284819680000002 0.38844657000000005 -0.540892 -0.386321 -0.157107
5340 -0.6045903 7.115457870000001 -0.9669913200000001 -0.092183 -0.959945 -0.153238
5360 0.90022446 7.49102391 -0.56253483 0.580317 -1.047792 -0.080062
5380 0.88914897 10.16611281 1.17341334 1.03334 -1.23328 -0.173868
5400 -0.09954207 13.307627970000002 1.66079376 1.159594 -1.141088 -0.161353
5420 -1.19271942 15.112726830000001 0.78182757 0.8814790000000001 -0.859712 0.043578
5440 -1.43252487 16.977843269999997 -1.3548296699999998 0.434576 -0.791097 0.321311
5460 -0.5417278200000001 17.56597239 -2.07543303 0.069494 -0.7709159999999999 0.386033
5480 1.42683507 15.720760440000001 -2.28051108 -0.07145 -0.721831 0.221548
5500 2.7144564300000003 15.15807846 -2.8644415200000006 -0.027606 -0.742161 -0.06013
5520 3.0755036700000007 12.53627748 -2.6355644100000006 0.0307 -0.791611 -0.264758
5540 2.26958274 8.37703368 -2.14803684 0.034562 -0.782546 -0.403612
5560 0.02694807 5.40002241 -1.45242936 0.024085 -0.747326 -0.411208
5580 -1.67650938 5.64895116 -1.34719749 -0.176281 -0.7304189999999999 -0.203258
5600 -3.4269763500000003 6.678510660000001 -1.77829794 -0.7305649999999999 -0.805285 0.084591
5620 -3.1645686600000005 7.685163810000001 -1.70016129 -1.114541 -0.810117 0.293423
5640 -1.04617764 9.37216008 -1.51664562 -0.868708 -0.6747609999999999 0.330218
5660 0.8641530900000001 10.52117595 -1.1425707 -0.239914 -0.598076 0.321694
5680 2.21973813 10.143657720000002 -0.48978387 0.382564 -0.676092 0.377416
5700 2.8518651000000004 9.21213936 -0.24249339000000003 0.608175 -0.922366 0.496812
5720 2.3294531700000007 8.079898589999999 -0.38155995000000004 0.291157 -1.128187 0.561091
5740 0.51822306 7.279510500000001 -0.5291514 -0.252248 -1.024873 0.5037520000000001
5760 -0.95381649 7.6034367000000005 -0.93869928 -0.6363949999999999 -0.622758 0.443938
5780 -2.08141713 7.93051191 -1.46470167 -0.597761 -0.375585 0.403298
5800 -2.70532332 7.99008804 -1.47653253 -0.542824 -0.454882 0.206163
5820 -3.12489702 8.42836941 -0.20522520000000002 -0.003888 -0.558579 -0.169159
5840 -2.91040137 8.74750833 1.27295541 0.690404 -0.701267 -0.252789
5860 -1.9925091000000001 8.60904999 1.99430433 0.871828 -0.922539 -0.486247
5880 -1.1744532 8.352930509999998 1.45467585 0.471458 -1.324586 -0.8282229999999999
5900 -1.061442 8.379123210000001 0.12993344999999998 0.059448 -1.859975 -0.8485739999999999
5920 -1.3498952400000002 8.555006700000002 -1.3672589400000001 -0.248733 -2.211758 -0.5212640000000001
5940 -1.5167927700000001 9.64324962 -1.50990615 -0.519713 -2.434353 -0.032557
5960 -1.1111394600000002 11.62527183 -0.10777265999999999 -0.651487 -2.569975 0.430304
5980 -0.50624505 12.801677220000002 1.77156828 -0.546556 -2.313241 0.6048279999999999
6000 0.33126408 13.1332356 1.26547038 -0.449163 -1.645201 0.492489
6020 -0.17139051000000002 14.239734930000001 2.1862075500000007 -0.396415 -1.219611 0.576702
6040 -1.8422199000000001 13.82195646 -0.10508471999999999 -0.110196 -1.375141 0.594924
6060 -2.9298546 12.382103520000001 -4.447255590000001 0.227599 -1.859326 0.439807
6080 -1.9577817000000002 11.61868932 -6.275996550000001 0.364935 -2.37242 0.228848
6100 -1.5946351200000002 10.2611619 -6.917864850000001 0.145456 -2.661996 0.108045
6120 -1.57412241 8.24291136 -6.6583020600000005 -0.340645 -2.599473 0.078932
6140 -1.12670793 7.448664330000001 -4.96173123 -0.559146 -2.478632 0.152026
6160 0.37451637000000004 9.71075223 -3.3280326900000006 -0.417756 -2.411671 0.333458
6180 1.44824049 13.14416394 -1.7488090800000002 -0.207493 -2.231954 0.495998
6200 0.41628735 14.69254491 -0.33081282000000006 -0.02542 -1.782203 0.553309
6220 -0.98584614 13.159281150000002 0.3125466 -0.089933 -1.145089 0.589429
6240 -0.9689337 10.352326230000001 0.04819653 -0.248563 -0.36685 0.579847
6260 -0.34473321000000007 8.468335350000002 -0.8854113600000001 -0.422971 -0.27460500000000004 0.307182
6280 0.10552617 6.963373440000001 -1.8068940900000001 -0.738481 -0.95749 -0.206894
6300 0.63243108 6.3460497600000005 -2.50593507 -0.711155 -1.633813 -0.7944260000000001
6320 1.26307674 6.96606138 -2.02648113 -0.189127 -1.462505 -0.929868
6340 1.0565075700000002 7.97196897 -0.7981416 0.097149 -0.720594 -0.499394
6360 0.33291216 8.510999040000002 0.37841094 -0.324204 0.28972600000000004 0.021933
6380 -0.5001138 7.83006732 1.4754828599999998 -0.6733899999999999 1.017228 0.34437
6400 -0.45250587000000003 6.87998844 2.6030835 0.775813 0.921714 1.128007
6420 -0.6479995499999999 6.86606805 2.65308507 2.059458 0.316152 1.201843
6440 -0.37182843 7.95730302 1.6208278200000001 1.2471299999999998 -0.855719 0.591989
6460 -0.10956789 8.90647938 0.83076966 -0.945865 -1.442012 -0.604032
6480 0.94827384 9.72691911 -0.65144286 -1.977627 -1.256444 -1.359232
6500 0.7306291800000001 11.08400508 -0.77958108 -1.256407 -1.2357129999999998 -1.574274
6520 -1.7805444300000002 11.77885719 0.83241774 0.096054 -1.480294 -1.256866
6540 -3.5152859700000003 11.63066733 1.17086274 1.055863 -0.785945 -0.70519
6560 -3.2037890400000006 12.692854890000001 0.04565574000000001 1.28839 0.383268 0.006372
6580 -1.62891126 15.012576540000001 -0.9725241600000001 0.8316629999999999 0.83357 0.479032
6600 0.8044298100000001 18.64552365 -0.64201545 0.036577 0.6398199999999999 0.336994
6620 2.5908111899999997 13.787827470000002 -2.0332206 -0.531799 0.30347 -0.304274
6640 9.939933450000002 10.50754986 -5.389692480000001 -0.52788 0.022932 -0.747199
6660 9.425448000000001 10.19080458 -3.166668 -0.150148 -0.027139 -0.8075220000000001
6680 6.3857213999999995 9.581122890000001 -0.32452461 0.201576 -0.023367 -0.723885
6700 3.29165721 7.32995352 -0.32871348000000006 0.396663 0.15619 -0.5080399999999999
6720 0.40325967 8.052204960000001 -0.73826136 0.398864 0.555179 -0.12183900000000003
6740 -0.89978301 10.30307022 -0.5294457 0.233925 0.869239 0.335942
6760 -2.03276934 10.28810997 -0.5017520700000001 -0.08283 0.905561 0.584715
6780 -2.4530984100000004 8.41205538 -0.7170129000000001 -0.293529 0.796543 0.59086
6800 -0.786762 8.1063954 -1.43207361 -0.135678 0.32815700000000003 0.370373
6820 1.57531923 8.38810917 -1.5380510399999998 0.053576 -0.075202 0.111566
6840 2.8943816400000006 7.667800110000001 -0.8916995700000001 0.153853 -0.068241 -0.117411
6860 2.9079979200000006 6.674920200000001 -0.44293130999999997 0.258807 -0.289891 -0.190101
6880 0.78407406 6.86637216 0.31239945 0.30343000000000003 -0.264857 -0.361805
6900 -1.26920799 7.5300873300000015 0.8286801300000001 0.881496 -0.256639 -0.786135
6920 -2.27332035 7.981553340000001 0.7804737900000001 1.410861 0.075688 -0.968733
6940 -2.01166803 7.584876179999999 0.38155995000000004 1.3255860000000002 0.166129 -1.133951
6960 -1.21187835 6.19666308 0.027095220000000003 0.445125 -0.045275 -1.0501
6980 0.07768538999999999 6.179446530000001 0.42945237 -0.379617 -0.208804 -0.7330479999999999
7000 0.8345170799999999 8.28796869 1.64522529 -0.713544 -0.402643 -0.45419
7020 -0.19564083 10.26445806 1.8845794800000002 -0.959198 -0.6862699999999999 -0.441655
7040 -2.16389961 11.41616187 1.47818061 -0.970979 -0.577095 -0.56045
7060 -3.03613614 12.231667170000001 1.77905331 -0.952042 0.07266900000000001 -0.563287
7080 -2.49021945 12.83760144 1.10095668 -0.917812 0.815114 -0.314035
7100 -1.99191069 14.109212880000001 -0.15163317 -0.529876 0.732981 0.174821
7120 -1.41380739 15.17334282 0.81684927 0.115387 0.360595 0.565433
7140 -1.01413818 14.094537120000002 -1.27160163 0.5535439999999999 0.067108 0.585961
7160 0.9906432300000001 12.194840430000001 -3.5690251500000003 0.587688 -0.114439 0.402698
7180 3.36425121 10.781778599999999 -5.72454702 0.182964 -0.405142 0.191941
7200 3.9978889200000003 10.2232953 -5.72484132 -0.415912 -0.801144 0.108148
7220 2.35789236 9.42455529 -5.08387554 -0.791738 -1.100244 0.106975
7240 2.28574962 9.883496520000001 -4.551584940000001 -0.793317 -1.251359 0.06976900000000001
7260 2.55623094 12.176574210000002 -2.44831113 -0.4861470000000001 -1.344816 -0.001672
7280 1.76348484 14.488820640000002 0.68408073 0.037955 -1.301842 -0.01409
7300 -0.31854051 14.03735463 1.45437174 0.542511 -0.946218 0.125711
7320 -1.97050527 10.9955385 0.38515041 0.6450670000000001 -0.462747 0.343725
7340 -3.2682996 8.975639880000001 -0.15897105 0.384069 -0.188814 0.530626
7360 -3.6628872300000004 7.5158726399999995 -0.51762465 -0.20586 -0.337265 0.603608
7380 -3.00829536 6.17705289 -1.16473149 -0.585155 -0.25166700000000003 0.5720069999999999
7400 -1.61604054 5.522912280000001 -1.5275739600000002 -0.352462 0.058389 0.621305
7420 -0.34083863999999997 5.666462010000001 -0.90411903 0.289317 0.108666 0.545607
7440 -0.016765290000000002 5.82932763 0.64426194 0.255601 0.397646 0.502272
7460 -0.17767872 5.707477620000001 2.2547598300000002 -0.520486 0.961937 0.452331
7480 -0.68332536 5.554951740000001 3.5146875600000005 -1.077122 1.023427 0.21015
7500 -1.42039971 6.15040893 3.5904305700000005 -0.5917520000000001 1.035476 0.239163
7520 -2.35849077 7.001092890000001 2.5237500300000004 0.309754 0.613564 0.538693
7540 -3.0088937700000002 7.47994842 0.51807591 0.215725 0.05494 0.7246229999999999
7560 -1.7398329300000002 7.760906820000001 -1.1972124 -0.6294770000000001 -0.06657300000000001 0.410158
7580 0.85322475 9.18056097 -1.36890702 -0.8828540000000001 -0.066487 -0.189816
7600 1.85240268 12.592116 0.59485878 -0.197861 -0.339377 -0.472033
7620 0.35147268 15.627202470000002 2.29517703 0.516208 -0.625811 -0.5895239999999999
7640 0.7258419 15.79874994 1.27744839 0.909242 -0.256621 -0.548795
7660 0.61716672 14.31458523 0.7450008300000001 0.786879 0.15470599999999998 -0.209414
7680 1.75554855 14.09543964 0.30611124000000006 0.181699 0.379392 0.070217
7700 2.21733468 15.17170455 0.76715181 -0.294119 0.589966 0.037782
7720 1.5075125100000002 15.52316742 0.35880075000000006 -0.459617 0.5753520000000001 -0.425895
7740 2.40863949 12.81200715 -1.3989942900000003 -0.441474 0.429828 -0.812279
7760 3.57875667 9.111253320000001 -3.7973038500000005 -0.215484 0.671734 -0.764008
7780 2.75456952 8.46025191 -3.1684632300000004 0.152248 0.7720060000000001 -0.5842430000000001
7800 1.54179846 9.50358465 -2.03740947 0.272145 0.739278 -0.229782
7820 -0.80053524 9.07802685 -2.38349646 -0.0124 0.7556189999999999 0.192293
7840 -2.3454729000000003 9.13115781 -2.37869937 -0.208986 0.933241 0.432111
7860 -1.4419522800000002 10.1746377 -0.63558009 -0.047712 1.036814 0.498266
7880 0.32332778999999995 10.011036330000001 0.47211606000000006 0.264651 0.786292 0.539225
7900 1.69671798 9.14208615 0.30192237 0.436949 0.38108 0.491809
7920 3.0326928300000002 8.354725740000001 0.52376571 0.353875 -0.010965 0.303724
7940 3.7959598800000003 7.189994250000001 0.7399094400000001 0.101784 -0.358371 0.021466
7960 4.01539977 5.842355310000001 0.6962058900000001 0.00715 -0.426724 -0.119044
7980 2.08456614 5.428010340000001 0.61462593 -0.047634 -0.456574 -0.065977
8000 -0.9479795400000001 6.65740935 0.7417046700000001 0.17199 -0.23912600000000006 -0.289049
8020 -2.79333864 7.66600488 0.11360961 0.7678020000000001 -0.049997 -0.682508
8040 -3.77275923 8.91306189 -0.53154504 1.112897 0.332046 -0.883549
8060 -4.13620011 9.11439252 -0.36329373000000004 1.007629 0.390974 -1.142869
8080 -3.33087759 8.09800785 0.9860031 0.535928 -0.005168 -1.0356299999999998
8100 -1.6833960000000001 7.100634960000001 2.58557265 -0.256531 -0.663724 -0.561758
8120 -0.3094074 6.691087080000001 2.96653419 -1.003723 -0.8119029999999999 -0.154453
8140 0.01092834 7.9358976000000006 2.34427608 -1.324016 -0.608342 0.099422
8160 -0.6243476400000001 9.37246419 1.4042328300000002 -0.955724 -0.072778 0.114127
8180 -1.17999585 10.755281790000002 1.08583947 -0.956792 0.6758569999999999 -0.087666
8200 -1.4642504099999998 12.1324194 1.22474907 -0.8502639999999999 0.600012 -0.127417
8220 -1.4721867000000002 13.375885949999999 1.02491937 -0.280029 0.312349 0.186719
8240 -1.28881818 15.46150176 2.04250086 0.412032 0.181361 0.375455
8260 -1.51963767 15.90981876 1.1588945400000001 0.900617 0.14566700000000002 0.35327600000000003
8280 -1.08839007 15.63633558 -2.1143493000000007 0.974626 -0.092855 0.264368
8300 1.10530251 13.94634726 -5.0467545 0.429832 -0.7268939999999999 0.253898
8320 3.2277352500000003 10.79660151 -7.06007061 -0.230712 -0.83496 0.411792
8340 3.0561975900000005 9.111704580000001 -6.296656410000001 -0.359073 -0.470998 0.613391
8360 2.24143785 9.72153342 -4.067196570000001 -0.049425 -0.320126 0.710433
8380 2.39576877 11.77601229 -1.5313115700000002 0.374366 -0.068977 0.673547
8400 2.7217943100000004 14.37296454 1.28283408 0.558322 -0.008736 0.634162
8420 1.6090067700000001 14.4662184 0.77539221 0.404723 -0.159897 0.474118
8440 -0.38784816000000005 11.39100903 -0.95575887 0.040707 -0.4421060000000001 0.234791
8460 -2.54934432 8.613533160000001 -0.6454587600000001 -0.304755 -0.690054 -0.063201
8480 -3.1957056 8.256380490000002 0.52615935 -0.298327 -0.817264 0.041692
8500 -2.48528502 8.096065470000001 -0.24533829000000001 -0.030751 -0.717588 0.190848
8520 -1.55107872 7.679630970000001 -1.51514469 0.22146 -0.396601 0.41973
8540 -1.1632305600000001 7.96433679 -1.4861070900000002 0.35951900000000003 0.14006300000000002 0.625105
8560 -1.5657446700000002 9.039856140000001 0.7674559200000002 0.24900300000000006 0.729588 0.879951
8580 -0.39038895 9.31662567 2.2189827600000003 -0.313334 0.7495 0.91659
8600 0.63483453 8.78627745 1.99459863 -0.591704 0.951918 0.621693
8620 1.25169714 7.90894953 1.03614201 0.14513800000000002 1.014586 0.295611
8640 0.9548661600000001 8.11058427 -0.14579622 1.121922 0.475062 0.105504
8660 0.2874035700000001 8.73059589 -0.54531828 1.425347 -0.113186 -0.10313
8680 0.19459116000000004 8.76338091 -0.20851155000000002 1.040917 -0.343463 -0.258276
8700 0.37287810000000005 8.199796410000001 0.56821482 0.185615 -0.355041 -0.350762
8720 -0.1357704 9.26333775 1.16607546 -0.436716 -0.414716 -0.339009
8740 -0.49366863 10.133327790000001 1.5679911599999998 -0.44474 -0.414124 -0.214084
8760 -0.8376562800000001 10.097403569999999 1.75061412 -0.04938 -0.301315 0.003246
8780 -0.7258419 10.00145196 1.2868758 0.200127 -0.203638 0.135187
8800 1.0418318100000001 9.715990770000001 -0.53183934 0.230632 -0.12997 0.06800700000000001
8820 2.9397332700000005 11.7418833 -1.73729214 0.255579 -0.00035800000000000003 -0.131742
8840 2.37017448 16.48671543 -0.6950090700000001 0.291727 0.16788499999999998 -0.411579
8860 3.4658926200000004 16.63011801 -1.17490446 0.247736 0.21216 -0.789026
8880 4.66564581 11.97689166 -2.60428032 0.236684 0.27742 -1.114994
8900 4.59573975 10.05428862 -2.98943073 0.330383 0.363821 -1.224477
8920 2.8821093300000005 9.51137379 -2.4596809200000003 0.456999 0.388539 -1.122143
8940 1.78084854 8.71248663 -2.67972903 0.499475 0.388322 -0.8387680000000001
8960 0.7161103800000002 8.96216094 -2.70682425 0.417634 0.34878200000000004 -0.4707520000000001
8980 0.22543380000000002 9.85130991 -2.59410735 0.28134000000000003 0.27332 -0.129776
9000 -0.23232042000000003 10.15188831 -2.5563879 0.217359 0.202594 0.030101
9020 -0.5462109900000001 10.20802113 -2.3513098500000003 0.255512 0.13539 0.019771
9040 -0.28261629000000005 10.27912401 -1.48027014 0.353956 0.094989 -0.085244
9060 0.72149607 10.20383226 -0.53693073 0.358219 -0.007947 -0.187631
9080 2.08591011 9.68261715 0.01946304 0.289489 -0.131186 -0.211454
9100 2.94781671 9.0175482 -0.05912487 0.275164 -0.205812 -0.184753
9120 2.5373761200000002 8.14067154 -0.24234624000000002 0.303236 -0.24900500000000006 -0.06379299999999999
9140 1.2651662700000001 6.658449210000001 -0.65832948 0.571131 -0.196681 0.205067
9160 -0.10523187 5.79505149 -0.9276237900000001 0.62464 -0.090511 0.514021
9180 -1.05665472 5.695656570000001 -1.2051486900000001 0.352518 0.15418800000000002 0.296026
9200 -1.72261638 5.84609292 -1.7227635300000004 -0.036557 0.474986 0.063229
9220 -2.1609075600000005 6.290073899999999 -2.12243274 -0.098346 0.720264 0.050733
9240 -2.70038889 7.066957230000001 -1.9002951000000001 -0.214159 0.515476 0.214693
9260 -2.71355391 8.299936890000001 -1.21831371 -0.5566720000000001 -0.133439 0.285771
9280 -2.31837768 9.8478666 -0.74081196 -0.8208260000000001 -0.816264 -0.021779
9300 -1.7727651000000002 11.419752330000001 -0.43738866000000004 -0.884632 -1.100206 -0.354078
9320 -1.33342425 12.52070901 -0.42676443000000003 -0.7287 -0.8747149999999999 -0.402416
9340 -1.5328125000000001 12.82099311 -0.64904922 -0.372155 -0.174556 0.018989
9360 -1.92110211 13.11213429 -1.09093086 0.213473 0.523479 0.506089
9380 -1.7901288000000002 13.254035940000001 -1.738332 0.575296 0.6200760000000001 0.8108
9400 -1.3882131 13.074257880000001 -4.4450091 0.575028 0.195654 0.921369
9420 0.02095416 13.448332800000001 -4.8734118 0.32003400000000004 -0.308287 0.892459
9440 0.35999757000000004 14.089602690000001 -3.64806432 -0.026205000000000003 -0.475229 0.849662
9460 1.81213263 13.433068440000001 -2.83973994 -0.331349 -0.285432 0.803491
9480 3.88307268 11.82061836 -3.64776021 -0.5175069999999999 0.017981 0.746254
9500 3.93845994 9.214984260000001 -4.17466512 -0.584391 0.260307 0.67711
9520 2.31433596 8.33422284 -3.97693476 -0.496769 0.288772 0.675549
9540 0.7813763100000001 8.12675115 -3.4687375200000004 -0.369819 0.047583 0.674609
9560 -1.28448216 8.17853814 -2.10986613 -0.3245 -0.213017 0.537458
9580 -3.13328457 8.56608219 -0.5017520700000001 -0.50662 -0.214332 0.225335
9600 -4.37165973 9.13325715 -0.36673704 -0.763171 -0.022061 0.051313
9620 -3.68069238 9.926454510000001 -1.3202592299999998 -1.008099 0.000417 -0.029475
9640 -2.29637385 10.042614720000003 -2.07588429 -0.97399 0.12642 -0.13408399999999998
9660 -0.5159765700000001 9.47035818 -2.17707444 -0.399173 0.585533 -0.094337
9680 1.21816656 8.74346661 -1.4618567700000002 -0.06212 0.487953 0.305521
9700 1.90359126 8.555909220000002 -0.17917965 -0.550168 0.334423 0.494588
9720 1.9426644900000003 8.41355631 0.54112941 -0.5749 0.727641 0.217242
9740 2.2010206500000002 8.13753234 0.28500993 0.266746 0.760568 0.044686
9760 2.07662985 7.603887960000001 -0.48529089000000003 1.303919 0.092076 -0.180085
9780 1.61618769 7.0383610800000005 -1.2855220200000002 1.493174 -0.6187560000000001 -0.27078800000000003
9800 1.1687732100000001 7.87512465 -0.95950629 0.93521 -1.007033 -0.190866
9820 0.43679025000000005 9.53292636 0.02963601 0.326492 -0.806087 -0.098168
9840 -0.7714976400000001 9.715392360000001 1.1422764000000003 -0.02355 -0.364864 -0.110792
9860 -0.33619851000000006 9.39835278 1.31471658 -0.072091 -0.091649 -0.194803
9880 0.8722365300000001 9.9577386 1.12835601 0.10109 -0.097247 -0.276907
9900 1.3482471600000001 10.464739020000001 0.8270320499999999 0.21513 -0.144432 -0.297414
9920 2.1622515300000003 9.784101600000001 -1.24765542 0.14965 -0.077827 -0.38021
9940 3.40167636 11.192229000000001 -3.13403013 0.164891 0.076128 -0.531989
9960 1.2930070500000002 14.500200240000002 0.25791471 0.362464 0.243149 -0.6461899999999999
9980 0.40625172 16.59658743 1.15425441 0.522174 0.397103 -0.6570229999999999
10000 1.39479561 13.20763464 -1.8844323300000003 0.451982 0.489853 -0.613835
10020 2.744838 7.818089310000001 -4.93613694 0.312203 0.6271939999999999 -0.472913
10040 1.9639129500000003 7.57110294 -4.36492026 0.253147 0.697088 -0.318523
10060 0.8319664800000002 8.34798627 -2.4468102000000003 0.219835 0.657734 -0.304819
10080 1.0464719400000002 8.40996585 -1.35767457 0.161697 0.487706 -0.358418
10100 1.8917702100000002 9.281751120000001 -1.1343401100000001 0.120317 0.202753 -0.457687
10120 2.38843089 10.48958775 -1.4754828599999998 0.154532 -0.071991 -0.511575
10140 2.4768974700000004 10.254873690000002 -1.8363829500000002 0.28678200000000004 -0.269727 -0.4612600000000001
10160 1.96271613 9.30495177 -1.51454628 0.410474 -0.41016 -0.348052
10180 0.96264549 8.5606965 -0.83645946 0.458348 -0.351031 -0.258063
10200 0.50399856 8.08214508 -0.49098069000000005 0.4498180000000001 -0.30113 -0.209048
10220 0.72105462 7.73022114 -0.73826136 0.368597 -0.282933 -0.160501
10240 0.8714909700000001 7.52664402 -0.9918400500000001 0.256371 -0.26681 -0.099348
10260 0.73481805 7.4244140100000005 -1.07086941 0.206725 -0.31383 -0.019518
10280 0.30402171 7.17967413 -1.09183338 0.308261 -0.401974 0.090263
10300 -0.06526593 6.901845120000001 -1.09063656 0.198603 -0.436291 0.242296
10320 -0.19534653000000002 7.0841639700000005 -1.34255736 -0.138471 -0.37894 0.045452
10340 -0.6797349 7.92152595 -1.52413065 -0.270475 -0.030431 -0.147128
10360 -1.43252487 9.03701124 -1.5030293400000003 -0.104697 0.284368 -0.160261
10380 -2.51177202 9.936637290000002 -1.22684841 -0.05344 0.463541 0.009715
10400 -3.230433 10.424027520000001 -0.96848244 -0.120884 0.40108 0.236855
10420 -3.5215741800000004 10.563535530000001 -0.96429357 -0.22873 0.090608 0.183089
10440 -3.3718833900000003 10.70858619 -0.95995755 -0.415695 -0.171042 -0.022981
10460 -2.77403256 10.99089837 -1.25588601 -0.5198689999999999 -0.253098 -0.191314
10480 -2.0357712 10.892249009999999 -1.4198013 -0.520658 -0.212529 -0.212736
10500 -1.1255111100000001 10.78402509 -1.24181847 -0.5639 0.024671 -0.086224
10520 -0.2083644 10.80617607 -1.14571971 -0.325643 0.611835 0.19029
10540 0.6116240700000001 11.11782996 -1.8829314000000001 -0.060864 0.7681140000000001 0.306238
10560 0.90247095 11.899500570000002 -3.8886153300000004 0.008803 0.356706 0.298707
10580 0.52870014 13.871055510000001 -3.33791136 0.081274 -0.035969 0.399061
10600 -0.47242017000000003 15.333069240000002 -2.65937328 0.140146 -0.191859 0.438128
10620 0.23321313 14.97141378 -2.689902 0.141992 -0.213343 0.480897
10640 2.24218341 13.473779940000002 -3.6351936 0.019957 -0.147502 0.638057
10660 2.72313828 10.35920304 -4.33932597 -0.24115100000000006 0.07116 0.79405
10680 2.7057745800000004 8.09681103 -4.4134209 -0.443433 0.275956 0.903469
10700 2.11794957 7.154226990000001 -3.8483452800000006 -0.496188 0.27253 1.006723
10720 1.00036494 7.24837356 -2.57779332 -0.465259 0.252254 0.988805
10740 0.13472073 7.6928058 -1.32175035 -0.399284 0.295264 0.832182
10760 -0.84753495 8.35457859 -0.722997 -0.384722 0.310576 0.454114
10780 -1.66947561 10.139616000000002 -0.64725399 -0.425369 0.380431 0.070249
10800 -1.80015462 11.83064418 -1.67935428 -0.49357 0.448535 -0.118322
10820 -1.65750741 11.60431767 -2.19398688 -0.300408 0.739581 -0.075685
10840 -1.4956914600000002 9.60328368 -1.7172306900000003 -0.045111 0.81452 0.408838
10860 -0.69066324 7.75162656 -0.7318260000000001 -0.5155029999999999 0.365649 0.647546
10880 -0.25746345000000004 7.500902580000001 -0.10492776000000001 -1.145299 0.4151760000000001 0.529852
10900 -0.33874911 7.400762100000001 -0.0023936400000000003 -0.548438 0.835476 0.133967
10920 -0.12544047 7.162457580000001 -0.23875578 0.731217 0.486721 -0.073496
10940 0.72598905 7.866894060000001 -0.6683553 1.359029 -0.259527 -0.212365
10960 1.45901187 8.391101220000001 -0.8467893900000001 1.04344 -0.750332 -0.276965
10980 1.54314243 8.73553032 -0.2565707400000001 0.418841 -0.827095 -0.252388
11000 1.1677235400000001 9.55717668 0.7632670500000001 -0.027321 -0.6189399999999999 -0.238679
11020 0.90756234 9.97226721 1.51200549 -0.211143 -0.194401 -0.219143
11040 0.86295627 10.07255484 1.5582596400000002 -0.130124 0.261273 -0.223434
11060 1.0565075700000002 10.568921220000002 1.0611477 0.01412 0.5144340000000001 -0.254797
11080 1.1975067000000001 11.13818571 0.29129814000000004 0.010334 0.845801 -0.268067
11100 2.27437002 10.33196067 -2.1871002600000002 0.001027 1.097446 -0.319729
11120 3.2298345900000003 11.348051040000001 -3.99893859 0.157369 1.067709 -0.477764
11140 0.84888873 12.628040219999999 -1.0837499400000001 0.283206 0.8454719999999999 -0.6881079999999999
11160 0.3441348 14.512325400000002 0.8420021099999999 0.36634 0.643518 -0.8720709999999999
11180 1.02297699 13.299240420000002 -1.02776427 0.477905 0.49312 -0.920237
11200 1.98277758 9.25929603 -3.797451 0.5869340000000001 0.495157 -0.725062
11220 1.79221833 9.25450875 -4.25071224 0.647254 0.5137149999999999 -0.357196
11240 1.4747373 9.42395688 -3.25318239 0.5960449999999999 0.351779 -0.043289
11260 1.8679613400000001 8.69527008 -2.48498091 0.5302020000000001 0.07875800000000001 0.091197
11280 2.43962928 8.75484621 -1.55092176 0.539195 -0.103249 0.044491
11300 3.0855294900000003 9.47529261 -0.70652601 0.564833 -0.229568 -0.089764
11320 3.2187591 9.69938244 -0.20043792 0.478705 -0.310707 -0.236608
11340 2.6158070700000002 9.51496425 0.39667716000000003 0.373316 -0.360001 -0.338762
11360 2.03531994 9.23190651 0.86505561 0.33920900000000004 -0.424573 -0.411557
11380 2.10642282 8.64676944 0.2311236 0.285852 -0.445619 -0.430062
11400 1.7435705400000001 7.60613445 -0.8535288600000001 0.305528 -0.452585 -0.303866
11420 0.7337781900000001 6.59393865 -1.5358045500000002 0.428371 -0.5937720000000001 -0.001588
11440 -0.69515622 6.04143945 -1.74717081 0.068827 -0.589234 0.240518
11460 -1.8058444200000001 6.33033414 -1.8988039800000003 -0.362186 -0.283438 0.0662
11480 -2.7496350900000004 7.01097156 -1.87156161 -0.393596 0.048128 0.027099
11500 -2.99407086 7.55493606 -1.79462178 -0.098087 0.352544 0.100344
11520 -2.5581831299999997 7.965984870000001 -1.64478384 -0.006543000000000001 0.451775 0.24720300000000006
11540 -2.12677857 8.542587240000001 -1.07401842 -0.026245 0.325139 0.231204
11560 -1.88503074 9.26528013 -0.56582118 -0.203555 0.156871 0.107336
11580 -1.8088364700000001 10.232575559999999 -0.5363323200000001 -0.443129 0.114627 -0.042766000000000005
11600 -1.6949227500000001 11.15705034 -0.5408253000000001 -0.45673 0.075657 -0.142156
11620 -1.4612583600000002 11.99006649 -0.7499450700000001 -0.395183 0.051804 -0.091489
11640 -1.4076761400000002 12.0396168 -1.0945213200000001 -0.430883 0.093929 0.060963
11660 -1.10963853 11.80340181 -1.55316825 -0.289765 0.29847 0.202692
11680 -0.35491599000000007 11.73289734 -2.49396687 0.028021 0.271771 0.210287
11700 0.38620008 11.80789479 -4.88269206 0.376715 0.015869 0.233347
11720 1.15904169 12.215343330000001 -3.65031081 0.5610890000000001 -0.159905 0.340614
11740 0.48708612000000007 13.45940829 -2.35056429 0.502582 -0.190208 0.510091
11760 1.29181023 14.355747990000001 -1.84461354 0.373069 -0.082971 0.710943
11780 3.3551181 14.00592339 -2.62180098 0.263523 0.120367 0.8381040000000001
11800 3.22564572 11.959979220000001 -3.5434308600000004 0.07559 0.307504 0.822665
11820 2.15806266 9.624836250000001 -4.42734129 -0.15222 0.358612 0.760119
11840 1.13284899 7.87153419 -4.738848030000001 -0.416119 0.209591 0.6933060000000001
11860 0.40191570000000004 7.3946210400000005 -3.6013589100000005 -0.663751 0.108493 0.615862
11880 -0.23156505000000002 7.80641541 -1.9116747 -0.802954 0.039449 0.420561
11900 -0.7276371300000001 8.10968175 -1.1758069800000002 -0.892832 -0.013629 0.186061
11920 -1.21232961 9.20690082 -0.9849534300000001 -0.890624 0.066957 0.011853
11940 -1.35528093 10.84434678 -1.44015705 -0.5311520000000001 0.55232 -0.198834
11960 -1.3840242299999999 11.465103960000002 -2.0161610100000003 0.031468 1.01011 0.181591
11980 -1.6247223900000003 10.80976653 -1.7143857900000001 -0.309141 0.607136 0.55147
12000 -1.15320474 8.89045965 -0.9609974100000002 -0.970187 0.21003 0.531338
12020 -0.30985866000000006 7.58277684 -0.55938582 -0.363014 0.415762 0.23835
12040 -0.008985960000000001 7.71809598 -0.46223739 0.587493 0.083469 -0.070779
12060 0.09640287000000002 7.520365620000001 -0.5333402700000001 0.928818 -0.630564 -0.291806
12080 0.86834196 7.66884978 -0.91504737 0.648632 -1.038559 -0.316741
12100 1.78534152 8.1932139 -1.30558347 0.195707 -1.043855 -0.198121
12120 2.36657421 8.41640121 -1.5639494400000002 -0.198448 -0.858402 -0.146633
12140 2.0450514600000003 9.27501165 -0.9710330400000001 -0.401464 -0.512302 -0.208315
12160 1.53685422 10.48868523 0.12603888 -0.298482 -0.250201 -0.308344
12180 1.12176369 10.36983708 0.9803133 -0.141322 -0.228174 -0.35854899999999995
12200 0.7816706099999999 10.52491356 1.0653365700000001 -0.1717 -0.119345 -0.374924
12220 0.42571475999999997 10.400218650000001 0.40685013000000003 -0.238124 0.197661 -0.471934
12240 1.8299475900000002 8.876539260000001 -2.7759749400000002 -0.152656 0.538894 -0.632008
12260 3.65136048 11.078158319999998 -4.2400782 -0.015995 0.668902 -0.7615430000000001
12280 0.5294457 14.97530835 -0.86505561 0.130376 0.676006 -0.800054
12300 -0.15777423000000002 14.95405008 -1.16232804 0.25150500000000003 0.626336 -0.738255
12320 1.58370678 11.29131981 -3.4857971100000005 0.37167 0.467587 -0.57057
12340 2.01944736 8.57476404 -4.60876743 0.387239 0.30598200000000003 -0.397202
12360 1.26831528 8.51549202 -3.7619780400000002 0.289177 0.192986 -0.293057
12380 1.26351819 7.84204533 -2.68810677 0.22103000000000006 0.027934 -0.250592
12400 1.9886145300000002 8.06059251 -2.13890373 0.282905 -0.173765 -0.213582
12420 2.74260132 9.37006074 -1.5795179099999999 0.335592 -0.31140500000000004 -0.204492
12440 3.0816447300000003 10.08018702 -1.5045204600000002 0.356392 -0.470046 -0.243668
12460 3.0117386700000006 9.66630312 -1.60810425 0.339332 -0.519845 -0.296066
12480 2.2778133300000003 9.51721074 -1.09392291 0.251664 -0.409468 -0.383346
12500 1.66258899 9.41346999 -0.4128440400000001 0.177785 -0.292847 -0.445968
12520 1.8818817300000001 8.880580980000001 -0.24189498000000004 0.103864 -0.298167 -0.383452
12540 1.98067824 8.179293509999999 -0.5559425100000002 0.165256 -0.384648 -0.122267
12560 1.22115861 7.44940989 -0.87133401 0.114119 -0.454213 0.268435
12580 0.0577809 6.58271601 -1.1306025000000002 -0.129857 -0.30452 0.341314
12600 -1.09811178 5.8627110600000005 -1.4199484500000001 -0.237896 0.09103 0.085816
12620 -1.9459508400000003 5.8645062900000005 -1.60765299 -0.113749 0.290304 -0.038554000000000005
12640 -2.306850930000001 6.875348310000001 -1.59612624 -0.17085699999999998 0.442676 0.001444
12660 -2.39546466 8.220309120000001 -1.5925357800000002 -0.439646 0.279322 0.059596
12680 -2.4947124300000003 9.3127311 -1.4379105600000002 -0.567074 -0.171471 -0.050743
12700 -2.46043629 10.0183644 -1.21038723 -0.548475 -0.439448 -0.184866
12720 -2.2791573 10.627898940000001 -1.0418318100000001 -0.397592 -0.489436 -0.335435
12740 -2.14997922 11.26587267 -0.98974071 -0.191261 -0.468556 -0.407728
12760 -2.1484782900000003 11.681257500000001 -1.00590759 -0.110625 -0.405575 -0.243808
12780 -1.95314157 11.79741771 -1.04228307 -0.07825700000000001 -0.18669 0.13428900000000002
12800 -1.28372679 11.55612114 -1.3235455800000002 0.154415 0.216825 0.521025
12820 -0.34428195 11.22710355 -1.7215667100000003 0.33826 0.357604 0.58729
12840 -0.04775508 11.012745240000003 -3.39973398 0.284634 0.268415 0.5603239999999999
12860 0.58138965 11.39624757 -3.55196556 0.168872 0.116612 0.527664
12880 0.68392377 13.044621870000002 -2.5098296400000004 0.06732300000000001 0.034033999999999995 0.487536
12900 1.2159200700000001 14.34960693 -2.1095620200000003 -0.067981 0.041039 0.45133
12920 2.5611751800000007 13.7343924 -2.6885580300000003 -0.181599 0.148016 0.4375810000000001
12940 3.09406419 11.612401110000002 -3.27099735 -0.343215 0.271084 0.437363
12960 2.7581599800000003 9.80281908 -3.5211229200000003 -0.443429 0.28423000000000004 0.433441
12980 1.84281831 8.82415386 -3.1484017800000004 -0.362443 0.307204 0.478843
13000 0.47974824000000005 8.13872916 -2.29742352 -0.199438 0.27778600000000003 0.501383
13020 -0.64335942 8.11447884 -1.40572395 -0.076668 0.26788 0.47448
13040 -1.6763622299999998 8.398282140000001 -0.96758973 -0.086756 0.337399 0.4145
13060 -2.60159238 8.812627110000001 -0.7899110100000001 -0.168898 0.4574760000000001 0.294131
13080 -2.64304944 10.289453940000001 -0.7463448 -0.337776 0.465104 0.131641
13100 -2.0887550100000003 11.544447240000002 -1.24495767 -0.566233 0.338449 0.035135
13120 -0.5619266099999999 10.945536930000001 -1.5013812600000003 -0.544404 0.244492 0.069591
13140 0.67719411 9.600281820000001 -1.29974652 -0.257157 0.297941 0.30653800000000003
13160 1.6334042400000002 8.75499336 -0.6427610100000001 -0.195902 0.419186 0.568525
13180 1.6413405300000004 8.27015373 -0.22318731000000003 -0.599821 0.442194 0.4930350000000001
13200 1.20678696 8.17719417 -0.10807677000000002 -0.422061 0.639292 0.067804
13220 0.9137034 7.63307271 -0.34937334000000003 0.48026 0.794852 -0.188876
13240 0.8852544000000001 7.729024320000001 -0.64859796 1.269009 0.502853 -0.311179
13260 0.7577244000000001 8.30832444 -0.88914897 1.326553 0.017932 -0.30588200000000004
13280 0.51088518 8.60904999 -0.48962690999999997 0.764935 -0.221244 -0.213359
13300 0.27707364 8.648711819999999 0.46209024000000004 0.133109 -0.191668 -0.13555699999999998
13320 -0.062273880000000004 8.7719058 1.3016889 -0.233914 0.042907 -0.137353
13340 -0.16989939 8.745408990000001 1.44673956 -0.303625 0.395921 -0.178885
13360 0.17633475 9.40418973 0.9436337100000001 -0.081986 0.75543 -0.232277
13380 0.6011469899999999 10.153830690000001 -0.0031392000000000004 0.13293 1.04571 -0.28349
13400 0.60788646 10.94329044 -0.46747593000000004 0.107571 1.257049 -0.365123
13420 0.49098069000000005 11.09582613 -0.9961760700000001 -0.078878 1.390442 -0.527898
13440 1.5651462600000001 10.835066520000002 -1.99879731 -0.239579 1.474005 -0.772682
13460 2.23335441 12.391383780000002 -1.93712184 -0.22535300000000005 1.512361 -1.052506
13480 1.67576382 14.79253824 0.43679025000000005 -0.01352 1.488809 -1.206957
13500 1.94714766 15.83886303 0.9680409900000001 0.26304 1.344933 -1.164248
13520 2.64949461 13.170366450000001 -1.04886558 0.397954 1.163684 -0.977203
13540 2.7828615600000006 9.218584530000001 -3.2277352500000003 0.264995 1.036341 -0.71839
13560 2.1654005400000003 7.96987944 -3.44852892 0.011681 0.969014 -0.44554
13580 1.83413646 7.986193470000001 -2.7116115300000003 -0.144704 0.948845 -0.328034
13600 1.76901768 7.89308676 -1.9007463600000003 -0.040787 0.984941 -0.387175
13620 1.81646865 8.10175527 -1.26427356 0.171691 0.91751 -0.491359
13640 1.9441556100000001 8.71232967 -0.77044797 0.359263 0.775565 -0.5881430000000001
13660 1.8309972600000002 9.16544376 -0.47122335000000004 0.486351 0.5345 -0.620061
13680 1.9152651600000001 9.31961772 -0.39428352 0.572966 0.409286 -0.550929
13700 2.12199129 9.58980474 -0.41583609000000005 0.658903 0.445693 -0.406166
13720 2.23260885 9.51810345 -0.47510811000000003 0.616336 0.4280100000000001 -0.209888
13740 1.9426644900000003 8.68733379 -0.53364438 0.453028 0.385118 0.001603
13760 1.0762649100000001 7.6791797100000005 -0.70652601 0.28783400000000003 0.376407 0.191672
13780 -0.30821058 7.1406009 -1.02312414 0.297139 0.433404 0.315577
13800 -1.8851778900000002 6.98073714 -1.3349251800000002 0.384121 0.605487 0.362966
13820 -2.77268859 7.068752460000001 -1.6069074300000001 0.36215 0.932631 0.355984
13840 -2.75292144 7.6092736499999996 -1.87904664 0.25607 1.301602 0.351566
13860 -2.21105628 8.24545215 -1.83952215 0.138703 1.382528 0.19575
13880 -1.54194561 8.80708446 -1.2886710300000002 -0.008468999999999999 1.214283 -0.225942
13900 -0.9777627 9.198974340000001 -0.50459697 -0.27009 1.043101 -0.347191
13920 -0.73272852 9.07458354 -0.044007660000000004 -0.246365 1.062343 -0.384437
13940 -1.09033245 8.52866685 -0.025143030000000004 -0.115249 1.208098 -0.451006
13960 -1.9148139000000002 8.0081973 -0.22692492 -0.113643 1.163059 -0.378298
13980 -2.8584574200000006 7.81764786 -0.38799531000000004 -0.21094 0.8980670000000001 -0.35941
14000 -3.45257064 7.79399595 -0.44891541000000007 -0.390595 0.670203 -0.496037
14020 -3.4991190899999998 8.24380407 -0.6599775600000001 -0.396833 0.6183810000000001 -0.584677
14040 -3.2400075600000005 9.24791643 -0.67764537 -0.150412 0.6058279999999999 -0.589349
14060 -2.75607045 10.766808540000001 -0.47481381 0.032683 0.757502 -0.582923
14080 -2.2617936 12.13436178 -0.21435831 -0.005961999999999999 1.019383 -0.505549
14100 -1.70749917 13.030407180000001 0.15133887000000001 -0.107155 1.276641 -0.283327
14120 -1.06473816 13.671372960000001 0.71790561 -0.239916 1.374298 -0.08141699999999999
14140 -0.347274 14.092741890000001 0.43050204000000003 -0.32637 1.415945 -0.031868
14160 0.13127742 14.73625827 -1.9543383900000002 -0.266362 1.437191 -0.068864
14180 0.13905675 15.82927866 -2.82163068 -0.108313 1.429348 -0.10941
14200 0.33275520000000003 15.554608470000002 -3.58040475 0.045065 1.398882 -0.082663
14220 -0.055230299999999996 13.43680605 -3.4856499600000004 0.041203 1.250826 -0.08356799999999999
14240 0.5402268900000001 12.75093009 -3.7190200500000006 -0.190255 1.082028 -0.028353
14260 1.76767371 11.28233385 -3.2470511400000004 -0.613634 0.945834 0.031889
14280 2.52958698 8.533758240000001 -2.92791222 -0.957533 0.861826 0.02639
14300 2.4941140200000005 6.6801587399999995 -2.8527676200000003 -0.927222 0.753998 0.058787
14320 1.46275929 6.30503415 -2.35490031 -0.548305 0.577878 0.084092
14340 0.84559257 6.4548819 -1.9845728100000002 -0.078577 0.394129 0.073722
14360 0.5840874 7.365436290000001 -1.6826504400000002 0.304727 0.274334 0.128895
14380 0.40715424 8.87833449 -1.59148611 0.4170430000000001 0.198982 0.226985
14400 0.1562733 10.75109292 -1.89206451 0.166052 0.217648 0.305324
14420 0.11047041 11.829898620000002 -2.22362289 -0.214257 0.320273 0.279035
14440 0.07903917 11.837834910000002 -1.8618300900000002 -0.468379 0.4206 0.185265
14460 0.08532738000000001 10.563829830000001 -1.08000252 -0.47585 0.455528 -0.017794
14480 -0.09145863 8.92608957 -0.58138965 -0.401719 0.281727 -0.30761
14500 -0.26435007 7.79084694 -0.80547948 -0.364067 0.212908 -0.446128
14520 -0.15507648000000004 7.34252994 -1.3662092700000001 -0.180435 0.7300439999999999 -0.192339
14540 0.28141947 7.58338506 -1.73325042 0.088637 1.432639 0.228451
14560 0.17842428 8.34454296 -1.52338509 0.242641 2.088027 0.566245
14580 -0.26465418 9.059309370000001 -0.76775022 -0.325826 1.97887 0.651077
14600 -0.6179122800000001 9.00467748 0.21285737999999998 -0.81612 2.118817 0.44451
14620 -0.9515699999999999 8.183786490000001 0.8358610499999999 -0.379168 2.454903 -0.06454700000000001
14640 -1.33133472 6.99420627 1.05874425 0.152367 1.884669 -0.446799
14660 -1.82291382 6.071673870000001 1.06952544 0.15634 0.930877 -0.623942
14680 -2.245332420000001 5.792206590000001 0.8523320400000001 -0.247909 0.420125 -0.684864
14700 -1.83548043 6.330039840000001 0.64859796 -0.625156 0.59158 -0.610807
14720 -1.16172963 7.22682099 0.87941745 -0.562181 0.958386 -0.486923
14740 -0.00014715 8.4132522 0.7650622800000001 -0.288275 1.458817 -0.39592
14760 0.9963232200000001 9.65851398 0.72553779 -0.104795 2.083932 -0.238411
14780 1.3070844000000001 11.192072040000001 0.56911734 -0.056055 2.710297 -0.010274
14800 0.8157996000000001 12.72728799 0.40864536 -0.069227 2.732295 0.094292
14820 -0.6093873900000002 12.81335112 0.60563997 -0.156151 2.545408 0.019148
14840 -1.34315577 11.753105940000001 0.42556761000000004 -0.120592 2.477585 -0.366144
14860 -0.36793386 10.39737375 -0.3555144 0.052783 2.441281 -0.761197
14880 2.6262841500000005 10.96065414 -1.4756300100000002 0.232946 2.412835 -0.995979
14900 4.27046958 15.19579791 -0.24908571000000002 0.33226500000000003 2.429553 -1.000648
14920 2.99422782 18.078201540000002 1.72576539 0.18318 2.497273 -0.757153
14940 4.89227643 13.95577467 -0.27602397 -0.212251 2.487536 -0.37748
14960 5.24554434 9.54474741 -2.95665552 -0.522706 2.50783 -0.122233
14980 4.34411325 8.5026213 -4.31911737 -0.479199 2.560519 -0.016242
15000 2.58048126 7.279363350000001 -3.66064074 -0.13358399999999998 2.507279 -0.055421000000000005
15020 0.82792476 6.00521112 -2.78436249 0.165898 2.291636 -0.200467
15040 -0.32377905 7.564069170000001 -2.5176187800000003 0.301131 2.106318 -0.327472
15060 -0.5578947 10.200536099999999 -2.25566235 0.205523 1.892804 -0.396232
15080 -0.13965516000000006 10.42132977 -1.1945146500000001 -0.082719 1.591366 -0.42136
15100 1.7548029900000002 10.08468 -0.2881491300000001 -0.364996 1.359543 -0.278825
15120 2.7988812900000006 9.847268190000001 -0.6300374400000001 -0.385657 1.381657 0.069243
15140 3.21816069 8.87804019 -1.0734200100000002 -0.203959 1.745241 0.362739
15160 3.1478033700000005 7.836502680000001 -1.3810321799999998 -0.021617 2.334222 0.49999
15180 1.839375 7.59326373 -1.68639786 -0.075568 2.794018 0.38152
15200 0.18606627000000003 8.80813413 -2.11330944 -0.156449 2.939401 -0.472741
15220 -1.26247833 9.747127710000001 -2.3683792500000003 -0.206321 2.82618 -0.886346
15240 -2.19713589 9.749227050000002 -2.6259898500000003 -0.302832 2.485495 -1.119456
15260 -2.5334815500000003 9.70806429 -2.35490031 -0.330505 1.826033 -1.081416
15280 -2.5286942700000004 9.23504571 -1.0115973900000002 -0.438385 1.316281 -0.8507809999999999
15300 -2.5086328200000003 8.3435031 0.61686261 -0.533194 1.5375370000000002 -0.422301
15320 -2.04340338 7.75776762 1.65031668 -0.785185 2.4207650000000003 0.033074
15340 -1.5602020200000002 7.8501287699999995 2.33454456 -1.094249 2.945211 0.484238
15360 -1.6290584099999998 8.250690689999999 1.9157164200000003 -1.03495 2.8450900000000003 0.961207
15380 -1.9413107100000002 8.66727234 0.7782273000000001 -0.508422 2.329494 1.038185
15400 -2.71520199 9.465266790000001 -0.30237363000000006 0.221906 1.722918 0.780212
15420 -3.7211095800000002 10.34528265 -0.26465418 0.732701 0.99637 0.345672
15440 -3.6781515900000006 10.770850260000001 0.44097912 0.603522 0.345395 -0.051775
15460 -2.04445305 11.50971984 0.5749542900000001 -0.03764 -0.039502 -0.21172
15480 0.896634 13.379623560000002 -0.54546543 -0.626996 -0.101393 0.058775
15500 4.418208180000001 15.099100739999999 -2.03876325 -0.700671 -0.162511 0.487764
15520 6.668631990000001 14.815287630000002 -2.7149076900000004 -0.307819 -0.129603 0.708384
15540 7.009323480000001 11.69637471 -3.5342977500000003 0.044198 -0.187109 0.664983
15560 6.62192658 9.48442572 -2.8198354500000002 0.031304000000000005 -0.33568600000000004 0.535828
15580 5.160815370000001 9.54550278 -2.1775257 -0.107712 -0.343025 0.360746
15600 2.8738689300000004 10.28017368 -1.6075058400000002 -0.14777300000000002 -0.31381 0.282449
15620 0.21570228000000002 11.09058759 -1.5646950000000002 0.158301 -0.179174 0.446784
15640 -2.73406662 11.50702209 -2.15596332 0.939233 -0.108595 0.767274
15660 -4.363125030000001 11.22830037 -3.53025603 1.209453 0.40521 0.980011
15680 -5.27443479 10.4145903 -2.7395994600000004 0.847046 0.8256450000000001 0.8487540000000001
15700 -4.65187257 9.82751085 0.06496182 0.381411 1.107681 0.519332
15720 -3.2876154900000003 8.717421060000001 1.3082812199999998 0.006077 1.06461 0.4270350000000001
15740 -1.55407077 8.55904842 0.81251325 0.085338 1.495271 0.5520189999999999
15760 -1.11652515 9.23743935 0.2544714 0.25455900000000004 1.45707 0.368448
15780 -1.48775517 9.4197582 0.8211951000000001 0.124904 0.443978 -0.047766
15800 -1.12266621 9.23250492 1.70151507 -0.071897 0.116371 -0.26770700000000003
15820 -0.7481400300000001 8.48031336 1.75585266 -0.028238 0.236882 -0.605114
15840 -0.28829628 7.3904321699999995 1.0593426599999998 -0.015035 0.011308 -0.682713
15860 0.13337676 7.16664645 0.52750332 0.012656 -0.274023 -0.481329
15880 -0.13981212 7.853719230000001 1.14197229 0.304665 -0.018559 -0.151672
15900 -0.24294465 8.95782492 2.06959608 0.506342 0.362625 -0.014019
15920 0.69949224 9.72572229 2.4161245200000003 0.423299 0.441584 0.025892
15940 1.32205446 9.907893990000002 2.8229844600000003 0.237737 0.483675 0.050179
15960 1.0578515400000001 10.97801784 2.3294531700000007 0.129435 0.5333220000000001 -0.016871
15980 0.6300374400000001 11.01559014 1.02626334 0.101751 0.592775 -0.208352
16000 0.70833105 11.275604190000001 1.5224825700000002 -0.002521 0.642087 -0.461244
16020 0.7650622800000001 13.72451373 2.27796048 -0.06075 0.845232 -0.596507
16040 1.15949295 13.940059050000002 1.7181234000000003 0.015325 1.071144 -0.680655
16060 1.4141115 11.31287238 -1.0065060000000001 0.214442 1.116679 -0.785076
16080 7.74025677 12.517716960000001 -3.86017614 0.33259 1.000373 -0.839649
16100 8.50530924 14.558422590000001 -3.3187524300000004 0.435127 0.861237 -0.766116
16120 5.763463290000001 14.29886961 -1.93068648 0.446282 0.780044 -0.7178640000000001
16140 5.340740580000001 10.823991030000002 -2.91623832 0.374678 0.770634 -0.700192
16160 4.8359964600000005 8.55636048 -5.238353610000001 0.238472 0.633603 -0.679604
16180 2.6101270800000003 8.63734203 -5.31110457 0.083574 0.445213 -0.586441
16200 -0.54995841 9.02652435 -4.10281668 -0.002681 0.341789 -0.488634
16220 -1.6723205100000003 8.848100070000001 -3.3169572 -0.051347 0.350922 -0.333025
16240 -0.769104 8.44933338 -2.75696316 -0.168709 0.321727 -0.123368
16260 0.5742087300000001 8.48540475 -1.6597440900000002 -0.151989 0.432762 0.06675
16280 1.52817237 8.300093850000001 -0.8909442000000001 0.104466 0.319981 0.34215100000000004
16300 2.6616197700000006 8.340805350000002 -0.73766295 -0.01261 -0.107789 0.325858
16320 3.4365509100000007 8.99030583 -0.7782273000000001 -0.167761 0.002473 0.059714
16340 2.46312423 9.151670520000001 -1.08883152 -0.016245 0.271348 0.088201
16360 0.9168426000000001 8.96411313 -1.5736809600000001 0.097703 0.270766 0.134931
16380 0.24384717000000003 8.582553180000001 -1.91781576 -0.272755 0.022605 0.177527
16400 -0.16346403 8.053548930000002 -1.9413107100000002 -0.533402 -0.463672 -0.000995
16420 -0.9351088200000001 7.5857787000000005 -1.3983958800000003 -0.451345 -0.7547550000000001 -0.272446
16440 -1.40677362 7.45958286 -0.81490689 -0.251863 -0.603857 -0.35243
16460 -1.55152017 7.976010690000001 -0.31913892 -0.113409 -0.101747 -0.031639999999999995
16480 -1.50362775 8.58105225 -0.36958194 0.1402 0.542076 0.44787
16500 -1.3913522999999999 9.2375865 -0.34159401 0.304243 0.795917 0.761679
16520 -1.6528672800000002 9.90265545 -0.16466085 0.22375100000000006 0.464849 0.773292
16540 -1.9992387600000001 10.77744258 -0.25162650000000003 0.084352 -0.07948 0.621328
16560 -2.02364604 11.416014720000002 -0.50459697 -0.040568 -0.401567 0.556775
16580 -1.6013745900000003 11.51345745 -0.74769858 -0.131659 -0.543787 0.5039779999999999
16600 -1.4169564000000001 11.091784409999999 -2.38034745 -0.180596 -0.483015 0.533468
16620 -0.29114118 11.208238920000001 -5.25602142 -0.288663 -0.279314 0.568772
16640 -0.12498921000000002 11.8025091 -3.87170289 -0.304654 0.009236 0.617429
16660 0.20118348 12.29483376 -1.69147944 -0.14404 0.18108 0.6610590000000001
16680 2.26898433 11.725412310000001 -1.72501002 -0.113854 0.185607 0.834316
16700 4.48526934 11.95579035 -2.9093517 -0.354425 0.042742 0.806114
16720 3.1472049600000003 11.25255069 -3.2621683500000005 -0.8346120000000001 -0.032169 0.5090939999999999
16740 0.92552445 10.33420716 -3.24315657 -1.293301 0.022322 0.06785
16760 -1.1642802300000001 9.764942670000002 -2.26418724 -1.197397 0.23482 -0.40818
16780 -2.6698503600000003 9.868379310000002 -1.24181847 -0.48374 0.552573 -0.303189
16800 -3.29285403 9.80251497 -1.00815408 -0.351731 -0.046109 0.114038
16820 -2.0797788600000002 9.377545770000001 -1.8293491800000001 -0.7610560000000001 -0.133273 0.421075
16840 -0.31000581 9.118738350000001 -2.5592328 -0.25961 0.861791 0.228886
16860 0.6095345400000001 9.04120011 -2.1465359100000003 0.826317 0.64355 0.051949
16880 1.10140794 8.78118606 -0.84109959 1.2540639999999998 -0.248918 -0.110562
16900 1.28252997 8.55396684 0.06811083000000001 0.740434 -0.907268 -0.195559
16920 1.1943675 8.24635467 0.16810416000000003 -0.015671 -1.008228 -0.133413
16940 1.05754743 7.444024199999999 -0.25387299 -0.3799030000000001 -0.610743 -0.118307
16960 1.1280519 7.190445510000001 -0.53259471 -0.264585 -0.001309 -0.242196
16980 1.10231046 7.27786242 -0.77733459 0.039562 0.360354 -0.372995
17000 1.7188787700000001 7.8374052 -0.7218001799999999 0.189817 0.297076 -0.396433
17020 1.66633641 8.94659247 -0.18067077 -0.010214 0.140276 -0.438222
17040 1.24660575 10.466985509999999 0.47945394 -0.195903 0.277636 -0.528358
17060 0.82163655 11.41391538 1.0177384500000002 -0.126344 0.427076 -0.6637270000000001
17080 0.99872667 11.88977886 1.2472041600000001 0.079203 0.490651 -0.7563770000000001
17100 1.7142386400000003 10.917549000000001 0.62824221 0.188167 0.5105569999999999 -0.7673909999999999
17120 3.5774127 9.87242103 -2.8913895899999997 0.239959 0.501456 -0.667673
17140 3.1015492200000003 11.299256100000001 -2.5247997 0.292391 0.476057 -0.488882
17160 -0.47316573 14.12373168 0.40804695 0.331892 0.409209 -0.322946
17180 1.0785114 14.89492521 -0.40820391000000006 0.366063 0.278723 -0.222127
17200 2.89677528 9.02278674 -4.177510020000001 0.437838 0.141975 -0.186199
17220 3.1121734500000002 7.17068817 -5.11950546 0.587882 0.05835 -0.182907
17240 1.78219251 8.558606970000001 -3.6170745300000005 0.727037 -0.097582 -0.2031
17260 1.1006623800000002 8.66323062 -2.10028176 0.705162 -0.236976 -0.22337
17280 1.3506408 9.468710100000001 -1.06398279 0.5490510000000001 -0.338599 -0.2489
17300 1.8049419 10.851086250000002 -0.58318488 0.391877 -0.428543 -0.26376900000000003
17320 1.98277758 10.523265480000001 -0.7204562099999999 0.221488 -0.5262359999999999 -0.194331
17340 2.0239403400000002 9.06530328 -0.8264336400000001 0.35672800000000005 -0.622314 0.005425999999999999
17360 1.784439 8.4075624 -0.40012047 0.258445 -0.52755 0.367813
17380 1.50557013 8.049212910000001 0.09040896000000001 0.021781 -0.282641 0.332731
17400 1.2424168800000002 7.146585000000001 -0.1240965 -0.08065 0.052656 -0.044428
17420 0.61282089 6.52253166 -0.54636795 0.047577 0.251749 -0.127109
17440 -0.54995841 6.23408823 -0.9443890800000001 0.050351 0.30547 0.022393
17460 -1.43865612 6.4551761999999995 -1.14302196 -0.125055 -0.112128 0.176595
17480 -1.81093581 7.03342665 -1.1508111 -0.380039 -0.673354 0.087939
17500 -1.7492603400000002 8.05010562 -1.1017120500000002 -0.527209 -0.826634 -0.080603
17520 -1.69312752 9.187143480000001 -1.10635218 -0.5800420000000001 -0.593743 -0.199844
17540 -2.00837187 9.880504470000002 -0.7478457300000001 -0.675909 -0.270838 -0.148584
17560 -2.5465092300000003 10.30801446 -0.34323228 -0.652795 0.109554 0.075416
17580 -2.5333344 10.47356802 -0.06421626 -0.330895 0.272624 0.308192
17600 -2.2402410300000004 10.872785969999999 -0.02470158 0.026128 0.024996 0.385779
17620 -2.2799126700000008 11.55956445 -0.20507805 0.242109 -0.347529 0.38456
17640 -2.26135215 12.168490770000002 -0.7643069100000002 0.384541 -0.492793 0.357967
17660 -2.05777503 12.831911640000001 -1.29869685 0.393043 -0.450413 0.408179
17680 -1.2428681400000001 13.551769440000001 -2.62149687 0.234629 -0.377112 0.596054
17700 -0.40057173 13.548326130000001 -4.74633306 0.034776 -0.255772 0.7942600000000001
17720 0.8406483299999999 13.275147060000002 -3.48415884 -0.24122 -0.098553 0.8775879999999999
17740 0.53708769 13.37423787 -2.31464007 -0.427341 -0.014627 0.830247
17760 1.3684557600000002 12.74224824 -1.95582951 -0.368213 0.003606 0.748383
17780 3.62276433 11.33039304 -2.9891364300000003 -0.261488 -0.117687 0.618961
17800 3.7624293 8.752295610000001 -3.9004363800000004 -0.27726100000000004 -0.240503 0.44382
17820 2.9425781700000004 7.91763138 -4.3245030600000005 -0.403365 -0.274314 0.217588
17840 1.37489112 8.05100814 -3.30019191 -0.491075 -0.290235 0.012965
17860 -0.13726152 8.20683018 -1.8785953800000001 -0.518397 -0.25687600000000005 -0.047089
17880 -1.05440823 8.88896853 -0.7699967099999999 -0.416472 0.107094 -0.046843
17900 -1.4774252399999999 10.041869160000001 -0.31449879 -0.06339600000000001 0.7486689999999999 0.37568
17920 -1.44539559 11.10481209 -0.8060778900000001 -0.49102 0.236181 0.768592
17940 -1.26771687 11.16378 -1.7354870999999998 -1.1512129999999998 -0.017991999999999998 0.701281
17960 -1.20245094 10.31160492 -1.90179603 -0.394102 0.469849 0.32565700000000003
17980 -0.85606965 8.69840928 -1.1921210100000001 0.878975 -0.01485 0.021114
18000 -0.14983794 7.5157254899999995 -0.40985199 1.501316 -0.7507 -0.315427
18020 0.18561501000000002 7.009470629999999 0.10178856 1.249436 -1.307779 -0.37843
18040 0.25432425000000003 6.66473742 0.1790325 0.584793 -1.361569 -0.203542
18060 0.8478390600000001 6.344411490000001 -0.03922038 0.00524 -0.991705 -0.021125
18080 1.4871567600000002 6.8078457 -0.27317907 -0.275077 -0.427312 0.006104
18100 1.84581036 7.608528090000001 -0.5622307200000001 -0.190271 -0.1429 -0.06310299999999999
18120 1.9278415800000002 8.805740490000002 -0.1357704 -0.081062 -0.149301 -0.15526700000000002
18140 1.73998008 10.125097199999999 0.51628068 -0.16334300000000002 -0.109983 -0.325739
18160 0.6447132 11.068436610000001 1.02237858 -0.240134 0.141546 -0.556266
18180 0.25193061 10.81126746 1.12910157 -0.117378 0.433795 -0.753404
18200 0.52960266 10.6286445 0.78122916 0.101259 0.568669 -0.838576
18220 0.51223896 10.76321808 0.5185173599999999 0.220093 0.637586 -0.860267
18240 1.12266621 9.521546760000001 -0.9936352800000001 0.289463 0.743466 -0.758437
18260 3.68069238 10.03048956 -4.01674374 0.278028 0.771468 -0.5587949999999999
18280 1.4322207599999999 13.990207770000001 -1.14287481 0.250239 0.763142 -0.31756
18300 -0.33560010000000007 17.83077372 1.19226816 0.218394 0.771993 -0.106286
18320 1.1811926700000002 15.147297270000001 -1.4882064300000002 0.207906 0.668321 -0.012223
18340 2.7831656700000007 8.824595310000001 -4.78854549 0.282982 0.494517 -0.036045
18360 1.4436003599999998 8.85633066 -4.4771859 0.396613 0.294184 -0.119384
18380 0.14340258 8.478223830000001 -2.88330615 0.467849 0.140933 -0.218035
18400 0.50100651 7.709718240000001 -1.67501826 0.512513 -0.010014 -0.33717
18420 1.6341498 8.74661562 -1.01877831 0.521626 -0.215256 -0.4340520000000001
18440 2.36972322 9.79758054 -1.1817910800000002 0.453977 -0.393657 -0.5165489999999999
18460 2.85530841 9.448952760000001 -1.48505742 0.355697 -0.4677 -0.563074
18480 2.83390299 8.93701791 -0.94752828 0.317939 -0.514624 -0.5173439999999999
18500 2.232756 9.023983560000001 -0.04850064 0.397034 -0.542247 -0.338363
18520 2.06241516 8.81411823 0.21794877000000001 0.342787 -0.5905 0.053357
18540 2.1225897000000002 8.18872092 -0.19908414 -0.060827 -0.537404 0.17865699999999998
18560 1.6477758900000001 7.591164389999999 -0.6888680100000001 -0.368997 -0.191582 0.011555
18580 0.72524349 7.1557181100000005 -0.98270694 -0.201047 0.15825699999999998 0.025098
18600 -0.35431757999999997 6.611753610000001 -1.12760064 0.061345 0.445775 0.090656
18620 -1.0529073 6.53436252 -1.2487050900000003 -0.033411 0.436839 0.275876
18640 -1.55152017 6.94914894 -1.2970487700000002 -0.293461 0.040326 0.29272800000000004
18660 -1.6769606400000001 7.672597199999999 -1.28881818 -0.5572520000000001 -0.384352 0.163243
18680 -1.7771011200000002 8.508752549999999 -1.2478025700000002 -0.6373479999999999 -0.600589 -0.036797
18700 -1.9134699300000002 9.16544376 -0.8180460900000001 -0.551539 -0.600478 -0.138747
18720 -2.03965596 9.627534 -0.30371760000000003 -0.419509 -0.261761 0.023042
18740 -2.25416142 10.17867942 -0.09744273000000002 -0.22464 0.23261 0.365601
18760 -2.6707430700000003 10.85138055 -0.42406668000000003 0.034631 0.468329 0.599982
18780 -2.8851013800000005 11.546085510000001 -0.96144867 0.106291 0.208402 0.537791
18800 -2.84438988 11.811936509999999 -1.05111207 0.135075 -0.152349 0.418814
18820 -2.50609203 11.629313549999999 -1.21726404 0.234236 -0.277946 0.306436
18840 -1.6224759000000002 11.475139590000001 -1.46994021 0.276426 -0.364466 0.328206
18860 -0.35790804000000004 11.668533930000002 -2.51716752 0.27167 -0.30122600000000005 0.501143
18880 0.6436635300000001 12.19828374 -4.17482208 0.185865 -0.148548 0.755653
18900 0.34143705 13.6475739 -3.07820142 0.007675 0.004838 0.913377
18920 -0.39113451 15.15807846 -1.9440084600000003 -0.106508 0.08054299999999999 0.994736
18940 0.7893126 15.103888020000001 -2.1368043900000004 -0.22106 -0.012781 0.988714
18960 2.61266787 13.20493689 -3.0308976000000003 -0.332138 -0.1568 0.870618
18980 2.4424741800000005 9.77257485 -4.04862624 -0.439009 -0.220361 0.6082390000000001
19000 1.97694063 7.73201637 -4.6445445 -0.509758 -0.130446 0.295709
19020 0.9743193900000001 7.10228304 -4.046831010000001 -0.612595 -0.008662000000000001 0.03312
19040 -0.13472073 7.39416978 -2.6705959200000002 -0.6776449999999999 0.269356 -0.171721
19060 -0.82163655 8.08603965 -1.50886629 -0.18184 1.112661 0.029351
19080 -1.6612450200000002 9.11799279 -1.15859043 -0.301661 0.6802199999999999 0.383718
19100 -1.7031631500000002 10.76711265 -1.3572233100000002 -1.0758379999999998 0.355619 0.444956
19120 -1.0728215999999997 11.91881646 -1.82889792 -0.801241 0.877777 0.164194
19140 -0.31270356000000005 11.51016129 -1.81407501 0.481499 0.850174 -0.171846
19160 0.40985199 9.78290478 -1.08599643 1.427816 0.052402 -0.488953
19180 0.8057737800000001 8.00625492 -0.2870994600000001 1.52265 -0.696775 -0.4990810000000001
19200 0.67224987 7.09869258 -0.02410317 1.059608 -0.8816959999999999 -0.20725
19220 -0.025594290000000002 6.8021559 -0.062116920000000006 0.460873 -0.637896 0.08201699999999999
19240 -0.27542556 6.5041281 -0.5144756400000001 -0.093438 -0.25582 0.119316
19260 0.10088604 7.369026750000001 -1.08014967 -0.29749200000000003 0.05954 0.020278
19280 0.44921952000000004 8.17360371 -1.33372836 -0.29285300000000003 0.246483 -0.113457
19300 0.85173363 8.60859873 -1.02970665 -0.381271 0.353962 -0.274445
19320 1.0728215999999997 9.47604798 -0.22467843 -0.518609 0.573047 -0.59722
19340 0.9834525000000001 9.83664396 0.62135559 -0.44999 0.8487530000000001 -0.8726950000000001
19360 1.45781505 9.60432354 1.0177384500000002 -0.155218 0.985829 -1.041727
19380 1.8802434600000002 10.31071221 1.00920375 0.1703 1.011327 -1.040555
19400 2.11539897 11.31093 0.7240466700000001 0.360693 1.012271 -0.908903
19420 3.0102377400000004 10.57071645 -1.70840169 0.360763 1.050638 -0.647237
19440 5.582341260000001 11.59862787 -3.9246867 0.265642 1.036074 -0.386168
19460 1.20798378 14.691053790000002 -0.08128566000000001 0.183113 0.933214 -0.16655899999999998
19480 -0.02140542 16.713346050000002 1.0282155300000004 0.223196 0.712086 -0.047423
19500 0.88196805 13.30867764 -1.93817151 0.338329 0.448584 -0.052691
19520 1.5688838700000003 7.29612864 -5.00468922 0.511609 0.241592 -0.12065
19540 0.17184176999999998 7.39836846 -4.79347992 0.61053 0.095624 -0.199888
19560 -0.31718673000000003 7.178173200000001 -3.34179612 0.615658 -0.017044 -0.267006
19580 1.06698465 6.803951130000001 -2.60338761 0.533409 -0.08475099999999999 -0.313427
19600 2.4960564 8.60695065 -2.58093252 0.428555 -0.168473 -0.331144
19620 3.30797124 10.054141470000001 -2.64964176 0.29069 -0.232926 -0.343775
19640 4.26388707 9.91852803 -1.9742428800000003 0.133363 -0.269957 -0.271119
19660 4.3875225 9.74324295 -0.74110626 0.007543000000000002 -0.254492 -0.033804
19680 3.6130328100000013 9.994418190000001 0.031136940000000002 0.210681 -0.139056 0.225976
19700 2.9710173600000003 9.62737704 0.08487612 0.12323900000000003 -0.346561 0.245928
19720 2.28125664 8.62746336 -0.5252568299999999 -0.211737 -0.254346 -0.146431
19740 1.19556432 7.58532744 -1.17221652 -0.339308 0.014828999999999997 -0.217102
19760 -0.21240612000000003 6.84601641 -1.4923952999999999 -0.038734 0.247901 -0.15548
19780 -1.50466761 6.43511475 -1.7774052300000003 -0.001806 0.322735 0.012392
19800 -2.12513049 6.4090692 -1.84027752 -0.258531 0.098204 0.174325
19820 -2.042206560000001 6.905592540000001 -1.85344254 -0.61321 -0.364536 0.051730999999999985
19840 -1.96271613 7.741453590000001 -1.6551039600000002 -0.8598709999999999 -0.680046 -0.219847
19860 -1.93293297 8.51414805 -1.19915478 -0.754844 -0.774418 -0.419819
19880 -2.23933851 9.203163210000001 -0.5599842300000001 -0.410883 -0.592743 -0.33005500000000004
19900 -2.2722706800000005 9.73440414 -0.39218418 -0.262374 -0.216413 0.001649
19920 -2.38558599 10.29768453 -0.56028834 -0.369285 0.061742 0.330627
19940 -2.4568458300000002 10.9525707 -0.82478556 -0.471941 -0.017577000000000002 0.541519
19960 -2.06809515 11.42185167 -0.9759674700000001 -0.451008 -0.418962 0.467404
19980 -1.5322140900000003 11.530674000000001 -0.8414037000000001 -0.259673 -0.695055 0.348385
20000 -1.12670793 11.46450555 -0.56596833 -0.041702 -0.6944600000000001 0.277268
20020 -0.5780934900000001 11.50103799 -0.65832948 0.079838 -0.684348 0.306946
20040 0.36164565000000004 11.829447360000001 -1.5283195200000002 0.058782000000000015 -0.704074 0.4627850000000001
20060 0.98165727 12.61217745 -4.6988820900000015 -0.045097000000000005 -0.608571 0.645671
20080 0.15478218000000002 14.185701450000002 -3.77948889 -0.17256400000000002 -0.421954 0.707566
20100 -1.05515379 14.99117112 -2.43752994 -0.22924 -0.243734 0.677032
20120 0.13262139 13.98406671 -2.4418757700000002 -0.140623 -0.265204 0.641359
20140 2.5821293400000003 12.632376240000003 -3.4533162 0.026519 -0.360534 0.626625
20160 2.7593666100000003 9.59804514 -4.313584530000001 0.203628 -0.403584 0.583052
20180 2.42525763 7.4046566700000005 -4.6710413100000014 0.297996 -0.389689 0.48969
20200 1.3222016099999998 6.6464810100000005 -4.04728227 0.250148 -0.248374 0.356715
20220 -0.057329639999999994 7.210359810000001 -2.8580061600000004 0.10145 0.015757 0.233561
20240 -1.10245761 7.9914320100000005 -1.4465924099999998 -0.080545 0.26495 0.14544400000000002
20260 -2.05417476 8.469983430000001 -1.03374837 -0.300083 0.286086 0.111837
20280 -2.29517703 9.97570071 -1.6374459600000002 -0.508467 0.147515 0.047534
20300 -1.9110762900000002 12.040058250000001 -2.32406748 -0.388029 0.339983 0.029969
20320 -1.3052891699999998 12.441679650000001 -2.6791306200000005 -0.08193099999999999 0.945507 0.185155
20340 -0.5644772100000001 10.84120758 -1.94520528 -0.258289 1.004188 0.315239
20360 -0.20671632 8.86352139 -0.50340015 -0.273115 1.117866 0.404721
20380 0.27812331 7.38070065 0.08756406 0.475687 1.508543 0.358176
20400 0.29488860000000006 6.50681604 -0.12649014 1.209144 1.28894 0.028159
20420 0.23830452000000002 6.61728645 -0.32991030000000005 1.422364 0.613478 -0.137197
20440 0.28441152000000003 7.04569896 -0.40026762 0.944542 -0.078303 -0.151399
20460 0.81175788 7.48024272 -0.6352759800000002 0.208621 -0.252619 -0.143497
20480 1.2698064 7.9156889999999995 -0.73781991 -0.341175 -0.113199 -0.166744
20500 1.20424617 8.05968999 -0.46687752000000005 -0.545896 0.058333 -0.261329
20520 0.61462593 8.203543830000001 0.32423030999999997 -0.400815 0.23595500000000005 -0.317159
20540 0.23800041000000002 8.03334033 0.87417891 -0.128477 0.269212 -0.34521
20560 0.24414147 7.85940903 1.01040057 0.095 0.292222 -0.432341
20580 0.27063828 8.31849741 0.7068301200000001 0.203909 0.412766 -0.5684670000000001
20600 0.5445629100000001 9.08460936 0.29668383 0.128432 0.612631 -0.6675270000000001
20620 1.12819905 9.79173378 -0.3008727 -0.030873 0.684921 -0.758463
20640 1.54658574 10.6024518 -0.63093996 -0.102142 0.667321 -0.824099
20660 0.94408497 11.499085800000001 -0.16390548000000002 0.004951 0.744764 -0.836269
20680 0.16780005000000003 11.71628901 -0.018413370000000002 0.164197 0.8526819999999999 -0.789362
20700 1.5338621700000001 12.37596246 -1.3566249000000001 0.248752 1.0011709999999998 -0.700299
20720 1.7209683 14.30904258 -0.33934752000000007 0.222387 1.157504 -0.612021
20740 0.13067901 16.99206777 1.05395697 0.194013 1.303346 -0.5622
20760 1.4642504099999998 15.255972450000002 -0.64575306 0.237186 1.434143 -0.54177
20780 3.1591829700000003 10.53957951 -3.0895712100000003 0.321732 1.5295729999999998 -0.503913
20800 2.34786654 8.608893029999999 -3.14166231 0.36323 1.519781 -0.488656
20820 1.3063290300000001 8.476870049999999 -1.98067824 0.321176 1.4261620000000002 -0.4834890000000001
20840 1.2663630900000002 8.58884139 -1.22010894 0.233907 1.249579 -0.471053
20860 2.1782712600000003 8.95048704 -1.5582596400000002 0.203879 1.006684 -0.4421100000000001
20880 2.7048720600000005 9.59056011 -2.25550539 0.257837 0.704875 -0.405027
20900 2.6789834700000004 10.265203620000001 -2.6337691800000003 0.33323200000000003 0.446583 -0.346485
20920 2.3831923500000003 10.97098407 -2.4947124300000003 0.373049 0.402297 -0.228646
20940 1.99296036 11.286375570000002 -1.89969669 0.410523 0.541277 -0.118535
20960 1.39764051 10.764414900000002 -1.24196562 0.408615 0.633792 -0.075938
20980 1.07835444 9.31602726 -0.80053524 0.377805 0.7231390000000001 -0.015379
21000 1.19900763 7.9237724400000005 -0.6836294700000001 0.332385 0.821317 -0.019027
21020 1.2284964900000002 7.26394203 -0.7424600400000001 0.11288800000000003 0.774694 0.108754
21040 0.9632439 7.2913413600000005 -0.87417891 -0.4341390000000001 0.897804 0.165664
21060 0.5822921700000002 7.45539399 -1.20993597 -0.642308 1.0796290000000002 -0.10201
21080 0.04759812000000001 7.558379370000001 -1.57098321 -0.452737 1.361741 -0.21962
21100 -0.19010799 7.4244140100000005 -1.99400022 -0.249182 1.32158 -0.209601
21120 -0.32706539999999995 7.350014970000001 -2.04998589 -0.396488 1.067492 -0.210304
21140 -0.34233957000000004 7.76405583 -1.77096987 -0.511081 0.645331 -0.29922600000000005
21160 -0.27437589 8.33645952 -1.3611178800000001 -0.385073 0.28012 -0.45277
21180 -0.40535900999999996 8.51399109 -1.1627793 -0.017289 0.15975 -0.506663
21200 -0.5980077900000002 8.27568657 -1.18898181 0.290111 0.192756 -0.502421
21220 -1.3481000100000002 8.186474430000002 -1.27190574 0.271267 0.406404 -0.368231
21240 -2.31508152 8.111035529999999 -1.3570761599999999 -0.037444 0.634191 -0.055554
21260 -3.2180037300000004 8.408916180000002 -1.43896023 -0.33611 0.76908 0.303246
21280 -3.96435834 9.03386223 -1.10455695 -0.462877 0.697653 0.426366
21300 -4.32165816 9.771829290000001 -0.42167304000000005 -0.330586 0.5995779999999999 0.32914
21320 -3.8829255300000005 10.55469672 0.033383430000000006 -0.033948 0.733225 0.216741
21340 -2.90920455 11.74053933 0.15582204 0.166351 0.8223590000000001 0.130431
21360 -1.9595769299999999 13.09626171 0.04984461 0.1001 0.795971 0.126798
21380 -0.4776587100000001 14.73655257 -0.9430353 -0.146055 0.732478 0.234118
21400 0.81535815 15.70878243 -3.6033111000000004 -0.443515 0.690299 0.383782
21420 1.8088364700000001 15.80683338 -3.9830660100000004 -0.621959 0.742664 0.496768
21440 1.4751787500000002 14.936990490000001 -2.60503569 -0.587849 0.7541899999999999 0.515151
21460 1.49478894 13.30552863 -1.8359316900000002 -0.377753 0.685483 0.465432
21480 3.33985374 11.19027681 -2.04549291 0.001011 0.609915 0.38699
21500 3.6922191300000002 8.75828952 -3.0523030200000005 0.429924 0.5076510000000001 0.281158
21520 2.50219746 7.53039144 -3.41365437 0.643512 0.433888 0.160968
21540 0.51343578 7.07922954 -3.2826712500000004 0.515958 0.407166 0.027651
21560 -1.14631812 6.87894858 -2.7934956000000004 0.119785 0.399626 -0.140681
21580 -1.8206673300000003 7.377855750000001 -2.3167296000000004 -0.30903400000000003 0.451998 -0.344569
21600 -2.00253492 8.93881314 -1.79132562 -0.620107 0.3198 -0.581581
21620 -1.8532953900000002 10.595113920000001 -1.66229469 -0.562913 0.146285 -0.662144
21640 -1.41844752 11.94890373 -1.89835272 -0.05344 0.854833 -0.07410800000000001
21660 -0.45535077 11.64473487 -1.8835298100000002 0.148897 1.758725 0.680312
21680 1.0124901 10.212661259999999 -1.20469743 0.047708 1.833495 0.717965
21700 1.44824049 8.540036640000002 -0.31598991000000004 0.149241 1.928574 0.296605
21720 1.2506474699999999 7.3905793200000005 -0.08726976 0.131543 2.181219 -0.263591
21740 0.99138879 7.01411076 -0.50160492 0.030529 1.86156 -0.423052
21760 0.8176046400000001 7.09255152 -1.0686229200000001 -0.279033 1.203823 -0.571786
21780 0.6761444400000001 7.50135384 -1.30947804 -0.685678 0.8614360000000001 -0.643622
21800 0.39443067000000004 7.869582 -1.00141461 -0.756846 1.035968 -0.538589
21820 0.13037490000000002 7.92242847 -0.29742939 -0.509423 1.341544 -0.447521
21840 0.1935513 7.61092173 0.5204695500000001 -0.158557 1.5819999999999999 -0.411196
21860 -0.29010132000000005 7.257506670000001 1.1951130600000002 0.257642 1.4481389999999998 -0.330137
21880 -0.60803361 6.89511546 1.41949719 0.413253 1.318127 -0.18681
21900 -0.8617594500000001 6.43331952 1.40811759 0.047492 1.593298 0.047428
21920 -0.9404945100000001 6.28498251 1.0985630400000002 -0.419958 2.091117 0.102277
21940 -0.49382559000000004 7.062915510000001 0.69845238 -0.486986 2.207056 -0.061777
21960 0.05852646 8.46414648 0.7021899899999999 -0.185472 2.251044 -0.40049
21980 0.77808015 10.05488703 0.29114118 0.222302 2.253961 -0.683929
22000 1.0686229200000001 11.679158160000002 -0.01497006 0.466834 2.1652400000000003 -0.819908
22020 0.33006726 12.91798458 -0.39053610000000005 0.392995 2.0316110000000003 -0.904642
22040 1.60061922 14.04304443 -2.22916554 0.102368 1.939925 -0.901214
22060 2.7819688499999997 15.529906890000001 -0.6245046000000001 -0.217439 1.887266 -0.775193
22080 1.12192065 17.1185481 1.23732549 -0.383939 1.908054 -0.50185
22100 1.90329696 15.68977065 0.20297871000000003 -0.280695 1.944721 -0.171095
22120 3.4347556800000003 10.89014967 -1.64462688 -0.039296 1.835069 0.134106
22140 4.521948930000001 8.50666302 -1.49389623 0.12685 1.665644 0.267944
22160 4.8327003 9.73874997 -0.5926221000000002 0.170939 1.520552 0.283393
22180 3.9067245900000005 9.11050776 -0.16031502 0.102132 1.382391 0.261725
22200 3.0502036800000005 7.450008300000001 -1.23358788 0.046325 1.2316280000000002 0.183548
22220 2.42839683 6.816821850000001 -2.81249757 -0.007126 0.93793 0.150436
22240 1.2189121200000002 7.159906980000001 -4.0302226800000005 -0.134358 0.581741 0.091251
22260 -0.053739180000000004 8.0631333 -4.71893373 -0.211326 0.485322 0.027812
22280 -0.71970084 9.920166300000002 -4.45623174 -0.169847 0.5147689999999999 0.08681599999999999
22300 -0.17468667000000002 11.282039549999999 -2.85950709 -0.14393599999999998 0.657127 0.16159
22320 2.1037250700000003 11.759698260000002 -1.20274524 0.207102 0.7300979999999999 -0.009103
22340 3.03733296 11.225602620000002 -0.22992678000000003 0.530963 0.883239 -0.224954
22360 3.1103782200000003 9.82406754 0.26764623000000004 0.8440540000000001 1.247249 -0.6836369999999999
22380 2.71475073 7.965082350000001 -0.12005478000000001 0.992721 1.623501 -0.8646790000000001
22400 1.59568479 7.13686329 -0.91459611 0.8531780000000001 1.555216 -0.98307
22420 0.23007393000000004 7.95550779 -1.71003996 0.573164 1.108118 -1.085935
22440 -1.03853565 9.04763547 -2.3456200500000004 -0.02862 0.932015 -1.014069
22460 -2.47435668 9.668245500000001 -2.39292387 -0.802144 1.199927 -0.7420770000000001
22480 -3.83427774 9.57678687 -1.67157495 -1.180038 1.509798 -0.384055
22500 -4.24203039 8.62551117 -0.42317397000000007 -1.269933 1.7432849999999998 -0.088016
22520 -3.3852151800000003 7.5365325 0.53183934 -1.305377 2.081548 0.066195
22540 -2.25910566 6.67446894 1.16263215 -1.034549 1.889591 0.149517
22560 -1.4331232800000002 6.581666340000001 1.33237458 -0.420041 1.503574 0.246171
22580 -1.2593293200000002 7.54641117 1.21831371 0.48171 1.2981049999999998 0.231369
22600 -1.4462883000000002 8.76666726 0.7204562099999999 1.128711 1.038559 0.108034
22620 -1.85209857 9.767189160000001 -0.08352234000000001 1.069189 0.65287 -0.091645
22640 -2.1495279600000003 11.20973985 0.25970994000000003 0.442709 0.26345100000000005 -0.199139
22660 -2.0926495800000002 12.45425607 0.95216841 -0.256145 0.044199 -0.174898
22680 -1.7051055300000002 12.683868930000001 0.8157996000000001 -0.6096630000000001 -0.048169 0.053487
22700 -0.92717253 12.685821120000002 1.38656502 -0.480828 -0.068898 0.330015
22720 0.08083440000000001 12.36833028 1.6585472700000001 -0.203173 -0.165007 0.4143310000000001
22740 0.9228267 12.73296798 0.40610457000000005 -0.062848 -0.235019 0.218848
22760 2.09833938 14.196325680000001 -0.66088008 0.027652 -0.125372 -0.106468
22780 2.98538901 12.597354540000001 -3.8491006500000005 0.075421 -0.063372 -0.467273
22800 4.61804769 10.78941078 -4.68570726 0.054721000000000006 -0.073341 -0.620161
22820 5.28206697 9.345810420000001 -5.7431075400000005 -0.083695 -0.212554 -0.58463
22840 4.277052090000001 9.6796251 -5.448817350000001 -0.198583 -0.212807 -0.421994
22860 3.111732 10.84225725 -3.3382056600000003 -0.130767 0.307386 -0.033354
22880 3.1654711800000004 11.720929139999999 -0.04939335000000001 -0.018058 0.8899879999999999 0.161103
22900 2.94197976 11.38083606 1.11173787 0.256029 1.5560969999999998 0.377945
22920 1.54613448 9.5498388 -0.17842428 0.29188000000000003 1.784772 0.702642
22940 -0.7262931600000001 8.49363534 -1.8696094200000002 -0.299954 1.338498 0.663828
22960 -4.0894947 8.90887302 -1.56963924 -0.65353 1.524686 0.230627
22980 -5.2299758700000005 9.327102750000002 -0.9535123800000002 -0.322734 1.844749 -0.175534
23000 -4.21134471 8.556056370000002 -1.38192489 0.116322 1.466229 -0.20296
23020 -2.4520487400000004 7.847431020000001 -1.9428116400000002 0.353787 0.940023 -0.152557
23040 -1.14916302 8.17704702 -1.25648442 0.097465 0.7434350000000001 -0.052615
23060 -0.31959018000000006 8.70424623 0.69036894 -0.228986 0.830526 0.029383
23080 0.18277011 8.71337934 2.42136306 -0.220621 0.963922 -0.036959
23100 0.03742515 8.36445726 2.90516283 -0.076816 1.230377 -0.195461
23120 -0.20477394000000002 7.43683347 2.4131324700000003 0.032924 1.962689 -0.141154
23140 -0.5001138 6.864724080000001 1.41590673 0.03283 2.302018 -0.017676
23160 -1.3657580100000002 7.02699129 0.57794634 -0.185447 2.203538 0.023655
23180 -1.7185746599999998 7.7468392800000005 -0.049246200000000004 -0.4345850000000001 2.111494 -0.185203
23200 -1.56904083 8.66219076 -0.5441214600000001 -0.325991 2.244382 -0.477307
23220 -0.6544349100000001 9.987080310000001 -0.8494871400000001 -0.020137 2.391335 -0.728528
23240 -0.62809506 12.04694487 -0.12453795000000001 0.340616 2.330795 -0.819934
23260 -1.3180127400000001 12.820689 0.9078664500000001 0.610925 2.084267 -0.675656
23280 -1.0554579000000002 11.62407501 1.29974652 0.553287 1.900047 -0.377789
23300 0.6991979400000001 9.31423203 0.7506906300000001 0.278096 1.861914 -0.193792
23320 3.4244257500000006 9.15736032 -1.2948120900000002 0.144026 1.966677 -0.169225
23340 5.317539930000001 15.035188590000002 -1.33447392 0.25345500000000004 1.975326 -0.29559
23360 3.15678933 19.691250030000003 -0.51628068 0.44153 1.857171 -0.4810640000000001
23380 4.21283583 16.08704622 -1.7329463100000002 0.460407 1.70403 -0.561921
23400 5.11950546 11.160189540000001 -4.220477820000001 0.31225 1.490456 -0.570159
23420 4.378095090000001 8.20683018 -4.89033405 0.029419 1.236812 -0.564332
23440 2.5219548000000005 6.47014626 -3.46918878 -0.298951 1.128985 -0.487439
23460 0.51896862 5.924376720000001 -2.66834943 -0.47388 1.110639 -0.27713000000000004
23480 -0.10328949000000001 7.2890948700000004 -2.8865925000000003 -0.400743 1.12386 0.082287
23500 0.52315749 9.89292393 -2.6116182 0.019867 0.7898 0.407187
23520 1.18133982 10.79615025 -1.23418629 0.18659 0.7778079999999999 0.331455
23540 2.5276446 10.655141310000001 -0.6283893599999999 0.258352 0.966449 -0.018662
23560 3.70914138 10.813808250000001 -1.4278847399999999 0.53874 0.8305469999999999 -0.108396
23580 4.16583612 10.505009070000002 -1.88667882 0.4539 0.4718350000000001 -0.106393
23600 2.9585979000000004 9.42589926 -1.7807013900000002 0.0035 0.004608 0.176275
23620 0.6108785100000002 9.11349981 -1.80254826 -0.467115 -0.426533 0.244043
23640 -1.62037656 9.52993431 -2.0074791600000004 -0.87065 -0.424405 0.06176
23660 -3.66018948 9.8677809 -2.33035569 -0.8490040000000001 -0.277895 -0.09851
23680 -4.57868016 9.47485116 -2.42136306 -0.590478 -0.033399 0.07282999999999999
23700 -4.10671125 8.55007227 -2.21733468 -0.280638 0.293771 0.304243
23720 -2.9267154 8.38586268 -1.2695121 0.040095 0.37824 0.480495
23740 -1.4518309500000002 8.42836941 -0.05658408 0.231749 0.112089 0.538791
23760 -0.12993344999999998 8.784629370000001 0.7261362 0.145981 -0.274082 0.482071
23780 0.40340682000000005 9.08819982 0.91205532 -0.091747 -0.423751 0.288322
23800 -0.09325386000000001 9.01740105 0.64995174 -0.226611 -0.388767 0.181581
23820 -0.8135629200000001 9.409585230000001 0.02963601 -0.255353 -0.300548 0.256043
23840 -1.9333842300000001 10.53374256 -0.23007393000000004 -0.258024 -0.180063 0.497288
23860 -2.80337427 11.69608041 0.00643536 -0.236027 -0.052122 0.717331
23880 -2.79543798 12.45500163 -0.028439190000000003 -0.286017 0.038375 0.773482
23900 -2.42271684 13.386058920000002 -2.03336775 -0.37524 0.099514 0.746075
23920 -2.24802036 13.81057686 -2.77657335 -0.473226 -0.049488 0.796856
23940 -0.83511549 14.45588847 -1.6128915300000002 -0.606694 -0.154159 0.714873
23960 0.017667810000000003 14.38853301 -1.77635556 -0.720158 -0.13298800000000002 0.580526
23980 1.89221166 13.22080947 -3.5004728700000003 -0.77977 -0.05744 0.387733
24000 2.60832204 11.188334430000001 -4.85096652 -0.833658 -0.06739500000000001 0.26025
24020 1.16547705 9.40150179 -4.90110543 -0.878627 -0.023989 0.100716
24040 0.027095220000000003 9.12846987 -4.53287727 -0.616939 0.348625 -0.067781
24060 -0.53558676 8.9885106 -3.1211594100000006 -0.452628 0.517824 0.100861
24080 -0.9497747700000001 8.80798698 -1.6958252700000003 -0.98784 0.028031 0.239823
24100 -1.66827879 8.76427362 -0.95531742 -0.8706430000000001 -0.006472 0.241754
24120 -1.76408325 9.74518533 -0.8403540300000001 0.11986199999999997 0.307606 0.226906
24140 -1.5763689 10.553058450000002 -1.40722488 1.106677 0.101475 0.03751
24160 -1.04138055 10.81201302 -2.43154584 1.126856 -0.562646 -0.132413
24180 -0.33978897 10.37746926 -2.6292860100000004 0.306286 -1.013806 -0.083087
24200 0.20971818000000003 9.832150980000002 -1.62501669 -0.541147 -1.003726 -0.00463
24220 0.51283737 9.12038643 -0.32332778999999995 -0.811361 -0.6393409999999999 -0.05185
24240 0.40340682000000005 8.07001992 0.42586191 -0.4369770000000001 -0.094635 -0.197347
24260 0.35745678 7.5020994000000005 0.6081807600000001 0.041207 0.298374 -0.325902
24280 0.39292974 7.21724643 0.61836354 0.096662 0.438104 -0.418629
24300 0.6963530400000001 7.416928980000001 0.29474145 -0.205369 0.5004930000000001 -0.573575
24320 0.5110421400000001 7.05483207 -0.28051695 -0.38744 0.622297 -0.772624
24340 0.68497344 6.99495183 -0.7123727700000001 -0.233992 0.7435069999999999 -0.847551
24360 1.1051553600000001 8.11716678 -0.25836597 0.041392 0.758579 -0.859533
24380 0.9369040500000001 8.706639870000002 0.85606965 0.245808 0.7065600000000001 -0.8153100000000001
24400 1.26726561 9.56211111 1.27654587 0.368562 0.6585529999999999 -0.638134
24420 1.5441921 10.74855213 1.16473149 0.426816 0.581688 -0.381256
24440 1.79926191 11.760747930000003 1.20454047 0.456585 0.572052 -0.128935
24460 1.99191069 11.204197200000001 0.13831119 0.5616869999999999 0.564856 -0.019233
24480 2.93001156 11.42917974 -2.7125140500000002 0.663516 0.396336 -0.055694000000000014
24500 1.16263215 13.727358630000001 -0.17499078 0.7058399999999999 0.17837 -0.196124
24520 -1.6148437199999999 15.91400763 1.27998918 0.7078979999999999 0.013839 -0.344382
24540 -0.5960556 13.48515954 -1.4582663100000002 0.739923 -0.095539 -0.458318
24560 1.23672708 8.58015954 -4.07512305 0.72059 -0.163491 -0.49789
24580 1.44284499 7.747888950000001 -4.297859100000001 0.722527 -0.13821 -0.428474
24600 1.12640382 8.28452538 -3.0049992 0.768462 -0.165793 -0.230497
24620 1.73729214 8.86576788 -1.2493035 0.739161 -0.281674 0.0023190000000000003
24640 2.6203000500000004 10.236018870000002 0.31165389 0.930739 -0.23702 0.390297
24660 3.43386297 11.08175859 0.94034736 0.85052 -0.24317800000000006 0.667482
24680 3.9522331800000003 10.326123720000002 0.8012807999999999 0.423859 -0.216257 0.432663
24700 3.7510497000000003 9.45628083 0.58318488 -0.033809 0.16593 0.092487
24720 2.9111469300000006 9.47065248 0.6785380799999999 -0.056688 0.409399 -0.034035
24740 2.14264134 9.26932185 0.6643233900000001 0.126549 0.5379649999999999 0.156155
24760 1.2263971500000002 8.21835693 0.6562399500000001 0.093337 0.138178 0.262189
24780 -0.01257642 6.92355465 0.46658322 -0.188829 -0.370469 0.101705
24800 -1.29720573 6.301894949999999 -0.00808344 -0.479953 -0.541218 -0.102004
24820 -2.30595822 5.96554929 -0.42915807000000006 -0.467149 -0.455429 -0.25478
24840 -2.7288280800000004 6.1053516000000005 -0.68033331 -0.18075 -0.277753 -0.180368
24860 -2.62778508 6.9552900000000015 -0.34937334000000003 0.122282 0.0013310000000000002 0.093788
24880 -1.7901288000000002 8.22958938 0.27453285000000005 0.507486 0.337444 0.420787
24900 -1.18448883 9.05841666 0.85547124 0.721928 0.241315 0.5644819999999999
24920 -1.2081407400000002 9.57439323 1.0071044100000002 0.573436 -0.021363 0.5819409999999999
24940 -1.5197848200000001 10.04022108 0.9247788900000001 0.219767 -0.104425 0.6148279999999999
24960 -1.90718172 10.63732635 0.5620835700000001 -0.05422 -0.045998 0.626726
24980 -2.39261976 11.23324461 0.10628154000000001 -0.141372 0.055397 0.653762
25000 -2.6017395300000006 11.261830950000002 -0.12393954 -0.135477 0.247918 0.7219220000000001
25020 -2.38783248 10.99343916 -0.32901759 -0.021555 0.495478 0.7854260000000001
25040 -1.91332278 10.82728719 -0.8764254 0.14339200000000002 0.5433359999999999 0.92859
25060 -0.86340753 11.37335103 -1.7600415300000003 0.17067000000000002 0.499329 0.987589
25080 0.12558762 12.185413020000002 -4.014350100000001 -0.047493 0.36700000000000005 0.969143
25100 0.7005419100000001 13.501326420000002 -3.54792384 -0.487232 0.24422800000000006 0.883976
25120 0.29369178 14.360388120000001 -2.3005627200000003 -0.927364 0.276856 0.565735
25140 1.8691581600000002 14.25111453 -1.19092419 -0.8052199999999999 0.294714 -0.009207
25160 3.7483519500000004 12.66831027 -1.84386798 0.129699 0.585546 -0.023345
25180 3.16875753 9.98154747 -3.0397266000000003 0.333381 0.155376 0.282004
25200 2.0368110600000007 8.68778505 -3.843558 -0.653983 -0.333723 0.372942
25220 0.11271690000000001 7.954458120000001 -3.175497 -0.489606 0.485494 0.225626
25240 -1.67681349 7.9330527 -1.81706706 0.420267 0.406731 -0.046724
25260 -2.6716455900000002 8.48151018 -0.9050215500000001 0.781183 -0.68134 -0.25324800000000003
25280 -2.84707782 9.381293190000001 -0.34038738 0.271375 -1.403761 -0.302885
25300 -2.3951703600000003 11.1227742 -0.62659413 -0.446868 -1.4460309999999998 -0.298234
25320 -1.6064561700000002 12.00592926 -1.3760879400000001 -0.528772 -0.937525 -0.319754
25340 -0.8119148400000001 11.83977729 -1.6573504500000003 -0.068905 -0.315545 -0.416684
25360 0.45011223 10.508746680000002 -1.41844752 0.441011 0.116367 -0.444654
25380 1.5932911500000002 9.28489032 -0.65787822 0.509995 0.256807 -0.460375
25400 1.57008069 8.625216870000001 -0.21794877000000001 0.152937 0.284884 -0.512043
25420 1.24435926 7.406147790000001 -0.30985866000000006 -0.145869 0.37699 -0.6424350000000001
25440 1.4684490900000002 6.165231840000001 -0.99872667 -0.168525 0.479653 -0.721773
25460 2.19503655 6.22794717 -1.4265309600000002 -0.079985 0.477213 -0.721152
25480 1.99145943 7.044649290000001 -0.9632439 -0.020145 0.513163 -0.705825
25500 1.53730548 9.27022437 -0.42437079 0.105066 0.640393 -0.663453
25520 0.5987533500000001 11.36048031 0.01975734 0.25525 0.7149810000000001 -0.532176
25540 -0.2832147 12.687616349999999 0.5363323200000001 0.376812 0.662623 -0.331502
25560 0.36704115 12.3954255 0.59485878 0.385865 0.402265 -0.231761
25580 1.4331232800000002 8.8814835 -0.8792703000000001 0.271608 0.103478 -0.2717
25600 3.32743428 6.671476889999999 -3.97333449 0.248706 -0.08468400000000001 -0.349599
25620 2.23859295 10.15802937 -2.43528345 0.402969 -0.195953 -0.363334
25640 -1.88472663 15.235322400000001 0.24803604 0.470019 -0.212248 -0.342549
25660 0.72389952 14.066549190000002 -2.1254346 0.356989 -0.183154 -0.327352
25680 4.0359026700000005 7.41961692 -6.3738905400000005 0.212991 -0.162466 -0.314498
25700 3.66901848 7.688008710000001 -6.1631325 0.17820899999999998 -0.26477399999999995 -0.274017
25720 1.7893832400000003 9.345663270000001 -3.7643716800000004 0.397731 -0.32613400000000003 -0.038465
25740 1.39464846 9.06590169 -2.0460913200000004 0.395694 -0.399032 0.344038
25760 1.5181465500000002 9.906098759999999 -1.07865855 -0.032557 -0.346047 0.252316
25780 1.73729214 10.688377590000002 -0.8732862 -0.421768 0.148526 -0.013819
25800 2.13859962 9.43548363 -1.2732497100000002 -0.310568 0.426231 -0.027285000000000004
25820 2.21584356 8.63524269 -1.3515433200000002 -0.153979 0.458361 0.060294000000000014
25840 1.91616768 8.39813499 -1.06503246 -0.273702 0.004679 0.132678
25860 2.18276424 7.94053773 -0.7674559200000002 -0.439925 -0.6044149999999999 -0.050368
25880 2.17093338 7.0880585400000005 -1.1183203800000001 -0.639827 -0.979667 -0.340772
25900 1.454823 6.631059690000001 -1.4437475100000001 -0.739445 -1.034957 -0.546496
25920 0.13022775 6.34111533 -1.6527103200000002 -0.645442 -0.930139 -0.466925
25940 -0.66851226 6.500979090000001 -1.8050988600000002 -0.401976 -0.432122 -0.012936
25960 -1.27145448 7.16231043 -1.9176587999999999 0.043212 0.225479 0.58433
25980 -1.5519714300000003 8.01209187 -2.1174983099999998 0.119024 0.239174 0.8230559999999999
26000 -1.4804172899999999 8.943747570000001 -2.32930602 -0.082344 -0.238177 0.7581680000000001
26020 -1.8004587300000001 9.855351630000001 -1.79955621 -0.052062 -0.525339 0.6166739999999999
26040 -2.4525 10.482553979999999 -1.02506652 0.054028 -0.551816 0.486057
26060 -2.4676172100000002 10.6659225 -0.5825864700000001 0.0008810000000000002 -0.475063 0.518703
26080 -2.1999709800000002 10.987150950000002 -0.45549792000000006 -0.143165 -0.343012 0.6542600000000001
26100 -1.8934084800000002 11.37289977 -0.7619132700000001 -0.368812 -0.142284 0.735748
26120 -1.5756233400000001 12.02928687 -1.19886048 -0.54146 0.080124 0.6776409999999999
26140 -0.8238830400000001 12.6817794 -2.0073222 -0.464797 0.230275 0.6245729999999999
26160 0.05478885000000001 13.020371550000002 -4.11628581 -0.26714 0.297745 0.6301399999999999
26180 0.7146094500000001 13.05136134 -5.9478814799999995 -0.096394 0.28552 0.608916
26200 0.15193728 13.782893040000001 -4.110448860000001 -0.018971 0.30701300000000004 0.495129
26220 -0.3125466 14.12163234 -2.0764827 -0.106828 0.5433720000000001 0.338252
26240 2.35295793 12.84539058 -2.33184681 -0.265342 0.745807 0.201221
26260 4.58076969 9.99336852 -3.06292725 -0.506993 0.732268 0.067091
26280 3.97528668 7.63622172 -4.10461191 -0.667295 0.631789 0.025508000000000003
26300 2.29307769 7.399408320000001 -4.33588266 -0.269702 1.125362 0.125929
26320 0.21749751 7.53428601 -3.57366528 -0.282542 0.965379 0.450784
26340 -1.3397124600000003 8.104443210000001 -2.46312423 -1.080511 0.5121939999999999 0.454336
26360 -2.5583302800000003 9.11783583 -1.3522888800000001 -0.633767 0.782959 0.55325
26380 -3.4645486500000002 10.33810173 -0.95531742 0.703771 0.952858 0.32950300000000005
26400 -3.20962599 11.87959608 -1.8160272000000002 1.6484740000000002 0.375075 -0.121425
26420 -1.8372756600000002 11.826004049999998 -2.75920965 1.42838 -0.261887 -0.215082
26440 -0.18800865000000003 10.14710103 -2.5990417800000003 0.655366 -0.634152 -0.223209
26460 1.02761712 7.9339552200000005 -1.30723155 -0.000417 -0.722696 -0.156105
26480 1.5337150200000003 6.95438748 -0.22737618 -0.297501 -0.635207 -0.198885
26500 1.3835729700000001 6.78553776 0.15942230999999998 -0.277945 -0.430297 -0.310106
26520 1.1951130600000002 6.665492790000001 -0.01002582 -0.087301 -0.336931 -0.380465
26540 1.3614219900000002 6.65995014 -0.30326634 -0.026852 -0.259061 -0.459191
26560 1.5732297000000002 7.29014454 -0.64426194 -0.039889 0.01854 -0.604916
26580 1.8498520800000002 8.16461775 -0.6665600700000001 0.127967 0.446701 -0.730342
26600 1.75121253 8.83073637 -0.03907323000000001 0.307394 0.700779 -0.7550520000000001
26620 1.25753409 9.35958366 0.84289482 0.321368 0.731593 -0.747516
26640 0.7762849200000002 9.49236201 1.52218827 0.31040300000000004 0.6167779999999999 -0.7965840000000001
26660 0.5321434500000001 9.19792467 1.81138707 0.306895 0.528453 -0.816792
26680 0.5396284800000001 9.54519867 1.4365665900000002 0.335638 0.593018 -0.737625
26700 0.65967345 10.534792229999999 0.6710530499999999 0.379164 0.6627 -0.618838
26720 0.5999501700000001 11.50941573 -0.28245933 0.375091 0.620556 -0.466056
26740 0.82284318 11.22620103 -1.5964303499999999 0.366348 0.451811 -0.350533
26760 3.07370844 10.655886870000002 -3.8838280500000004 0.405259 0.188152 -0.250579
26780 1.4633577 14.18240529 -0.38679849 0.458753 0.043913 -0.1902
26800 -0.61207533 17.403263730000003 1.7907272100000002 0.5354899999999999 0.061613 -0.154435
26820 1.58355963 14.92950546 0.017667810000000003 0.5618890000000001 0.027325 -0.127502
26840 3.25019034 9.155408130000001 -3.4281731700000004 0.511482 -0.035333 -0.132046
26860 1.28597328 8.63434017 -3.88876248 0.44515 -0.052244000000000006 -0.107919
26880 0.37946061000000003 8.56279584 -2.82358287 0.407316 -0.090749 -0.036563
26900 1.2507946200000002 8.08139952 -2.03276934 0.3571 -0.218912 0.089301
26920 2.53991691 8.71068159 -1.80120429 0.398688 -0.06629 0.247493
26940 2.93210109 9.505379880000001 -1.8365301 0.266198 -0.136982 0.458166
26960 2.8455867 9.61061175 -1.96720911 -0.078775 -0.152137 0.28486
26980 2.4704621100000006 9.65806272 -1.4545287000000002 -0.312838 0.154609 -0.031225
27000 1.7112367800000001 10.378813229999999 -0.4176313200000001 -0.076954 0.428572 -0.016041999999999997
27020 1.3069274400000002 10.48808682 0.14235291 0.238794 0.542018 0.111
27040 1.4359681800000001 9.13684761 -0.18291726 0.22702600000000006 0.22713000000000005 0.279032
27060 1.44838764 7.3805535 -0.93210696 -0.052343 -0.326448 0.163491
27080 1.14706368 6.336769500000001 -1.2772914300000002 -0.432788 -0.719324 -0.091832
27100 0.5288472900000001 5.70792888 -1.2939095699999998 -0.618101 -0.87754 -0.324728
27120 -0.31374342 5.816604060000001 -1.26427356 -0.5125970000000001 -0.901353 -0.321824
27140 -0.8644572 6.4235880000000005 -1.40722488 -0.33 -0.6461439999999999 -0.099753
27160 -1.2271525200000002 7.52680098 -1.7937192600000003 -0.032933 -0.135351 0.309728
27180 -1.52054019 8.494086600000001 -2.10147858 0.252473 0.099798 0.663933
27200 -1.9157164200000003 9.059613480000001 -2.16973656 0.257196 -0.222139 0.715653
27220 -2.37615858 9.329947650000001 -1.6151380200000003 0.182485 -0.593148 0.5874199999999999
27240 -2.50669044 9.30136131 -0.94453623 0.134105 -0.567955 0.4567270000000001
27260 -2.30340762 9.55583271 -0.9412400700000001 0.027989 -0.437633 0.459024
27280 -2.04340338 9.950704830000001 -0.83660661 -0.118397 -0.322734 0.623428
27300 -1.80419634 10.43794791 -0.5351355 -0.248535 -0.164173 0.777208
27320 -1.5976271700000002 10.99224234 -0.5089428 -0.381341 -0.011493 0.805995
27340 -1.4280318900000002 11.52273771 -0.9798620400000001 -0.400454 0.041705 0.838908
27360 -0.5936619599999999 12.439129049999998 -1.59133896 -0.256312 0.066768 0.839883
27380 0.621954 13.882582260000001 -4.43721996 -0.129197 0.055855 0.794851
27400 0.93750246 14.967823319999999 -5.55060591 -0.207098 -0.0033060000000000003 0.738835
27420 -0.44157753 15.143412510000001 -3.8347290000000003 -0.461663 0.089091 0.497657
27440 -0.34083863999999997 14.355895140000001 -2.3254114500000003 -0.497244 0.260546 0.276067
27460 2.04340338 12.61875996 -2.7690883200000003 -0.370372 0.372384 0.169988
27480 3.31710435 9.77692068 -3.91989942 -0.296526 0.551534 0.060247
27500 3.06742023 7.419175470000001 -4.4999451000000015 -0.067285 1.119093 0.186103
27520 2.18515788 6.43197555 -4.195923390000001 -0.406954 0.742417 0.37222
27540 0.44202879000000006 6.63180525 -3.32922951 -0.861344 0.413165 0.2541
27560 -1.10979549 7.3389394800000005 -2.3376935700000003 -0.17113699999999998 0.7638020000000001 0.148445
27580 -2.3363397900000002 8.16597153 -1.66528674 1.001155 0.816721 0.017697
27600 -3.0341937600000004 9.75865446 -1.87934094 1.522568 0.058369 -0.198811
27620 -2.98808676 11.78424288 -2.82627081 1.042872 -0.6321140000000001 -0.269643
27640 -1.86871671 12.194094870000002 -3.5173853100000003 0.251296 -0.8265530000000001 -0.242877
27660 -0.19175607 11.07801117 -3.14870589 -0.279666 -0.7236020000000001 -0.220012
27680 1.05620346 9.4863681 -2.07513873 -0.488424 -0.429835 -0.243211
27700 1.4319264600000001 8.1730053 -1.18748088 -0.432163 -0.090981 -0.315891
27720 1.60420968 7.50733794 -0.5951628900000002 -0.25114000000000003 -0.04004 -0.424719
27740 1.5375997800000003 7.45120512 -0.42466509 -0.206039 -0.112084 -0.562112
27760 1.66528674 7.3965732299999996 -0.84873177 -0.234301 0.05709 -0.75267
27780 1.72860048 7.4269548 -1.27444653 -0.241038 0.368531 -0.841778
27800 1.2979512899999999 7.613021070000001 -1.4359681800000001 -0.15628599999999998 0.471571 -0.8423870000000001
27820 1.01728719 8.053705890000002 -1.12536396 0.053713 0.474927 -0.798195
27840 0.7132654800000001 8.589734100000001 -0.6255444600000001 0.277098 0.442792 -0.681226
27860 0.30821058 8.97339339 0.09744273000000002 0.35727800000000004 0.453378 -0.468103
27880 0.43289568 9.402698610000002 0.7580285100000002 0.341445 0.479159 -0.24178400000000005
27900 0.9093575700000001 9.88380063 0.6761444400000001 0.311233 0.529889 -0.114941
27920 1.42698222 10.603197360000001 0.19100070000000002 0.355037 0.578597 -0.079446
27940 1.8571899600000001 11.25300195 -0.43574058 0.410211 0.499621 -0.09071
27960 3.2229479700000003 10.46339505 -3.43355886 0.418233 0.379242 -0.096909
27980 4.440967379999999 13.04956611 -3.98471409 0.428207 0.218375 -0.103043
28000 0.41149026 15.619717440000002 -0.29637972 0.406122 0.044841000000000006 -0.110452
28020 0.28186092 14.96722491 -0.73258137 0.33278 -0.1328 -0.111805
28040 2.3216738400000003 10.86515379 -3.09092499 0.322804 -0.226467 -0.122437
28060 2.36373912 8.123602140000001 -4.4506989 0.395039 -0.293841 -0.11971
28080 1.29630321 8.50530924 -3.6612391500000006 0.47614 -0.277131 -0.106346
28100 1.00246428 8.17270119 -2.58901596 0.552963 -0.219036 -0.049268
28120 1.81078866 8.381968109999999 -2.23814169 0.770349 -0.170155 0.05901
28140 3.010689 9.53067987 -2.4382755 0.504818 -0.196599 0.241992
28160 3.8648162700000004 10.21894947 -2.65817646 -0.094049 -0.234191 0.039167
28180 4.086502650000001 9.938736630000001 -2.48857137 -0.511351 0.062927 -0.10833800000000003
28200 3.37697478 9.81090252 -1.5203930399999999 -0.372383 0.35541500000000004 -0.113083
28220 2.1248361900000003 9.59504328 -0.44577621000000006 -0.096162 0.385134 -0.058849
28240 1.11338595 8.22763719 -0.35326791 0.0040030000000000005 0.353907 -0.062382000000000014
28260 0.60683679 6.916962330000001 -0.9442321200000001 -0.11478800000000003 0.173623 -0.162326
28280 0.12288987000000001 6.55890714 -1.49329782 -0.37673 -0.048773 -0.26321500000000003
28300 -0.44277435000000004 6.784488090000001 -1.95118938 -0.5915050000000001 -0.212778 -0.355304
28320 -1.11817323 6.995854350000001 -2.1112101 -0.579836 -0.260623 -0.388276
28340 -1.23134139 7.024744800000001 -1.99430433 -0.526805 -0.188938 -0.245924
28360 -0.73302282 7.2994248 -1.88488359 -0.622201 0.010466 0.053324
28380 -0.26853894 7.910597610000001 -1.70764632 -0.56419 0.230357 0.424121
28400 -0.16525926000000002 8.431969680000002 -1.63369854 -0.283943 0.123085 0.633451
28420 -0.6135762600000001 8.769512160000001 -1.4088729600000003 -0.008733 -0.115469 0.644225
28440 -1.1027519099999998 9.067392810000001 -1.31426532 0.103479 -0.151764 0.5660069999999999
28460 -1.5667943400000004 9.20720493 -1.15454871 0.101868 -0.126889 0.474096
28480 -2.11046454 9.437121900000001 -1.0578515400000001 0.097543 -0.052654999999999993 0.561565
28500 -2.37061593 10.10054277 -0.92686842 0.086138 0.094099 0.635005
28520 -2.4411204 10.77280245 -0.87718077 0.021486 0.214599 0.660036
28540 -2.13216426 11.22665229 -0.86639958 -0.005353 0.154065 0.636425
28560 -1.1981051100000002 11.89157409 -1.2669614999999999 0.007936 0.002839 0.614279
28580 0.3634408800000001 12.65618511 -3.19405752 -0.050101 -0.103439 0.60226
28600 1.89072054 13.27244931 -5.3115558300000005 -0.223669 -0.105721 0.524138
28620 2.16734292 14.638658580000001 -3.93277014 -0.48536 -0.058507 0.399404
28640 1.0464719400000002 15.725998980000002 -3.29285403 -0.650644 0.072535 0.2731
28660 1.58370678 14.936990490000001 -3.22354638 -0.673276 0.22402600000000006 0.237496
28680 3.0169772100000003 12.988489050000002 -3.88067904 -0.7743260000000001 0.223587 0.168425
28700 2.74947813 10.05369021 -4.51281582 -0.73298 0.393922 0.15995
28720 1.9483444800000003 7.82452467 -4.585409820000001 -0.706045 0.560641 0.268883
28740 0.97312257 6.693480720000001 -4.00492269 -1.215091 0.05322 0.264909
28760 0.32631984 6.82535655 -3.1584276000000004 -0.8986959999999999 0.296684 0.377902
28780 -0.31285071000000003 7.66136475 -2.31613119 0.43346 0.644807 0.344032
28800 -0.9806076 8.47746846 -2.10896361 1.327848 0.164658 0.02936
28820 -1.5947822700000003 9.5612184 -2.28469995 1.187061 -0.517884 -0.189734
28840 -1.79087436 10.894044240000001 -2.55443571 0.636519 -0.8617739999999999 -0.293552
28860 -1.6522688700000001 11.4498396 -2.5924592700000004 0.251238 -0.8648 -0.268465
28880 -1.09407006 10.643918670000001 -1.98517122 -0.002124 -0.740346 -0.269326
28900 -0.05403348 8.76652011 -1.4115609000000002 -0.174083 -0.608463 -0.333722
28920 1.00066905 7.779624300000001 -1.15200792 -0.217052 -0.503646 -0.401454
28940 0.9586037700000001 7.75178352 -0.8659483200000001 -0.22665900000000005 -0.548179 -0.445261
28960 0.7536826799999999 7.62694146 -0.5333402700000001 -0.266764 -0.510514 -0.50541
28980 1.2328325100000002 7.341333120000001 -0.5959084500000001 -0.295775 -0.162806 -0.5872430000000001
29000 1.9309807800000003 7.310049030000001 -0.9003814200000001 -0.23596 0.275025 -0.639729
29020 2.18590344 6.8214619800000005 -1.31606055 -0.094763 0.559103 -0.674358
29040 1.86437088 7.027736850000001 -1.08509391 0.090437 0.67467 -0.697782
29060 0.7741855799999999 7.75193067 -0.40101318 0.213261 0.665872 -0.7353689999999999
29080 -0.2371077 8.55052353 0.31674527999999996 0.243629 0.566584 -0.707255
29100 -0.40041477000000003 8.967399480000001 0.7036909200000001 0.248498 0.5343220000000001 -0.635609
29120 -0.11152008000000001 9.67797702 0.46778004 0.273859 0.561601 -0.553214
29140 0.63228393 10.645262640000002 -0.20432268 0.290277 0.557779 -0.411021
29160 0.6854247 11.681404650000001 -0.37377081000000006 0.294264 0.414388 -0.253781
29180 1.68279759 11.80550115 -2.43004491 0.27368000000000003 0.292274 -0.067897
29200 3.90268287 12.831617340000001 -3.04391547 0.345632 0.28512600000000005 0.058665
29220 0.7478457300000001 16.21817649 0.10568313 0.439444 0.28791700000000003 0.078544
29240 -0.210915 17.31733794 0.34832367 0.5099100000000001 0.230424 0.009676
29260 2.5891631100000003 12.68327052 -2.02259637 0.5089 0.120134 -0.114104
29280 3.0557463300000003 10.07509563 -3.3467403600000005 0.36509 0.039132 -0.245327
29300 1.6347482100000001 9.995310900000002 -2.8331574300000004 0.15808 -0.043998 -0.322511
29320 1.2578382000000001 8.70964173 -2.01375756 0.004255 -0.072283 -0.308594
29340 1.96406991 7.897275629999999 -1.81512468 0.054583000000000007 -0.08279500000000001 -0.12129
29360 2.76280011 8.089924410000002 -2.3215266900000002 0.039414 -0.112548 0.13928800000000002
29380 3.2238504900000002 8.38825632 -2.90096415 -0.023639 0.01797 0.055359000000000005
29400 3.19555845 8.67595419 -3.0397266000000003 -0.069023 0.202011 -0.108631
29420 2.67329367 9.41961105 -2.47256145 0.100906 0.33218600000000004 -0.04245
29440 1.7269622100000002 10.277780040000001 -1.5069141000000001 0.08308099999999999 0.466213 0.022416
29460 1.13852898 10.15743096 -0.82478556 -0.204979 0.313477 0.106057
29480 1.281186 9.174724020000001 -0.58858038 -0.557266 -0.067343 0.007944
29500 1.85314824 8.004901140000001 -0.6203059200000002 -0.826391 -0.498367 -0.127979
29520 1.9260463500000002 6.75111447 -0.85786488 -0.883117 -0.694617 -0.28515300000000005
29540 1.5416415 5.78531997 -1.2775955399999999 -0.5810029999999999 -0.733698 -0.364177
29560 0.7352693100000001 5.191353899999999 -1.46799783 -0.261151 -0.6448149999999999 -0.225324
29580 -0.45714600000000005 5.29029756 -1.6211319300000002 -0.242172 -0.385136 0.086396
29600 -1.32564492 6.3502484400000005 -2.12393367 -0.356518 -0.124962 0.389707
29620 -1.92349575 7.7368134600000005 -2.5384257900000002 -0.324824 -0.035164999999999995 0.5500470000000001
