time Ax Ay Az Gx Gy Gz
20 0.7836228 6.02152515 -4.6827152100000005 -1.542081 0.961019 -1.094112
40 1.7205268500000002 6.865626600000001 -3.6811436400000006 -1.600552 0.687887 -0.93821
60 1.0961694000000002 8.57656908 -3.9083726700000003 -1.55236 0.416482 -0.774087
80 -0.23201631 10.96335189 -4.33348902 -1.388046 0.277041 -0.677689
100 -1.3531815900000002 12.75677685 -4.23739026 -1.272041 0.327311 -0.5626439999999999
120 -1.33073631 12.288094290000002 -3.5307072900000005 -1.115627 0.4981680000000001 -0.535064
140 -0.31225230000000004 10.484045100000001 -3.02819985 -0.934647 0.765516 -0.416639
160 0.38259981000000004 9.138495690000001 -2.8225332 -0.70363 0.8946639999999999 -0.413054
180 1.7655743700000002 8.23227732 -2.3772082500000002 -0.654415 1.008143 -0.329534
200 2.64978891 9.25614702 -1.9978947900000001 -0.619156 0.996396 -0.352774
220 2.3792977800000004 10.100846879999999 -1.53955197 -0.674366 0.752905 -0.419077
240 1.91990529 10.41339348 -1.4542245900000002 -0.822633 0.46178 -0.480628
260 1.13763627 10.19620008 -1.39495257 -0.7761520000000001 0.286141 -0.553786
280 0.75638043 9.17277183 -0.77059512 -0.601407 0.212125 -0.57704
300 0.6102801 7.695199440000001 -0.39038895 -0.480015 0.203007 -0.533451
320 0.39352815 6.82490529 -0.29907747 -0.447316 0.204681 -0.447767
340 0.04086846000000001 6.35324049 -0.14070483 -0.484174 0.148055 -0.374245
360 -0.17258733 6.95438748 -0.17963091 -0.534858 0.019367 -0.38298
380 0.40789980000000003 7.07548212 0.03742515 -0.481036 0.143744 -0.364603
400 0.5683717800000001 8.212971240000002 0.2168991 -0.313833 0.26374200000000003 -0.414864
420 0.7851139200000001 8.31805596 0.24533829000000001 0.057888 0.212028 -0.325675
440 0.6559358399999999 9.290580120000001 -0.9500788800000001 0.311215 -0.416107 -0.10732
460 0.02439747 9.584114940000001 -1.90373841 0.183832 -0.805212 0.07281900000000001
480 0.22139208000000002 9.59549454 -1.70450712 0.131711 -0.485638 0.120115
500 0.8478390600000001 10.47506895 -1.4668010100000002 0.230886 -0.08518200000000001 0.056201
520 1.1831350500000002 10.77369516 -1.6244182800000002 0.350625 0.567874 -0.058099
540 1.4426978400000001 10.568028510000001 -1.8672157800000002 0.8750819999999999 1.173277 -0.061621
560 1.32669459 9.723632760000001 -1.5477825600000001 1.496922 1.189124 0.231122
580 1.02626334 8.768619450000001 -1.34645193 1.823129 0.814721 0.8694729999999999
600 1.4555685600000001 9.930653190000001 -0.93764961 1.820905 0.5371020000000001 1.565226
620 0.40430934 10.43525016 -0.42825555000000004 2.375578 0.143786 1.67429
640 -1.7830950300000001 12.583287 0.8514295199999999 2.73584 -0.646834 1.6746150000000002
660 -0.96444072 13.154346720000001 2.33304363 2.483769 -1.262438 1.5956629999999998
680 -1.17341334 14.28703875 0.95845662 2.014645 -1.648754 1.374963
700 -3.3205476600000003 15.7590783 0.20387142 1.615118 -2.095456 1.276605
720 -3.6122872500000005 14.95076373 0.17378415000000003 1.41866 -2.307 1.335324
740 -2.9817985500000006 14.00712021 0.11420802000000001 1.7041959999999998 -2.332743 1.398241
760 -2.5735946400000005 13.41824553 0.50055525 2.109373 -1.915487 1.3962629999999998
780 -0.9666872100000001 12.63896856 -0.9316655100000001 2.351857 -1.623442 1.146551
800 0.97027767 12.691059659999999 -2.65921632 2.302165 -1.865836 0.801478
820 2.51925705 12.689264430000001 -3.0982530600000002 2.218967 -2.22404 0.6753060000000001
840 3.1665110400000005 10.568921220000002 -0.8255311200000001 2.089857 -2.245887 0.6562720000000001
860 2.3716656 8.676856710000001 -1.18238949 1.964535 -1.923567 0.613323
880 1.59074055 9.73246176 -1.5323612400000002 1.90018 -1.849487 0.525185
900 -0.02529999 12.546009 -1.10934423 1.688378 -1.752807 0.507558
920 -1.5506274600000003 13.43411811 -1.35513378 1.364658 -1.383076 0.501618
940 -1.43970579 12.28974237 -1.45437174 0.971163 -0.886272 0.480073
960 -1.55706282 9.87735546 -0.96848244 0.468936 -0.172674 0.416899
980 -1.2982455900000003 8.50336686 -1.2057471000000002 -0.077598 0.400522 0.338639
1000 -0.88630407 8.16477471 -2.02080114 -0.503895 0.5901 0.185868
1020 -1.3186111500000002 7.572603870000001 -2.19683178 -0.819058 0.631019 0.083201
1040 -1.15425441 6.83193906 -1.2693649500000002 -1.062648 0.646416 0.173347
1060 -0.11480643 6.28199046 -0.9767228400000001 -1.201887 0.706892 0.35496300000000003
1080 0.34832367 5.52785652 -2.17452384 -1.133358 0.929686 0.523935
1100 0.40280841 4.323011940000001 -2.93929182 -0.768899 1.124334 0.814651
1120 -0.42736284 4.072876560000001 -2.98838106 -0.338425 0.7341310000000001 0.786111
1140 -1.22220828 3.90103479 -3.1153224600000002 0.202164 0.529205 0.416272
1160 -2.2040127000000003 4.5771792300000005 -3.5375939100000005 -0.992641 -0.020609 -0.644636
1180 -2.36418057 4.94017866 -3.92678604 -1.373957 0.8074720000000001 -0.6707930000000001
1200 -2.4277984200000002 4.574187180000001 -5.41200042 -1.678562 1.079554 -0.516241
1220 -1.8928100700000001 4.56176772 -6.063737580000001 -1.516912 0.956516 -0.5235
1240 -0.29788065 4.8458751300000005 -6.571630710000001 -1.410557 0.8009430000000001 -0.604811
1260 0.69664734 4.495452120000001 -6.511161870000001 -1.341105 0.773208 -0.655565
1280 1.3697997299999998 4.76773848 -6.81293709 -1.37139 1.072991 -0.739482
1300 2.09040309 5.697903060000001 -7.36109046 -1.6634330000000002 1.556798 -0.795553
1320 2.7568160100000005 5.648352750000001 -7.91583615 -2.042063 1.8011849999999998 -0.577389
1340 1.18389042 6.251599080000001 -7.960000770000001 -2.176711 1.75276 -0.338985
1360 0.15567489 12.21474492 -9.604921950000001 -2.109016 1.683036 -0.277534
1380 1.09347165 18.342855720000003 -9.294170580000001 -1.945487 1.720819 -0.543496
1400 0.28500993 16.21473318 -8.080349850000001 -1.852215 1.5840299999999998 -0.7819510000000001
1420 0.49816161000000003 8.89765038 -6.60426858 -1.827464 1.547951 -1.104335
1440 0.24473988000000002 6.255189540000001 -5.716463580000001 -1.724968 1.402303 -1.2668700000000002
1460 0.43020774 6.079757310000001 -4.62373749 -1.603722 1.131097 -1.215469
1480 0.8427476700000002 6.93567981 -3.97528668 -1.366413 0.962202 -1.009565
1500 0.7952967000000001 8.785679040000002 -3.30811839 -1.129776 1.014241 -0.908634
1520 0.19414971 11.23772778 -3.41469423 -0.976196 1.171751 -0.737916
1540 -0.93555027 13.21257888 -3.83353218 -0.842744 1.08978 -0.601214
1560 -0.8297199900000001 13.249994220000001 -3.70285317 -0.841756 0.882919 -0.552873
1580 0.21450546 11.47947561 -2.8999242900000004 -0.880899 0.489937 -0.545165
1600 1.03015791 9.23564412 -1.9378674 -0.649895 0.062265 -0.620983
1620 1.66559085 8.40411909 -1.70869599 -0.383467 -0.029108 -0.6457109999999999
1640 1.91870847 7.628589540000001 -1.1018592 -0.04864 0.022622 -0.552639
1660 1.3638156300000002 8.235573480000001 -0.15373251000000002 0.155105 0.032606 -0.295924
1680 0.27063828 8.51908248 0.56282913 0.06462999999999999 -0.012406 -0.150152
1700 -0.6497947800000001 8.4798621 0.66820815 -0.084464 -0.189787 -0.15096600000000002
1720 -0.68348232 7.618710870000001 0.52286319 -0.216465 -0.458453 -0.248752
1740 0.11630736000000001 6.712492500000001 -0.02215098 -0.386139 -0.530046 -0.312871
1760 0.27827046 6.784193790000001 -0.21735036 -0.409234 -0.349368 -0.454269
1780 0.54890874 7.15662063 0.16375833 -0.07528 -0.228606 -0.573868
1800 1.09975986 7.28041302 0.11106882000000001 0.435162 -0.247888 -0.457046
1820 1.11592674 8.54244009 -0.70833105 0.484399 -0.369823 -0.37643
1840 1.7148370499999999 9.59953626 -1.3696525800000003 0.343345 -0.153197 -0.34778200000000004
1860 2.34128403 10.419828840000001 -1.7923752900000003 0.59095 0.249093 -0.200222
1880 3.1127816700000004 11.47753323 -1.6184341800000002 1.296642 0.983297 0.195804
1900 3.1784890500000005 10.79959356 -1.07191908 1.868507 1.292305 0.745264
1920 2.6779338 9.92810259 -0.88765785 2.002182 1.046404 1.383173
1940 1.86391962 9.644142330000001 -0.59485878 1.968276 0.5772510000000001 2.052244
1960 1.02731301 9.87047865 -0.49921128000000003 2.624107 0.039221 2.2989330000000003
1980 0.1588239 11.031462720000002 -0.42361542 2.674342 -0.482668 2.231587
2000 -1.7166322800000002 12.67773768 0.01482291 2.239542 -1.0311629999999998 2.045518
2020 -1.9634715 15.133975290000002 1.0431855900000004 1.7498479999999998 -1.882284 1.6629009999999995
2040 -2.2927833900000003 16.44794631 1.76662404 1.569 -2.818681 1.558152
2060 -2.55892869 15.73767288 0.20283156000000002 1.688477 -3.164887 1.452608
2080 -3.4185888 15.2848629 -0.06167547 2.220042 -2.727468 1.360689
2100 -3.12266034 13.55670387 0.25312743 2.430961 -2.4582610000000003 0.989008
2120 -2.61042138 11.959979220000001 -0.31959018000000006 2.150261 -2.551812 0.917733
2140 -1.34674623 11.74277601 -1.9249966800000002 2.028236 -2.153026 0.930256
2160 0.07813665 12.0080286 -2.9334450600000004 1.921599 -1.573628 0.784559
2180 1.58849406 11.97509643 -2.36762388 1.868985 -1.7255790000000002 0.468192
2200 2.0378607300000002 10.74944484 -0.65533743 1.839395 -1.876946 0.252399
2220 3.2894107200000002 10.50066324 -1.1047041 1.579208 -1.695662 0.164891
2240 2.3601388500000002 12.713514750000002 -0.8809183800000001 1.034223 -1.220606 0.118815
2260 0.36194976 14.03151768 -1.7232147899999999 0.256206 -0.8289610000000001 0.08831
2280 -1.7899816499999999 12.24393948 -1.73069982 -0.273608 -0.33465 0.0092
2300 -2.19967668 10.300529430000001 -1.58580612 -0.53188 0.081866 -0.031594
2320 -2.07394191 8.45666145 -1.15799202 -0.778146 0.367127 -0.026202
2340 -2.35011303 7.12189323 -1.76932179 -0.8420690000000001 0.784295 0.134118
2360 -1.5383551500000001 5.31514629 -1.30273857 -0.319796 1.45343 0.444557
2380 0.65339505 4.68480474 -0.10612458 -0.358785 1.074377 0.4319520000000001
2400 1.1966139900000001 4.26178773 -1.97574381 -0.5375310000000001 0.000967 -0.042212
2420 0.11496339000000001 3.63414393 -2.76460515 -0.900207 0.384029 -0.15099
2440 -0.4192794 2.7780742800000002 -1.76587848 -1.286757 0.637372 -0.300361
2460 -0.42721569 3.5392419900000003 -1.7069007600000001 -1.846476 0.254745 -0.299508
2480 -0.48170043 3.81557007 -1.9999941300000001 -2.044255 0.722863 0.022182
2500 -1.8661661100000002 4.48961517 -3.7833834600000005 -1.775562 0.921145 0.0206
2520 -2.17272861 5.35915395 -5.920639110000001 -1.541521 0.976915 -0.009883
2540 -1.67441985 6.28917138 -7.308548100000001 -1.350577 1.314468 -0.140373
2560 -1.0538098200000001 6.02212356 -7.437735990000001 -1.543654 1.823059 -0.352813
2580 -0.06780672000000001 5.881124430000001 -7.5712599 -1.888937 2.198813 -0.779791
2600 1.36695483 6.38108127 -8.37583686 -2.179671 2.50257 -0.832417
2620 1.5660389700000001 5.68427697 -9.092241540000002 -2.141939 2.568678 -0.614321
2640 -2.8897415100000003 8.32853304 -8.727603839999999 -2.041489 2.255588 -0.72645
2660 -0.5929164 12.004290990000003 -6.1412758200000015 -1.962073 1.873875 -0.97537
2680 2.12527764 14.707819080000002 -6.1549019099999995 -1.7992669999999995 1.405134 -1.111432
2700 1.4672522700000001 21.010606740000004 -9.640404720000001 -1.689991 1.046758 -1.095255
2720 0.8454454200000001 9.88199559 -4.488114240000001 -1.496959 0.821198 -1.065844
2740 -0.66760974 5.3766648 -4.065989940000001 -1.205257 0.645622 -1.100969
2760 -0.77927697 4.904097480000001 -3.4405926300000003 -0.971854 0.677484 -1.012853
2780 -0.7093709100000001 5.66033076 -3.46304772 -0.970923 0.558635 -0.863144
2800 -0.48424122 8.108641890000001 -3.0774460500000003 -1.118195 0.439325 -0.735833
2820 0.32841918 11.13803856 -2.63257236 -1.097783 0.227289 -0.7418279999999999
2840 0.17274429 14.530728960000001 -2.5274974500000003 -0.959024 0.113336 -0.869967
2860 -0.7367702399999999 14.12641962 -1.5031764900000002 -0.673237 0.286115 -0.902376
2880 0.21555513 10.873688490000001 -1.66842594 -0.234112 0.426378 -0.662343
2900 1.46216088 8.92953288 -2.03965596 0.18012899999999998 0.34477800000000003 -0.329264
2920 2.0847132900000003 8.49887388 -1.16473149 0.348135 0.189956 -0.119589
2940 2.17018782 8.07047118 -0.08696565000000002 0.23925 -0.015446 -0.074153
2960 2.06540721 7.50599397 0.52181352 0.112829 -0.186301 -0.128228
2980 1.3591755 6.4692437400000005 0.65878074 0.031938999999999995 -0.254812 -0.240869
3000 0.79589511 6.17241276 0.30806343 0.026746 -0.050004 -0.305261
3020 -0.49007817000000004 6.62208354 -0.19310004 0.158694 0.063709 -0.351486
3040 -0.48529089000000003 6.6286660500000005 0.06107706 0.152338 -0.092087 -0.27976
3060 -0.22931856000000003 6.840473760000001 -0.22722903 0.011846 -0.219571 -0.245327
3080 -0.22992678000000003 7.78515714 -1.2407688000000001 0.054455 -0.005564 -0.253849
3100 0.17229302999999999 9.45044388 -1.45048698 0.172711 0.289786 -0.157262
3120 1.3076828100000002 11.614941900000002 -1.3855153500000001 0.371831 0.820092 -0.013409
3140 2.21389137 12.523112460000002 -1.55885805 0.778602 1.200897 0.307275
3160 2.8755170100000003 10.98550287 -1.5937326 1.261724 1.169569 0.795662
3180 3.19540149 9.78455286 -1.32953949 1.529114 0.795248 1.46458
3200 2.85935013 9.47335023 -0.69979635 2.039828 0.442318 1.90123
3220 2.18470662 9.621392940000002 -0.36104724000000005 2.397072 -0.15396500000000002 2.056177
3240 0.22199049 10.579545450000001 0.10733121 1.874634 -0.799796 2.044809
3260 -1.19242512 11.95099326 0.8445429000000001 1.316589 -1.564801 1.764154
3280 -1.7330934600000003 12.87592911 1.48401756 1.217776 -2.3054080000000003 1.643704
3300 -2.68047459 13.671216 0.7279314299999999 1.125729 -2.353097 1.6612810000000002
3320 -3.98710773 15.61642128 -0.35416062000000004 1.35536 -2.010014 1.712652
3340 -5.14973988 16.00336692 -0.5276504700000001 1.925407 -1.205666 1.7348310000000002
3360 -4.968617850000001 14.711262390000002 -1.21337928 2.443925 -1.002901 1.461524
3380 -3.7758984300000002 13.311071280000002 -1.4834191500000002 2.7575990000000004 -1.36165 0.8616969999999999
3400 -1.7554014000000002 12.20846652 -2.70427365 2.721926 -2.304004 0.256974
3420 0.51911577 11.0422341 -3.239262 2.323951 -2.763012 0.037933
3440 2.5821293400000003 10.134377460000001 -2.29532418 1.966942 -1.993576 0.004543
3460 2.92296798 9.74248758 -1.03974228 1.8983 -1.3733 -0.007412999999999999
3480 2.289192930000001 9.70716177 -2.1534225300000003 1.858361 -1.458456 0.010577
3500 1.2602318400000003 11.304494640000001 -1.3130685 1.512302 -1.403597 -0.088051
3520 -0.39577464 13.43411811 -0.19114785 0.94738 -1.171035 -0.214072
3540 -2.06990019 13.026963870000001 -1.48117266 0.29785900000000004 -0.5079100000000001 -0.314531
3560 -1.1247655500000002 12.125836890000002 -2.50413984 -0.337436 0.08556699999999999 -0.326138
3580 -1.48969755 10.4345046 -2.32915887 -0.8402350000000001 0.458184 -0.365379
3600 -1.3328258400000002 9.867928049999998 -2.6456000400000006 -1.158134 0.723399 -0.346575
3620 -1.3482471600000001 8.87744178 -2.37077289 -1.055756 1.28841 -0.006889
3640 -1.3521417299999998 7.15662063 -1.28986785 -0.314695 1.798764 0.127956
3660 -0.9798620400000001 5.291043120000001 0.06421626 -0.202847 1.151225 -0.006097
3680 0.6914088 4.04354466 -0.30117681 0.34274 0.873099 0.342038
3700 2.0460913200000004 3.54881655 -2.4438181500000002 -1.094214 1.218583 0.17239300000000002
3720 1.4094713700000001 3.8446076700000003 -3.7056980700000004 -1.751055 0.03202 -0.627568
3740 0.33246090000000006 3.0386769300000003 -3.67965252 -2.369123 0.359591 -0.225312
3760 -0.25716915 2.78555931 -3.25213272 -1.984909 1.0976780000000002 0.011434
3780 -1.90059921 4.54754322 -3.65225319 -1.639126 1.095515 -0.013921
3800 -2.25760473 4.97984049 -4.68480474 -1.178302 1.198781 -0.130476
3820 -2.35879488 5.67889128 -5.930969040000001 -1.379048 1.655231 -0.35038
3840 -2.1623986800000004 5.67709605 -6.43331952 -1.7334200000000002 2.241552 -0.680483
3860 -1.20529584 5.44238199 -6.343361820000001 -2.121075 2.88934 -0.901938
3880 0.18531090000000003 5.8384607399999995 -8.27135055 -2.213883 3.139009 -0.6540100000000001
3900 0.75562506 6.27046371 -10.63763046 -2.03351 2.663332 -0.6692319999999999
3920 -2.11704705 5.01187995 -8.75858382 -1.817357 2.0745150000000003 -0.926546
3940 -1.21711689 9.3556989 -7.449704189999999 -1.655088 1.500258 -1.04859
3960 2.92551858 15.923435040000001 -6.52044213 -1.486192 1.064109 -1.082103
3980 0.85322475 24.213493260000003 -11.260486980000001 -1.313223 0.857901 -1.079562
4000 1.65944979 10.89988119 -4.01075964 -1.278693 0.7807850000000001 -1.005515
4020 -0.45161316 4.1195819700000005 -3.25437921 -1.239931 1.047277 -0.816511
4040 -0.39742272 3.4940375100000005 -3.25033749 -1.116645 1.09099 -0.666154
4060 -0.43874244 4.10850648 -3.47517288 -0.899007 1.0744209999999998 -0.441355
4080 -0.72703872 7.257810780000001 -3.24734544 -0.698755 0.917578 -0.286999
4100 0.04475322 10.896437879999999 -3.02341257 -0.562357 0.752612 -0.176876
4120 0.38859372000000003 15.22349154 -2.5727019300000005 -0.31 0.740684 -0.076822
4140 -0.9165483000000001 15.081737040000002 -2.2290183900000002 -0.12931700000000002 0.902728 0.002213
4160 0.05852646 11.59054443 -1.9287342900000002 0.263708 0.8689469999999999 0.117165
4180 1.5627526200000001 9.462726 -1.8365301 0.707696 0.5144529999999999 0.204042
4200 2.39307102 8.577010529999999 -1.1653299000000001 0.70768 0.277944 0.208617
4220 2.8445370300000006 8.43151842 0.08622009 0.233537 0.091397 0.11795
4240 2.50698474 7.795035810000001 0.57210939 0.26072199999999995 0.050381 -0.037768
4260 1.48086855 6.9248986200000004 0.20896281000000003 -0.197706 -0.015742 -0.420104
4280 -0.22931856000000003 6.969053430000001 -0.32662395 -0.726454 -0.5683199999999999 -0.8354229999999999
4300 -0.5634275400000002 7.27397766 -0.40521186000000003 -1.08021 -0.011049 -1.093913
4320 -0.56717496 7.762859010000001 -0.38005902 -1.43533 0.7910520000000001 -1.039737
4340 -0.08816247 7.74025677 -0.6436635300000001 -1.240857 1.050481 -1.083577
4360 1.16308341 7.35675444 -0.83181933 -0.944032 1.197025 -1.224833
4380 2.42690571 7.41722328 -0.73017792 -0.473215 1.31663 -1.173627
4400 2.0240874900000003 8.13094002 -1.7639361 -0.057117 1.3354629999999998 -0.916508
4420 1.77126417 8.76367521 -1.39075389 0.482198 1.040498 -0.614329
4440 1.6387899300000002 9.53891046 -0.6475581 0.791966 0.720716 -0.30090300000000003
4460 1.5612516900000002 8.81277426 -1.00920375 0.90041 0.26197600000000004 0.039069
4480 2.0737849500000003 7.81524441 -1.5385023 1.031067 -0.269162 0.349378
4500 3.22115274 7.46019108 -1.13912739 1.497639 -0.560865 0.698046
4520 3.98500839 8.121806910000002 -3.2085763199999997 1.914018 -0.620188 1.052476
4540 2.09444481 10.68627825 -2.39651433 2.364793 -0.808735 1.4585860000000002
4560 -0.08277678 14.799719160000002 -0.27722079 2.507705 -1.122055 1.633038
4580 -0.98988786 18.409318470000002 0.9472339800000001 2.3029580000000003 -1.223114 1.508891
4600 -2.4706092600000003 16.51830363 1.92260304 1.780296 -1.1110719999999998 1.116264
4620 -1.7434233900000002 16.41321891 0.6453116099999999 1.259372 -1.262408 0.785944
4640 -0.42750999 17.52076791 0.34323228 1.277405 -1.128986 0.7047140000000001
4660 -0.8137100700000001 17.084271960000002 -0.2026746 1.210608 -0.958731 0.5437960000000001
4680 -0.66072312 15.041172690000002 -0.3094074 1.355352 -0.282954 0.58667
4700 -0.0691605 13.17994101 -0.7093709100000001 1.604038 0.818109 0.479105
4720 0.64156419 11.17890702 -1.54074879 1.474781 1.270073 0.253297
4740 1.2966073200000001 9.20720493 -2.57284908 1.398658 0.743855 0.046204
4760 2.0910015 7.67154753 -2.36149263 1.201778 0.33352800000000005 -0.000579
4780 1.57727142 7.29058599 -1.78534152 0.822407 -0.075151 -0.034752
4800 1.0418318100000001 7.526045610000001 -0.40400523 0.489299 -0.405131 -0.07618
4820 -0.08831943 8.08184097 -0.39383226000000005 0.248191 -0.707624 -0.144774
4840 -0.98569899 10.27553355 -1.16113122 0.089001 -0.619317 -0.245344
4860 -2.6964943200000002 12.907654650000001 -2.43274266 -0.148706 -0.384992 -0.296443
4880 -5.1919523100000005 13.70459943 -1.81751832 -0.428308 -0.188975 -0.322148
4900 -6.90289479 10.45111293 0.025751250000000003 -0.726743 0.285314 -0.390002
4920 -5.67679194 8.75109879 0.19743606000000002 -1.091203 0.8554309999999999 -0.3890050000000001
4940 -4.3283976299999996 7.52320071 -0.5171733900000002 -1.2862209999999998 1.205268 -0.326722
4960 -2.93001156 7.47395451 -1.6238198700000002 -1.21522 1.260825 -0.16286
4980 -1.1981051100000002 7.494163110000001 -3.68997264 -0.819685 1.218992 0.098466
5000 -0.9937824300000001 6.427933830000001 -3.0359889900000003 -0.348115 1.17715 0.29623
5020 -0.18831276000000002 4.81459104 -0.43948800000000005 -0.25682 1.195523 0.417554
5040 0.7369173900000001 3.6934159500000003 -0.75652758 -0.247824 0.527907 0.597933
5060 0.7478457300000001 3.78562995 -1.49433768 -0.330417 0.10892 0.752785
5080 0.9801661500000001 3.99055104 -2.17482795 -0.8623190000000001 0.242865 1.017022
5100 1.2481066800000002 3.44463435 -2.2589487 -0.982357 0.506657 0.687901
5120 0.5084915400000001 3.25198557 -2.55414141 -0.6875720000000001 0.225817 0.334602
5140 -0.46029501 4.153710960000001 -3.16023264 -0.328025 0.134606 0.720722
5160 -1.87290558 5.798494800000001 -4.12976475 0.083484 0.092255 0.03358
5180 -1.20858219 5.9433885 -4.48497504 -0.565742 1.49663 -0.8198549999999999
5200 -1.05216174 7.751332260000001 -5.55899346 -1.3351620000000002 2.993211 -1.185001
5220 -0.09160578000000001 9.480835260000001 -6.72880653 -1.97291 3.627682 -1.322728
5240 1.1394315000000002 11.377088640000002 -8.247845790000001 -2.123503 3.760577 -1.392317
5260 2.42735697 12.06131652 -9.15256323 -2.132696 3.403852 -0.8877229999999999
5280 3.4703856 10.971288180000002 -9.01200555 -1.8774990000000005 2.681264 -0.228058
5300 4.154309370000001 8.64258057 -7.763310270000001 -1.354021 2.534933 -0.05223
5320 3.41230059 6.593791500000001 -7.09509231 -0.965166 2.733505 0.035689
5340 1.3956981300000002 7.385046480000001 -5.313802320000001 -0.674991 2.990195 0.060888
5360 -0.28305774 8.566680600000002 -4.22182179 -0.498283 2.999729 -0.078895
5380 -2.7175956300000004 19.08187245 -3.35976804 -0.55293 2.53722 -0.252805
5400 -3.2618642400000004 29.911994730000004 -0.73586772 -0.773001 2.031844 -0.219511
5420 -4.312083600000001 9.52813908 3.0858336000000004 -0.678059 2.077127 -0.170836
5440 -6.21986373 3.0443667300000006 0.08067743999999999 -0.549679 2.350626 -0.213019
5460 -5.15677365 3.93965676 -1.6458237 -0.5097659999999999 2.175922 -0.247767
5480 -3.4271235 5.247339570000001 0.88465599 -0.399651 1.521429 -0.23975
5500 -1.8965574900000002 7.55164971 2.2080544200000003 -0.235586 0.750687 -0.245094
5520 0.46687752000000005 11.58336351 1.94879574 -0.242442 0.103311 -0.31695100000000004
5540 0.23560677000000002 14.938040160000002 1.9526903100000002 -0.302814 -0.13788599999999998 -0.419613
5560 0.03712104000000001 13.52541978 2.43423378 -0.38869 -0.326915 -0.4926100000000001
5580 -0.23950134000000003 9.643995180000001 1.40782329 -0.419766 -0.558118 -0.456211
5600 0.04431177000000001 7.50509145 0.03547296 -0.440833 -0.306454 -0.502614
5620 0.23381154 7.212753449999999 0.40146444000000003 -0.370547 -0.032123 -0.436245
5640 0.39712842 7.6092736499999996 0.8439444899999999 -0.243097 0.19811 -0.313873
5660 0.38395359 9.3354903 1.070271 -0.277433 0.7113619999999999 -0.231449
5680 0.6074352000000001 11.500586730000002 1.17669969 -0.254864 1.095405 -0.12068800000000003
5700 1.65495681 11.2152825 1.38267045 -0.118145 1.451458 -0.0358
5720 2.9240176500000006 9.920774520000002 0.7652094300000001 0.286493 1.260608 0.187325
5740 3.92423544 9.186996330000001 -0.46732878 0.73856 1.313948 0.308987
5760 4.00925871 9.13356126 -1.17774936 1.0982809999999998 0.809318 0.71807
5780 3.6904239000000003 8.915455530000001 -1.00231713 1.5335299999999998 0.446295 1.080498
5800 2.9660829300000007 8.71128 -0.7018858800000001 2.342179 0.11899 1.244663
5820 3.12295464 8.8903125 0.17573634 3.169709 0.092439 1.306025
5840 2.0868126300000003 9.286842510000001 0.36299943 3.751024 0.397769 1.169757
5860 0.81251325 9.15152337 0.26315325 3.57541 0.63185 0.593527
5880 0.9592021800000001 9.44012376 0.88391043 2.755352 1.381547 0.303759
5900 -0.44487369000000004 9.195678180000002 0.7960422600000001 2.353437 1.7036349999999998 0.5579810000000001
5920 -1.31471658 9.471555 0.8415508500000001 2.224102 1.746309 0.654231
5940 -0.58543137 10.22239278 1.1021535 2.300147 1.340163 0.657419
5960 -0.8692444800000001 10.770703110000001 0.74739447 2.234782 0.651762 0.506157
5980 -0.35820234 11.30554431 0.36419625 2.037824 0.565816 0.32543
6000 -0.44712018000000003 11.46136635 -0.24743763 1.415477 0.40416 -0.000245
6020 1.8815874300000002 13.14910818 0.88630407 0.827794 0.210069 -0.236973
6040 1.5712873200000002 13.288164929999999 1.5459873300000002 0.355394 0.154623 -0.347024
6060 0.74095911 12.362640480000001 0.28785483 -0.04573 0.306593 -0.44082
6080 0.07215255 10.41040143 0.46134468 -0.534547 0.366374 -0.581043
6100 -1.9347282000000001 10.15683255 -0.7667103599999999 -0.768145 0.5283939999999999 -0.669408
6120 -3.8648162700000004 11.217224880000002 -2.1155461200000003 -0.856126 0.903633 -0.6587529999999999
6140 -5.87498337 14.626533420000001 -2.94003738 -1.019903 1.362914 -0.553664
6160 -6.4391564699999995 17.886906540000002 -0.25566822 -1.1673129999999998 1.490587 -0.386078
6180 -4.30385301 12.87742023 -0.20087937 -1.1903709999999998 1.240857 -0.252391
6200 -1.5387966000000002 10.98385479 -1.51514469 -0.937435 1.073584 -0.199135
6220 -0.80921709 10.807529850000002 -2.11809672 -0.48036 1.060833 -0.07094400000000001
6240 -0.48873420000000006 9.493411680000001 -1.90119762 0.040310000000000006 0.8119460000000001 -0.086217
6260 0.04101561 7.588623600000001 -1.59972651 0.408409 0.089532 -0.099811
6280 0.40012047 5.85223398 -2.4255519300000006 0.245803 -0.526411 0.094259
6300 0.48094506000000004 5.14973988 -2.5246525500000003 -0.26395 -0.720512 0.324887
6320 0.66387213 4.79168469 -2.44920384 -0.17786300000000002 -0.642701 0.238863
6340 0.7165616400000001 4.32690651 -2.6952975 0.142663 -0.244358 0.7768390000000001
6360 0.07514459999999999 4.09069152 -3.65390127 0.119114 0.998497 0.611644
6380 -0.09385227000000002 4.00057686 -4.19113611 -0.366324 1.458097 0.11735
6400 0.63393201 4.8897356400000005 -3.80957616 -0.916028 2.220924 -0.493149
6420 1.27654587 5.779483020000001 -4.255499520000001 -1.728331 2.990791 -1.304181
6440 1.91930688 6.39694404 -5.04316404 -2.073931 3.107378 -1.920972
6460 2.34951462 7.1654496299999995 -5.72768622 -1.965412 2.99342 -1.489574
6480 3.44912733 8.585545230000001 -6.77670876 -1.814528 2.583346 -0.570392
6500 4.03770771 10.23481224 -8.28721332 -1.724305 2.741771 -0.307182
6520 4.7316573 11.21363442 -8.68329207 -1.545518 3.156443 -0.265872
6540 4.951548450000001 10.34124093 -7.640410590000001 -1.327253 3.598568 -0.197616
6560 3.1665110400000005 9.29132568 -5.773489110000001 -1.143092 4.12031 -0.296343
6580 -0.25282332 10.352924640000001 -5.0034924 -0.770742 3.848465 -0.568995
6600 -1.3223487600000001 15.537686220000001 -4.41760977 -0.6142340000000001 3.248383 -0.6216119999999999
6620 -4.06435167 20.84534748 -4.44321387 -0.776363 2.874664 -0.529331
6640 -3.8067312600000003 9.9403749 -2.00537982 -0.8084720000000001 2.83978 -0.303047
6660 -3.02431509 4.0540217400000005 -0.61582275 -0.660672 2.820786 -0.210123
6680 -3.02431509 4.414921830000001 0.32497587 -0.37544 2.429896 -0.20763
6700 -2.5020503100000004 6.027813360000001 2.0450514600000003 -0.142703 1.851307 -0.10698699999999997
6720 -1.1744532 9.47873592 2.1369515400000005 -0.147643 1.172009 0.076515
6740 -0.76236453 14.675034060000002 1.2766930200000002 -0.264062 0.503132 0.14812999999999998
6760 -1.4756300100000002 15.664176359999999 1.2159200700000001 -0.30209899999999995 -0.024567 0.011808
6780 -0.9383951700000001 12.863205540000001 1.3127742 -0.27737 -0.194242 -0.201446
6800 -0.8000839800000001 10.07121087 1.47443319 -0.127875 -0.265732 -0.301791
6820 -1.28792547 7.73726472 1.1473677899999999 -0.047151 -0.21127 -0.404915
6840 -0.9428881500000001 6.50397114 1.3974933600000001 0.103286 -0.132212 -0.325985
6860 -0.5273561700000001 6.126305760000001 1.92155337 0.221734 0.246066 -0.18891
6880 0.41942655 7.38354555 2.6960430600000005 0.701839 0.151145 -0.04443
6900 1.33911405 10.66233204 2.84812749 1.156614 -0.080096 0.378855
6920 2.53393281 12.4329978 2.58886881 1.553957 0.18016 1.016889
6940 3.93695901 11.55851478 1.17834777 2.488681 0.324509 1.137533
6960 4.88673378 9.36033903 -0.47182176000000003 3.552314 0.147823 0.977478
6980 5.25422619 8.69242518 -0.9918400500000001 4.188643 0.509733 0.763541
7000 5.3823546 8.54543214 -1.39060674 4.056238 1.960783 0.575955
7020 4.84812162 8.39738943 -0.71536482 3.366397 2.754968 1.034795
7040 4.30385301 8.32853304 -0.036071370000000005 3.255702 1.365372 1.249447
7060 3.49179102 8.42537736 -0.20611791 3.434535 0.454377 1.140768
7080 2.64828798 8.71248663 -0.1966905 3.242563 -0.6723060000000001 0.946455
7100 1.57472082 9.05466924 -0.16136469000000003 3.205849 -1.235746 0.955466
7120 1.06578783 10.52880813 -0.6469498800000001 2.985628 -1.525982 1.000233
7140 -0.07409493 12.072097710000001 -0.7717919400000001 2.606199 -2.120388 0.7921779999999999
7160 -0.10313253 12.752126910000001 -0.09490194 2.39016 -1.943139 0.609912
7180 -0.13352391000000002 12.41578125 1.43985294 1.721002 -1.529777 0.116531
7200 -0.71970084 15.11316828 1.83114441 1.258875 -1.302652 -0.33671
7220 -1.38012966 14.938785720000002 0.58962024 0.785623 -0.8838530000000001 -0.495444
7240 -1.16308341 12.75632559 0.60773931 0.256716 -0.4712770000000001 -0.382163
7260 -2.36613276 11.553874650000001 -0.74664891 -0.296998 -0.13736700000000002 -0.288182
7280 -4.71564738 13.3324767 -2.8913895899999997 -0.713853 -0.093214 -0.312515
7300 -6.55801443 17.85936006 -2.08336932 -0.920714 -0.230323 -0.477222
7320 -5.26754817 15.69516615 -0.53693073 -1.132711 -0.037374 -0.59325
7340 -0.55759059 13.30328214 0.5126804100000001 -1.161953 0.494744 -0.438175
7360 1.5471841500000003 12.967387740000001 0.17064495 -0.6795329999999999 1.0766790000000002 -0.131108
7380 2.485883430000001 11.54129823 -2.2061120400000007 0.293712 1.262483 0.245057
7400 3.0615832800000007 10.03244175 -2.51551944 1.142772 0.941287 0.444747
7420 2.49067071 9.637412670000002 -4.40339508 -0.262585 0.266998 0.057644000000000015
7440 1.8526969800000002 8.78268699 -4.030664129999999 -1.705717 -0.0344 -0.573755
7460 0.53903007 4.77386973 -2.7878058000000006 -1.59449 0.723854 -0.348555
7480 -0.8446900500000001 2.3802003000000003 -3.64911399 -2.003149 0.907839 0.082053
7500 -0.9711801900000001 2.58901596 -3.7026962100000005 -1.831092 1.053917 0.165321
7520 0.33859215 3.96046377 -3.66842007 -1.64627 1.053498 0.109996
7540 0.37811664000000006 4.63496013 -3.72679938 -1.591048 1.293708 -0.068319
7560 -0.1130112 3.8191605300000004 -4.64409324 -1.73385 1.537099 -0.337752
7580 -0.96967926 4.1330511 -5.39807022 -1.912227 1.796201 -0.509177
7600 -1.56139884 3.56693562 -5.19285483 -2.013966 1.935094 -0.522885
7620 -0.68048046 2.8110064500000003 -4.89871179 -1.919379 1.870779 -0.50505
7640 0.17708031000000002 3.62187162 -5.94998082 -1.872785 1.894599 -0.641487
7660 0.7893126 5.75628237 -7.41468249 -1.788505 1.902682 -0.870577
7680 1.2546891900000001 8.085588390000002 -8.572076100000002 -1.568233 1.7113759999999998 -1.172168
7700 -0.6683553 10.653944489999999 -10.67310342 -1.441116 1.407737 -1.27344
7720 0.16136469000000003 14.58747 -11.121420420000002 -1.321452 1.1487 -1.333161
7740 -0.8909442000000001 14.59225728 -6.25369842 -1.263084 0.931884 -1.242745
7760 1.8702078300000002 13.886476830000001 -7.674539580000001 -1.168389 0.835943 -1.042203
7780 -0.12813822000000002 6.93582696 -4.5057820500000005 -1.044932 0.737741 -0.8339799999999999
7800 0.22632651000000004 5.573659409999999 -4.48062921 -0.870909 0.43826 -0.683898
7820 0.54546543 5.348225610000001 -3.8264886000000002 -0.897115 0.214052 -0.536379
7840 1.21367358 7.16439996 -3.23476902 -0.965619 0.08570900000000001 -0.615741
7860 1.11338595 10.227337020000002 -3.35362698 -0.8880239999999999 0.163588 -0.711439
7880 0.6794406000000001 12.66486696 -2.9198287800000005 -0.8287059999999999 0.290102 -0.965424
7900 0.01915893 13.273498980000001 -2.3992120800000003 -0.7834720000000001 0.31685 -1.033508
7920 -0.02110131 12.07358883 -1.8811361700000002 -0.343087 0.041585 -0.776911
7940 0.27886887000000005 10.28660904 -1.85838678 -0.005589 -0.035439 -0.456124
7960 0.68527755 8.821004850000001 -1.52877078 0.107839 -0.229477 -0.248917
7980 1.1081474100000002 7.66884978 -0.82463841 -0.06615 -0.209852 -0.210633
8000 1.32564492 8.09291646 -0.04281084 -0.132214 -0.278513 -0.298601
8020 1.20694392 8.406218430000001 0.35131572000000005 0.091834 -0.132981 -0.390157
8040 0.9629496000000001 8.410858560000001 0.23935419000000002 0.206554 0.02203 -0.359644
8060 1.14212925 8.60036814 -0.10432935000000002 0.06674 -0.05911900000000001 -0.191738
8080 1.2055901400000002 8.56264869 -0.69036894 0.114382 0.062293 -0.225744
8100 1.19362194 8.11252665 -0.6179122800000001 0.5306569999999999 0.494857 -0.06956699999999999
8120 1.17909333 7.610029020000001 -0.53393868 1.118984 1.243256 0.341645
8140 0.7375158 7.397465940000001 -0.32407335000000004 1.519571 1.425024 0.8911399999999999
8160 0.5978606400000002 7.77168801 -0.24533829000000001 1.443082 1.064324 1.648437
8180 0.36224406000000003 8.358169049999999 -0.8813696400000001 1.318481 0.459779 2.421734
8200 0.13965516000000006 9.6101703 -1.6175316599999998 2.026368 -0.299319 2.496017
8220 1.24256403 11.287729350000001 -1.6098994800000002 2.457549 -0.923266 2.3128900000000003
8240 2.9650332600000002 11.55342339 -1.94759892 2.482317 -1.708072 1.949805
8260 3.797451 10.386602370000002 -1.54658574 2.501871 -2.430153 1.622923
8280 3.1400240400000006 10.051443720000002 -0.52810173 2.19612 -2.781898 1.406525
8300 0.7885572300000001 11.225455470000002 1.06892703 2.1945330000000003 -2.653023 1.413826
8320 -0.62629983 13.340707290000001 2.4984500400000003 2.661991 -2.217588 1.34069
8340 -1.71587691 15.47706042 2.7268758900000005 3.142584 -2.084396 0.6506
8360 -2.80785744 16.318316969999998 0.17318574 2.904644 -2.187787 0.073299
8380 -3.18372759 16.536864150000003 -1.51215264 2.390107 -1.5690879999999998 0.043275
8400 -3.8267927100000003 15.38500338 -1.1308968 2.025795 -0.435665 0.100166
8420 -2.8743201899999997 13.230540990000003 -0.04715667 1.875918 -0.327488 0.084026
8440 -1.12700223 11.6752734 -0.34877493 1.669868 -0.725726 -0.047226
8460 0.5848329600000001 10.95617097 -1.7079504300000001 1.214939 -0.929308 -0.15696500000000002
8480 1.73459439 10.528356870000001 -1.3900083300000001 0.694483 -1.042984 -0.315347
8500 2.5712010000000003 10.80273276 -1.3238496900000003 0.126998 -1.112011 -0.4100220000000001
8520 1.57996917 10.555452090000001 -2.04369768 -0.466432 -0.64248 -0.364562
8540 1.125207 10.31849154 -1.2012541200000002 -0.911223 -0.049023 -0.27015300000000003
8560 0.36359784 11.73215178 0.23500836000000003 -1.117377 0.614384 -0.026752
8580 -1.12116528 11.92166136 -0.8616123 -0.509324 1.425779 0.33110500000000004
8600 -2.0011909500000002 11.95803684 -1.5375997800000003 0.16686099999999998 1.0934780000000002 0.527466
8620 -1.6837001100000002 11.792777580000001 -1.8133294500000001 -0.516018 0.251554 0.409475
8640 -1.92260304 9.748922940000002 -2.04519861 -0.6864100000000001 1.212413 0.827933
8660 -3.17190654 7.30211274 -1.3202592299999998 -1.460984 0.785277 0.158636
8680 -2.8258195500000003 4.734806310000001 -0.24069816 -1.758003 0.399725 -0.13563699999999998
8700 0.15837263999999998 4.308787440000001 -0.9143018100000001 -1.834256 0.690145 0.0301
8720 1.51125993 4.3565425200000005 -3.7975981500000002 -1.61787 0.5152180000000001 -0.101692
8740 0.8405011800000001 4.527040320000001 -4.45773267 -1.303922 0.172846 -0.268907
8760 1.02327129 3.7782920700000004 -4.27824891 -1.05116 0.157985 -0.501063
8780 0.47361699000000007 4.04234784 -4.13455203 -1.1275620000000002 0.53718 -0.69009
8800 -0.42122178 4.55637222 -4.127067 -1.463889 1.251738 -0.8706799999999999
8820 -1.1011136400000001 4.354747290000001 -4.56670215 -1.832072 1.879757 -0.694595
8840 -1.5106615200000002 3.25901934 -4.66774515 -1.930372 2.182354 -0.358111
8860 -1.50093 3.1346285400000005 -5.57096166 -1.840185 2.321539 -0.344841
8880 -0.7105677300000001 3.79955034 -7.301965590000001 -1.774859 2.448743 -0.5101220000000001
8900 0.32901759 5.801035590000001 -10.044714059999999 -1.69262 2.320155 -0.658934
8920 -1.98143361 4.84707195 -10.312203330000001 -1.592419 1.954854 -0.7677930000000001
8940 -3.4040700000000004 6.282588870000001 -6.36431598 -1.39899 1.43904 -0.88008
8960 2.2403881800000005 13.409710830000002 -5.469624360000001 -1.164376 0.8770819999999999 -0.943951
8980 3.5172381600000002 23.154896160000003 -11.67616611 -1.036428 0.422675 -0.905088
9000 3.7252984500000004 13.275147060000002 -7.18625664 -0.931813 0.073513 -0.791746
9020 0.91609704 6.170166270000001 -4.881348090000001 -0.905836 0.023996 -0.685747
9040 0.85008555 5.6019514500000005 -4.4300390400000005 -0.932659 0.332598 -0.580576
9060 1.14122673 5.586382980000001 -3.12744762 -0.839205 0.5641390000000001 -0.489421
9080 0.89019864 7.2194831100000005 -2.8883975400000006 -0.661393 0.6013970000000001 -0.370722
9100 0.22438413000000001 9.99126918 -2.9056042800000004 -0.507847 0.640045 -0.312015
9120 -0.5644772100000001 12.611274930000002 -3.1891230900000003 -0.391549 0.721344 -0.231191
9140 -1.57263129 13.5989163 -2.76684183 -0.207236 0.692887 -0.201025
9160 -0.9636951600000001 11.4874119 -1.9815807600000002 -0.1356 0.440366 -0.250407
9180 0.35207109 9.337883940000001 -1.8362358000000003 -0.201216 0.188659 -0.384071
9200 1.76662404 7.885454580000001 -1.87529922 -0.202517 0.119489 -0.401083
9220 2.7416988 7.57693989 -1.85015619 -0.195989 -0.095695 -0.407171
9240 3.3573645900000004 8.36490852 -1.2467529000000002 -0.362769 -0.21744 -0.453045
9260 3.1945087800000005 9.353452410000001 -0.6629696099999999 -0.460341 -0.239924 -0.606453
9280 2.5439586300000006 9.748922940000002 -0.42152589 -0.425588 -0.207667 -0.710938
9300 1.81751832 9.53517285 -0.35671122 -0.341874 -0.185234 -0.799044
9320 1.3455494099999998 8.92518705 -0.4601478600000001 -0.265946 -0.218121 -0.632897
9340 0.8842145400000001 8.258175720000002 -0.6730052400000001 -0.11794 -0.244359 -0.593374
9360 0.02410317 7.8143517000000005 -0.89828208 0.009107 -0.125889 -0.493294
9380 -0.12424365 7.75566828 -0.8427476700000002 0.33076 0.112183 -0.368506
9400 0.20611791 7.956253350000001 -0.62180685 0.700933 0.270014 -0.19948
9420 0.5638788 8.223595470000001 -0.5858826300000002 0.940517 0.393965 0.030634
9440 1.0135397700000002 8.63000415 -0.7240466700000001 1.2326290000000002 0.493662 0.419243
9460 1.5838539300000003 8.80813413 -0.9199916100000001 1.684667 0.47823 0.955463
9480 1.7585406000000001 9.174272760000001 -1.60436664 2.020169 0.266696 1.349047
9500 1.62367272 9.397312920000001 -1.81258389 2.189795 -0.051983 1.508737
9520 2.47450383 9.70746588 -1.64178198 2.44048 -0.411286 1.633794
9540 3.27608874 9.81119682 -1.5736809600000001 2.342864 -0.969289 1.6680099999999998
9560 3.3829686900000002 10.70514288 -1.79357211 2.056262 -1.310431 1.7134470000000002
9580 2.07528588 10.942848990000002 -1.27564335 1.86936 -1.294042 1.773009
9600 1.10590092 11.928547980000001 -0.26105391000000006 1.879544 -1.392122 1.78282
9620 0.1733427 13.11572475 0.8658011700000001 2.049429 -1.417953 1.701787
9640 -1.16981307 13.808781629999999 1.4865583500000001 2.534758 -1.430452 1.476593
9660 -1.34540226 13.563894600000001 1.30154175 2.633973 -1.539132 1.1302530000000002
9680 -2.10462759 15.082639560000002 0.5159765700000001 2.554472 -1.819563 0.732679
9700 -2.65787235 15.51493683 -0.01886463 2.3955040000000003 -2.087445 0.46272
9720 -2.4667245 14.465168730000002 -0.95695569 2.010057 -1.64108 0.260766
9740 -1.3594698 13.007952090000002 -1.8544922099999999 1.862901 -1.103853 0.306052
9760 -0.26958861 11.57722245 -2.7602593200000003 1.786761 -1.206855 0.289628
9780 1.27594746 10.53778428 -3.30617601 1.520146 -1.236602 0.234393
9800 2.30699808 9.65851398 -1.9989444600000001 1.0412709999999998 -1.037561 0.158154
9820 1.61140041 8.79720579 -1.22325795 0.450471 -0.864568 0.033096
9840 0.33395202000000007 8.46010476 0.32063004 -0.037062 -0.492771 -0.080812
9860 -0.35611281 9.182356200000001 -0.29728224000000003 -0.407982 -0.228144 -0.135017
9880 -0.46493514 11.20285323 -1.6576545599999999 -0.771977 -0.045723 -0.150612
9900 -0.8433460799999999 13.41390951 -2.57509557 -1.145645 0.153644 -0.133181
9920 -1.2778898400000003 14.005776240000001 -3.60540063 -1.432497 0.331953 0.013069
9940 -1.75210524 12.33630063 -3.41799039 -1.366347 0.571513 0.253574
9960 -2.38289805 10.344242790000001 -2.57299623 -0.243811 1.130097 0.7830600000000001
9980 -2.34801369 9.083265390000001 -2.7580128299999997 0.425851 0.719305 1.166415
10000 -1.56963924 7.5956573700000005 -2.0215467 -0.026657 0.037459 0.511444
10020 0.14385383999999998 6.47957367 -0.8764254 -1.555867 -0.289971 -0.461286
10040 1.6612450200000002 5.273983530000001 -1.6420860900000003 -1.799084 0.584735 -0.5452899999999999
10060 1.8762017400000002 3.89669877 -3.3175556100000003 -1.993993 0.911435 -0.291766
10080 0.7132654800000001 4.448148300000001 -4.0430934 -1.720963 0.957088 -0.223687
10100 -0.17633475 3.05215587 -3.99893859 -1.498931 0.990375 -0.21577
10120 -0.4249692 2.68601724 -3.8754405000000003 -1.443284 1.164228 -0.317085
10140 -1.09886715 3.2992893899999998 -4.12841097 -1.589416 1.434041 -0.531027
10160 -0.98151012 3.46978719 -5.03582616 -1.814002 1.879634 -0.6795140000000001
10180 -0.7071342300000001 4.109850450000001 -5.8802219099999995 -2.016111 2.106865 -0.586145
10200 -0.42990363000000004 4.4453034 -6.433770780000001 -2.001216 2.000785 -0.444899
10220 -0.54636795 5.312899800000001 -7.027736850000001 -1.877541 1.890997 -0.535762
10240 -0.25776756 4.070787030000001 -7.819590240000001 -1.774418 1.856252 -0.7272770000000001
10260 -0.20702043 5.49133389 -9.20510559 -1.804547 1.871934 -0.8930819999999999
10280 1.0990143 7.29223407 -10.51293555 -1.72978 1.767772 -1.01634
10300 2.0594133 8.20653588 -11.34551025 -1.631717 1.541465 -0.984387
10320 -0.9511187400000001 11.22650514 -11.34221409 -1.533081 1.307289 -0.8498700000000001
10340 0.95247252 12.827124360000001 -6.28199046 -1.360264 1.3141 -0.837989
10360 0.19518957000000003 16.01564904 -8.36984295 -1.157594 1.381266 -0.7608159999999999
10380 0.03847482 9.333989370000001 -5.06591343 -0.868682 1.217845 -0.636811
10400 -0.81115947 6.014638530000001 -3.7938605400000003 -0.61782 0.807772 -0.602487
10420 -0.14414814 4.88703789 -2.90860614 -0.550859 0.648273 -0.467219
10440 0.65519028 6.060892679999999 -2.8515708 -0.449141 0.506179 -0.452439
10460 0.7354164599999999 8.36475156 -2.83839597 -0.329961 0.285968 -0.364798
10480 -0.11331531000000002 11.45029086 -2.74289562 -0.311776 0.324143 -0.336947
10500 -0.57705363 13.651458660000001 -2.6159640299999998 -0.07304400000000001 0.34431100000000003 -0.259461
10520 -0.72689157 13.448479950000001 -2.3870869200000002 0.024336 0.264768 -0.165744
10540 0.16780005000000003 11.26752075 -1.8366772500000002 -0.057321 0.176477 -0.126677
10560 0.621954 9.36108459 -1.80225396 -0.244722 -0.009169 -0.158726
10580 1.1274534900000002 8.255634930000001 -1.5230809799999998 -0.360235 -0.279582 -0.366422
10600 1.2549933 8.172554040000001 -0.88615692 -0.367766 -0.386772 -0.46034
10620 0.9535123800000002 8.66413314 -0.12828537000000004 -0.370352 -0.429717 -0.640833
10640 0.48543804 8.808879690000001 0.42377238 -0.508832 -0.240293 -0.738183
10660 0.16734879000000003 8.12644704 0.33739533 -0.368361 0.110934 -0.781449
10680 0.71790561 7.21484298 -0.03726819 -0.245394 0.210487 -0.742262
10700 0.9849534300000001 7.266492629999999 -0.25806186000000003 -0.339368 -0.160399 -0.618529
10720 1.1123362800000003 7.391481840000001 -0.35147268 -0.315137 -0.197893 -0.587333
10740 1.72516698 7.591017240000001 -0.63139122 0.041749 -0.1179 -0.38839
10760 1.73653677 8.30457702 -0.97761555 0.486424 0.103172 -0.115307
10780 1.78922628 8.710240140000002 -0.89124831 1.078545 0.695167 0.244856
10800 1.61558928 9.617949630000002 -2.15371683 1.593235 0.972934 0.664702
10820 1.3066331400000002 9.95878827 -1.82710269 1.809615 0.709203 1.161138
10840 1.9811295 10.73806524 -1.32564492 1.810371 0.15127100000000002 1.624399
10860 2.7099634500000005 10.079137350000002 -1.2752019000000003 2.186845 -0.284953 1.6959529999999998
10880 2.8879462800000004 9.52259643 -1.2507946200000002 2.6395470000000003 -0.910824 1.708463
10900 2.11525182 9.48172797 -1.3540841099999998 2.610388 -1.389333 1.783648
10920 1.8453591 9.29192409 -0.80921709 2.511843 -1.611089 1.6475799999999998
10940 1.32773445 10.217007090000001 -0.5643300600000001 2.182298 -1.803998 1.424403
10960 0.6843750300000001 9.70806429 -0.13785993 1.862108 -2.080871 1.410771
10980 -1.2871701 11.717632980000001 0.37991187 2.030336 -2.237725 1.329894
11000 -2.69574876 13.451481809999999 1.83174282 2.420467 -1.970116 1.201953
11020 -1.6866921599999998 15.025005810000001 2.50489521 2.562436 -1.795697 0.884391
11040 -0.7258419 15.49218744 1.16232804 2.514334 -1.946384 0.514644
11060 -2.07454032 16.17850485 -0.15088761 2.3039650000000003 -2.010545 0.491892
11080 -2.41882227 15.20148771 -0.6450075000000001 1.994819 -1.477902 0.492255
11100 -2.0959457400000003 13.123209780000002 -1.41770196 1.880274 -1.350639 0.467791
11120 -0.88121268 12.25456371 -1.47533571 1.725253 -1.47877 0.4102560000000001
11140 0.6059440800000001 11.51405586 -1.81811673 1.416601 -1.328492 0.392953
11160 1.9107721800000002 10.781778599999999 -1.58729724 0.935968 -0.883065 0.24161
11180 2.3227235100000003 10.46263968 -1.4126105700000002 0.298082 -0.350574 0.032442
11200 1.5199417800000004 9.71689329 -0.32213097 -0.23371 0.274277 -0.188923
11220 0.7581756600000001 8.57147769 -0.34159401 -0.687463 0.538474 -0.330231
11240 0.70982217 9.73051938 -1.06204041 -1.074763 0.4931180000000001 -0.373471
11260 -0.18231885 12.58972236 -1.20589425 -1.167548 0.410821 -0.225531
11280 -1.09602225 14.20335945 -2.1661461 -0.685919 0.76818 0.03268
11300 -1.5593093100000002 12.695248529999999 -1.8627228 -0.169297 1.134667 0.109527
11320 -2.06839926 9.780658290000002 -1.2332837700000001 0.16433499999999998 -0.155447 -0.163159
11340 -2.0959457400000003 8.430017490000001 -1.7107953300000003 -0.365651 0.804491 0.264539
11360 -1.6357978800000001 7.473061800000001 -2.41432929 -1.254358 1.2846030000000002 -0.214438
11380 -1.5751720800000002 6.60426858 -1.5069141000000001 -2.166127 0.6806270000000001 0.034204000000000005
11400 -0.09684432000000001 5.70254319 -0.36628578000000006 -2.329762 1.417064 0.62498
11420 1.16293626 5.10872427 -1.71842751 -1.963296 1.362147 0.454558
11440 0.7258419 4.52972826 -3.07236447 -1.6933630000000002 0.941171 0.26897600000000005
11460 -0.00643536 3.81660993 -3.2192103600000004 -1.412258 0.586387 0.037454
11480 -0.7385654700000001 3.42922284 -3.28072887 -1.249055 0.511413 -0.268958
11500 -1.38207204 3.64416975 -3.54597165 -1.345363 0.711693 -0.719609
11520 -1.70180937 3.74281911 -4.681067130000001 -1.615757 1.171299 -0.869501
11540 -0.84573972 4.37345496 -6.050866860000001 -1.794755 1.375847 -0.718258
11560 0.54636795 5.03986788 -7.12309005 -1.751613 1.113094 -0.847943
11580 1.19496591 4.814286930000001 -7.449704189999999 -1.568031 0.935337 -1.042985
11600 1.58939658 4.76549199 -7.847283870000001 -1.6107129999999998 1.074362 -1.14067
11620 2.30520285 5.585333310000001 -9.1043667 -1.775482 1.261144 -1.087581
11640 1.7498587500000002 5.18925456 -9.70985952 -1.846672 1.307384 -0.868084
11660 -3.78652266 4.841235 -7.9062615900000015 -1.834403 1.1966290000000002 -0.621097
11680 -3.7770952500000003 8.13108717 -6.45367527 -1.65402 1.035971 -0.560879
11700 -0.63079281 16.96946553 -6.62297625 -1.339077 0.851621 -0.5531020000000001
11720 0.57210939 28.46480391 -11.427090210000001 -1.091891 0.89715 -0.431792
11740 1.6244182800000002 9.10496511 -3.6347423400000003 -0.8893399999999999 0.82734 -0.465539
11760 -0.018413370000000002 4.0490775 -5.68847565 -0.7824979999999999 0.580001 -0.509342
11780 1.01698308 4.4074368 -3.9065774400000004 -0.74692 0.428594 -0.505694
11800 1.4322207599999999 5.736073770000001 -3.64926114 -0.631466 0.213124 -0.534522
11820 1.5919373700000001 8.270899290000001 -3.01427946 -0.334869 0.179205 -0.567658
11840 1.6717220999999998 11.391165990000003 -3.01278834 -0.068875 0.246487 -0.5744319999999999
11860 0.72913806 14.6427003 -3.3641040600000003 0.150429 0.251668 -0.461812
11880 -1.02132891 13.68813825 -3.2430094200000004 0.100634 0.22998 -0.323263
11900 -0.9190890899999999 10.75348656 -2.67344082 -0.156419 0.007169 -0.324773
11920 0.12288987000000001 8.779989240000003 -1.9968451200000001 -0.287593 -0.204419 -0.311531
11940 0.8852544000000001 8.064330120000001 -1.73533995 -0.293068 -0.508925 -0.347499
11960 1.16801784 8.10145116 -1.1782006200000001 -0.236385 -0.461254 -0.330072
11980 0.8978308200000001 8.797804200000002 -0.5718150900000001 0.02882 -0.426611 -0.431882
12000 0.42736284 9.11259729 -0.155979 0.17027799999999998 -0.206913 -0.351059
12020 -0.10508471999999999 8.28257319 0.30701375999999997 0.31086 -0.16306099999999998 -0.250788
12040 -0.05194395 7.199127360000001 0.24683922000000003 0.281815 -0.175905 -0.210382
12060 -0.18905832000000003 6.912479159999999 -0.1938456 0.268859 -0.122946 -0.122946
12080 -0.09894366 6.734643480000001 -0.5245112700000001 0.580759 0.31650700000000004 -0.0006219999999999999
12100 0.29818476 7.1932904099999995 -0.60040143 1.34597 0.950567 0.345742
12120 0.59830209 8.19905085 -0.6298902900000001 1.825555 1.063248 1.053974
12140 0.63228393 8.740474560000001 -0.97088589 1.963802 1.017181 2.0634
12160 0.60085269 9.736650630000002 -1.5182937 2.236839 0.621898 2.641585
12180 1.1539503 10.10010132 -1.7378905500000001 2.462252 0.192003 2.859491
12200 2.28140379 10.603501470000001 -2.01989862 1.867557 -0.908378 2.564055
12220 3.0695195699999998 10.07284914 -1.29495924 1.314561 -2.210414 2.045909
12240 3.13897437 9.849367529999999 -0.8502327000000002 1.1771790000000002 -3.241747 1.669189
12260 2.4620843700000004 9.44805024 -0.6479995499999999 1.563628 -3.769137 1.088247
12280 2.14039485 9.82466595 -0.30161826 2.249674 -3.499135 0.638698
12300 0.26719497000000003 10.932813359999999 -0.09370512 2.983202 -2.680388 0.382127
12320 -0.62898777 11.754008460000001 0.5935148100000001 3.126183 -2.141145 0.20511
12340 -1.1304455400000002 14.87157741 1.399887 2.608104 -2.264161 -0.017337
12360 -3.2947964100000005 16.305446250000003 1.3528872900000002 2.238033 -2.194848 0.019514
12380 -2.93479884 15.151643100000001 0.53094663 1.916744 -1.644489 0.128727
12400 -4.14308673 14.58910827 -0.83421297 1.956618 -1.308042 0.139257
12420 -4.29232626 13.719422340000001 -1.27415223 1.927568 -1.554312 -0.053979
12440 -3.12520113 12.286151910000003 -1.06937829 1.52086 -1.506523 -0.196818
12460 -0.70728138 11.760895080000001 -2.0360655000000003 1.070951 -0.989248 -0.227329
12480 1.1124834300000002 11.770322490000002 -3.70853316 0.74615 -0.644989 -0.255676
12500 3.213069300000001 10.82189169 -3.3421002300000002 0.474507 -0.14416199999999998 -0.323377
12520 4.778666820000001 9.684559530000001 -2.04264801 0.114791 0.277932 -0.339249
12540 4.5972406800000005 8.637636330000001 -0.45670455000000004 -0.25716999999999995 0.42174 -0.282211
12560 3.1901629500000004 10.959614279999998 0.45610614000000005 -0.65686 0.597484 -0.195497
12580 1.37848158 13.05300942 -0.22318731000000003 -0.965135 0.792768 -0.013098
12600 -0.09205704 14.03571636 -1.62981378 -1.112626 0.921429 0.173713
12620 -1.7950632300000002 12.94717914 -2.47825125 -0.992466 1.222933 0.32799
12640 -3.1058950500000004 10.34124093 -3.18372759 -0.142234 1.598689 0.727622
12660 -2.83870008 9.09044631 -3.3879031200000003 0.199702 0.977834 1.179459
12680 -2.81818737 7.910146350000001 -2.63407329 -0.037565 0.567785 1.09821
12700 -2.17228716 6.656653980000001 -0.95980059 -1.539149 -0.224452 -0.077761
12720 -0.15014205 6.05835189 0.06660990000000001 -1.583961 0.528469 -0.513806
12740 0.79679763 6.062246460000001 -1.68998832 -1.817573 0.8941889999999999 -0.394129
12760 -0.06586434000000001 6.65380908 -3.3280326900000006 -1.568066 0.845448 -0.409415
12780 -0.8370578700000001 5.84040312 -3.2244489 -1.427938 0.8558969999999999 -0.48002
12800 -1.4154554700000002 3.75119685 -2.38978467 -1.389495 1.023324 -0.557947
12820 -1.3900083300000001 2.4813904499999997 -2.5062391800000006 -1.451618 1.367931 -0.634666
12840 -1.7893832400000003 2.9244689100000003 -3.1400240400000006 -1.605489 1.939806 -0.723
12860 -1.7884807200000001 3.0138282000000003 -4.60606968 -1.839842 2.315369 -0.666366
12880 -1.2762417600000002 3.42681939 -5.9998254300000005 -1.961671 2.386698 -0.5498029999999999
12900 -0.43604469000000007 4.05431604 -6.82505244 -2.01463 2.528339 -0.493739
12920 -0.09190989000000001 3.93427107 -6.26896278 -2.070249 2.67896 -0.549868
12940 0.17992521 4.069737360000001 -6.656653980000001 -2.166231 2.698316 -0.778095
12960 -0.07559586 4.38931773 -7.51482297 -2.1198740000000003 2.458907 -0.887491
12980 0.0868185 5.219940240000001 -8.37493434 -1.927114 2.119576 -0.911347
13000 1.05141618 7.029983340000001 -10.0527975 -1.7447849999999998 1.674503 -0.856092
13020 -0.06511878 9.075024990000001 -10.78866522 -1.5576139999999998 1.224621 -0.934325
13040 1.60257141 13.026806910000001 -13.059591930000002 -1.270266 0.887711 -1.112415
13060 -0.04190832 15.04641123 -8.70020451 -1.067723 0.6408159999999999 -1.083979
13080 -0.31299785999999996 12.38359464 -9.290432970000001 -1.100179 0.67448 -0.949653
13100 -1.35573219 6.931481130000001 -5.3470287899999995 -1.258118 0.7078840000000001 -0.90807
13120 -1.7811428400000002 7.0683012 -5.26230963 -1.238466 0.683922 -0.793602
13140 -0.7969447800000001 6.763681080000001 -4.12632144 -0.96917 0.5393 -0.558663
13160 -0.37736127 8.02615941 -3.71976561 -0.579691 0.450051 -0.422301
13180 -0.6417113400000001 9.33174288 -3.5705260800000005 -0.080162 0.499555 -0.18173
13200 -1.35528093 10.64212344 -3.4012251000000004 0.316306 0.449111 0.100979
13220 -1.76587848 11.85699384 -3.2701046400000005 0.338368 0.25997800000000004 0.226357
13240 -0.47510811000000003 11.678412600000001 -2.85111954 0.200652 0.172315 0.157141
13260 0.8147597400000001 10.617569010000002 -2.23814169 -0.007017 0.154272 0.054233
13280 1.68953706 9.80670384 -1.9935587700000001 -0.16219 0.142609 -0.091046
13300 2.69634717 9.963879660000002 -1.7621310600000002 -0.159672 0.033658999999999994 -0.286374
13320 3.1883677200000005 10.05069816 -1.3512392100000001 -0.183211 -0.13608 -0.442281
13340 2.9865858300000006 10.127637990000002 -0.4316988600000001 -0.289144 -0.093659 -0.569126
13360 2.03546709 9.680066550000001 0.07110288000000001 -0.386565 0.26266100000000003 -0.61406
13380 1.2328325100000002 8.26656327 0.28126251 -0.167717 0.4560770000000001 -0.687554
13400 0.88914897 6.67372338 0.22603221 -0.148947 0.5796520000000001 -0.704673
13420 0.46328706 6.29979561 -0.2863539 -0.122386 0.568851 -0.690587
13440 0.41808258000000004 6.26372424 -0.61716672 0.033214999999999995 0.348646 -0.635807
13460 0.22976981999999999 6.45472494 -0.47032083 0.180522 0.219929 -0.542746
13480 0.6836294700000001 7.41782169 -0.27422874 0.280855 0.326783 -0.444974
13500 0.61671546 8.22883401 -1.11008979 0.384355 0.5386340000000001 -0.234083
13520 0.17303859 9.35914221 -2.26209771 0.448986 0.4978 0.064455
13540 0.95142285 11.097022950000003 -1.5555618900000003 0.653967 0.383903 0.397182
13560 2.93989023 11.559407490000002 -0.9083079000000001 1.188847 0.163073 0.811398
13580 3.4118591400000002 9.89038314 -0.52121511 1.873258 0.055291 1.064144
13600 3.1097798100000005 9.0061686 -0.29788065 2.294801 -0.030835 1.191113
13620 2.4069914100000003 9.08475651 -0.52750332 2.246219 -0.335575 1.250985
13640 1.4100697800000002 9.553134960000001 -0.91938339 1.885862 -0.423115 1.343651
13660 0.72105462 10.0007064 -1.14811335 1.561121 -0.460655 1.156629
13680 0.46343421000000007 10.39753071 -1.19226816 1.146838 -0.759775 0.927655
13700 -0.1070271 10.62430848 -1.07641206 0.823591 -0.723731 0.719184
13720 -1.3397124600000003 11.283236370000001 -0.25088094 1.174511 -0.464237 0.523682
13740 -0.8066763 12.80138292 1.5416415 1.515307 -0.235944 0.413606
13760 0.88750089 14.292277290000001 2.4827344200000003 1.313049 -0.296377 0.25097
13780 -0.14490351 14.09888295 0.97821396 1.365704 0.264829 0.253823
13800 -0.93779676 14.479687530000001 0.29099403 1.429245 1.149689 0.294794
13820 -1.87589763 14.45842926 0.09520605 1.259529 1.305004 0.229316
13840 -2.28859452 13.902339600000001 0.42990363000000004 1.202389 0.82839 0.121637
13860 -2.909646 12.624901020000001 0.46463103000000006 1.143115 0.325258 -0.012728
13880 -2.95964757 11.43173034 -0.41703291000000003 0.868848 0.025987 -0.059126
13900 -2.0907072 10.74899358 -1.95089508 0.591483 -0.014406 -0.106945
13920 -0.87762222 10.4609916 -2.2571534700000004 0.289524 0.123378 -0.202166
13940 0.22947552000000002 10.06956279 -1.98172791 0.061276 0.264172 -0.31503600000000004
13960 1.34734464 9.19208772 -1.6139412000000002 -0.075113 0.41111 -0.445432
13980 0.48888135 8.181088740000002 -1.02027924 -0.275899 0.776386 -0.509259
14000 -0.31928607000000003 8.37732798 -0.8897473800000001 -0.568551 1.207663 -0.481946
14020 -0.70024761 9.767493270000001 0.55728648 -0.741306 1.3834 -0.32421300000000003
14040 -2.17198305 11.344313430000001 0.08053029000000002 -0.659243 1.099967 -0.111768
14060 -4.621186890000001 11.1751596 -1.9995428700000002 -0.42699 0.427579 0.002879
14080 -4.61924451 8.97818067 -1.3030426800000001 -0.226218 -0.035322000000000006 -0.02824
14100 -3.8844264600000002 7.554043350000001 -0.60788646 -0.137141 -0.321415 0.044319
14120 -2.29816908 7.75926855 -1.15050699 -0.136605 -0.721672 0.238184
14140 -1.58370678 6.74377659 -0.79754319 -0.224589 -0.974221 0.334033
14160 0.07260381 7.1772706799999995 -1.5194905200000002 -0.276416 -1.097668 0.347716
14180 -0.12663729 7.82752653 -3.45541554 -0.050491 -0.753011 0.275145
14200 -1.25963343 6.859936800000001 -3.0505077900000006 -0.238818 -0.30861900000000003 0.12905
14220 -1.21397769 5.42815749 -1.45407744 -0.503988 -0.684982 -0.359429
14240 -0.64201545 5.48354475 -1.6090067700000001 -0.227385 -0.419273 0.085475
14260 -0.23875578 5.667060419999999 -2.33394615 0.215633 0.184084 0.397581
14280 0.47810997000000005 5.53129983 -2.6960430600000005 -0.325914 1.385799 0.31321
14300 0.58184091 5.41439406 -3.2254887599999997 -0.671275 2.2472060000000003 -0.085549
14320 0.13172868000000001 5.92198308 -3.82244688 -1.289598 2.737509 -0.417372
14340 -0.24638796000000002 6.62223069 -4.4976986100000005 -1.623425 2.237972 -0.945697
14360 -0.11525769000000001 7.54985448 -5.154527160000001 -1.414732 1.985417 -1.105217
14380 0.41808258000000004 8.286320609999999 -5.811816780000001 -1.416575 1.882031 -0.558168
14400 1.1139843600000001 8.81711028 -6.493494060000001 -1.468089 2.135629 0.003032
14420 2.08591011 8.80184592 -7.2371509199999995 -1.61323 2.399222 0.27728200000000003
14440 3.2016897 8.9685963 -7.90506477 -1.7945950000000002 2.662878 0.301314
14460 4.1573014200000005 8.85364272 -8.01717345 -1.822736 2.92871 0.181136
14480 4.25984535 8.398586250000001 -7.765851060000001 -1.698441 3.070822 -0.033957999999999995
14500 4.43917215 7.253916210000001 -7.22053278 -1.629988 3.4629830000000004 -0.393974
14520 3.3153091199999998 6.01927866 -6.6834549 -1.5916 3.703461 -0.62475
14540 2.07827793 5.62889952 -5.99698053 -1.3212 3.376377 -0.581849
14560 -0.42197715 6.94885464 -4.80351555 -1.056178 2.881743 -0.458655
14580 -2.7146035800000003 9.93513636 -5.15153511 -1.033848 2.716191 -0.369625
14600 -3.44434005 20.48145534 -7.24238946 -1.009104 2.793742 -0.337505
14620 -7.56481473 22.04301114 -4.3604370900000005 -0.878374 2.722818 -0.296976
14640 -4.80321144 7.496860860000001 -2.9699775 -0.696738 2.482854 -0.119143
14660 -3.02131323 2.18530503 -3.44104389 -0.6200220000000001 1.802723 -0.064325
14680 -2.7419930999999997 3.4167935700000003 -1.08030663 -0.5749989999999999 1.1028209999999998 -0.099433
14700 -2.41163154 4.33753074 1.4894032499999998 -0.414101 0.289681 -0.154951
14720 -1.8131823 7.943981040000001 1.8049419 -0.361319 -0.066441 -0.386999
14740 -0.5273561700000001 13.352685300000001 1.00681011 -0.327119 -0.340136 -0.436615
14760 -0.49831857 16.082857349999998 0.36449055 -0.269386 -0.5406489999999999 -0.426341
14780 0.17543223 13.17200472 -0.10448631000000001 -0.274097 -0.393658 -0.418017
14800 0.57914316 10.64332026 -0.8750814299999999 -0.197259 -0.340855 -0.369478
14820 -0.47720745000000003 9.257795100000001 -0.48723327000000005 -0.322193 0.12928900000000002 -0.350657
14840 -1.19975319 8.95003578 -0.15163317 -0.277735 0.658044 -0.217496
14860 -1.10140794 8.42642703 0.16241436 -0.15648299999999998 1.181208 -0.08486
14880 -0.9006757200000001 8.61069807 0.80547948 0.085793 1.55063 0.028522
14900 -0.6509916 8.92668798 1.24091595 0.597141 1.777245 0.189901
14920 -0.3558087 9.67288563 1.9898113499999999 1.296693 1.211566 0.6527109999999999
14940 0.50624505 10.23227145 2.7403548300000002 1.7601790000000002 0.973026 1.029064
14960 1.3079771100000002 9.66509649 2.122884 2.391166 0.50908 1.418625
14980 2.4224127300000005 9.122780070000001 0.88825626 3.135781 0.266751 1.433751
15000 3.7145270700000004 9.09314406 -0.24279750000000003 3.5113540000000003 0.47215 1.158374
15020 3.4130559600000003 9.442664550000002 -0.31584275999999994 3.141067 1.168841 0.680604
15040 3.59058753 8.88686919 -0.3876912 2.469097 2.188392 0.709855
15060 4.691544210000001 8.79914817 -0.41613039 2.135631 2.8540490000000003 1.033549
15080 4.34037564 8.18527761 -0.04235958 2.091161 2.713502 1.054783
15100 4.15700712 8.57296881 0.24923286000000003 2.318619 1.842252 1.087398
15120 2.90216097 8.798108310000002 0.48170043 2.534702 0.934228 1.002477
15140 1.47667968 9.09822564 0.83212344 2.423597 0.372259 0.7086600000000001
15160 1.5618501 10.45591002 1.06309008 2.053154 0.292592 0.440187
15180 0.164808 10.118808990000002 0.82763046 1.511627 -0.096525 0.183734
15200 -0.54785907 11.042989470000002 0.88017282 1.019386 -0.4559180000000001 -0.089504
15220 -0.86489865 11.284286040000001 0.6921641700000001 0.488146 -0.640746 -0.29380300000000004
15240 -1.22430762 11.76283746 0.31734369000000007 0.038812 -0.62884 -0.483896
15260 -1.0374957900000001 11.42035074 -0.24668226000000004 -0.354721 -0.32199 -0.687864
15280 1.25483634 11.99246013 0.39861954000000005 -0.7972899999999999 0.321297 -0.801806
15300 0.97791966 12.07074393 1.25798535 -1.188652 0.964511 -0.676109
15320 2.35924614 12.3695271 2.5509924 -1.2650370000000002 1.192325 -0.305193
15340 -0.45400680000000004 11.66509062 0.42241860000000003 -1.077645 0.993036 -0.180784
15360 -2.8746243000000002 11.973301200000002 0.63483453 -0.752386 0.5039359999999999 -0.16186199999999998
15380 -4.489909470000001 13.042679490000003 -0.44637462000000006 -0.137259 0.126957 -0.19447
15400 -5.8627110600000005 15.65879067 -0.30177522 0.450463 0.120552 -0.167923
15420 -6.5788214400000005 15.4986228 0.60489441 1.315743 0.162249 0.109395
15440 -3.59941653 12.50170704 -0.21989115 1.814998 -0.39612 0.516318
15460 -1.83952215 11.84427027 -1.78623423 0.577378 -0.8848870000000001 0.741172
15480 0.14969079000000002 11.44115775 -1.70944155 -0.416933 0.728214 0.20339
15500 1.06682769 10.98550287 -1.11458277 -0.403281 1.58461 -0.318905
15520 1.3248993599999999 9.3733569 -1.35513378 -0.4440270000000001 2.445559 -0.6012350000000001
15540 1.0096550100000001 7.3507605300000005 -1.2995993700000001 -1.411928 2.753954 -0.959836
15560 0.19235448000000002 6.1270611299999995 -1.8315956700000002 -1.598838 2.704227 -1.681059
15580 -0.07439904 6.039192959999999 -2.05792218 -1.883447 3.037315 -1.881095
15600 -0.37781253 5.369631030000001 -2.24966844 -1.602247 2.794565 -0.8276899999999999
15620 -0.44008641 4.58002413 -2.7412475400000003 -1.395806 2.521128 -0.026867
15640 0.04685256 3.92798286 -2.96278677 -1.334688 2.607129 -0.008391
15660 1.4069207700000002 3.07041228 -3.30198714 -1.200068 2.845342 -0.288698
15680 2.5743500100000003 2.6925997500000003 -3.63534075 -1.050098 2.850666 -0.41798
15700 2.34906336 4.10266953 -4.41327375 -0.8974270000000001 2.814156 -0.477756
15720 2.57794047 5.781572550000001 -5.128932870000001 -0.841526 2.911843 -0.712499
15740 3.06652752 7.519011840000001 -6.49664307 -0.892467 2.88043 -0.804682
15760 3.4949302200000005 10.07884305 -7.69235454 -0.918551 2.692296 -0.886876
15780 3.4160480100000004 13.016928240000002 -7.607929680000001 -1.012926 2.402643 -0.830549
15800 2.36941911 13.61044305 -7.35226146 -0.8977379999999999 2.010918 -0.7384430000000001
15820 -1.22594589 15.13368099 -6.8801454 -0.7820819999999999 1.541204 -0.590687
15840 -1.20214683 23.2640226 -8.07915303 -0.5238189999999999 1.205316 -0.466675
15860 -2.8484217900000006 14.897466 -0.5081972400000001 -0.311684 0.988087 -0.406163
15880 -5.121899100000001 1.3807280700000002 -0.1966905 -0.212429 0.7650710000000001 -0.398775
15900 -5.39523513 2.4566888700000002 -1.5359517 -0.239887 0.615925 -0.373138
15920 -2.3652302400000003 4.70501334 1.11023694 -0.348568 0.589903 -0.4315479999999999
15940 -0.9562101300000001 5.9809608 2.17961523 -0.430566 0.8533440000000001 -0.439936
15960 0.60009732 11.6436852 0.8960355900000001 -0.370728 1.045151 -0.505993
15980 2.03800788 19.21299291 0.55624662 -0.228222 1.071726 -0.615059
16000 -0.87103971 17.76759732 0.36240102 -0.082896 1.306859 -0.667756
16020 -0.53932437 11.782153350000002 0.00718092 0.344657 1.288158 -0.624153
16040 0.11795544000000001 8.53330698 0.36987624 0.446115 1.07061 -0.388157
16060 -0.34607718 7.65193734 1.40572395 0.342874 0.735069 -0.304058
16080 -0.048049379999999996 7.6254405300000005 1.8598779 0.533866 0.924343 -0.117096
16100 0.27078543 8.42268942 2.02334193 0.8368549999999999 1.104715 0.067455
16120 0.41404086 8.678200680000002 1.5640965900000001 1.12018 1.165914 0.23493000000000006
16140 1.33941816 9.78620094 1.65166065 1.376719 1.2483229999999998 0.449192
16160 2.79753732 10.39707945 1.7248628700000002 1.464677 1.2475969999999998 0.8204809999999999
16180 3.7194615 11.02861782 0.8678907000000001 1.528198 0.928963 1.326602
16200 4.4800308 10.9699344 -0.28245933 1.745623 0.408556 1.808419
16220 4.0055211 10.47820815 -1.10320317 2.14136 -0.15701600000000002 1.975346
16240 3.4126047 9.25061418 -0.5174775 2.211112 -0.436894 1.842664
16260 2.9294131500000002 8.07435594 -0.19518957000000003 2.1767060000000003 -0.963159 1.611294
16280 1.5925357800000002 7.66795707 0.00808344 2.138746 -1.540657 1.407738
16300 0.9108585 8.776997190000001 -0.27273762 2.221079 -1.891863 1.252803
16320 0.16570071 10.00938825 -0.88196805 2.657987 -1.937452 1.086066
16340 0.00703377 10.853479890000003 -0.88361613 3.145588 -1.97636 0.803238
16360 0.11152008000000001 10.93176369 -0.83660661 3.209767 -1.76233 0.50431
16380 -0.25521696000000005 11.35957779 -1.00889964 2.793532 -1.569193 0.25226
16400 -1.03659327 13.24984707 -0.29114118 2.427346 -0.919131 0.24246
16420 -0.69949224 14.167739340000002 1.62307431 2.133327 -0.255867 0.331423
16440 0.48304440000000004 14.15097405 1.7762084100000002 1.889397 -0.038339 0.223686
16460 -0.0038945700000000004 14.00472657 0.12469491 1.593981 -0.254718 -0.020586
16480 -0.6373753200000001 13.7403765 0.17588349 1.114308 -0.5814739999999999 -0.20832
16500 -1.4780236500000004 12.636869220000001 0.38664153 0.507441 -0.6884779999999999 -0.361973
16520 -1.75061412 11.43546795 0.26509562999999997 -0.144441 -0.801875 -0.476408
16540 -1.6061618700000002 10.78222986 -0.26569404 -0.716488 -0.648447 -0.520125
16560 -1.1469165300000004 11.0015226 -0.8815167900000002 -1.097413 -0.43083 -0.53161
16580 -0.08502327 11.793827250000001 -1.59568479 -1.259989 0.047665 -0.437219
16600 1.2424168800000002 11.67991353 -1.71019692 -0.438091 0.824891 0.02152
16620 1.35962676 11.44714185 -2.04759225 0.696615 1.123983 0.431783
16640 0.6140275199999999 11.73379986 -0.8544215700000001 0.027664 0.26604 0.045786
16660 -0.49921128000000003 12.041264880000002 0.09759969 -0.806635 0.13621 -0.32948
16680 -0.8789760000000001 12.51847233 -0.22333446 -1.4161860000000002 1.152843 -0.423703
16700 -1.65959694 12.15382482 -1.1169764100000001 -1.744118 1.047418 -0.681164
16720 -2.38888215 11.2619781 -1.5337150200000003 -1.999067 1.107862 -0.391397
16740 -2.40130161 9.73815156 -1.7917768800000002 -1.893011 1.213981 -0.381179
16760 -2.4418757700000002 8.223899580000001 -1.44539559 -1.696279 1.044025 -0.40736
16780 -2.13515631 6.54498675 -1.8768001500000002 -1.501039 1.101702 -0.34838600000000003
16800 -1.07895285 6.073616250000001 -1.2606831000000003 -1.5680690000000002 1.512489 -0.454067
16820 -0.32242527000000004 6.14203119 -2.50518951 -1.726637 1.944897 -0.825333
16840 0.6559358399999999 5.4824950800000005 -3.85912647 -1.851218 2.154457 -0.908725
16860 0.9729754200000001 4.12632144 -3.88486791 -1.8455 2.047836 -0.624402
16880 1.22265954 4.10700555 -3.63039651 -1.6897259999999998 1.914786 -0.520594
16900 1.34630478 3.60285984 -3.54747258 -1.538859 1.6664849999999998 -0.6281800000000001
16920 0.15507648000000004 4.083961860000001 -4.23588933 -1.368178 1.264923 -0.787775
16940 -0.40715424 3.43865025 -5.12878572 -1.176118 0.675635 -0.906387
16960 -1.0469232 3.6286012800000003 -5.87737701 -1.056317 0.237518 -0.938104
16980 -0.99153594 3.6182713500000006 -6.476728770000001 -0.981917 0.052503 -0.8219790000000001
17000 0.31285071000000003 4.137691230000001 -8.263865520000001 -0.954557 0.133766 -0.65525
17020 0.8232846300000001 7.453451610000001 -10.65050118 -0.952539 0.33418600000000004 -0.427961
17040 -2.37989619 8.3409525 -8.193665160000002 -0.85854 0.5206970000000001 -0.265174
17060 -3.11292882 9.69534072 -8.59018536 -0.7229720000000001 0.5956229999999999 -0.205571
17080 0.06660990000000001 12.27192741 -4.2650838900000005 -0.577504 0.633644 -0.249469
17100 1.0121958 19.40774103 -9.17936415 -0.551921 0.7161850000000001 -0.400015
17120 1.01264706 12.278519730000001 -5.035080600000001 -0.575155 0.8086760000000001 -0.598985
17140 0.34772526 7.81509726 -4.273167330000001 -0.603956 0.616739 -0.793357
17160 0.72149607 6.45637302 -3.97184337 -0.649469 0.356323 -0.898027
17180 0.81730053 5.32772271 -2.94302943 -0.684304 0.209406 -0.8906040000000001
17200 0.7575772500000001 6.916069620000001 -2.6915500800000003 -0.684032 0.108961 -0.813562
17220 1.08434835 9.06949215 -2.1490767 -0.5721430000000001 -0.08454099999999999 -0.738825
17240 0.6921641700000001 12.39272775 -1.83862944 -0.248047 -0.112404 -0.711956
17260 -0.15792137999999997 13.84111539 -1.4004854100000002 -0.059661 0.034969 -0.7001470000000001
17280 0.07349652000000001 12.441375540000001 -1.15754076 -0.114924 -0.375989 -0.445769
17300 1.05725313 9.57169548 -1.5736809600000001 -0.165543 -0.528913 -0.254715
17320 1.5030293400000003 8.025561000000001 -1.42174368 0.132709 -0.572815 -0.190619
17340 1.3811793300000001 7.8978740400000005 -0.6099857999999999 0.715313 -0.167447 -0.037518
17360 1.3882131 8.11701963 -0.09236115 1.403288 0.341308 0.27642
17380 1.24256403 8.45622 -0.09744273000000002 1.760918 0.335177 0.699805
17400 0.76775022 7.90550622 -0.13501503 1.864841 -0.031467 1.189179
17420 -0.32662395 8.7169698 -0.5480062200000001 2.103951 -0.444588 1.462707
17440 -0.60773931 8.692121069999999 -0.80861868 2.331598 -0.973074 1.558977
17460 -0.48888135 8.52866685 -0.99423369 2.074024 -0.915291 1.717338
17480 -0.20687328 8.02510974 -0.6170195700000001 1.665346 -0.7294189999999999 1.676857
17500 0.46522944000000005 7.4616822 -0.47795301 1.405034 -1.011686 1.628399
17520 1.43252487 7.30076877 -0.4628358 1.376179 -1.335127 1.552768
17540 1.73100393 7.77737781 -0.8509782600000001 1.502491 -1.7423990000000005 1.527466
17560 1.7561469600000001 8.82040644 -1.72022274 1.821701 -1.877958 1.584349
17580 1.86332121 10.13302368 -2.08561581 2.227331 -1.127253 1.577675
17600 2.1661461 11.13953949 -1.9916065800000002 2.462867 -0.5239550000000001 1.285854
17620 1.83967911 11.994559470000002 -1.40542965 2.43492 -0.766061 0.8501350000000001
17640 2.018250540000001 13.083842250000002 0.118701 2.455128 -1.546867 0.556447
17660 1.7368408800000001 15.610290030000002 1.9422132300000001 2.25692 -1.947982 0.338727
17680 -0.33560010000000007 15.33142116 0.24698637000000004 2.00526 -1.485678 0.29685300000000003
17700 -1.86137883 15.17304852 -1.78489026 1.863302 -1.2126709999999998 0.345718
17720 -4.557726000000001 15.72794136 -1.79986032 1.583889 -1.178709 0.353337
17740 -4.81354137 14.26144446 -1.63624914 1.19254 -1.036168 0.211552
17760 -3.1353839100000003 12.02928687 -1.40363442 0.691311 -0.682207 0.040954
17780 -1.1397258000000001 11.276349750000001 -1.86212439 0.05349 -0.32037 -0.115652
17800 0.37108287 10.54601487 -1.7025549300000002 -0.5119239999999999 0.024113 -0.257844
17820 1.12116528 9.96118191 0.05089428 -0.994518 0.145252 -0.296621
17840 0.60908328 9.50149512 0.41463927 -1.285397 0.299387 -0.228348
17860 -0.33425613 9.44161488 -0.8571193200000001 -1.17956 0.695918 -0.115953
17880 -0.46134468 11.23219494 -1.02805857 -0.160865 1.2606959999999998 0.020762
17900 -1.4319264600000001 12.9911868 -0.94094577 0.350254 0.776453 -0.00389
17920 -2.9651804100000003 12.121942320000002 -1.8513530100000002 1.012217 0.309249 0.374142
17940 -2.41222995 10.68463017 -1.76752656 -1.4125450000000002 -0.029251 -0.517235
17960 -2.21644197 8.82384975 -1.24466337 -1.378219 0.229462 -0.775836
17980 -1.5721800300000002 8.22763719 -0.85188078 -2.114326 0.738159 -0.278497
18000 -0.7044364800000001 8.52163308 -1.7061552 -1.709314 1.032301 -0.12863
18020 -0.6932040300000001 8.07855462 -2.8192370400000004 -1.535456 0.7569670000000001 -0.155905
18040 -1.2087391500000002 6.72581448 -2.4768974700000004 -1.30709 0.7265119999999999 -0.19699999999999998
18060 -0.6479995499999999 6.0233203799999995 -1.05500664 -1.33052 0.950393 -0.219883
18080 0.39098736000000006 5.88411648 -1.6657380000000002 -1.5156969999999998 1.503904 -0.4836
18100 1.54957779 5.90925951 -2.85367014 -1.861059 1.938051 -0.595528
18120 1.6528672800000002 6.055654140000001 -3.6428257800000003 -1.964106 2.02167 -0.372028
18140 0.39847239000000007 5.278770810000001 -4.13605296 -1.931814 1.8946 -0.32463800000000004
18160 -0.9018725400000001 4.311181080000001 -4.49978814 -1.837389 1.861863 -0.47776
18180 -1.31606055 4.59573975 -4.39335945 -1.749748 1.728011 -0.646824
18200 -1.24376085 4.57389288 -5.090909310000001 -1.716076 1.670073 -0.838794
18220 -0.47691315 4.60083114 -5.814210419999999 -1.599316 1.470727 -0.905021
18240 -0.045204480000000005 4.71474486 -6.38541729 -1.520892 1.205904 -0.814403
18260 0.5680676700000001 4.51311012 -6.78104478 -1.36678 0.909996 -0.7413770000000001
18280 1.3247424000000003 4.932693629999999 -7.951318919999999 -1.078158 0.686792 -0.8512379999999999
18300 2.18874834 5.4688788 -10.450073069999998 -0.833931 0.473773 -0.805462
18320 -1.8064428300000002 6.63016698 -8.0947215 -0.725638 0.486717 -0.673331
18340 -1.3654637100000002 12.50035326 -10.51683012 -0.773762 0.427366 -0.707774
18360 0.55564821 19.75756563 -4.69723401 -0.7918810000000001 0.309782 -0.591314
18380 2.59874748 18.576216 -9.707917140000001 -0.713051 0.158849 -0.477338
18400 0.4337982 5.739664230000001 -4.2728632200000005 -0.590915 0.319091 -0.429689
18420 -0.04999176 4.03231221 -5.407654590000001 -0.351936 0.605681 -0.37818
18440 0.31134978 4.224068280000001 -3.8850248700000005 -0.15064 0.613161 -0.292394
18460 0.75607632 5.76810342 -3.70195065 -0.137499 0.441644 -0.301697
18480 0.28829628 8.56743597 -3.3720403500000002 -0.169071 0.22050100000000006 -0.382819
18500 0.19085355 11.24805771 -3.1350798000000006 -0.22431 -0.053785 -0.473652
18520 -0.5959084500000001 14.311887480000001 -3.60675441 -0.27697 -0.199301 -0.534722
18540 -0.52719921 13.384714950000001 -3.01427946 -0.341212 -0.203526 -0.488164
18560 -0.04460607 10.79464932 -2.40086016 -0.111951 -0.253236 -0.509999
18580 0.47751156 8.97593418 -2.1594066300000003 0.093313 -0.143228 -0.492683
18600 1.00246428 7.433988570000001 -1.7938664100000001 -0.04178 -0.371359 -0.33523800000000004
18620 1.76737941 7.923026879999999 -1.05186744 -0.09519 -0.402002 -0.351595
18640 1.57113036 8.90887302 -0.33784659 0.098147 -0.381247 -0.381249
18660 0.66566736 9.30345084 0.15701886 0.263309 -0.313039 -0.265883
18680 0.35281665 8.828038620000001 0.18217170000000002 0.5301560000000001 0.08921799999999999 -0.126734
18700 0.89962605 7.46797041 -0.10238697000000001 1.060828 0.417729 0.110492
18720 1.03046202 7.0477983 -0.52795458 1.581222 0.364991 0.592758
18740 0.7319731500000001 6.991057260000001 -0.80502822 1.828224 0.150738 1.2100540000000002
18760 0.8044298100000001 6.77924955 -0.62001162 2.098266 0.122538 1.633924
18780 0.96429357 7.48563822 -0.44173449000000004 2.498611 -0.350438 1.817856
18800 0.44053767000000005 8.71936344 -0.9904862700000001 2.250929 -1.017829 1.898166
18820 -0.32901759 10.139164740000002 -1.6591456800000002 1.7241990000000005 -1.171579 1.909639
18840 0.35820234 11.169773910000002 -1.65944979 1.333428 -1.584163 1.796343
18860 1.5387966000000002 11.072625480000001 -1.52413065 1.181515 -2.027397 1.68155
18880 2.3140416600000004 10.03782744 -1.58401089 1.602373 -2.0327610000000003 1.326642
18900 2.5445570400000004 9.38323557 -1.52891793 2.48743 -1.743736 1.008783
18920 2.09324799 9.20586096 -1.42413732 2.97366 -1.638723 0.700124
18940 1.81512468 9.54789642 -1.1900216700000001 3.0298 -1.595996 0.35649400000000003
18960 0.41358960000000006 10.56846996 -0.8180460900000001 2.604151 -1.7748540000000002 0.165743
18980 0.52929855 12.550649130000002 0.24488703 2.264785 -1.455568 0.267649
19000 1.3013946 13.86342333 1.8691581600000002 1.964857 -0.980593 0.295924
19020 -0.00837774 13.535749710000001 0.64650843 1.935369 -0.95044 0.240131
19040 -1.07237034 14.16219669 -0.29907747 1.7111740000000002 -1.146079 0.075378
19060 -3.12280749 14.965429680000002 -0.3381507 1.247048 -1.122322 -0.135129
19080 -3.6152793000000005 14.436131130000001 -0.6036975900000001 0.794736 -0.8408200000000001 -0.34268000000000004
19100 -3.26740689 13.523183099999999 -0.99572481 0.216899 -0.377123 -0.44986
19120 -1.42473573 12.478055130000001 -1.43896023 -0.408885 0.224727 -0.432569
19140 1.03225725 11.766427920000002 -1.8675198900000003 -0.90104 0.689592 -0.373578
19160 2.6060853600000002 10.811571570000002 -1.4436003599999998 -1.16671 1.000205 -0.29785100000000003
19180 2.84393862 10.52641449 -1.4754828599999998 -0.6693100000000001 1.422975 -0.160323
19200 1.0428814800000001 9.97959528 -0.74949381 0.350946 1.71679 0.070754
19220 -0.5123861099999999 9.80490861 -0.64440909 0.476791 0.29935500000000004 -0.149809
19240 -0.36508896 11.799811350000002 -0.13157172 0.010404 1.047781 0.63539
19260 -0.5266008 14.411880810000001 -0.21031659 -1.318324 0.448064 -0.350546
19280 -1.73069982 13.776447870000002 -2.06061012 -1.426786 0.169827 -0.472724
19300 -2.10178269 11.32499754 -2.3474152800000003 -1.802442 0.6060439999999999 -0.01123
19320 -3.1261036500000006 8.92294056 -1.4507812800000002 -1.633328 0.356716 -0.144325
19340 -3.2067810900000002 8.28377001 -1.6796583900000002 -1.511526 0.075394 -0.227504
19360 -2.553543 7.7068733400000005 -1.3605194699999998 -1.395233 -0.010949 -0.314175
19380 -1.9734973199999999 6.77161737 -1.04063499 -1.296989 0.259237 -0.301016
19400 -0.6063855300000001 5.96898279 -0.51642783 -1.374974 0.7906529999999999 -0.4603390000000001
19420 0.95890788 5.44252914 -1.8244049400000002 -1.639861 1.389386 -0.50889
19440 1.0955709900000001 4.85051526 -3.39449544 -1.793841 1.603823 -0.454693
19460 -0.0142245 4.02542559 -3.4766738100000003 -1.787594 1.587749 -0.436469
19480 -0.6045903 2.9792577600000003 -3.46739355 -1.803376 1.614526 -0.459046
19500 -0.6912616500000001 3.59372673 -3.47996016 -1.809967 1.743713 -0.525487
19520 -1.12027257 4.24038231 -3.9960936900000004 -1.803832 1.907801 -0.539542
19540 -1.16353467 4.59469989 -5.150789550000001 -1.776137 1.888567 -0.548937
19560 -1.39150926 4.767140070000001 -5.973024510000001 -1.644461 1.516316 -0.545404
19580 -1.4388032700000002 4.861443600000001 -6.27166053 -1.568541 1.051703 -0.573121
19600 -0.9090632700000001 5.18432013 -7.270975800000001 -1.320753 0.736074 -0.710922
19620 0.24264054000000002 6.603218910000001 -9.50463432 -1.044474 0.6226079999999999 -0.813533
19640 0.16450389 5.07504654 -9.970619130000001 -0.8859670000000001 0.658783 -0.673603
19660 -3.62546208 7.205415570000001 -7.4423761200000005 -0.815612 0.7232069999999999 -0.595214
19680 3.09092499 13.12904673 -7.20811332 -0.7643260000000001 0.850417 -0.483924
19700 1.01623752 23.219563680000004 -12.41188668 -0.7694270000000001 0.735102 -0.413309
19720 2.31328629 11.575574370000002 -8.76921786 -0.728301 0.495911 -0.30696100000000004
19740 0.45699885 4.956639840000001 -5.744304360000001 -0.585248 0.265366 -0.31955300000000003
19760 0.6084848700000001 5.926927320000001 -5.413040280000001 -0.483232 0.101256 -0.393406
19780 1.31441247 6.1252659000000005 -4.49978814 -0.392917 -0.028831 -0.440679
19800 0.96713847 7.74743769 -3.30378237 -0.16405999999999998 -0.089509 -0.3834550000000001
19820 0.03367773 9.83798793 -3.1380718499999998 -0.07908 -0.093319 -0.303808
19840 -1.21831371 11.5016364 -3.3028798500000005 -0.138757 -0.099416 -0.325581
19860 -2.5182171899999997 12.1384035 -3.55091589 -0.217681 -0.165962 -0.398686
19880 -1.7884807200000001 11.26288062 -3.3124642200000003 -0.312684 -0.270717 -0.493219
19900 -0.59920461 10.245299130000001 -2.83870008 -0.397664 -0.159746 -0.465113
19920 0.21659499000000002 8.819062470000002 -2.3234690700000002 -0.08717899999999999 -0.090779 -0.398939
19940 0.48364281 9.15705621 -2.33140536 0.112306 -0.08724900000000001 -0.3890050000000001
19960 0.9168426000000001 9.1100565 -1.91751165 -0.05832 -0.394062 -0.238116
19980 1.21606722 9.2139444 -1.2347847 -0.137982 -0.5790350000000001 -0.265141
20000 0.9842078700000001 8.91770202 -0.6328823400000001 -0.05276 -0.5286270000000001 -0.423775
20020 0.6236020800000001 8.35307766 -0.08308088999999999 0.067471 -0.422284 -0.481824
20040 0.2894931 7.628432580000001 0.10537902 0.12775899999999998 -0.132465 -0.55014
20060 0.5017520700000001 7.25197383 -0.15642045 0.221919 0.098642 -0.6170770000000001
20080 0.45221157000000006 7.291939770000001 -0.39292974 0.369069 0.175512 -0.521076
20100 0.96908085 7.250168790000001 -0.3634408800000001 0.711767 0.080313 -0.188479
20120 0.97641873 7.86479472 -0.52840584 1.343664 0.005504 0.388597
20140 1.2581325 8.58120921 -0.62135559 1.993087 0.018041 0.951798
20160 1.2404745000000001 9.38249001 -0.6408186300000001 2.33204 0.135522 1.3813030000000002
20180 1.3859666099999999 9.7519248 -0.7801794900000001 2.522683 -0.200493 1.595642
20200 1.5060213900000003 10.01881566 -2.0392047 2.516793 -0.638945 1.7563959999999998
20220 1.8925157700000002 10.12449879 -2.4788496600000003 2.086901 -0.769803 2.085778
20240 2.19713589 10.209522060000001 -1.75599981 1.497955 -0.668044 2.190492
20260 2.1146534100000003 9.87122421 -1.4745803400000002 1.249613 -1.148551 1.890271
20280 1.9303823700000002 9.306001440000001 -1.53610866 1.485935 -1.961292 1.669705
20300 1.9401138900000001 9.31078872 -1.45706949 1.917022 -2.590737 1.263325
20320 1.6753125600000003 9.54564993 -1.26846243 2.358132 -2.4381 1.071795
20340 0.22722903 10.20712842 -0.73108044 2.515197 -1.824444 0.921486
20360 -0.26989272000000003 11.61254826 1.05560505 2.302787 -1.28407 0.769759
20380 0.71625753 12.160711440000002 1.6542112500000001 1.849529 -1.095608 0.919107
20400 -0.5502527100000001 12.3003666 0.29967588 1.923459 -0.912031 1.033688
20420 -1.80524601 12.970978200000003 -0.32093415000000003 2.040744 -0.776804 0.947808
20440 -2.8280660400000004 13.989305250000001 0.022602240000000003 1.862861 -0.9563 0.7021729999999999
20460 -3.77634969 14.236144470000001 0.4685256 1.487081 -1.123905 0.584394
20480 -3.78907326 13.734990810000001 0.86969574 1.070088 -1.029053 0.402967
20500 -3.04331706 12.979355940000001 1.03165884 0.666512 -0.894444 0.124374
20520 -1.9323345600000001 11.99979801 0.5611810500000001 0.273568 -0.973057 -0.121824
20540 -1.0955709900000001 11.027421000000002 -0.89259228 -0.108611 -0.923241 -0.26022199999999995
20560 -0.20642202000000004 10.79210853 -2.38139712 -0.50305 -0.5461090000000001 -0.190821
20580 -0.01511721 11.18758887 -3.10903425 -0.8926229999999999 -0.008248 -0.093819
20600 0.32213097 11.15360703 -2.85411159 -1.143003 0.328092 -0.07142899999999999
20620 -0.11690577 11.12292135 -1.1078433 -1.010835 0.583114 -0.024899
20640 -0.38723994000000006 10.834919370000001 -0.30266793 -0.161866 0.749681 0.208348
20660 0.39921795000000004 11.2127319 -0.31210515000000005 0.566182 0.8081229999999999 0.413116
20680 0.9937824300000001 12.525506100000001 -0.028439190000000003 1.256541 0.728454 0.55691
20700 -0.0011968200000000001 11.84367186 -0.8146027800000001 -0.362503 0.036485 -0.018602
20720 -1.9868193 9.568850580000001 -1.7498587500000002 -1.594142 0.19505 -0.242121
20740 -2.3742162 8.899739910000001 -1.7625823200000001 -1.637968 0.650189 -0.004797
20760 -2.4266016 8.28048366 -1.24301529 -1.542758 0.340493 0.104155
20780 -1.7079504300000001 8.463852180000002 -2.08605726 -1.478136 -0.052603 0.050631
20800 -1.29735288 8.60231052 -3.04916382 -1.324681 -0.121198 0.021881
20820 -0.8238830400000001 7.97316579 -1.52922204 -1.33773 0.06737699999999999 0.027957
20840 0.45549792000000006 7.140296790000001 -1.7699202 -1.405449 0.543225 -0.097039
20860 1.02192732 7.230715560000001 -3.28357377 -1.520069 1.191047 -0.29735900000000004
20880 0.10762551000000001 6.1397847 -3.76047711 -1.651261 1.591315 -0.381042
20900 0.43559343 4.5813681 -3.49717671 -1.741975 1.83977 -0.363834
20920 0.38319822000000003 4.57463844 -3.78383472 -1.719049 1.922915 -0.396895
20940 0.44008641 3.51813087 -4.430637450000001 -1.706522 1.914028 -0.582667
20960 0.2803698 3.83382648 -5.01846246 -1.66352 1.977721 -0.830276
20980 0.10088604 4.44740274 -5.717807550000001 -1.643487 2.0038560000000003 -0.989334
21000 0.23500836000000003 4.15206288 -5.94114201 -1.681527 1.795407 -1.042744
21020 0.35147268 3.3480843300000003 -5.607337139999999 -1.706939 1.479707 -0.926081
21040 -0.07978473 3.59657163 -5.814210419999999 -1.61394 1.193292 -0.7765810000000001
21060 0.0142245 4.11060582 -6.729552090000001 -1.440971 1.006182 -0.754837
21080 0.75473235 5.1663580200000006 -7.89533325 -1.277875 1.051115 -0.677912
21100 0.7890084900000001 7.7537259 -8.57836431 -1.106966 1.13983 -0.634103
21120 -0.4397823 10.63404 -8.00011386 -0.8930950000000001 1.27958 -0.602878
21140 0.57854475 15.77464677 -14.03885556 -0.8379489999999999 1.265299 -0.542654
21160 -0.15701886 14.8106475 -6.47268705 -0.8917069999999999 0.980877 -0.497799
21180 1.18494009 10.682982090000001 -7.752529080000001 -0.806365 0.6740520000000001 -0.565176
21200 0.15328125 7.199725770000001 -7.028786520000001 -0.7053 0.535512 -0.6390680000000001
21220 0.42272271 7.005134610000001 -6.754400820000001 -0.513049 0.5085069999999999 -0.7124659999999999
21240 1.1374891200000001 6.59259468 -5.0781857399999994 -0.21810900000000005 0.521813 -0.566213
21260 1.17610128 7.33669299 -4.60951299 -0.006886 0.438411 -0.405466
21280 -0.18771435 8.602163370000001 -4.09279086 0.050976 0.380187 -0.281073
21300 -1.9404180000000002 9.74488122 -3.9594141000000005 0.018513 0.054273 -0.268064
21320 -2.34891621 11.01663981 -3.7712583 -0.124643 -0.036648 -0.317017
21340 -1.41650514 11.158698420000002 -3.3374601000000004 0.139571 0.022469 -0.411388
21360 -0.14594337000000002 10.441391220000002 -2.8099567800000003 0.138576 0.5103800000000001 -0.414156
21380 0.73003077 8.845255170000001 -2.32825635 -0.095608 0.075922 -0.255002
21400 1.37025099 9.08221572 -2.02139955 -0.048227 -0.108358 -0.2993
21420 1.6104978900000002 9.349704990000001 -1.9483444800000003 0.314444 -0.126657 -0.299948
21440 1.784439 9.70462098 -1.7004654000000003 0.567635 0.041466 -0.20546
21460 1.5898478400000002 10.203381 -1.28417805 0.6377430000000001 0.348531 -0.066495
21480 0.8358610499999999 10.229279400000001 -0.68497344 0.661634 0.451848 0.182436
21500 0.74081196 9.12187755 -0.27781920000000004 0.9051 0.414278 0.5751539999999999
21520 1.05276015 7.6251462299999995 0.01257642 1.406842 0.393927 0.966449
21540 0.8255311200000001 6.639888689999999 0.10537902 1.7960169999999998 0.6353310000000001 1.264755
21560 0.53064252 6.82640622 -0.0145188 2.295831 0.520742 1.515153
21580 0.77059512 6.83298873 0.12185001000000001 2.38823 -0.089705 1.7120650000000002
21600 0.6122224800000001 7.52649687 -0.09205704 1.86239 -0.610505 1.871429
21620 0.50475393 7.82856639 -0.12154590000000001 1.165283 -1.257582 1.790477
21640 0.896634 8.66997009 -0.87448302 0.8645579999999999 -1.807919 1.682259
21660 1.11682926 9.596544210000001 -2.42031339 1.322417 -1.780825 1.436527
21680 1.4636520000000002 9.879601950000001 -2.44831113 2.188145 -1.531101 1.106833
21700 2.49306435 11.0447847 -1.9835231400000002 2.654392 -1.341943 0.818222
21720 2.4716589300000007 10.21744854 -1.6980717600000002 2.77991 -1.559267 0.4455
21740 2.6849675700000004 9.75760479 -0.9424368900000001 2.574729 -1.779654 0.059789
21760 1.8851778900000002 9.899516250000001 -0.82478556 2.285904 -1.50263 0.030711
21780 0.24713352 11.238031890000002 -0.10583028000000001 2.12305 -1.009528 0.201994
21800 0.9729754200000001 13.258676069999998 2.2150980000000002 2.083819 -1.131081 0.263832
21820 -0.04086846000000001 12.684918600000001 1.3733901900000003 1.926261 -1.433567 0.121046
21840 -1.0779129900000002 13.605057360000002 -0.5924651400000001 1.642006 -1.608058 0.047713
21860 -2.6417054700000002 13.843067580000001 -0.3210813 1.342608 -1.359559 -0.031609
21880 -3.8191605300000004 13.04208108 -0.06107706 1.011559 -1.043789 -0.122988
21900 -3.89400102 12.159367470000001 -0.19594493999999998 0.529054 -0.686076 -0.182364
21920 -2.9084491800000003 11.98632888 -0.39892365 -0.029141000000000007 -0.232557 -0.159071
21940 -1.5742793700000002 11.61914058 -1.4995860300000001 -0.535558 0.122723 -0.122471
21960 0.08382645000000001 11.275604190000001 -2.05462602 -0.928525 0.393159 -0.012331
21980 1.5865516800000001 10.917244890000001 -1.5783210900000002 -1.158508 0.665991 0.156629
22000 1.83069315 10.39289058 -2.56686498 -1.003985 0.8679479999999999 0.399936
22020 -0.03697389 9.79338186 -2.84049531 0.469689 1.409407 0.645613
22040 -0.34712685000000004 10.418033609999998 -1.04782572 1.706618 1.138426 1.004977
22060 0.05658408 12.53478636 -0.40550616000000006 0.966811 0.25498000000000004 0.930438
22080 -0.31075136999999997 14.466669660000003 -1.66229469 -1.195684 0.092481 0.020372
22100 -1.66199058 13.68618606 -2.5866223200000005 -1.44711 0.16879 -0.462182
22120 -1.6790599800000001 12.00952953 -2.30835186 -1.640147 0.22480300000000006 -0.183728
22140 -2.0430992700000004 10.659781440000001 -2.42255988 -1.507752 -0.007818 -0.200665
22160 -1.6881930900000002 10.317598830000001 -3.8880169200000005 -1.379146 -0.177399 -0.261506
22180 -1.19945889 9.81 -2.99198133 -1.3557709999999998 -0.193481 -0.255981
22200 -0.75547791 8.06732217 -1.5061685400000002 -1.410762 0.109422 -0.299483
22220 0.54426861 6.675371460000001 -0.94348656 -1.43426 0.70862 -0.407237
22240 1.71752499 5.99114358 -2.5515908100000004 -1.53807 1.360883 -0.395979
22260 0.6634208699999999 6.318356130000001 -3.80433762 -1.701324 1.913997 -0.313439
22280 0.048353490000000006 4.26328866 -3.54792384 -1.861217 2.225442 -0.27115700000000004
22300 0.33006726 2.9564985600000004 -3.3961337100000004 -1.924472 2.403527 -0.262214
22320 0.32722236 2.8276245900000005 -3.20977314 -1.997838 2.507873 -0.451935
22340 -0.4016115900000001 3.47517288 -3.5464229100000004 -2.047744 2.591969 -0.659626
22360 -1.23418629 3.82454622 -4.27465845 -1.980191 2.561267 -0.765937
22380 -1.2025980900000002 3.7938605400000003 -4.83449553 -1.925515 2.42031 -0.7279869999999999
22400 -1.0000706400000001 3.7363837500000003 -5.27742684 -1.823841 2.037437 -0.70649
22420 -0.73167885 3.0895712100000003 -5.23791216 -1.63468 1.567261 -0.772932
22440 -0.08981055 3.3437483100000005 -5.949078300000001 -1.494799 1.250811 -0.8783719999999999
22460 0.66447054 3.7175191200000004 -7.78725648 -1.422156 1.166824 -0.983511
22480 1.34286147 5.335060590000001 -9.712704420000001 -1.304696 1.161202 -1.011525
22500 1.99969002 7.879166370000001 -10.73327796 -1.229524 1.137084 -0.906284
22520 -1.58355963 10.491382980000001 -10.723850550000002 -1.131857 1.126762 -0.807312
22540 1.8791937900000002 11.893369320000001 -5.64341832 -0.980914 1.077997 -0.7314189999999999
22560 0.9324110700000001 17.04251079 -13.23577953 -0.914125 0.8727209999999999 -0.603571
22580 0.42197715 8.50681017 -7.3569015900000005 -0.916402 0.526931 -0.441843
22600 -0.70757568 7.64296119 -6.68733966 -0.834606 0.237847 -0.414195
22620 0.08412075 7.411092030000001 -5.81854644 -0.6906800000000001 0.273329 -0.354483
22640 0.47211606000000006 8.02510974 -5.393430090000001 -0.527496 0.510273 -0.342965
22660 -0.12603888 8.01059094 -4.3843833000000005 -0.332747 0.747775 -0.231882
22680 -1.21861782 9.0784683 -3.4777136700000004 -0.270334 0.677056 -0.183285
22700 -1.65555522 10.670856930000001 -3.98366442 -0.367694 0.34092100000000003 -0.221991
22720 -1.7747074800000002 10.40531004 -4.16478645 -0.501414 -0.047152 -0.293998
22740 -1.1758069800000002 9.39550788 -3.9490841700000003 -0.612286 -0.12520599999999998 -0.391881
22760 -0.10358379000000001 8.67580704 -3.42846747 -0.6095119999999999 -0.313394 -0.485624
22780 0.92642697 7.56631566 -2.65442904 -0.634074 -0.350465 -0.517795
22800 1.4024376 8.88522111 -2.336791050000001 -0.5793689999999999 -0.508373 -0.503323
22820 1.9583801100000002 9.971511840000002 -1.99145943 -0.612688 -0.282593 -0.460048
22840 2.0836636200000003 10.442283930000002 -2.13306678 -0.550652 -0.172324 -0.383913
22860 2.08126998 10.1917071 -2.14369101 -0.481915 -0.156132 -0.230697
22880 1.97679348 9.393418350000001 -1.83114441 -0.5818 0.228549 -0.17313599999999998
22900 1.4864112000000003 8.507261430000002 -1.38267045 -0.410558 0.6378739999999999 -0.120121
22920 1.04512797 7.66676025 -0.7231441500000001 -0.06994600000000001 0.8395879999999999 0.023005
22940 0.6045903 7.05423366 -0.2775249 0.216347 1.005498 0.109181
22960 0.29429019 6.868471500000001 -0.12529332 0.655393 0.928295 0.38688
22980 0.27333603 7.006184280000001 -0.030391380000000003 1.151655 0.62041 0.760346
23000 0.5742087300000001 7.190592659999999 0.16256151000000002 1.50408 0.08306799999999999 1.09785
23020 0.70637886 7.571858310000001 0.15866694 1.9472080000000005 -0.296702 1.113182
23040 0.42870681 8.24291136 0.02664396 2.459515 -0.517821 1.087134
23060 0.2137599 9.13684761 -0.25282332 2.803788 -0.504568 0.937834
23080 0.25925868 10.11311919 -1.0990143 2.928572 -0.247433 0.729004
23100 0.65279664 10.05384717 -1.5783210900000002 2.874379 0.3192 0.533483
23120 1.32968664 11.093726790000002 -1.40153508 2.613105 1.150647 0.626733
23140 1.64822715 10.261014750000001 -0.52420716 2.298943 1.76752 0.8790530000000001
23160 2.0101671000000003 9.916428690000002 0.14265702 2.198543 1.7327549999999998 0.8687819999999999
23180 1.86078042 8.820857700000001 0.5833418400000001 2.3175 1.502688 0.757745
23200 1.49658417 8.66382903 0.35776089000000005 2.339142 1.128459 0.5522090000000001
23220 1.38012966 9.13729887 0.11420802000000001 1.955101 0.5380050000000001 0.425301
23240 0.8735805000000001 9.82241946 -0.19295289 1.575866 0.221646 0.214754
23260 0.50939406 10.03244175 0.14309847 1.15206 0.166551 -0.025281
23280 -0.46358136 9.148374360000002 0.57450303 0.702731 0.057508 -0.338064
23300 -0.27707364 9.772133400000001 1.75404762 0.276427 -0.00533 -0.5044
23320 -0.64725399 9.52259643 1.9184141700000001 -0.085486 0.020008 -0.666125
23340 -0.9202859100000002 9.955649069999998 1.16697798 -0.438295 0.208157 -0.791676
23360 -0.8458868700000001 11.04687423 0.5496543 -0.617391 0.420997 -0.8487469999999999
23380 -1.58939658 11.793827250000001 0.39548034000000004 -0.704557 0.658187 -0.681949
23400 -1.4010838200000002 11.237580629999998 0.23815737 -0.799093 0.754487 -0.440247
23420 0.87627825 13.178292930000001 1.21307517 -0.862793 0.616215 -0.17239100000000002
23440 1.04467671 13.78168641 1.8377269200000002 -0.8448040000000001 0.292632 0.012952000000000002
23460 0.25282332 13.85579115 1.7874310500000001 -0.661948 -0.018286 0.08513
23480 -0.7086253500000002 12.821287410000002 2.00583108 -0.36059 0.045831 0.040151
23500 -1.1846359800000001 10.874885310000002 1.0389869100000002 -0.033574 0.19903 0.07321799999999999
23520 -2.2409865900000003 8.87519529 0.92267955 0.387497 -0.119767 0.310508
23540 -2.7445437000000004 8.6588946 -0.2168991 0.66771 -0.17614100000000002 0.578525
23560 -3.29584608 9.48158082 0.08352234000000001 0.695872 -0.948898 0.6619649999999999
23580 -3.9651039000000003 11.38951791 0.15701886 0.21070100000000005 -1.370209 0.415561
23600 -3.7252984500000004 12.579990839999999 -0.15701886 0.034591000000000004 0.04294 0.419998
23620 -2.7634083300000003 12.072244860000001 -1.1816439300000001 -0.262866 0.8849870000000001 0.025872000000000003
23640 -2.14399512 11.149859609999998 -1.8532953900000002 -0.620919 1.712584 -0.431684
23660 -1.41860448 10.24604469 -1.5513730200000002 -1.29131 2.428079 -0.8229120000000001
23680 -0.93031173 9.600585930000001 -1.74896604 -1.811366 2.52791 -1.094796
23700 -0.17468667000000002 9.00138132 -2.00358459 -1.8789240000000005 2.747248 -1.27501
23720 0.24204213000000002 8.51399109 -1.8094348800000002 -1.759368 3.182962 -0.850649
23740 0.40804695 7.1995786200000005 -2.47510224 -1.5948639999999998 3.108738 -0.015124
23760 0.26794053 6.350395590000001 -2.71086597 -1.579482 2.954394 0.207372
23780 0.0981981 5.2120137600000005 -2.8113007500000005 -1.6473060000000002 2.963525 0.113951
23800 0.46732878 4.53871422 -3.2123237400000004 -1.620186 3.124994 -0.062323
23820 0.7762849200000002 4.37345496 -3.89669877 -1.444439 3.139931 -0.22028000000000006
23840 1.2656175300000003 4.84497261 -4.438416780000001 -1.146394 3.222948 -0.459723
23860 1.33822134 5.526806850000001 -4.714892010000001 -0.948737 3.072912 -0.672862
23880 1.50766947 6.35054274 -5.0786370000000005 -0.8567040000000001 2.6539650000000004 -0.67916
23900 1.74507147 6.8633801100000005 -5.874679260000001 -0.753556 2.3626970000000003 -0.656702
23920 1.96331454 7.68816567 -6.87056103 -0.809493 2.335957 -0.5812149999999999
23940 2.39846652 9.290884230000001 -7.628736689999999 -0.812384 2.1963 -0.552214
23960 2.43334107 10.26489951 -7.725581010000001 -0.849211 1.7992279999999998 -0.58935
23980 2.5495012800000003 10.36204794 -7.38309429 -0.81642 1.226138 -0.6247060000000001
24000 2.3144831100000003 9.752670360000002 -6.40114272 -0.690861 0.709975 -0.591121
24020 0.18741024 9.78245352 -5.40959697 -0.379595 0.26007 -0.505049
24040 -3.30706872 14.00412816 -7.1756324099999995 -0.17138699999999998 0.210797 -0.351844
24060 -4.5782289 22.532343750000003 -5.20527429 -0.095642 0.172443 -0.15044000000000002
24080 -4.84047963 13.36345668 0.55849311 -0.014403999999999997 0.10132 -0.017322
24100 -4.2332013900000005 4.9810373100000005 0.03143124 0.076876 0.039044 0.026124
24120 -4.66280091 3.5265184200000004 -0.08667135 0.198628 0.08329600000000001 0.042941
24140 -3.0250606500000004 4.378095090000001 1.45886472 0.334963 0.295773 0.069259
24160 -1.6790599800000001 5.651943210000001 1.80225396 0.59845 0.412598 0.195931
24180 -0.24519114 10.45665558 0.9580053600000001 0.902992 0.5563739999999999 0.473476
24200 -0.5396284800000001 16.738793190000003 0.30402171 1.2604030000000002 0.630576 0.787798
24220 -2.25116937 15.62435757 0.08352234000000001 1.879469 0.640447 0.979048
24240 -0.61671546 11.146122000000002 0.37721412000000004 2.700565 0.590547 1.0243719999999998
24260 -0.09834525 9.16678773 0.07275096 3.34996 0.69398 0.968955
24280 0.0031392000000000004 8.38032003 0.46522944000000005 3.66962 0.849318 0.7402529999999999
24300 0.2718351 7.896824370000001 0.7687998900000002 3.135279 1.755707 0.178815
24320 0.70413237 8.09635977 1.13388885 2.299407 2.554543 0.13456500000000002
24340 1.37953125 8.851994640000001 1.06309008 2.066414 2.236902 0.383309
24360 1.45152684 9.85999176 1.04034069 2.064636 1.523607 0.541239
24380 1.7612383500000002 10.021954860000001 1.18748088 2.064302 0.478657 0.520143
24400 2.38393791 10.15143705 0.7354164599999999 1.957014 -0.025372 0.385444
24420 3.1599285300000006 9.3443193 -0.06151851 1.713786 -0.025678 0.14019
24440 3.5848977300000002 8.81351982 -0.7488954 1.204572 -0.285192 -0.054246
24460 3.78532584 8.90932428 -1.1981051100000002 0.644105 -0.44483 -0.139141
24480 3.7989519300000003 9.242677890000001 -1.2633710399999998 0.234779 -0.410197 -0.18691
24500 3.90643029 9.123074370000001 -0.98839674 -0.109268 -0.200657 -0.341269
24520 3.8414586600000002 10.054445580000001 -0.27437589 -0.448212 -0.127149 -0.5808760000000001
24540 2.71699722 9.12232881 0.39832524 -0.64983 0.221364 -0.714122
24560 1.77979887 8.68628412 0.7337781900000001 -0.6586420000000001 0.834081 -0.7523569999999999
24580 1.42159653 9.278307810000001 0.84858462 -0.752699 1.278597 -0.745037
24600 0.7937957700000001 9.75850731 0.27497430000000006 -0.91287 1.466719 -0.7645569999999999
24620 -0.27961443 10.113717600000001 -0.39653001 -1.057076 1.271948 -0.683062
24640 -0.05163984 12.15562005 -0.40775265 -1.0169709999999998 0.8429909999999999 -0.53909
24660 -1.27370097 13.977180090000001 0.66222405 -0.548876 0.546384 -0.297227
24680 -1.3040923500000001 13.08489192 2.10477474 -0.07373400000000001 0.340514 -0.108842
24700 -1.2223554300000001 11.829005910000001 1.02013209 0.274121 0.031878 0.048876
24720 -1.518588 11.49265044 0.5855785200000001 0.7145520000000001 -0.276129 0.501
24740 -2.8847972700000004 11.058400980000002 -0.26869590000000004 0.667656 -0.262022 0.7431409999999999
24760 -4.7316573 11.007957959999999 -1.08494676 0.124534 -0.910489 0.343868
24780 -6.28243191 13.39698726 -2.03396616 -0.179052 -0.650342 0.019879
24800 -6.991361370000001 17.27947134 -0.43305264000000004 -0.137015 0.496185 -0.355174
24820 -4.24966257 13.759535430000001 -1.38326886 -0.147119 1.525462 -0.401429
24840 -0.2775249 11.3080851 -2.6411070600000004 -0.8349799999999999 2.671319 -0.5091829999999999
24860 0.9153416700000001 10.790607600000001 -2.9877826500000007 -1.577625 3.102136 -0.775569
24880 1.63355139 9.724231170000001 -2.85171795 -1.913524 3.226313 -1.167975
24900 1.45242936 7.85641698 -2.18260728 -1.736986 3.238989 -1.02789
24920 0.35102142000000003 6.160738860000001 -2.24607798 -1.457292 3.018025 -0.093095
24940 -0.35311095000000003 5.29658577 -2.4617802600000003 -1.388068 2.945635 0.100829
24960 -0.44068482 5.29029756 -2.91368772 -1.456733 2.947543 -0.050272
24980 -0.41418801000000005 5.26844088 -3.18851487 -1.411402 2.952095 -0.162124
25000 -0.8098155 4.9969098899999995 -3.44642958 -1.232146 2.894196 -0.223823
25020 -1.24660575 4.85904996 -4.0757214600000005 -1.059336 2.9772830000000003 -0.372274
25040 -0.81939987 5.049000990000001 -3.9035853900000004 -0.951111 3.104537 -0.587462
25060 -0.22123512000000004 5.81361201 -3.73383315 -0.914804 3.0174380000000003 -0.682168
25080 0.2809682100000001 6.2240526 -4.05012717 -0.944343 2.873651 -0.6629619999999999
25100 1.20529584 6.25145193 -4.856205060000001 -0.8931950000000001 2.500162 -0.546758
25120 1.6890858000000002 7.01111871 -6.076765260000001 -0.81842 1.964505 -0.389589
25140 3.02939667 8.557998750000001 -7.761809340000001 -0.7102229999999999 1.3622 -0.37738
25160 4.41192978 10.08123669 -8.781038910000001 -0.6268779999999999 0.882669 -0.410366
25180 4.6217853 10.15219242 -9.39057345 -0.473046 0.6490020000000001 -0.450653
25200 4.611161070000001 9.194177250000001 -7.409591100000001 -0.317356 0.566696 -0.5156890000000001
25220 1.8473112900000002 9.67378815 -6.0242229 -0.302252 0.62727 -0.492161
25240 -1.6646883300000002 14.213247930000003 -5.70179763 -0.244727 0.645029 -0.454394
25260 -3.16591263 21.45832533 -5.15856888 -0.227787 0.6968439999999999 -0.373157
25280 -6.40383066 12.84104475 -1.30034493 -0.194036 0.563754 -0.419753
25300 -5.84819226 4.00492269 -1.8413173800000002 -0.13736700000000002 0.45014 -0.561285
25320 -4.13933931 4.15146447 -1.2696592500000001 -0.135236 0.6749539999999999 -0.573308
25340 -2.71235709 4.581525060000001 2.27871585 -0.030778 0.95344 -0.5099100000000001
25360 -1.90897695 6.08784075 2.5691114699999997 0.17965599999999998 0.931827 -0.349248
25380 -0.23860863000000002 12.64016538 1.0517104800000001 0.102152 0.4457600000000001 -0.207093
25400 -0.37302525000000003 19.867584780000005 0.40311252 0.228953 0.233087 -0.14611400000000002
25420 -1.9694556 14.73086277 0.6224052600000001 0.606054 0.497465 0.012142
25440 -0.047902230000000004 10.275680699999999 0.55968993 0.871626 0.5336029999999999 0.06842999999999999
25460 0.04730382 8.908578720000001 1.12625667 1.083181 0.608477 0.075153
25480 -0.51059088 8.62356879 1.62891126 1.368441 0.733043 0.112237
25500 -0.17858124000000003 8.77610448 1.83069315 1.478814 0.84885 0.359619
25520 -0.32033574000000004 8.56788723 1.56110454 1.49098 0.6595979999999999 0.789371
25540 0.36059598 8.85977397 1.41904593 1.884121 0.090549 1.294911
25560 1.674567 10.22509053 1.22775093 2.5241130000000003 -0.709129 1.7191490000000005
25580 3.05364699 10.77684417 0.90621837 2.695454 -0.8776360000000001 1.885068
25600 4.64064993 10.89524106 0.5855785200000001 2.418743 -1.041475 1.805365
25620 5.14091088 10.146502620000001 -0.16884972000000004 2.11638 -1.36654 1.574002
25640 4.70981043 9.337883940000001 -0.51807591 1.847018 -1.5602200000000002 1.491184
25660 3.6781515900000006 8.666830890000002 -0.7662591000000001 1.964437 -1.435484 1.364725
25680 2.6834666400000002 8.3668509 -0.77733459 2.380415 -1.29496 1.293744
25700 2.02573557 8.73193986 -0.9015782400000001 2.851462 -1.413877 1.053632
25720 1.8606332700000001 9.56316078 -1.0324044 3.156474 -1.346295 0.672184
25740 1.6271160300000003 10.021209299999999 -0.29862621000000006 2.889895 -1.350655 0.395794
25760 1.5167927700000001 9.74324295 0.046548450000000005 2.772585 -1.276044 0.220759
25780 0.86205375 9.123525630000001 -0.28455867 2.47715 -1.30252 0.171728
25800 0.54007974 9.36257571 -0.64426194 2.056584 -1.172977 0.108804
25820 -0.1502892 10.48704696 -0.21075804 1.697784 -1.006613 0.108221
25840 -1.6039153800000001 12.325372290000002 1.0554579000000002 1.378591 -1.088436 0.06763999999999999
25860 -0.85606965 14.422063590000002 2.88405171 0.980495 -0.964216 -0.015416999999999997
25880 -0.025594290000000002 14.154113250000002 1.49030577 0.45277 -0.731912 -0.109131
25900 -0.50160492 15.01857045 -0.6562399500000001 -0.208242 -0.483162 -0.203798
25920 -0.51972399 15.950530259999999 -0.27946728 -0.771514 -0.286051 -0.257123
25940 -1.68998832 14.61380985 0.5201654400000001 -1.118556 0.06479700000000001 -0.315544
25960 -1.81287819 13.3210971 1.25708283 -1.359452 0.616274 -0.289091
25980 -1.9513463400000002 12.1494888 1.75061412 -1.353938 1.029036 -0.152849
26000 -2.02124259 11.25465003 0.57136383 -0.458007 1.325852 -0.031604
26020 -0.90950472 10.59451551 -0.9401904 1.5380049999999998 1.131327 0.529517
26040 0.16854561000000004 10.736270010000002 -1.78293807 1.267332 0.073153 0.586667
26060 1.1319464700000001 10.54572057 -2.28424869 -1.459159 0.06256 -0.260236
26080 1.36456119 10.81681011 -2.9819457000000003 -1.243848 0.862146 -0.603725
26100 0.7349750100000001 11.83977729 -1.7711170200000002 -1.739697 0.957573 -0.328504
26120 -0.43349409 12.57624342 -0.54591669 -1.717774 0.754524 -0.186018
26140 -1.7917768800000002 12.51218412 -0.5806440900000001 -1.546198 0.5013449999999999 -0.157789
26160 -2.54381148 12.11759649 -0.20058507 -1.458783 0.577372 -0.06540900000000001
26180 -2.69828955 10.82713023 -0.7038380700000001 -1.371157 0.964242 -0.184933
26200 -2.19188754 10.135270170000002 -1.84775274 -1.41961 1.3605040000000002 -0.403697
26220 -1.82679858 8.778498120000002 -2.0689976700000003 -1.579242 1.802575 -0.5271560000000001
26240 -1.80794376 7.447310550000001 -2.11106295 -1.768865 1.940356 -0.452813
26260 -1.2600748800000001 6.889572810000001 -2.1990782700000002 -1.806488 1.960394 -0.36978
26280 -0.26135802 6.28917138 -1.78458615 -1.834174 1.894755 -0.44787
26300 0.45266283000000007 5.328615419999999 -2.27571399 -1.742107 1.842727 -0.570005
26320 1.16997003 3.5860945500000003 -3.2430094200000004 -1.698347 1.7672599999999998 -0.64972
26340 1.3154621400000002 3.52472319 -3.93202458 -1.75503 1.6516849999999998 -0.735425
26360 0.6563871 4.0899459600000005 -4.137691230000001 -1.746765 1.323673 -0.765926
26380 -0.50759883 3.93561504 -4.20954948 -1.734257 1.034883 -0.751581
26400 -1.2921143400000001 4.11120423 -4.47284988 -1.521866 0.906897 -0.8973479999999999
26420 -1.25229555 3.5313057000000003 -5.04031914 -1.354239 0.8735350000000001 -0.958092
26440 -1.23523596 3.35152764 -5.672151810000001 -1.271908 0.902057 -0.969304
26460 -0.6403673700000001 2.9129421600000005 -5.7269406599999995 -1.103397 0.980997 -0.8763610000000001
26480 -0.12993344999999998 3.84625575 -6.68180682 -0.8610270000000001 1.039737 -0.857651
26500 0.10733121 5.026251600000001 -8.40966174 -0.7411909999999999 1.089605 -0.64537
26520 -0.0142245 7.91463933 -11.37679434 -0.6912520000000001 0.883523 -0.5678449999999999
26540 -0.7774817399999999 11.20045959 -12.42640548 -0.618278 0.492357 -0.578585
26560 -2.08666548 11.09597328 -7.64834688 -0.53617 0.147316 -0.676914
26580 0.33695388000000004 15.41254986 -6.265372320000001 -0.529311 0.044893 -0.64362
26600 0.27303192 12.50319816 -8.56024524 -0.21532 0.046324 -0.474786
26620 -0.32198382000000003 7.24373343 -7.24224231 -0.08327799999999999 0.201608 -0.261486
26640 0.5536960200000001 6.160287600000001 -5.00214843 -0.134677 -0.013656 -0.197476
26660 1.48505742 6.28407999 -4.36627404 -0.293579 -0.230444 -0.191899
26680 0.61642116 7.3726172100000005 -3.69177768 -0.31411300000000003 -0.378087 -0.281584
26700 0.27841761000000004 9.067245660000001 -3.3202435500000003 -0.043374 -0.534158 -0.380974
26720 -0.88600977 11.30373927 -3.47187672 0.183932 -0.33765700000000004 -0.434117
26740 -0.5516064900000001 12.01520952 -3.66108219 0.277116 -0.390596 -0.329781
26760 0.45924534000000006 11.06289396 -3.1177161 0.146793 -0.619356 -0.285533
26780 1.1268550800000001 9.53158239 -2.54306592 0.035578 -0.445305 -0.291874
26800 1.50916059 9.63007479 -2.34801369 0.229689 0.030137 -0.276172
26820 1.73339757 9.43458111 -2.20161906 0.772515 0.6580739999999999 -0.07022300000000001
26840 1.78264377 9.22501989 -1.84356387 1.553713 1.147876 0.373645
26860 1.4229405000000002 9.724378320000001 -1.43012142 2.1008150000000003 1.147175 1.13911
26880 1.04197896 9.831709530000001 -0.9985697100000002 2.026378 0.8893129999999999 2.018067
26900 0.88166394 9.32949639 -0.49741605 2.445497 0.488988 2.132603
26920 0.8015849100000001 7.985742210000001 -0.42092748 3.06914 -0.497897 1.968376
26940 0.59920461 7.14538818 -0.61896195 2.929924 -1.50126 1.791365
26960 0.55295046 6.69766959 -0.55968993 2.716228 -2.11077 1.487278
26980 0.28755072000000004 7.05138876 -0.30910329 2.429962 -2.768853 1.13895
27000 0.7375158 7.30794969 -0.38634723000000004 2.407335 -3.208119 0.985531
27020 0.55400013 7.95490938 -0.5480062200000001 2.839671 -2.99731 0.906027
27040 0.93735531 8.50965507 -0.41987781 3.097575 -2.774913 0.478119
27060 1.8558361800000003 9.1479231 -0.81744768 2.949295 -2.667439 0.104136
27080 2.4608777400000004 9.55882476 -1.9734973199999999 2.538123 -1.95584 0.195424
27100 2.87821476 10.7498961 -2.7125140500000002 2.06555 -0.857505 0.329584
27120 3.13567821 10.85318559 -1.85314824 1.885753 -0.93282 0.139349
27140 3.3404521500000004 10.639719990000001 -1.5464385900000002 1.702821 -1.189389 -0.009014
27160 2.5590758399999998 9.474252750000002 -1.29151593 1.391022 -1.008283 -0.007151
27180 1.96331454 9.765246780000002 -0.7845155100000001 0.990754 -0.769502 0.033544
27200 0.34338924000000004 10.562633009999999 0.17708031000000002 0.425429 -0.568067 -0.033688
27220 0.46718163 12.32162487 1.21127994 -0.159142 -0.308247 -0.032763
27240 -0.48873420000000006 14.17537152 1.99774764 -0.575756 0.056436 -0.027595
27260 -2.32287066 15.051953880000001 1.4907472200000003 -0.952733 0.421125 -0.058469000000000014
27280 -2.39397354 16.580567700000003 0.23096664 -1.351751 0.643088 -0.075428
27300 -3.8311287300000005 16.93742607 -0.22034241 -1.541236 0.830859 0.01808
27320 -4.27197051 15.281723700000002 -0.12169305 -1.352626 0.97854 0.218966
27340 -2.86623675 13.17769452 -0.50908995 0.332939 1.316346 0.5935020000000001
27360 -0.9367569000000001 12.10742352 -1.6301080800000003 2.42225 1.036093 1.20025
27380 1.08509391 11.56061412 -2.2120961400000003 -0.054425 -0.441717 0.752214
27400 3.2986909800000004 11.046727080000002 -1.9715549400000003 -1.6758080000000002 -0.148733 0.019463
27420 3.43355886 10.46294379 -0.36704115 -1.600963 0.579734 -0.000175
27440 1.78518456 8.86591503 -1.08105219 -1.720519 0.944017 0.379878
27460 1.3169630700000001 9.644142330000001 -1.75240935 -1.630235 0.530723 0.293444
27480 0.52092081 12.40066404 -1.18958022 -1.513465 0.340934 0.234683
27500 -1.1148770700000001 13.510900980000002 -2.40459777 -1.442391 0.342337 0.088831
27520 -1.72411731 12.223730880000002 -2.4010073100000002 -1.352531 0.538308 -0.245146
27540 -1.80194985 9.73066653 -1.57502493 -1.420341 0.957843 -0.406391
27560 -1.5028723800000001 7.853719230000001 -1.5916430700000002 -1.5325959999999998 1.396001 -0.391713
27580 -1.65390714 6.695874360000001 -0.9354031200000001 -1.677525 1.735006 -0.327998
27600 -0.94767543 4.97280672 0.14699304000000002 -1.781454 1.925845 -0.27662600000000004
27620 -0.41329530000000003 3.8986411500000004 -2.3227235100000003 -1.847962 2.023258 -0.337036
27640 -0.9874942200000001 4.195472130000001 -3.7071891900000002 -1.840841 2.086474 -0.434275
27660 -0.9466355700000001 3.08448963 -3.6554022 -1.818972 2.134617 -0.504687
27680 -0.34817652000000004 3.58279839 -3.5334050400000003 -1.80319 2.008106 -0.582394
27700 -0.41478642000000004 3.89115612 -3.6069015600000003 -1.749988 1.701273 -0.6200859999999999
27720 -1.52023608 4.23439821 -4.11868926 -1.6854619999999998 1.335678 -0.624508
27740 -1.8778498200000002 4.16673864 -5.16006981 -1.512273 1.01826 -0.7831239999999999
27760 -1.8622813500000002 3.7504512900000004 -5.964646770000001 -1.265843 0.878395 -0.917956
27780 -1.19242512 3.5417827800000006 -6.13005318 -1.105991 0.789614 -0.965864
27800 -0.6665600700000001 3.36964671 -6.2129771100000015 -0.977451 0.799283 -0.831451
27820 -0.56253483 3.6759051 -6.8889744 -0.79538 0.932962 -0.852783
27840 -0.26779338 4.617743580000001 -7.95266289 -0.6861649999999999 0.966995 -0.667261
27860 0.40400523 6.23064492 -9.18161064 -0.636554 0.936639 -0.578214
27880 0.1038879 10.337650470000002 -12.027040379999999 -0.57253 0.761469 -0.517721
27900 -1.7398329300000002 13.433215590000001 -14.501838509999999 -0.506253 0.528044 -0.542597
27920 0.48034665000000004 12.85691733 -3.87933507 -0.510961 0.381248 -0.59158
27940 0.19714176 13.58544717 -12.06760473 -0.363391 0.265498 -0.544467
27960 -0.07229970000000002 5.100640830000001 -5.327418600000001 -0.216653 0.29744 -0.401409
27980 -0.29742939 6.45682428 -7.438785660000001 -0.16103900000000002 0.203047 -0.287669
28000 1.12221495 6.0396442200000005 -5.522912280000001 -0.174251 -0.087878 -0.25
28020 1.3642668900000001 7.91763138 -4.46476644 -0.305046 -0.232286 -0.253933
28040 1.3030426800000001 8.74167138 -3.00290967 -0.231284 -0.26424200000000003 -0.318539
28060 -0.7864677000000001 10.741508549999999 -3.34150182 0.046359 -0.287262 -0.396687
28080 -1.71587691 11.041488540000001 -3.50839935 0.148714 -0.466878 -0.323102
28100 -1.18748088 10.48315239 -3.5938738800000003 0.085522 -0.705494 -0.269827
28120 -0.7385654700000001 9.98139051 -3.1849244100000007 0.018176 -0.738269 -0.27346
28140 0.15148602000000003 9.50283909 -2.4343907400000004 0.14269400000000002 -0.6319239999999999 -0.335752
28160 1.01145024 9.45060084 -2.0341231200000003 0.345381 -0.322943 -0.25782
28180 1.31980797 9.88469334 -1.9443027600000002 0.699195 0.161199 -0.158761
28200 1.4892561 9.80191656 -1.5483809699999997 1.201373 0.611042 0.130454
28220 1.43985294 9.796373910000002 -1.2347847 1.677707 0.727825 0.6154
28240 1.4218908300000002 9.96522363 -1.16727228 1.987836 0.6546270000000001 1.334437
28260 1.53161568 9.01036728 -0.60683679 2.0204470000000003 0.640417 1.662627
28280 1.4964370200000001 7.7306724 -0.40969503 2.618029 0.182439 1.654569
28300 1.06638624 6.71967342 -0.3614985 2.854802 -0.853555 1.58598
28320 0.7857123300000001 6.92999001 -0.43693740000000003 2.561528 -1.545998 1.577341
28340 0.33889626 7.160358240000001 -0.26061246000000005 2.27862 -2.054351 1.3442120000000002
28360 0.62135559 7.840250100000001 -0.54112941 1.954709 -2.360431 1.1789040000000002
28380 0.72718587 8.6270121 -0.7146094500000001 1.891501 -2.42941 1.167869
28400 0.85068396 9.023385150000001 -0.64321227 2.160232 -2.1769830000000003 1.212151
28420 1.04572638 9.79742358 -0.8406483299999999 2.252598 -1.923286 1.091762
28440 1.83009474 9.604921950000001 -1.68399441 2.3363810000000003 -1.747054 0.904114
28460 2.17048212 9.79203789 -2.1573171 2.270739 -1.797304 0.740282
28480 2.30984298 10.16087427 -1.84042467 2.03846 -1.713469 0.755644
28500 2.6349660000000004 10.213710930000001 -1.74597399 1.874189 -1.456218 0.768054
28520 2.5661096100000003 9.5728923 -1.33567074 1.7480189999999998 -1.353219 0.694401
28540 2.3257155600000003 9.94936086 -0.9774684000000001 1.480807 -1.383606 0.533409
28560 0.6017454 10.456508430000001 -0.5269049100000001 1.2186290000000002 -1.2488709999999998 0.366899
28580 0.39292974 11.736791909999999 0.63243108 0.907009 -0.923419 0.23505
28600 0.3469797 13.46330286 1.6401437100000003 0.530694 -0.470078 0.145315
28620 -0.58318488 13.72975227 1.00889964 0.172084 -0.07129500000000001 0.097433
28640 -0.71581608 13.9777785 0.031588200000000004 -0.253702 0.118846 0.069646
28660 -2.6601188400000004 14.85182007 -0.46448388 -0.668079 0.198312 0.003625
28680 -3.9285812700000005 14.44900185 -0.34847082000000007 -1.027888 0.35306 -0.021519
28700 -3.67425702 13.39609455 -0.01961019 -1.225701 0.509214 -0.0060090000000000005
28720 -2.18889549 12.40275357 -0.14998509000000002 -1.194369 0.656935 0.054909000000000006
28740 -0.44712018000000003 12.20038308 -1.10095668 -0.8302430000000001 0.8533 0.183251
28760 1.52786826 11.815831080000002 -1.85494347 0.456761 0.795346 0.772359
28780 2.30535981 11.491306470000003 -1.93562091 1.584994 0.363583 0.941027
28800 2.0658584700000002 11.052711180000001 -1.91616768 -0.870079 -0.904314 -0.071148
28820 0.55354887 9.60357798 -1.00501488 -1.069179 0.025637 -0.421971
28840 0.43050204000000003 9.668245500000001 -1.60525935 -1.592601 0.365229 -0.17716700000000002
28860 0.7782273000000001 11.566146960000001 -1.4715882900000001 -1.425506 0.526619 0.076962
28880 0.21345579 12.82846833 -1.7095985100000002 -1.489726 0.228624 0.06194
28900 -0.46343421000000007 11.88349065 -2.2182372 -1.418323 0.286662 0.138208
28920 -0.7800323400000001 9.875864340000001 -2.1245320800000003 -1.394133 0.453796 0.14564100000000002
28940 -0.7381142100000001 8.36056269 -1.78817661 -1.3827120000000002 0.9306 -0.020465
28960 -0.11661147000000001 7.249874490000001 -2.71190583 -1.474674 1.251999 -0.128341
28980 -0.18800865000000003 6.59992275 -2.1453390900000002 -1.553883 1.421694 -0.138726
29000 -0.1414602 5.77813905 -1.59568479 -1.58751 1.532614 -0.142308
29020 -0.39203703 5.69759895 -1.9000008 -1.621777 1.633306 -0.251635
29040 -0.32407335000000004 5.84010882 -2.8427418000000007 -1.65834 1.665957 -0.392937
29060 -0.37556604 5.5263555900000005 -3.53235537 -1.650355 1.6388049999999998 -0.535988
29080 -0.27093258000000003 4.728066840000001 -3.7913197500000004 -1.57975 1.566581 -0.650771
29100 -0.032785020000000005 3.96840006 -4.190233590000001 -1.533747 1.34171 -0.666184
29120 -0.6768900000000001 4.508028540000001 -4.4333352 -1.510734 1.036822 -0.63145
29140 -1.2524427 4.190832 -5.238657720000001 -1.426665 0.731939 -0.650768
29160 -1.30723155 4.59738783 -5.8451904 -1.327715 0.601912 -0.720413
29180 -0.7912549800000002 4.414617720000001 -6.0908328 -1.197855 0.457957 -0.7973020000000001
29200 -0.58573548 4.68046872 -6.295606740000001 -1.09326 0.548876 -0.714435
29220 -0.07484049000000001 3.9817220400000006 -6.457118580000001 -0.974632 0.672783 -0.634716
29240 0.15926535 4.1794622100000005 -7.0760805300000005 -0.786449 0.660934 -0.498791
29260 0.6029422200000001 4.645290060000001 -8.03393874 -0.514061 0.611586 -0.382525
29280 1.3970421 5.630243490000001 -8.56368855 -0.26633 0.53251 -0.269598
29300 1.53790389 7.03058175 -9.349253730000001 -0.080775 0.349408 -0.195428
29320 0.98689581 12.597805800000001 -11.51316315 0.02478 0.125219 -0.16663
29340 0.38410074000000005 16.048129950000003 -9.170682300000001 0.10028 -0.15632200000000002 -0.15506
29360 -0.76176612 12.29273442 -8.646318180000002 0.07464900000000001 -0.436252 -0.192268
29380 -0.24997842000000003 9.29177694 -8.512499970000002 -0.017542 -0.6230600000000001 -0.282403
29400 -0.45340839000000005 6.1035563700000015 -6.59992275 -0.17844100000000002 -0.717812 -0.423342
29420 0.14459940000000002 6.26327298 -6.088135050000001 -0.378614 -0.781479 -0.578483
29440 0.9369040500000001 7.14329865 -4.944514679999999 -0.56361 -0.726152 -0.6674399999999999
29460 0.49143195 8.594227080000001 -4.01570388 -0.707867 -0.328196 -0.694595
