time Ax Ay Az Gx Gy Gz
20 -3.76542135 12.82442661 -1.42069401 0.348671 -0.08254299999999999 1.157289
40 -3.36724326 7.536228390000001 0.8434932300000001 0.010341 -0.197348 0.591052
60 -2.6765800200000003 7.2274194 -0.47974824000000005 -0.206183 0.110598 -0.306025
80 -0.8087658299999999 6.838080120000001 -4.9630752000000005 -0.567842 0.28788600000000003 -0.371804
100 -0.22363857000000004 5.89788972 -5.5600333200000005 -1.448773 0.286986 -0.448458
120 -0.38604312 5.014872 -3.6468675000000004 -2.052802 -0.037748 -0.5014
140 -0.53678358 4.65561999 -2.294872920000001 -1.689925 0.227206 -0.7406229999999999
160 0.17408826000000002 4.5336228300000005 -3.05634474 -1.284383 0.6357550000000001 -2.026589
180 2.00478141 5.5781523900000005 -4.40354223 -1.805982 -0.149383 -2.365716
200 3.45257064 6.85574793 -3.75478731 -1.7721759999999998 0.017949 -1.883927
220 5.159618550000001 7.9457762700000005 -2.28305187 -0.920679 0.108903 -0.86008
240 4.277052090000001 8.08423461 -3.2169638700000003 -0.39105 -0.020696 -0.611591
260 3.53788821 7.1608095 -3.53804517 -0.501238 0.58683 -1.128023
280 2.79573228 5.250930030000001 -3.13014537 -0.94612 0.994312 -1.677514
300 2.82373002 3.5464229100000004 -3.73038984 -1.237978 1.091126 -1.925367
320 1.7065966500000003 6.04996434 -3.55840092 -1.208339 1.255162 -1.946735
340 1.2936054600000002 16.16353479 -5.75448714 -1.218359 0.7150989999999999 -1.6801259999999998
360 -1.11817323 19.745293320000002 -2.00867598 -1.412671 -0.004116 -0.941352
380 -1.93712184 13.38636303 -1.2657646800000002 -1.464993 -0.384221 0.118446
400 -0.8750814299999999 8.12240532 -1.86871671 -1.305979 -0.772513 0.911607
420 -0.5977036800000001 7.498508940000001 -2.09638719 -1.076604 -0.8879030000000001 0.7979890000000001
440 -0.63587439 8.401578299999999 -2.7870504300000003 -1.116598 -0.910836 0.174965
460 -0.89139546 9.40793715 -3.28207284 -1.123897 -0.666956 -0.333872
480 -1.18987452 9.62603307 -1.6021201500000002 -0.704499 0.38684 -0.490389
500 -0.7306291800000001 9.871675470000001 -0.8958884400000001 -0.508897 0.552952 -0.641992
520 0.20896281000000003 10.08108954 -1.4147099099999998 -0.838566 -0.229549 -0.475581
540 1.3253408100000001 10.8629073 -0.57569985 -0.8939940000000001 -0.269412 -0.049696
560 1.89625338 9.89292393 -0.69604893 -0.749067 0.269875 0.292456
580 1.8056972700000002 7.767351990000001 -0.5827336200000001 -0.673566 -0.014849 0.30082600000000004
600 1.38581946 6.27001245 0.09564750000000001 -0.422254 -0.6834060000000001 -0.025575
620 1.06758306 5.53443903 0.37242684 -0.058106 -0.541242 -0.195197
640 0.34892208 6.858435870000001 0.12558762 0.344992 -0.037879 0.11569000000000003
660 -2.29098816 9.73036242 -2.37465765 0.8737389999999999 0.293056 0.547316
680 -3.09810591 10.32268041 -3.3323687100000003 1.687882 0.730532 0.728699
700 -0.84633813 11.286375570000002 -1.93293297 2.189606 1.316732 1.017736
720 1.16592831 11.95684002 -0.44876826000000003 2.20661 1.115241 1.307601
740 2.14773273 11.577526559999999 -0.68497344 2.142709 0.660829 1.779891
760 3.2956989300000004 12.219993270000002 -1.83502917 2.112193 0.538672 2.516907
780 3.00365523 15.045361560000002 -2.26358883 2.318844 0.227226 3.232322
800 -2.07229383 14.5849194 0.329616 1.251826 -1.830604 1.425416
820 -2.4117885 14.240333340000001 -0.6611743800000001 1.428112 -2.0115830000000003 0.71117
840 -1.3680045 14.057416080000001 -1.39330449 3.016736 0.305868 1.611263
860 -0.6706017900000001 12.48703128 -3.0955651200000003 3.363732 1.255442 2.271562
880 -0.40894947000000004 11.764632690000001 -4.01539977 2.640285 0.517506 2.024968
900 -0.35356221 10.47611862 -2.49800859 1.497974 0.182135 1.370077
920 0.24758478 9.12232881 -0.64335942 1.086733 0.42694 1.246181
940 1.15545123 9.44206614 -0.13337676 1.320373 0.6923239999999999 1.277383
960 0.997677 13.71792141 -1.54747845 1.226086 0.910642 1.108734
980 -1.7392345200000001 18.21712095 -1.4167994400000001 0.816076 0.564828 0.83178
1000 -2.25910566 12.246931530000001 -0.07110288000000001 0.333741 0.285138 0.332046
1020 -1.74162816 9.76809168 1.26157581 -0.052073 -0.002928 -0.287712
1040 -1.19422035 6.9129206100000005 -0.7548795 -0.49303 -0.060158 -0.51184
1060 0.01047708 5.1681532500000005 -4.434227910000001 -1.338604 0.172265 -0.625935
1080 0.59710527 4.4161186500000005 -4.61326041 -2.363444 0.429687 -0.709267
1100 0.6095345400000001 3.5122939200000003 -2.39696559 -2.034055 0.687913 -1.101471
1120 1.3470503400000002 3.5296576200000005 -1.92409416 -1.219855 0.659957 -3.071959
1140 2.43872676 3.98067237 -3.0383826300000005 -1.85176 0.518969 -2.432054
1160 3.0934657800000003 4.75231716 -3.68623503 -1.525344 1.006614 -0.25763600000000003
1180 4.51251171 4.99316247 -2.5336287 -0.716114 -0.05819700000000001 -0.010269
1200 6.08050287 5.80388049 -2.71565325 -0.466786 -0.22106 -1.055176
1220 5.4646899300000005 4.71040884 -3.1980992400000003 -0.424194 -0.088032 -1.857283
1240 5.848035300000001 3.3781716000000004 -3.23717247 -0.48973 -0.236861 -2.143834
1260 5.257071090000001 3.3093152100000003 -2.4182238600000003 -0.711935 -0.234228 -2.077023
1280 4.75351398 4.45878234 -4.13155998 -1.0661040000000002 -0.041984 -1.893873
1300 3.0473587800000006 10.91290887 -7.3575 -1.35168 -0.15388 -1.370159
1320 2.34353052 26.07247845 -4.11479469 -1.483767 -0.11387 -1.138261
1340 -1.93113774 21.71534733 -0.98839674 -1.5493370000000002 0.16803900000000002 -0.984188
1360 2.9615899500000005 9.22890465 -3.63788154 -1.464875 0.4818520000000001 -0.946612
1380 3.46768785 5.801634000000001 -4.02707367 -1.232479 0.335631 -0.812342
1400 3.1630677300000003 6.28393284 -2.82208194 -0.959433 -0.680113 -0.382912
1420 1.6271160300000003 8.0864811 -2.27511558 -0.886921 -1.518045 -0.023478
1440 0.03712104000000001 9.21409155 -1.79761383 -1.144898 -1.340944 -0.132329
1460 0.13816404 10.35426861 -1.70944155 -1.400039 -0.898085 -0.369688
1480 0.9083079000000001 9.98394111 -1.5955278300000002 -1.178456 -0.784669 -0.41956
1500 1.27415223 8.88641793 -1.53520614 -0.476384 -0.8294940000000001 -0.474419
1520 1.67516541 8.124053400000001 -1.6355035800000002 -0.53328 -0.348242 -0.628189
1540 2.5706025900000005 8.21043045 -1.81302534 -0.895194 0.31476 -0.14873
1560 3.38326299 8.35847316 -1.9580760000000001 -0.929002 0.521226 0.461792
1580 3.2338763100000003 8.14440915 -1.6661892600000001 -0.666165 0.133606 0.465193
1600 2.06555436 6.818774040000001 -0.58737375 -0.264049 -0.29016 0.063689
1620 0.1935513 5.61032919 0.8494871400000001 0.109223 -2.2e-05 -0.08896799999999999
1640 -1.45063413 6.38557425 1.5545220300000002 0.515402 0.35998800000000003 0.10462
1660 -1.8809890200000001 8.756043029999999 0.9668441700000001 0.8889670000000001 0.354802 0.544139
1680 -1.78025013 11.1259134 -1.94654925 1.508364 0.138131 0.91087
1700 -1.64612781 12.93610365 -1.9258992000000001 2.008299 0.005611 1.116426
1720 0.7200049500000001 13.022470890000001 -0.18606627000000003 2.020048 0.24833400000000005 0.8801200000000001
1740 2.61236376 12.88176606 -0.019306080000000003 1.91815 0.5240640000000001 1.27857
1760 3.14750907 12.438383490000001 -0.6712002000000001 1.4611 0.171445 2.209455
1780 3.44329038 12.85391547 -1.41396435 1.368051 0.365835 2.694597
1800 1.54119024 13.709985119999999 -1.40333031 1.588273 -0.041008 1.948901
1820 -1.3674060900000002 12.723991830000001 -0.29637972 1.837053 -1.30217 0.638342
1840 -0.5643300600000001 12.43164402 -1.13015124 2.483542 -0.342343 1.139419
1860 0.18726309 12.29213601 -2.2309607700000003 2.798738 1.381841 2.054878
1880 0.09700128 12.123590400000001 -3.7020978 2.455923 1.141143 2.603994
1900 -1.99504989 12.891193470000001 -2.4171741900000003 1.436713 0.516382 2.283618
1920 -1.98531837 11.95938081 -0.7324244100000001 0.824204 0.556384 1.869091
1940 -0.604296 10.885509540000001 0.46029501 1.35299 1.419433 1.633466
1960 0.55175364 11.448044370000002 0.76461102 1.24129 1.283023 0.945993
1980 1.12790475 13.254938460000002 0.10807677000000002 0.315029 0.437256 0.136236
2000 -0.92463174 12.36907584 -0.7592253299999999 -0.465589 -0.032933 -0.41768
2020 -1.05500664 9.01635138 0.5126804100000001 -1.13245 0.028532 -0.824068
2040 -1.12460859 9.28534158 1.7051055300000002 -1.7829560000000002 -0.035897000000000005 -1.197066
2060 -1.41590673 8.47208277 -1.3239968400000002 -1.727903 -0.5498850000000001 -1.379757
2080 0.46882971 7.319476440000001 -5.673947040000001 -1.897249 -1.016832 -1.676239
2100 2.65263381 5.80358619 -5.44028265 -1.200921 0.022314 -2.936413
2120 3.14226072 4.3641747 -1.17970155 -2.356167 0.034035 -2.735126
2140 4.943769120000001 4.135297590000001 -0.37721412000000004 -2.28953 0.815467 -1.342701
2160 6.0933834 5.463787409999999 -3.8833767900000002 -0.925606 0.680103 -0.376942
2180 6.3080360099999995 6.189325200000001 -4.0577593499999995 0.086156 0.24094 -0.653459
2200 6.304288590000001 4.92191244 -2.42465922 0.118132 0.332673 -1.508999
2220 5.6693069099999995 3.56677866 -1.1720595600000001 -0.494398 0.030062 -2.024568
2240 4.18903677 2.4947124300000003 0.17004654 -1.120075 -0.199384 -1.912208
2260 4.43917215 1.5028723800000001 -4.25415555 -1.358771 -0.2489 -1.311335
2280 3.4208352900000003 4.993466580000001 -3.03149601 -1.1900959999999998 -0.347628 -0.478953
2300 1.55361951 18.21068559 -6.06628818 -0.628137 -0.4376850000000001 -0.024123
2320 -0.7520346000000001 20.814818759999998 1.5820587000000002 -0.457724 -0.7620319999999999 -0.046018
2340 -2.36477898 13.45880988 0.38933928 -0.7577229999999999 -1.174963 -0.417189
2360 0.13561344 6.666689610000001 -0.96474483 -1.215228 -1.15952 -0.6853229999999999
2380 0.65698551 5.8107671100000005 -0.8716381200000001 -1.392474 -0.7031270000000001 -0.911473
2400 1.21996179 9.08206857 -2.2192868700000004 -1.08985 -0.095712 -0.693288
2420 1.4488389000000002 11.42993511 -3.3621616800000007 -0.591176 0.227722 -0.224475
2440 1.8745536600000001 10.98774936 -1.8077868000000001 -0.459283 0.261919 -0.099684
2460 2.5367777100000004 10.28316573 0.020355750000000002 -0.703974 0.239094 -0.040475
2480 3.6025557299999997 10.648705950000002 0.63498168 -0.822609 0.277405 -0.194108
2500 3.60030924 9.77826465 -0.41014629 -0.826318 -0.007384 -0.366821
2520 3.25393776 7.493868810000001 -1.3052891699999998 -0.79715 -0.159839 -0.362149
2540 2.03965596 5.742205020000001 -0.5213622600000001 -0.5101859999999999 0.090488 -0.341238
2560 -0.17468667000000002 6.513408360000001 0.66880656 0.044782 0.171593 -0.059728
2580 -1.42039971 8.05295052 1.0759608 0.74187 -0.144082 0.489271
2600 -1.53969912 9.35958366 -0.055230299999999996 1.480358 -0.418819 0.8878870000000001
2620 -0.19175607 9.40674033 -0.68916231 1.871597 -0.026930000000000003 1.114444
2640 1.77291225 9.62677863 -0.7349750100000001 1.762311 0.440721 1.21029
2660 2.89498005 11.03235543 -0.7105677300000001 1.426794 0.570869 1.454539
2680 2.8862982 10.939699980000002 -1.35303444 1.080522 0.6630010000000001 2.157029
2700 3.38371425 11.239523010000001 -1.98891864 1.019983 1.261127 3.4131370000000003
2720 2.21524515 13.46315571 -1.04257737 2.345142 2.6109560000000003 3.5648730000000004
2740 -0.5822921700000002 14.601086279999999 0.89333784 2.164354 -0.470845 1.050829
2760 -0.22184334 15.518076030000001 -0.017667810000000003 1.328111 -3.24343 0.362742
2780 -0.33978897 14.324012640000001 -1.24376085 1.766873 -1.187862 1.416439
2800 0.55639377 11.944410750000001 -2.25146367 2.503204 2.855208 2.820045
2820 0.33710102999999997 11.603268000000002 -2.6198487900000003 2.871742 2.7654330000000003 3.105813
2840 -0.37182843 11.526779430000001 -1.5343134299999999 2.235403 0.047789 2.624151
2860 0.10852803000000001 9.79173378 0.09145863 1.38806 -0.455575 2.165951
2880 1.7817412500000003 8.385558569999999 0.89364195 1.2958040000000002 -0.009349 2.010911
2900 3.3048320400000004 9.12906828 0.8906499 1.768768 0.24372800000000006 1.715857
2920 2.61640548 14.58611622 -2.3534091900000003 2.088054 0.136448 0.829464
2940 -1.3492968300000001 16.14781917 -4.87491273 1.249749 -0.114198 0.035581
2960 -1.6407421200000003 9.72048375 -1.31935671 0.5366770000000001 -0.096373 -0.340095
2980 -0.9910846800000002 6.971005620000001 2.8821093300000005 0.126383 -0.190139 -0.7776069999999999
3000 0.47062494000000005 7.387440120000001 2.9900291400000003 -0.5109899999999999 0.337503 -1.106407
3020 1.24735131 7.2950789700000005 -3.3169572 -1.1075469999999998 0.8218559999999999 -1.301338
3040 3.6428257800000003 6.89151519 -6.65485875 -1.573428 1.0698299999999998 -1.37114
3060 4.87132227 5.89084614 -4.17406671 -1.675202 0.8947430000000001 -1.453879
3080 4.520300850000002 5.31768708 -3.4742703600000002 -0.756633 0.005814 -1.860794
3100 3.9130128 5.334452370000001 -1.7071950599999999 -1.246888 0.363738 -0.902209
3120 4.9656258 3.95582364 -1.4299742700000002 -1.651787 2.924827 -0.593194
3140 4.72791969 5.015166300000001 -2.6523297 -1.957901 0.48514 -1.873004
3160 5.0865732900000005 5.6056890600000004 -2.61640548 -0.666524 -0.5388729999999999 -1.324287
3180 6.36161823 3.84325389 -3.01532913 -0.29986 0.328072 -1.328178
3200 5.866154370000001 3.02640462 -4.00013541 -0.421136 1.645807 -1.752662
3220 5.75688078 3.1151753100000006 -4.232298870000001 -0.81128 2.289043 -1.899353
3240 6.2605850400000005 3.02221575 -2.245028310000001 -1.410737 2.27533 -1.946251
3260 5.7148155 2.44291563 -2.3185248300000003 -1.468112 2.144394 -1.653792
3280 4.75141464 1.5176952900000003 -10.60993683 -0.8843129999999999 2.394013 -1.447071
3300 6.08843916 5.10528096 -2.74619178 -0.268029 2.51132 -1.480305
3320 4.43917215 22.9025241 -1.86078042 0.032054 2.269796 -1.547334
3340 4.33124253 25.87369842 -4.61445723 0.019356 1.7843209999999998 -1.34277
3360 0.24219909 8.92863036 -0.72194733 -0.064899 1.433774 -0.986123
3380 -2.20491522 7.22921463 0.25985709 -0.228239 1.377171 -0.5428109999999999
3400 -2.3221251 8.128850490000001 -0.8640059400000001 -0.638419 1.1026200000000002 0.005878
3420 -0.5471135100000001 9.62064738 -2.21689323 -1.08614 0.590355 0.360193
3440 0.44113608000000004 11.474688330000001 -1.27355382 -1.269075 0.174743 0.291082
3460 0.6364728 10.53838269 0.06167547 -1.2716459999999998 0.779759 0.042461
3480 1.0699767 9.61076871 0.8360082000000001 -0.961093 3.009069 0.117617
3500 1.57113036 9.06634314 0.79888716 -0.549986 3.046153 0.077713
3520 1.90823139 8.97803352 0.20611791 -0.247841 1.84669 -0.45916
3540 2.5914096 9.35120592 -0.45146601000000003 -0.251408 1.12288 -0.866318
3560 3.09526101 10.10637972 -0.03981879 -0.409788 1.040244 -0.84275
3580 3.1726521 10.23975648 1.0671318 -0.454049 1.531069 -0.471946
3600 3.04407243 9.3676671 1.6691813100000001 -0.141433 2.560968 -0.154889
3620 3.27518622 8.64093249 1.80225396 0.08316699999999999 2.551242 -0.048622000000000005
3640 3.44238786 8.283328560000001 1.80988614 -0.094765 1.0493940000000002 0.057814
3660 3.68698059 8.046368009999998 1.6627459500000001 -0.117105 -0.092518 0.327245
3680 3.83293377 7.412730300000001 0.5843817000000001 0.519081 -0.151518 0.6768
3700 0.46029501 8.737031250000001 -1.6789128300000002 1.57672 0.6130720000000001 0.894716
3720 -1.1195172 9.73246176 -2.1037250700000003 2.677364 1.458443 1.120306
3740 -1.2159200700000001 9.767189160000001 -0.38020617 2.909785 2.247504 0.995936
3760 0.0464013 9.37470087 0.9184906800000001 2.720231 2.479667 0.910993
3780 2.9906275500000006 8.22853971 1.6965708300000002 2.176867 2.673094 0.6965100000000001
3800 4.9531965300000005 7.274124810000001 0.8948387700000001 1.815082 2.99541 0.32717
3820 5.69041803 7.98095493 -1.7751587400000002 1.464082 3.3689370000000003 0.4609720000000001
3840 5.95566081 9.73904427 -3.4880436 1.018648 4.22283 0.960967
3860 5.48729217 9.80476146 -2.61386469 1.425937 3.496109 1.723181
3880 4.34576133 10.240354890000003 -0.9951264000000001 1.863755 2.683926 2.252845
3900 0.98270694 10.899429930000002 1.0330028100000002 1.882905 1.776137 2.545767
3920 -0.90711108 13.23877158 -0.15897105 1.679079 1.275054 2.290748
3940 -1.6673860800000002 15.85113534 -1.2871701 1.456949 0.517124 1.814809
3960 -3.2084291700000005 13.23487701 -1.5946351200000002 1.341906 -0.495356 1.2331219999999998
3980 -2.63931183 11.38172877 -1.2629197800000003 1.184585 -0.066084 0.579858
4000 -1.6691813100000001 10.585686509999999 0.8180460900000001 0.949828 0.984325 -0.026673
4020 -1.2867286500000001 10.25202879 1.67157495 0.6439229999999999 1.31211 -0.48002
4040 0.20283156000000002 10.96185096 2.82926286 0.418515 0.895547 -1.072856
4060 1.27654587 11.93737698 -0.86834196 -0.04249 0.4917470000000001 -1.456913
4080 0.79170624 10.47356802 -1.99609956 -0.698466 0.47507 -1.512749
4100 1.26996336 9.218280420000001 -1.97619507 -1.222137 0.967225 -1.05877
4120 3.31066899 7.45330446 -2.6297274600000002 -0.959293 1.501733 0.108879
4140 4.746931470000001 6.193219770000001 -2.5300382400000005 -0.569851 1.349226 1.144766
4160 5.40031671 5.998922909999999 -2.87731224 -1.163496 -1.116032 0.913042
4180 5.30376669 6.1450232399999996 -2.00328048 -0.684922 -3.3711290000000003 -0.056012
4200 4.973709240000001 5.121899100000001 -1.78384059 -0.370504 -3.348861 -1.632676
4220 2.7930443400000002 4.08365775 -2.98718424 -0.394429 -0.960268 -2.471254
4240 2.41193565 4.68121428 -3.24255816 -0.198882 1.497534 -2.693091
4260 3.76362612 5.32308258 -2.7644481900000004 0.182289 2.606905 -2.59571
4280 5.815103130000001 5.73517125 -2.84169213 0.073064 2.346028 -2.529909
4300 8.07420879 6.50741445 -3.4956855900000003 -0.700322 -0.039262 -2.092147
4320 11.300747220000002 8.58015954 -4.08155841 -1.437087 -1.5268700000000002 -1.067758
4340 13.35493179 11.39729724 -3.8411643600000005 -1.281499 0.624553 -0.296035
4360 11.37320388 10.95153084 -4.28962851 -0.847831 1.402062 -0.103859
4380 7.10288145 13.508056080000001 -4.8359964600000005 -0.64723 -0.217892 0.172015
4400 4.30160652 16.06114782 -4.06344915 -0.618226 -0.6134609999999999 -0.031306
4420 -0.56926449 14.25905082 0.35776089000000005 -0.966949 -0.251702 -0.418765
4440 -3.61154169 8.56488537 2.6120694600000003 -1.37111 -0.728533 -0.704056
4460 -3.79371339 5.65882983 2.9966214600000005 -1.333604 -1.096575 -0.872102
4480 -3.12101226 5.5083934800000005 2.5243484400000002 -0.901514 -0.282491 -0.7675770000000001
4500 -2.94063579 7.60508478 0.41628735 -0.661432 0.64889 -0.791663
4520 -1.1599344 9.870920100000001 -1.96751322 -0.632081 0.61214 -0.950576
4540 4.27256892 11.39280426 -0.64022022 -0.496421 0.097447 -1.026949
4560 8.22075057 10.96065414 0.63093996 -0.281797 0.145777 -0.778753
4580 8.45890794 9.02967336 -2.60967582 -0.128924 0.608118 -0.381967
4600 4.7370528 7.49057265 -2.07573714 0.041159 0.541301 -0.070909
4620 1.25050032 7.9014645 0.97536906 0.394078 0.106255 0.25899
4640 -0.5707654200000002 7.3685754900000004 1.8615259800000001 0.785964 -0.139569 0.65408
4660 -1.12460859 7.3196334 1.1719124099999998 1.188522 -0.574177 1.097556
4680 -0.51223896 8.03648934 0.6460571700000001 1.951896 -0.968475 1.537091
4700 0.65204127 9.30091005 -1.1539503 3.055338 -0.207292 1.76815
4720 0.5728549500000001 9.49625658 -2.19429099 3.479977 0.214372 1.712892
4740 0.9529139700000001 9.51989868 -1.04168466 1.988276 0.976067 0.604432
4760 1.4985363600000001 9.25031007 -0.03847482 0.5163760000000001 1.637757 -0.021993
4780 2.1086693100000007 10.71636552 -0.12738285000000002 0.702071 1.155794 0.197839
4800 3.9481914600000003 11.47798449 -0.6559358399999999 1.387667 1.324301 1.418049
4820 4.538861370000001 11.31811092 -0.77014386 1.546445 1.330275 2.182929
4840 3.6766506600000004 12.51068319 -0.36329373000000004 1.455641 0.7326229999999999 2.801561
4860 3.8839752 14.00757147 -0.31928607000000003 1.380161 0.273195 3.4724660000000003
4880 3.6730602 12.975314220000001 0.36194976 1.049195 -0.783246 3.414892
4900 4.13665137 10.05384717 -0.63153837 0.396312 -2.349828 2.54067
4920 2.23110792 8.06358456 -1.7774052300000003 -0.199332 -2.01247 1.2777120000000002
4940 -0.54202212 11.88798363 -3.56363946 -0.57919 -0.569317 0.350265
4960 -2.29847319 16.277301360000003 -0.6968043 -0.68032 -0.388722 -0.23499
4980 -1.72905174 14.29437663 2.0727352800000003 -0.665836 -0.365208 -1.064927
5000 -2.47465098 11.382925590000001 1.3768335 -1.080646 -0.740347 -1.729642
5020 -2.0646518400000002 9.62722989 2.1076196400000002 -1.491538 -2.1453900000000004 -1.919787
5040 -0.5957612999999999 9.92989782 1.1768566500000002 -1.263654 -2.758953 -0.529788
5060 0.79469829 9.26647695 -0.11690577 -0.6108520000000001 -1.762064 2.415377
5080 2.8728290700000003 7.95849984 -1.1180260800000001 0.384606 -0.968255 1.775039
5100 4.417011360000001 7.35540066 -2.67134148 -0.032423 -1.437156 0.318877
5120 5.42621511 6.40667556 -3.96360297 -0.164873 -0.728004 -1.082328
5140 6.51774438 3.85328952 -3.6498595500000004 -0.393727 -0.5096689999999999 -1.936647
5160 3.74042547 3.0431699100000005 -2.78914977 -0.150921 -0.34444 -1.908457
5180 1.5188921100000001 4.54245183 -2.83765041 -0.17962999999999998 -0.772682 -1.88354
5200 2.6616197700000006 4.748422590000001 -1.95418143 -0.511057 -2.047773 -1.341564
5220 4.40908488 4.18858551 -0.44652177000000004 -1.17886 -3.575221 -0.270708
5240 5.977223189999999 4.66265376 0.34038738 -2.109961 -4.265187 -0.079775
5260 9.17516547 11.8258569 -2.05118271 -2.533564 -3.509821 -0.266368
5280 12.692707740000001 17.47616184 -3.09361293 -1.995322 -2.5184450000000003 -0.101509
5300 5.893848 18.025668990000003 -7.56721818 -1.509373 -1.955437 -0.125542
5320 1.78429185 7.4919166200000005 -4.199366700000001 -1.5080209999999998 -1.957419 -0.429973
5340 0.6304887000000001 11.200008330000001 0.00373761 -1.715988 -2.150791 -0.642686
5360 0.53543961 10.18123002 1.80794376 -1.798242 -1.929067 -0.87428
5380 0.47601063 8.49258567 2.03726232 -1.542951 -1.471546 -0.958541
5400 0.43874244 8.60066244 0.89888049 -1.119828 -1.262261 -0.649274
5420 2.64395196 8.832237300000001 0.32827203 -1.011555 -1.182491 -0.445658
5440 5.657937120000001 9.30928779 1.12431429 -1.12973 -0.833958 -0.390314
5460 4.61250504 9.04149441 0.47825712 -1.052065 -0.310504 -0.292166
5480 1.3019930100000001 9.56735946 0.42721569 -0.525678 -0.108362 -0.4169350000000001
5500 2.4965076600000002 8.98956027 -0.44786574 0.179858 -0.034132 -0.411034
5520 2.42480637 9.234447300000001 0.07708698000000001 0.6811520000000001 -0.099552 -0.203418
5540 0.5884234200000001 10.117612170000001 1.1329961400000002 0.941781 -0.5040979999999999 0.038203
5560 -0.320787 9.536369670000001 1.6233784199999999 0.945007 -1.099935 0.388297
5580 -0.09086022 8.70604146 2.20446396 1.034274 -1.188404 0.8558469999999999
5600 -0.23246757 8.96634981 2.32497 1.488206 -1.007989 1.165367
5620 0.004188870000000001 9.48727062 1.03614201 1.801569 -0.97953 1.501872
5640 1.5160472100000002 9.748922940000002 -0.62584857 1.7415349999999998 -1.082387 1.701342
5660 1.4335647300000003 9.71000667 -1.8043434900000002 1.59798 -0.520521 1.4432459999999998
5680 1.4266879200000002 9.88409493 -1.85778837 1.3449950000000002 0.243617 1.046326
5700 1.33521948 9.799218810000001 -1.3531815900000002 1.079573 0.06565499999999999 1.291459
5720 1.87290558 9.736650630000002 -1.06608213 0.860033 -0.655149 2.182815
5740 4.01525262 11.341164420000002 -0.54816318 0.947934 -0.420384 2.8037650000000003
5760 5.3476272 10.93685508 -0.49816161000000003 0.885028 -0.505853 3.185859
5780 5.39358705 11.66449221 0.82837602 0.434849 -1.7281 3.137279
5800 4.66983468 12.94433424 0.7819747200000001 0.125634 -2.80155 2.254143
5820 2.40878664 11.55956445 -0.55085112 0.469098 -2.402295 1.480501
5840 2.2041696600000003 9.278003700000001 -0.04415481 0.6255890000000001 -1.532713 0.99978
5860 0.9404945100000001 10.15488036 0.35566155000000005 -0.039657 -0.8735290000000001 0.832987
5880 0.60654249 13.059140670000001 1.08583947 -0.497001 -0.906858 0.241245
5900 -0.11166723 13.65415641 1.5721800300000002 -0.924825 -1.247126 -0.341352
5920 0.12065319 12.41817489 1.38581946 -1.255888 -1.371685 -0.872274
5940 0.5348412000000001 11.15031087 0.50714757 -1.556648 -1.190396 -1.19187
5960 0.93869928 10.68522858 -0.4628358 -1.695065 -0.339069 -1.1148790000000002
5980 1.7262068400000001 10.225836090000001 -0.55414728 -0.975325 0.886381 -0.503603
6000 4.079017620000001 7.822582290000001 -2.0430992700000004 -0.268206 0.474094 1.284726
6020 5.13761472 7.08686172 -2.2668849900000003 -0.320339 -0.046005 1.922757
6040 4.83105222 6.583755870000001 -1.43281917 -0.859244 1.095353 0.947585
6060 3.3720403500000002 5.50554858 -0.8870594400000001 -0.702997 -0.7294689999999999 -0.516722
6080 -0.44487369000000004 5.38385553 -2.47450383 -0.6821510000000001 -2.580042 -1.551449
6100 -0.85547124 5.40002241 -2.56447134 -0.845549 -2.502386 -1.914817
6120 0.88331202 6.146220060000001 -2.104029180000001 -0.361849 0.011494 -0.428763
6140 2.1037250700000003 5.692066110000001 -1.26157581 0.156779 1.7332759999999998 -0.153882
6160 2.84229054 5.40645777 -0.68916231 0.170987 0.27922 -0.975518
6180 4.4143234200000006 5.98126491 -0.7735871700000001 -0.269027 -1.275824 -1.723286
6200 7.651643040000001 9.42455529 -2.08186839 -1.425276 -1.120915 -1.631148
6220 9.57154833 15.975830250000001 -5.20902171 -2.764036 0.114228 -1.392118
6240 9.3209715 14.637756060000001 -5.702091930000001 -2.635601 -1.096757 -1.029679
6260 8.10833778 8.681948100000001 -2.55204207 -1.32496 -1.889594 -0.500352
6280 6.087693600000001 5.86644867 -1.0298538000000002 -1.346938 -1.362036 -0.542842
6300 5.21739945 11.08534905 -3.1299884100000006 -1.594448 -0.985683 -0.406185
6320 2.61236376 14.9230701 -1.1576879100000002 -1.6978490000000002 -1.22068 -0.4236970000000001
6340 0.29398608000000004 20.041673040000003 -1.31381406 -1.911207 -1.278277 -0.487071
6360 -3.7119764699999998 9.716294880000001 0.75547791 -1.825221 -1.408512 -0.759768
6380 -0.89393625 3.68518536 0.4397823 -1.23792 -0.97424 -0.912182
6400 1.02417381 4.810392360000001 -0.48349566000000005 -0.78901 0.916888 -1.100545
6420 2.00164221 7.4269548 1.33672041 -0.293582 1.4979 -0.8403879999999999
6440 1.18643121 9.70746588 1.9547896500000002 -0.127025 0.826469 -0.109837
6460 1.6916364000000002 10.70364195 1.7453657700000003 -0.202055 0.846578 -0.01211
6480 3.58354395 9.61525188 -1.04467671 0.08275700000000001 0.8838520000000001 0.276115
6500 5.46782913 8.19740277 -2.6223993900000004 0.5578810000000001 0.303649 0.569665
6520 3.4211394 8.076151170000001 -0.85173363 0.80097 -0.023801 0.993731
6540 1.09138212 5.61168297 0.10448631000000001 1.109685 -0.435873 1.211128
6560 -0.14115609 5.1082730100000004 1.28613024 1.660249 -0.631686 1.483348
6580 -1.1668210200000002 6.65141544 2.8551612600000005 2.755876 -0.465682 1.909531
6600 -1.3647083400000002 9.901605779999999 2.06285661 2.735368 -0.505188 1.684044
6620 -0.91803942 11.9704563 -1.4280318900000002 1.629034 0.752757 0.549866
6640 -1.71063837 11.97913815 -1.6338555000000001 1.297865 2.20081 -0.047166
6660 0.73213011 11.39280426 -0.1651023 1.463738 2.539362 0.658586
6680 5.1187599 12.46667553 0.20103633 1.104141 1.446696 1.9575
6700 6.57582939 11.75266449 -0.17064495 0.629991 0.429187 2.942529
6720 7.826624010000001 9.80610543 -0.63438327 0.599233 0.715192 3.905484
6740 6.448289580000001 10.918598670000002 -0.39981636000000004 0.346744 -0.219084 3.599406
6760 4.82296878 14.058014490000001 -0.70293555 -0.100426 -2.233021 2.7976970000000003
6780 2.50713189 11.91626586 0.5215192200000001 0.133234 -2.743213 2.04475
6800 2.11090599 8.696761200000001 0.30880899 0.517232 -1.767355 0.8978430000000001
6820 1.19945889 7.061414580000001 -0.6487549200000001 0.285364 -1.192564 -0.117188
6840 0.7726944600000001 13.839624270000002 -0.8752285799999999 -0.076566 -1.095201 -0.441375
6860 -0.8020361700000002 17.12528757 1.72036989 -0.365112 -0.598627 -1.028345
6880 -1.43865612 16.05576213 2.6461984500000004 -0.847103 0.16324 -1.989814
6900 -2.0899518300000004 14.38329447 0.92642697 -1.652698 0.7372890000000001 -2.58904
6920 -3.60659745 11.650875930000002 -1.63833867 -1.171931 0.5795130000000001 -2.178487
6940 -2.85411159 8.92309752 -1.64522529 -0.454307 1.026158 2.181094
6960 1.67186925 7.309744920000001 -0.8328690000000001 0.02101 2.266264 3.068381
6980 4.22825715 6.98686839 -2.18231298 -0.200525 2.147885 1.431537
7000 5.126686380000001 5.825433060000001 -2.18874834 0.465658 -3.043044 -0.781196
7020 5.101092090000001 3.8167668900000002 -1.45362618 -1.032598 -3.42226 -3.47989
7040 4.64005152 2.7512831700000002 -1.9157164200000003 -2.4794560000000003 -1.733999 -2.709153
7060 2.82222909 3.1723578000000003 -3.16322469 -0.651854 0.8928659999999999 -0.540877
7080 -0.20013381 4.042190880000001 -2.51073216 0.689148 1.497999 -0.385939
7100 -0.85501998 4.476146040000001 -0.99662733 0.996187 -0.319379 -1.445414
7120 0.59336766 4.59934002 -0.06331374000000001 0.347473 -1.588031 -2.236668
7140 2.7660962700000002 4.20670458 1.2560331599999999 -1.128135 -0.8902700000000001 -1.758623
7160 5.597762580000001 7.57918638 -0.00718092 -2.09831 0.845384 0.065445
7180 14.347517400000001 20.29748841 -5.230868580000001 -2.285262 1.823405 -0.329152
7200 12.945383910000002 24.26842926 -7.0543808100000005 -1.86229 0.7289100000000001 -0.581168
7220 10.7846235 6.799006889999999 -4.994516250000001 -1.2786540000000002 -0.627213 -0.281593
7240 6.2724060900000005 3.3404521500000004 -4.575236850000001 -1.15106 -0.940929 -0.261071
7260 4.213287090000001 14.853016890000001 -3.4623021600000006 -1.377714 -0.90577 -0.598121
7280 -1.6841513700000001 18.02072475 5.904766530000001 -1.446289 -0.089148 -0.427663
7300 -3.95881569 15.29354475 1.4507812800000002 -1.16083 1.312389 -0.583425
7320 -4.19562909 7.31468916 0.022749390000000005 -0.536543 1.237152 -0.691132
7340 -2.28350313 5.96763882 -0.9831582000000001 -0.494727 1.314536 -0.898174
7360 -0.55728648 6.2424659700000005 0.53678358 -0.10106 1.3152780000000002 -0.8922200000000001
7380 1.8056972700000002 7.985889360000001 0.96967926 0.064999 0.5776220000000001 -0.116722
7400 8.21192157 12.40800192 -0.6709058999999999 -0.064901 0.402505 0.364363
7420 4.74288975 11.43831285 2.16509643 0.44989 0.468161 0.548404
7440 3.22668558 7.53293223 1.3843185300000003 1.292697 0.34234499999999995 0.911238
7460 2.4689611800000004 4.199366700000001 -0.19235448000000002 2.1460060000000003 -0.18662 1.383621
7480 2.227370310000001 2.62314495 -1.4043799799999999 2.764507 -0.695864 1.656718
7500 0.10059174 4.46670882 -1.81242693 2.746843 -1.087625 1.872877
7520 -1.5881997600000002 7.8321666599999995 0.74739447 1.990504 -1.075591 1.384743
7540 1.22864364 10.186615710000002 2.5518949200000005 1.76967 0.763659 0.366032
7560 2.6933453100000007 10.984757309999999 -2.58932007 2.388272 3.162251 0.198501
7580 1.2244547700000001 10.639572840000001 -4.255048260000001 2.142296 3.646831 1.7717889999999998
7600 -0.29653668000000005 9.90026181 -0.07139718 1.352184 1.981593 3.572631
7620 3.5266655700000005 10.32927273 0.5536960200000001 1.059432 1.121459 4.472199
7640 6.30399429 10.59182757 0.033383430000000006 1.018834 0.511691 4.348783
7660 8.304282720000002 10.32672213 -1.5632038799999999 0.8713059999999999 -1.451325 3.872773000000001
7680 8.6876379 12.775935780000001 -1.5663430800000002 1.184061 -2.742235 3.018829
7700 4.73151015 13.84546122 -1.5370013700000003 1.593422 -1.936332 1.994095
7720 2.34712098 13.74112206 -1.44524844 1.056399 -1.059505 0.570621
7740 1.27534905 13.30897194 -1.8800865 0.610829 -0.779845 0.28514
7760 0.46508229 14.85660735 -0.15223158 0.443424 -0.193831 0.135805
7780 -0.75398679 16.74956457 1.99145943 0.039093 0.050561 0.375154
7800 -1.8814402799999999 16.62038649 2.6900589600000004 -0.434821 0.466975 1.078473
7820 -3.1853756700000004 15.32797785 0.88795215 -0.8571350000000001 0.059268 1.104888
7840 -3.59986779 11.861486820000001 -2.25057096 -0.7294470000000001 -0.501688 0.6172529999999999
7860 -0.87118686 10.01357712 -2.17812411 -0.804588 -0.578447 0.164968
7880 2.0910015 8.90707779 -1.9862208900000002 -1.052204 -0.70192 -0.177366
7900 4.044290220000001 8.4129579 -2.2073088600000004 -0.723422 -0.922855 -1.154346
7920 5.22742527 6.433172370000001 -2.2213764 -0.571627 0.279407 -1.4432459999999998
7940 5.10902838 3.9441497400000003 -1.56649023 -1.243854 1.021917 -1.39655
7960 5.37562494 1.88892531 -2.8409465700000003 -0.916807 0.487722 -1.823006
7980 3.6504579600000002 0.9499219200000001 -4.69648845 -0.66222 -0.050386 -2.273464
8000 0.7343766 2.14488783 -2.99571894 -0.866031 -0.32758400000000004 -2.30658
8020 3.2135205600000005 3.16067409 -0.6836294700000001 -1.333588 0.231787 -1.927071
8040 7.494761520000001 4.671639720000001 -0.92657412 -1.631791 0.726876 -1.070938
8060 11.068279650000001 6.0040143 -3.95687331 -1.309298 0.299821 -0.8480840000000001
8080 13.717323000000002 8.43795378 -4.57493274 -0.8791629999999999 -0.182039 -1.131814
8100 11.77122501 7.4878749 -5.429364120000001 -0.812021 0.196115 -1.451228
8120 8.10460017 4.08485457 -4.681067130000001 -0.732143 0.23698400000000006 -1.617365
8140 7.37007642 5.2021350900000005 -6.474786389999999 -0.7367600000000001 0.173028 -1.603428
8160 5.39762877 13.95188991 -6.533312850000001 -0.775587 0.377454 -1.543073
8180 4.98268539 16.444807110000003 -3.17699793 -0.891868 0.724705 -1.435371
8200 2.89887462 8.41669551 -0.29054277 -0.971717 0.7018989999999999 -1.257507
8220 3.4914869100000003 7.69041216 -1.13388885 -1.022756 0.20919 -1.075634
8240 3.76377327 8.295600870000001 -1.7759043 -1.068481 -0.51899 -0.8870129999999999
8260 2.79573228 9.69474231 -1.4691946500000002 -0.987823 -0.756145 -0.7910739999999999
8280 2.42540478 11.46196476 0.09086022 -0.5997239999999999 -0.15326900000000002 -0.843615
8300 2.406393 11.448044370000002 0.5626819800000001 -0.428432 0.803251 -0.967558
8320 2.6617669200000003 9.855802890000001 -0.73167885 -0.889883 1.213688 -0.910419
8340 3.0320944200000004 8.459359200000002 -1.6395453 -1.248988 1.114747 -0.631858
8360 3.1933119600000004 8.3349684 -2.03276934 -1.33689 0.527212 -0.4138020000000001
8380 3.54462768 8.448136560000002 -1.6835529600000003 -1.080379 -0.440361 -0.29433400000000004
8400 3.18986865 8.05070403 -1.32698889 -0.6127739999999999 -1.075863 -0.283844
8420 2.59051689 8.04936006 -0.94064166 0.183117 -0.724368 -0.163367
8440 2.09878083 7.79024853 -0.11780829000000001 1.008332 -0.4709680000000001 0.220223
8460 1.4826637800000002 7.6453548300000005 0.23232042000000003 1.479665 -0.071753 0.67593
8480 1.47278511 7.849530360000001 0.41957370000000005 1.961335 0.652641 1.055448
8500 1.73863611 7.98035652 0.5610339 2.05137 1.347548 1.422655
8520 2.31328629 8.688834720000001 0.7920005400000001 1.799449 1.320826 1.663416
8540 2.7828615600000006 9.52708941 0.20776599 2.399163 -0.656708 2.037607
8560 3.0647224800000004 10.84510215 -1.1918169 1.988431 -0.52242 2.643453
8580 3.6275516100000003 10.711274130000001 -1.0782072900000002 1.460132 -0.494447 2.233803
8600 4.617302130000001 10.51114032 -0.21180771 0.925354 -1.182589 1.360348
8620 4.75141464 10.543621230000001 -0.27827046 1.33786 -0.789667 1.842358
8640 4.72746843 11.7623862 -1.14347322 2.052312 0.198287 2.443218
8660 4.7105559900000005 13.45581783 -1.8492536700000002 1.880651 0.181051 2.639662
8680 2.97386226 14.06864853 -0.84858462 1.4784959999999998 0.14515 2.110266
8700 1.8741024 14.110105590000002 -1.2626254799999999 0.975202 0.204113 1.388829
8720 1.0326987 13.77390708 -1.36171629 0.852232 0.38964 0.92092
8740 -0.30476727000000003 11.252697840000002 -1.4991347700000002 0.6592779999999999 0.715957 0.736488
8760 -0.8232846300000001 11.033856360000001 -1.15244937 0.394789 0.72216 0.480396
8780 -0.11406087000000001 11.34505899 0.17977806 0.147063 0.4330729999999999 -0.003801
8800 1.40647932 10.63418715 2.18515788 -0.607698 0.6756850000000001 -0.612929
8820 3.3112674 11.569894380000001 -1.04034069 -1.590152 1.014181 -1.027218
8840 2.4051961800000003 12.36907584 -2.92791222 -1.746638 0.676465 -1.683766
8860 -1.13524263 9.581279850000001 -1.53819819 -1.637722 -0.438726 -2.348147
8880 0.54007974 7.448664330000001 -0.3614985 -1.301914 0.092796 -3.424318
8900 1.8675198900000003 9.67827132 -0.53183934 -2.140059 1.383603 -3.4200760000000003
8920 2.3084990100000002 8.64167805 -1.11967416 -2.691835 0.569462 -1.81094
8940 2.9585979000000004 6.933884580000001 -1.84595751 0.306987 0.023933000000000003 -0.389924
8960 4.11763959 5.03073477 -2.7872073900000003 0.34936500000000004 -0.453713 -0.325991
8980 3.4531690500000005 4.704562080000001 -1.85973075 -0.366862 -0.16963399999999998 -0.6828029999999999
9000 3.4308611100000004 5.3302635 -1.830546 -0.864166 0.682027 -1.708588
9020 4.64409324 6.225259230000001 -2.8851013800000005 -0.930569 1.96742 -1.552602
9040 5.89204296 6.102663659999999 -2.6262841500000005 -0.8824569999999999 1.977002 -1.326883
9060 7.65193734 5.1422548500000005 -1.52877078 -0.902023 0.046593 -1.277544
9080 7.152873210000001 3.58669296 0.19235448000000002 -1.153832 -1.386267 -1.043527
9100 6.30997839 2.08935342 -0.69949224 -0.922668 -1.459531 -1.0375450000000002
9120 5.404211280000001 1.28747421 -2.16509643 -0.7275159999999999 -0.90465 -1.174694
9140 4.63660821 2.2083585300000004 -4.2511635000000005 -0.728233 -0.726086 -1.073446
9160 6.63016698 14.73625827 -8.0227161 -0.897741 -1.229034 -0.892388
9180 4.23005238 26.516008170000003 2.08860786 -1.25281 -1.400343 -0.635071
9200 -0.6170195700000001 15.432307200000002 1.74237372 -0.982393 -0.789812 -0.369045
9220 -0.34607718 5.73427854 0.04759812000000001 -0.234327 0.170703 -0.393893
9240 0.27408159 3.42068814 -1.85913234 -0.27465900000000004 0.307791 -0.5417649999999999
9260 1.45257651 7.070243580000001 -2.05821648 -0.492325 -0.20467 -0.33753
9280 3.02460939 10.126588320000002 -2.14115022 -0.22669 -0.31892 0.030872000000000007
9300 4.45503492 10.511287470000001 1.3882131 -0.142782 -0.291961 0.142519
9320 5.41408995 10.7413614 2.14323975 -0.228186 -0.033997 0.174706
9340 4.2050564999999995 8.98641126 0.45849978 -0.156366 -0.086995 0.046021
9360 4.02108957 7.4471634 -0.39352815 0.522744 -0.424966 0.059743
9380 3.4468808400000004 6.0478748100000015 -0.38799531000000004 1.594925 -0.711688 0.502366
9400 1.8302418900000001 5.234616 -0.07739109000000001 2.070704 0.026865 0.543199
9420 0.7562234700000001 5.61242853 0.0058369500000000005 1.760802 1.589805 1.03255
9440 0.40835106000000004 8.17510464 0.85697217 1.0798 2.771387 1.574277
9460 0.46373832000000004 10.27194309 1.0210248000000002 0.34515 2.252968 2.383795
9480 0.8077161600000001 11.55193227 0.38709279 0.92293 0.88813 3.268727
9500 1.80359793 12.93594669 -0.13367106 1.850602 -0.312151 2.66038
9520 3.3075199800000004 13.69726155 -1.71752499 1.618462 -1.379381 1.487219
9540 4.336628220000001 12.5892711 -1.9743900300000001 1.2790629999999998 -1.117419 1.538992
9560 5.33131317 11.38023765 -2.0966913000000007 1.334197 -0.584123 2.391135
9580 5.73532821 11.629911960000001 -0.9759674700000001 1.417686 -0.095049 2.822653
9600 3.6833901300000003 12.70752084 0.45056349000000007 1.378933 0.326621 2.368916
9620 2.0269323900000003 14.51711268 0.9774684000000001 1.166601 -0.322946 1.958068
9640 0.99138879 14.40888876 -0.29309337 1.036874 -1.020984 1.874735
9660 -1.63160901 13.346544240000002 0.28769787 1.01732 -1.016141 1.480418
9680 -3.95761887 12.601249110000001 -0.58184091 0.781508 -0.957428 0.589935
9700 -2.8479803400000003 11.60656416 -0.68662152 0.135242 -0.03911 -0.459409
9720 0.8628091200000001 10.058036040000001 -0.07948062 -0.624339 0.811825 -0.810841
9740 3.40047954 9.019343430000001 -0.26360451 -1.414413 1.058711 -1.392447
9760 4.056866640000001 10.234066680000002 -1.15559838 -2.089493 0.8796379999999999 -2.111574
9780 0.95950629 10.242748529999998 -2.1038722200000004 -1.972233 0.273528 -2.221073
9800 -0.5313978900000002 7.91628741 -1.09841589 0.003131 1.533347 -2.500514
9820 0.47151765 6.947206560000001 -0.37212273 -1.607197 1.851693 -1.861623
9840 1.9059849 8.258921280000001 -0.4827501 -3.388218 -0.640663 -0.948994
9860 2.65113288 8.71622424 -0.5236087500000001 -0.708675 -1.865436 -0.149974
9880 3.5471782800000002 7.441022340000001 -1.7024077800000001 0.37728 -1.99665 -0.245838
9900 4.2543027 6.13933344 -1.8694622699999999 0.636648 -0.538271 -0.474495
9920 4.66803945 5.973024510000001 -2.38948056 0.25397 1.266925 -1.361832
9940 4.93838343 6.076912409999999 -1.8160272000000002 -0.399482 2.585519 -2.072045
9960 6.332727780000001 5.210218530000001 -1.5916430700000002 -1.537723 3.152137 -1.059501
9980 6.2507063700000005 4.88718504 -2.4757006500000003 -1.790247 2.851139 -0.959398
10000 4.5533801700000005 4.589451540000001 -1.4441987699999999 -0.687738 0.723252 -1.515128
10020 3.6043509600000005 3.3648496199999998 -0.8370578700000001 0.215266 -0.647336 -1.072298
10040 3.1590260100000003 2.62823634 0.04595004000000001 0.077684 -0.871531 -0.8315540000000001
10060 3.7293401700000004 0.76535658 -1.18358631 -0.306243 -0.644285 -1.116537
10080 3.8197589400000003 3.30617601 -2.3870869200000002 -0.629057 -0.4456310000000001 -1.497197
10100 9.90116433 28.16407836 -4.854252870000001 -0.801836 -0.392991 -1.457879
10120 7.84369341 32.64501168 -2.50578792 -0.549768 -0.571645 -1.221949
10140 3.4684334100000003 10.64540979 -2.7416988 0.45666 -0.801554 -0.810836
10160 1.1618865900000004 3.46020282 0.69006483 0.771243 -0.18008 -0.389624
10180 0.38051028000000003 0.84004992 1.5998736599999999 -0.35987600000000003 0.499514 0.336541
10200 0.2311236 5.68922121 1.23462774 -1.146349 0.10677 0.931891
10220 3.1253482800000003 9.831101310000001 -1.34869842 -1.146084 -0.748789 0.967172
10240 6.295008330000001 8.794213740000002 1.63729881 -1.013031 -0.961835 0.583815
10260 6.15071304 10.27104057 1.66693482 -0.821426 0.055972 0.034783
10280 4.63077126 9.13550364 -1.2407688000000001 -0.069119 0.049142 -0.240896
10300 3.2037890400000006 5.773194810000001 -1.22460192 0.612099 -0.676017 -0.371941
10320 1.5001844400000002 4.23963675 -1.28508057 1.330191 -0.828778 0.176996
10340 0.6409657799999999 4.51147185 -0.8060778900000001 1.7899490000000002 -0.338024 0.927334
10360 -0.2342628 5.867194230000001 0.27513126000000004 1.830651 0.345154 1.340145
10380 -0.27513126000000004 8.574921 1.2597805800000001 1.366466 1.200469 1.501381
10400 0.16884972000000004 10.218203910000001 0.99438084 0.641798 1.734325 2.090634
10420 2.074089060000001 10.84389552 -0.51432849 0.5469189999999999 1.055379 3.061855
10440 3.0117386700000006 11.944116450000001 -0.05538726 1.704449 -0.418686 2.788751
10460 6.094727370000001 12.76066161 -1.8465559200000001 1.7723330000000002 -1.528134 1.523736
10480 6.349051620000001 11.00047293 -1.77186258 1.208022 -1.766004 1.0265799999999998
10500 6.17824971 10.76860377 -1.58849406 1.334456 -1.202458 1.711471
10520 6.7259616300000005 12.56382396 -0.74141037 1.801349 -0.430751 3.057567
10540 7.34567895 15.185320830000002 0.22527684 1.881759 -0.219648 2.9435580000000003
10560 2.97416637 13.659846210000001 -0.60159825 1.508093 -0.683516 2.054919
10580 2.4379812 13.9658103 -1.19900763 0.98855 -0.772087 1.478836
10600 2.2628432700000003 12.39153093 -1.2546891900000001 0.927513 -0.393515 1.431991
10620 1.4465924099999998 10.93041972 -0.9726811200000001 0.788535 -0.174826 1.4756049999999998
10640 1.02237858 11.134899359999999 -1.7350456500000002 0.408087 -0.16272799999999998 0.912116
10660 1.3019930100000001 12.02958117 -0.37721412000000004 -0.051881 -0.177605 -0.028977
10680 1.8571899600000001 12.21519618 1.0268617500000001 -0.6420560000000001 0.440177 -0.562661
10700 3.93202458 11.76029667 0.5375291400000001 -1.615273 1.205682 -0.943249
10720 3.5034649200000003 11.113042680000003 -1.2310372800000002 -2.294682 1.335321 -1.338062
10740 0.063765 10.055043990000001 -1.15485282 -2.123756 0.790741 -1.696161
10760 -1.32878412 6.549332580000001 -0.57674952 -1.209044 0.301754 -2.747753
10780 0.19803447000000002 5.43190491 -0.04116276 -1.302968 0.819163 -3.65172
10800 2.74005072 7.74908577 -0.7668575100000001 -3.663245 1.012125 -2.443203
10820 3.01427946 8.54407836 -1.8053931600000002 -1.158398 0.477012 -0.5353359999999999
10840 3.1507954200000006 5.70493683 -1.99909161 0.359737 -0.6025550000000001 -0.409049
10860 4.194128160000001 3.3403050000000003 -2.1055203 0.6073609999999999 -0.45829 -1.002504
10880 3.6561477600000005 4.13919216 -2.2412907 0.166829 0.014925 -1.7432599999999998
10900 3.80568159 5.73846741 -2.37989619 -0.6068180000000001 1.077716 -2.315115
10920 5.95536651 6.684651720000001 -2.7958892399999997 -0.789555 2.660447 -2.089821
10940 8.11402758 6.689743110000001 -2.56656087 -0.67798 1.891929 -1.807114
10960 7.9893326700000005 5.88740283 -1.88039061 -0.6400819999999999 -0.555085 -1.288831
10980 6.734947590000001 3.5473254300000003 -0.47855142 -0.937735 -1.435084 -0.744989
11000 6.783144120000001 2.49126912 0.36539307000000004 -0.851876 -1.181458 -0.841922
11020 6.23169459 1.50886629 -0.78586929 -1.053782 -1.120733 -1.200197
11040 5.05887966 1.9176587999999999 -2.9759616 -1.307482 -1.208889 -1.57787
11060 5.673947040000001 8.13483459 -8.227342890000001 -1.425269 -0.51222 -1.736614
11080 9.154809720000001 28.0039203 -1.5539138099999998 -1.137145 0.131927 -1.1019709999999998
11100 5.47217496 23.31790893 0.22857300000000003 -0.123016 0.322466 -0.081389
11120 3.03434091 8.487798390000002 -0.49576797 0.043746 0.5778800000000001 0.103183
11140 1.5919373700000001 4.3803415800000005 0.36913068000000004 -0.5939270000000001 1.033216 0.007345999999999998
11160 0.93195981 3.6485155800000006 -0.47751156 -0.543557 0.958022 0.119958
11180 1.793268 7.380847800000001 -1.9091339100000002 0.236009 0.6199600000000001 0.335208
11200 3.9131599500000003 9.21318903 -0.24279750000000003 1.223167 -0.075503 0.7702829999999999
11220 3.5877426300000006 10.53493938 0.64290816 1.505636 -0.163715 0.740322
11240 5.10094494 10.991496779999999 1.7556957000000002 1.876417 0.442183 0.746409
11260 5.69281167 9.297613890000001 0.59710527 1.957984 1.616535 1.103328
11280 6.0833477700000005 8.42088438 -1.3470503400000002 1.553046 1.958952 1.338274
11300 3.9248338500000006 7.056028889999999 -1.1602385100000001 1.246686 1.097928 1.939715
11320 1.29945222 7.28984043 -0.10373094000000001 1.050884 -0.490295 2.615498
11340 0.25327458 8.868161520000001 1.4756300100000002 1.800647 -0.918266 2.963115
11360 0.17499078 10.00594494 2.28051108 2.207682 -0.506895 2.300997
11380 0.9532180800000001 9.90550035 1.13673375 1.561968 -0.681326 1.461361
11400 3.18986865 10.55395116 -1.8660189600000001 1.120275 -0.608815 1.293676
11420 5.1681532500000005 10.318197240000002 -3.0446708399999998 1.076802 -0.54985 1.769724
11440 3.6161818200000004 9.17277183 -2.67030162 1.204517 -0.220491 2.410059
11460 3.16292058 9.4832289 -1.8248562 1.253827 -0.064486 2.514889
11480 1.63610199 9.19762056 0.12424365 1.061587 -0.790567 2.306174
11500 2.81534247 10.30516956 -1.3620204000000002 0.893819 -1.471277 1.919178
11520 2.46058344 14.833701000000001 -2.2558095 1.015552 -0.179003 1.524198
11540 -0.10927359 14.725624230000001 -2.55937995 1.271597 0.6311140000000001 0.909653
11560 -1.9446068699999999 12.658127490000002 -0.7687998900000002 1.03536 0.15598099999999998 0.055102
11580 -0.6210612900000001 13.665084750000002 0.13321980000000003 0.23195900000000005 0.145792 -0.4290600000000001
11600 1.2391207199999998 11.952641340000001 0.5348412000000001 -0.497557 0.529108 -0.816002
11620 3.49208532 10.98071559 0.8825664599999999 -1.193299 1.336165 -1.172273
11640 3.5188862400000005 11.79636804 -0.53453709 -1.951607 1.518004 -1.765325
11660 1.65495681 9.683813970000001 -2.1948894 -0.910154 0.8387879999999999 -2.242153
11680 0.96967926 6.3203083200000005 -2.09833938 -0.6722600000000001 0.535121 -3.496331
11700 0.22348161 5.492825010000001 -1.7350456500000002 -1.032614 2.323846 -2.949937
11720 1.0484241300000001 6.5089153799999995 -1.58999499 -2.331093 2.581896 -0.293056
11740 1.79821224 7.246127070000001 -1.5995695500000002 -0.4123060000000001 -0.842065 0.215048
11760 2.38005315 7.34851404 -1.5810090300000001 0.04017 -1.053721 -0.26008400000000004
11780 2.9286577800000004 5.57380656 -1.55421792 -0.195177 -0.237257 -0.969937
11800 3.3223428900000003 4.25580363 -3.1482546300000003 -0.452618 0.524497 -1.565574
11820 3.3620047200000003 3.9700481400000003 -0.56282913 -0.55319 1.226433 -1.990192
11840 5.88411648 4.452494130000001 -1.22385636 -0.685443 1.98511 -2.1918450000000003
11860 7.468568820000001 5.72065245 -2.82327876 -1.023852 2.338246 -2.0312240000000004
11880 6.584952690000001 5.91076044 -3.05634474 -1.218452 1.681156 -1.6429080000000005
11900 6.16717422 4.665194550000001 -2.80457109 -0.98884 0.665838 -1.282149
11920 6.81038649 4.3613298 -2.30535981 -0.52859 0.123939 -0.964183
11940 5.4744116400000005 4.18290552 -1.28567898 -0.491328 -0.12761 -0.960395
11960 6.3957472200000005 1.3578217199999998 -6.985073160000001 -0.861302 0.027622000000000004 -1.097774
11980 5.0117328 6.752605590000001 -3.6280028700000004 -1.138427 0.10521400000000003 -1.080582
12000 10.2497823 21.38782086 -4.92760224 -1.039467 -0.09143 -0.7420800000000001
12020 12.128828940000002 32.30656668 -0.29503575000000004 -0.64105 -0.284111 -0.322444
12040 4.494706560000001 10.550654999999999 -4.271067990000001 0.00906 -0.449319 -0.33051
12060 2.71685007 3.47487858 -1.0265674500000002 0.06501799999999999 -0.123466 -0.348696
12080 3.82529178 3.20333778 -2.01466008 -0.188714 1.067592 -0.149033
12100 2.89857051 6.142178340000001 -1.51006311 -0.028658 1.420261 -0.037271
12120 0.9351088200000001 8.08319475 -0.6053456700000002 0.071133 1.273053 -0.073774
12140 0.5505568200000001 8.77056183 -0.1272357 -0.072687 1.123077 -0.27220700000000003
12160 1.7191730700000003 9.17711766 0.94333941 -0.081709 1.143786 -0.381255
12180 3.2482479600000005 9.617645520000002 0.57225654 0.154408 0.8633780000000001 -0.259606
12200 5.012027100000001 10.025702279999999 0.0865242 0.274731 0.929484 -0.378491
12220 7.060963320000001 8.73298953 -0.29862621000000006 0.13785899999999998 0.420509 -0.582825
12240 5.72873589 6.718927860000001 -0.66057597 -0.021703 0.662223 -0.684662
12260 3.6136312200000003 5.64296706 -0.14429529 -0.289505 0.6090300000000001 -0.736671
12280 1.68130647 6.232293 0.6965001900000001 -0.20487600000000006 -0.021818 -0.492785
12300 1.15065414 8.1468126 1.19121849 0.613777 -0.541682 -0.134956
12320 0.6074352000000001 8.88672204 1.34719749 1.0831110000000002 -0.394641 0.514408
12340 0.45085779000000004 9.48203208 0.22797459 0.946605 0.222327 1.121551
12360 0.6165683100000001 9.64160154 -0.71027343 0.550966 1.451003 1.360767
12380 0.3555144 8.86261887 0.33784659 0.686086 1.829929 1.587689
12400 2.54905002 9.393565500000001 0.07514459999999999 1.176935 1.256851 1.950774
12420 3.54926781 10.157725260000001 0.19578798 1.1675879999999998 0.595481 2.183361
12440 3.73458852 9.53906742 0.33095997000000005 0.930939 -0.17241800000000002 2.081211
12460 3.2986909800000004 9.007963830000001 0.4972689 1.215841 -1.250914 1.943577
12480 3.1060422 9.496854990000001 -0.13816404 1.136793 -1.012546 1.01123
12500 4.59260055 10.782377010000001 -0.89019864 0.998732 -0.227011 0.226253
12520 5.7293343000000005 12.43209528 -2.42031339 1.360762 0.8251879999999999 0.252002
12540 4.75695729 11.79143361 -2.58736788 2.246472 2.185238 0.626051
12560 3.52292796 12.453353550000001 -0.14759145 2.503055 2.797345 1.840559
12580 2.4996566700000002 13.17530088 0.27258066000000003 2.142093 2.686987 2.045414
12600 -2.5409665800000005 11.331589860000001 0.9813629700000001 2.077348 1.948101 1.4658639999999998
12620 -3.65480379 10.888060140000002 2.12108877 2.204967 1.199395 1.043631
12640 -1.5423968700000001 11.808797310000001 0.30536568000000003 2.335157 1.1138709999999998 0.474219
12660 -0.5074418700000001 11.785145400000001 -0.70652601 2.003148 1.7042130000000002 -0.081127
12680 2.0291788800000004 10.985806980000001 0.22304016000000004 1.523899 2.045939 -0.407516
12700 2.2867992900000003 9.34102314 0.65683836 1.215364 1.713674 -0.697665
12720 1.0500624 7.8781167 -0.9744763500000001 1.047848 1.480822 -0.929273
12740 0.74978811 7.815842820000001 -1.49509305 0.859713 1.216853 -1.353264
12760 1.2064926599999997 8.92998414 -2.88256059 0.563933 0.856915 -1.660381
12780 -0.38799531000000004 12.962443500000001 -3.29075469 0.402979 0.22005 -2.095455
12800 -3.3873047100000004 13.18773015 -1.98906579 0.003248 0.221643 -2.413375
12820 -3.3422473800000003 7.823484810000001 0.6890151600000001 -0.726252 1.770908 -1.870321
12840 -1.70151507 7.278313679999999 1.0409391000000001 -0.964833 2.632896 -0.37865
12860 0.8692444800000001 8.97638544 0.04850064 -0.983754 2.03579 1.105743
12880 3.1563380700000003 10.818752490000001 -2.35071144 -1.386741 1.1202299999999998 1.310269
12900 3.98890296 11.1492612 -3.70869012 -1.498921 -0.687986 0.720007
12920 3.5470213200000003 8.81411823 -2.24083944 -0.8371719999999999 -1.4042 -0.297809
12940 3.77365194 7.02983619 -0.79005816 -0.765315 -0.417192 -1.298428
12960 3.25078875 5.230427130000001 -1.09377576 -0.771205 0.980191 -0.962702
12980 2.61192231 3.9721376700000004 -1.53551025 -0.540078 2.327875 -1.190345
13000 3.7082388600000002 4.520153700000001 -2.09833938 -0.100108 2.516308 -1.807082
13020 4.7223770400000005 5.53983453 -2.21658912 -0.005276 1.929353 -1.892194
13040 4.8358395000000005 5.45211351 -2.34097992 -0.135541 1.304048 -1.7822759999999995
13060 3.90119175 4.9692162600000005 -2.98329948 -0.452662 1.305139 -1.248245
13080 2.53512963 5.03657172 -4.38483456 -0.339357 3.113621 -0.193299
13100 3.4859540700000005 4.97505321 -5.43370014 0.001449 3.553281 0.38429
13120 5.6359332900000005 5.1013962 -4.90559841 0.032756 2.320098 0.255765
13140 9.88724394 6.22285578 -2.4692652900000005 -0.287267 0.606259 -0.046581
13160 13.35926781 8.07779925 -2.94961194 -0.7032619999999999 0.502746 -0.173267
13180 11.856542580000001 7.65492939 -5.136722010000001 -0.276908 2.481991 -0.000842
13200 9.48427857 7.6374185400000005 -6.99150852 0.199265 2.759576 -0.034191
13220 5.003198100000001 14.37880149 -7.20571968 0.068479 2.870659 -0.260642
13240 1.72396035 19.04234796 -3.2799833100000004 -0.20334 2.826191 -0.359692
13260 -3.7020978 18.99085527 -0.5884234200000001 -0.217432 2.599096 -0.299679
13280 -5.40645777 9.755515260000001 1.24196562 0.324589 2.271632 -0.396954
13300 -2.0917470600000008 6.70575303 2.33005158 0.316464 2.103436 -0.419228
13320 -1.35977391 6.1849891800000005 2.36029581 -0.008434 1.874993 -0.28554
13340 -0.8408052900000001 6.67566576 1.4456898900000001 -0.003838 1.870074 -0.12526900000000002
13360 0.25911153 8.7835797 1.15619679 0.185224 1.859115 0.053391
13380 2.12467923 11.749221180000001 1.0897340400000002 0.449269 1.80148 0.118334
13400 5.95117764 13.822103610000001 1.1199684600000002 0.917548 1.660895 0.23715300000000006
13420 4.50442827 9.57439323 0.46044216 1.117123 2.19585 0.283795
13440 4.75501491 8.92668798 -0.8553240900000001 1.04844 2.779065 0.482326
13460 3.59986779 8.26476804 -1.3825233000000001 1.278429 3.211698 0.7824800000000001
13480 1.7756100000000004 8.22239865 3.6565990200000003 2.1167290000000003 3.689176 1.328244
13500 0.9931840200000001 7.68771441 2.7051761700000005 2.734768 4.170063 1.7453470000000002
13520 1.03674042 8.45636715 2.4161245200000003 2.157937 3.056644 1.4981209999999998
13540 1.5067669500000003 8.86247172 2.030228550000001 1.538599 2.157628 0.951222
13560 3.3991355700000003 8.85393702 0.9430353 1.774027 2.691974 0.8528370000000001
13580 3.61932102 9.82032993 -0.90696393 2.085097 3.481663 1.035596
13600 2.03352471 9.58382064 -0.66251835 2.073424 3.639849 1.18059
13620 1.64193894 8.70694398 0.08083440000000001 1.675598 2.820451 1.043197
13640 2.4989013000000004 8.01223902 -0.19369845 1.305234 2.224692 1.431274
13660 4.10895774 7.35376239 -0.9788123700000001 1.534133 2.858055 2.415894
13680 4.997508300000001 9.833347799999999 -0.9458802000000001 1.830245 3.03411 3.418661
13700 4.408633620000001 10.27448388 -0.84439575 2.113725 1.738016 3.618855
13720 2.86639371 10.98565983 -0.7044364800000001 2.136701 -0.313942 2.860002
13740 2.19788145 12.051437850000001 -0.15163317 1.810152 -0.784293 1.687553
13760 2.00358459 11.73140622 0.5626819800000001 1.503096 -0.625387 0.844514
13780 0.47601063 12.032131770000001 1.07251749 1.553935 -0.402241 0.674736
13800 -0.11032326000000002 13.386215880000002 2.447114310000001 1.326847 0.040909 0.606352
13820 -0.70159158 12.501402930000001 4.06285074 1.131169 0.560873 0.748529
13840 -0.27288477000000005 10.368787410000001 2.9939237100000002 1.114432 0.965362 0.8418969999999999
13860 1.47293226 8.218209779999999 -0.63962181 1.295281 0.883632 0.877448
13880 2.2108993200000002 10.849889430000001 -3.90387969 1.087449 0.467567 0.410785
13900 1.8681183 11.7507123 -3.56378661 0.831957 -0.123819 0.405485
13920 0.17004654 11.91866931 -1.25543475 0.627256 -0.355232 0.378714
13940 -1.25124588 11.474237070000001 1.44898605 0.199133 -0.476029 0.322468
13960 2.13830532 11.9388681 3.04840845 -0.1496 -0.309286 0.218337
13980 4.7225340000000005 11.54488869 2.2384458 -0.299723 -0.116557 0.10381
14000 5.97572226 10.018511550000001 0.41329530000000003 -0.400145 -0.088851 -0.077457
14020 8.15624001 8.71083855 -2.6770312800000005 -0.536867 -0.213717 -0.167982
14040 9.278307810000001 6.19995924 -3.68652933 -0.742744 -0.526922 -0.25234
14060 9.3759075 4.08320649 -3.52637127 -0.8483780000000001 -0.7852319999999999 -0.032693
14080 6.7555976399999995 3.67889715 -3.0532055400000004 -0.847083 -0.615164 0.32602
14100 4.104013500000001 5.29538895 -2.9353972500000003 -0.5787979999999999 -0.35932600000000003 -0.481078
14120 3.62127321 6.2346866400000005 -1.9687100400000002 -0.397521 -0.497236 -1.313916
14140 4.27465845 5.682628889999999 -1.03060917 -0.836983 -0.404595 -1.721961
14160 5.8745321100000005 5.613478199999999 -1.2919671900000003 -1.247802 -0.343187 -2.601919
14180 7.144338510000001 4.73016618 -2.5020503100000004 -1.808336 1.203288 -3.104539
14200 8.72865351 2.82327876 -3.4655885100000003 -1.987023 2.628048 -2.273332
14220 8.13813075 1.99325466 -4.527040320000001 -1.297181 1.559719 -1.576005
14240 7.6148163 2.38139712 -4.14218421 -0.446144 -0.17740899999999998 -1.332825
14260 6.89331042 2.53198062 -4.01585103 -0.364631 -0.227176 -1.478539
14280 6.1340949 2.7163988100000003 -3.4069149 -0.589785 0.17133800000000002 -1.308638
14300 6.38077716 2.89079118 -3.64027518 -0.409674 -0.5336390000000001 -1.257339
14320 7.59640293 3.3552750600000003 -4.23065079 -0.633832 -0.718527 -1.180687
14340 9.30764952 3.9540284100000003 -3.9869605800000003 -0.930365 -0.23183 -1.422664
14360 10.572217380000001 4.9930153200000005 -3.81660993 -1.041037 0.682958 -1.521817
14380 12.00503655 6.7735597499999995 -4.89033405 -0.910099 0.927228 -1.449645
14400 14.73595416 9.78829047 -4.904401590000001 -0.861308 0.611794 -1.463855
14420 12.24618597 11.71344411 -6.20744427 -0.839924 0.030658 -1.342252
14440 6.816076290000001 9.25585272 -4.645741320000001 -0.693466 -0.542094 -1.028574
14460 4.3742005200000005 4.963673610000001 -1.4575207500000003 -0.5692659999999999 -0.427435 -0.7725479999999999
14480 2.24473401 6.01269615 -2.7882472500000004 -0.660751 0.17141900000000002 -0.469512
14500 2.00059254 11.29401756 -1.7917768800000002 -0.58754 0.448568 -0.577246
14520 3.08927691 17.3436876 -0.9292718700000001 -0.286645 0.659645 -0.609598
14540 3.6754538400000003 15.732885600000001 -0.7545852000000001 0.016231 0.920444 -0.55761
14560 2.7116115300000003 10.328968620000001 -2.0246859 -0.14105299999999998 1.08186 -0.295064
14580 2.8813539599999998 9.28489032 -1.89730305 -0.7260840000000001 0.95104 -0.106703
14600 5.23266381 9.13655331 -1.9151180100000003 -0.902332 0.877193 -0.134545
14620 5.3334125100000005 8.53524936 -1.7446202100000001 -0.577391 0.557461 -0.11263800000000003
14640 3.3462891000000003 7.056921600000001 -1.09872 -0.056328 0.14574700000000002 0.097696
14660 2.83241187 6.867421830000001 -1.4069207700000002 0.516744 -0.473066 0.637671
14680 2.43334107 6.604719840000001 -0.9617527800000001 0.905617 -0.802532 0.906797
14700 2.08022031 6.5735829 -0.31778514 1.516518 -0.273797 0.8206559999999999
14720 1.79821224 6.965462970000001 0.14086179000000001 1.758259 0.908611 1.155183
14740 2.10791394 7.13251746 0.07529175 1.542544 1.643284 1.6996639999999998
14760 3.6036054 7.6555278000000015 -0.1155618 1.076642 1.811991 2.270897
14780 3.83592582 8.150255910000002 0.30192237 1.049478 1.318715 2.839634
14800 3.49927605 9.04179852 0.97043463 1.661032 0.986931 2.696916
14820 2.41851816 9.21723075 1.09707192 1.579129 -1.120341 1.476998
14840 1.07117352 10.20802113 0.3589577100000001 1.531133 -1.931503 1.374085
14860 0.57345336 9.7607538 0.1502892 2.297791 -0.264018 1.958416
14880 1.8990982800000002 10.4695263 -0.59815494 2.142526 0.33760500000000004 2.689361
14900 4.02647526 11.137440150000002 -1.42039971 1.608311 0.232563 2.514848
14920 5.27083452 11.507473350000001 -1.66049946 1.295825 0.05316 1.830302
14940 6.0472764 12.34527678 -2.01391452 1.24707 -0.504471 1.1972200000000002
14960 4.20071067 12.549305160000001 -2.1923388000000004 1.205674 -0.560371 1.093385
14980 2.62733382 11.41391538 -0.5569921800000001 1.088074 -0.408673 0.822109
15000 3.66348564 12.302318790000001 -1.09662066 0.6509659999999999 -0.17601 0.028273000000000006
15020 1.23462774 13.10285403 -1.17925029 -0.084463 0.517358 -0.63364
15040 -0.98510058 12.25845828 -0.47391129 -0.8419049999999999 0.800872 -1.079402
15060 -1.6271160300000003 11.988124110000001 -0.43215012 -1.339951 0.747273 -1.894661
15080 -0.47316573 11.16962676 0.15672456 -1.392376 0.475488 -2.612524
15100 3.23253234 10.763070930000001 0.5926221000000002 -0.617301 0.427087 -3.965826
15120 5.455105560000001 11.76733044 -0.93405915 -1.3397139999999998 1.567611 -3.5097940000000003
15140 2.6756873100000003 13.15583784 -1.2219041700000002 -1.796443 1.16405 -1.030987
15160 -1.1593359900000002 10.668463290000002 -0.19010799 -0.446449 0.018198 0.364327
15180 0.20761884 8.35113528 0.60054858 -0.261302 0.232392 0.451871
15200 0.7599708900000002 9.71344998 -0.40041477000000003 -0.561417 0.196857 0.008645
15220 1.6190325900000002 8.4479796 -1.6145396100000002 -1.020492 0.459695 -0.8526809999999999
15240 3.31815402 7.18520697 -1.87769286 -1.0180559999999998 1.474574 -1.570741
15260 4.63450887 5.325770520000001 -1.9579288500000003 -1.208208 2.536643 -1.403583
15280 3.8429595900000004 4.6009782900000005 -1.43671374 -1.300125 1.507017 -1.447771
15300 3.4166464200000006 4.20026922 -1.5117111900000002 -0.699381 0.051134 -1.256907
15320 5.065020720000001 4.0698845100000005 -2.5752427200000003 0.445621 0.053729999999999986 -1.300187
15340 7.244488800000001 4.11104727 -2.6756873100000003 0.410273 -0.175559 -1.738111
15360 7.221886560000001 3.7351869300000002 -0.4090966200000001 -0.427914 -0.816004 -1.757032
15380 5.89668309 2.9178864 -0.22467843 -0.793736 -1.15265 -1.169497
15400 5.13132651 2.21854131 -0.82163655 -0.786744 -1.318289 -0.5133479999999999
15420 5.6359332900000005 1.3359748500000002 -3.3138081900000005 -1.223199 -2.335831 -0.08459900000000001
15440 5.668267050000001 6.288268860000001 -6.2324401499999995 -1.387374 -2.561033 -0.101481
15460 7.9390368 27.306213480000004 -0.9517171500000001 -1.058448 -1.897182 -0.698238
15480 2.57299623 26.76134646 0.20133063 -0.658576 -0.484361 -1.376645
15500 1.7205268500000002 8.32777767 -1.61589339 -0.146529 0.371833 -1.216068
15520 1.76946894 2.6304828300000005 -0.5911211700000002 0.164761 0.064342 -0.514883
15540 2.6834666400000002 2.4532455600000005 -0.94064166 0.130922 -0.11001 -0.041673
15560 1.4383618200000001 6.83494092 -0.46058931000000003 -0.397238 0.093152 -0.306269
15580 2.215392300000001 10.04785326 0.0145188 -1.171304 0.857756 -0.368203
15600 3.9477402 10.20158577 1.6304121900000001 -1.068445 0.437958 -0.17146199999999998
15620 4.19577624 9.03790395 1.2340293300000003 -0.559852 -0.762368 0.12632100000000002
15640 5.37427116 7.3805535 0.71536482 0.799964 -1.438795 0.273419
15660 5.02714431 7.962992820000001 -0.21390705000000002 2.174759 -1.485218 0.567228
15680 4.23005238 6.853648590000001 -2.90949885 2.43218 -0.803618 1.186653
15700 3.8899593 7.139404080000001 -3.2401645200000004 2.106073 0.877812 1.36275
15720 4.193382600000001 8.01059094 -0.97222986 1.529385 1.49458 1.868542
15740 5.13686916 7.68367269 0.59306355 1.387129 1.3052700000000002 2.712754
15760 5.210659980000001 6.77984796 0.69455781 1.279739 0.7250840000000001 3.2404490000000004
15780 4.03291062 7.240447080000001 0.9216298800000001 1.512734 0.422149 2.605805
15800 1.7169265800000002 9.489811410000002 0.6917129100000001 1.420075 -0.503642 1.638535
15820 -0.9648919800000001 10.265654880000001 1.69881732 1.193362 -1.869576 1.09925
15840 -1.09138212 10.731482730000002 1.1261095200000002 1.291612 -1.819855 1.366928
15860 2.19728304 11.676323069999999 0.08517042 1.811925 0.573246 2.655771
15880 5.8028308200000005 12.293332829999999 0.5840874 2.081797 1.955376 3.10347
15900 7.96119759 11.78335017 -0.7652094300000001 1.509557 0.6087 2.310714
15920 5.171890860000001 12.05353719 -1.1186244900000002 0.948754 0.03391 1.88345
15940 1.93562091 14.10277752 0.17633475 0.935036 0.055204 1.632294
15960 1.81467342 15.78122928 0.7005419100000001 1.185886 -0.718695 1.542103
15980 0.59635971 16.144827120000002 0.19968255000000001 1.064179 -1.019779 1.01821
16000 -0.25147935000000005 13.41690156 0.39143862 0.552168 -0.428543 0.395375
16020 -0.01856052 10.89119934 -1.50078285 0.329262 0.5922189999999999 -0.266583
16040 1.6268217299999999 9.743841360000001 -0.98584614 -0.42863 2.167933 -0.983195
16060 2.0580693300000004 8.795861819999999 -0.19159911000000002 -1.584541 2.212688 -1.316066
16080 4.19472657 8.69242518 0.38814245999999997 -1.93883 0.8583200000000001 -1.706706
16100 5.64341832 9.11978802 -1.02372255 -1.666739 -0.217282 -2.5558680000000003
16120 4.1444307 11.311675560000001 -2.54830446 -0.796834 1.624993 -3.412072
16140 0.9662359500000001 11.95818399 -3.86720991 -1.717429 0.325967 -1.171435
16160 -0.90411903 7.599699090000001 -1.98906579 -0.676898 -0.976115 -0.397651
16180 1.05051366 4.95199971 0.8405011800000001 -0.388674 -0.5031359999999999 -0.912195
16200 3.64507227 4.78764297 2.12034321 -0.584973 -0.13047 -1.495157
16220 4.26223899 6.4179080100000006 -0.61896195 -0.904304 0.218868 -2.264818
16240 3.1118791500000005 7.416624870000001 -3.64672035 -0.688185 0.351067 -2.744178
16260 2.4369315300000003 5.1882147 -2.46866688 -0.675863 0.181162 -2.091191
16280 3.0958594200000005 4.27226481 -2.31837768 -1.293331 0.142595 -1.236604
16300 4.29441579 5.526061290000001 -3.43984707 -1.511952 0.8784930000000001 -0.995519
16320 4.5984375 7.200177030000001 -4.54259898 -0.967906 1.376902 -1.431397
16340 6.58226475 6.50757141 -1.33402266 -0.281981 1.044473 -1.743442
16360 6.83224317 4.969520370000001 -2.28754485 -0.185149 -0.182176 -1.964452
16380 7.8740749800000005 3.9303765000000004 -0.07784234999999999 -0.681906 -1.3795309999999998 -2.070005
16400 8.042777549999998 2.82641796 -0.8051753700000001 -0.8535739999999999 -1.560059 -1.797508
16420 8.6529105 2.40385221 -0.05988024 -0.503858 -1.184599 -0.890762
16440 10.13901759 0.5490558900000001 -3.2407629300000003 -0.5044810000000001 -0.8645120000000001 0.04779
16460 10.71142128 6.701260050000001 -8.6620338 -0.473421 0.062478 0.236963
16480 8.18317827 28.97853399 -2.50578792 -0.5251100000000001 0.449061 -0.22216100000000005
16500 2.1127110300000003 18.55841085 -1.77186258 -0.382177 0.351034 -0.07468999999999999
16520 4.40878077 8.35412733 -1.64732463 0.125799 -0.119135 0.379182
16540 3.1299884100000006 3.68683344 -1.4198013 1.046539 -0.970577 0.717853
16560 3.9378615300000006 2.40445062 -1.24555608 1.388694 -0.521339 0.764533
16580 4.563710100000001 6.678814770000001 -1.39150926 1.564637 0.347662 0.94411
16600 7.503600330000001 10.547221500000001 -0.92971332 1.6399709999999998 1.0322209999999998 1.248202
16620 3.5983668600000005 11.245369770000002 -0.80053524 1.484294 1.063718 1.498106
16640 4.071081330000001 9.09434088 0.6453116099999999 0.6703819999999999 0.887891 2.482888
16660 5.573512260000001 7.713612810000001 1.21127994 0.488126 -0.13738399999999998 3.558628
16680 5.58862947 7.29897354 1.13284899 1.1526040000000002 -1.217626 2.99636
16700 3.2287849200000007 7.37965098 0.27453285000000005 1.454669 -2.039146 1.18675
16720 0.15462522000000004 7.33205286 -0.9412400700000001 1.47454 -1.235985 0.651748
16740 -2.25146367 7.698044340000001 -1.0904796 1.554015 -0.181373 1.117765
16760 -1.02057354 9.83006145 -0.40685013000000003 0.991014 0.072759 2.254368
16780 2.8913895899999997 12.171335670000001 -0.4197306600000001 0.424459 -0.130706 3.010177
16800 7.20512127 12.860654940000002 -1.60451379 0.462509 -0.147182 2.835276
16820 8.417441069999999 11.59922628 -2.43453789 0.6001 -0.484031 2.50552
16840 5.652247320000001 9.05662143 -2.5315391700000003 0.444632 -0.211935 1.995611
16860 3.2001985800000003 8.81502075 -1.63833867 0.022317 -0.506552 1.18119
16880 2.2829047200000003 8.643630240000002 -0.6599775600000001 -0.355657 -0.805034 0.229283
16900 3.48026427 10.034236980000001 -1.64178198 -0.516295 -0.02594 -0.5237970000000001
16920 1.61873829 13.143418380000002 -0.95680854 -1.004382 0.8033899999999999 -0.769687
16940 -0.76356135 12.566963160000002 -0.48529089000000003 -1.681229 0.912292 -1.042678
16960 -0.18217170000000002 11.93527764 -0.8674492500000001 -1.7437080000000005 0.29564 -1.290152
16980 1.5238265400000002 12.016112040000001 -0.2456424 -1.220782 0.735634 -2.549702
17000 2.21165469 12.23210862 0.78436836 -1.487943 1.342302 -3.513745
17020 4.82267448 12.319682490000002 -1.2621742200000001 -1.638113 1.777334 -2.419356
17040 2.9588922 11.165585040000002 -1.23119424 -0.315421 -0.278999 -1.082886
17060 0.8786718900000001 6.21821565 -1.2958519500000003 0.051869000000000005 -1.462389 -0.901479
17080 -0.5536960200000001 4.52838429 -2.9014154100000003 -0.104576 -1.130686 -1.132665
17100 0.03143124 7.17458274 -3.03613614 -0.254754 -0.383536 -1.632463
17120 1.73533995 8.48465919 -2.1155461200000003 -0.263463 -0.433419 -1.404929
17140 3.04032501 8.91501408 -1.5135064200000001 -0.7735850000000001 -0.582008 -0.568679
17160 4.394409120000001 7.07099895 -2.21763879 -1.104786 0.245765 -0.827358
17180 4.67327799 4.85440983 -1.8805377600000002 -1.160618 0.301658 -1.169651
17200 5.7490916400000005 3.77006148 -2.17048212 -1.004024 -0.025669 -0.967312
17220 7.13701044 3.62306844 -2.5833261600000004 -0.815242 -0.442071 -0.894957
17240 8.908725870000001 4.40788806 -1.9883104200000001 -0.8094060000000001 -0.649492 -0.976903
17260 9.330398910000001 4.92685668 0.83122092 -0.908089 -0.7047939999999999 -0.914497
17280 6.1599933 4.75965504 2.1430926 -0.943059 -0.340645 -0.840432
17300 5.02460352 2.63122839 0.6846791400000001 -0.934716 0.23399999999999999 -0.6969
17320 5.48848899 0.7137167400000001 -2.5098296400000004 -0.721011 0.6981609999999999 -0.5411100000000001
17340 4.95335349 4.226157810000001 -3.9679488000000003 -0.51034 0.704236 -0.644332
17360 7.65867681 22.35780423 -6.149516220000001 -0.645803 0.823567 -0.5322
17380 5.1479446499999995 22.35331125 3.2470511400000004 -0.661307 0.852932 -0.137104
17400 1.2145761000000002 11.02023027 -1.90523934 -0.084565 0.5982310000000001 0.18665
17420 1.73758644 7.199127360000001 -0.9632439 0.732288 -0.146154 0.482798
17440 3.79505736 7.225624170000001 -1.6408892700000002 1.088373 -0.009797 0.440245
17460 7.21724643 9.20166228 -2.5981490700000003 1.412214 0.4361640000000001 0.52312
17480 7.30316241 10.05983127 -0.48259314000000003 1.759157 1.621016 0.954519
17500 3.95328285 9.286087140000001 -0.20627487000000003 1.73138 2.465419 1.334598
17520 1.2510987299999998 8.812175850000001 -0.16406244 1.341074 2.187154 1.729607
17540 2.04564987 7.67154753 -0.87433587 0.747888 1.470402 2.1985360000000003
17560 3.60345825 7.722137700000001 -0.7909508700000001 1.302227 0.055696 2.78747
17580 4.33588266 8.66219076 -0.51283737 2.047919 -0.972831 2.009922
17600 3.37233465 8.064330120000001 -0.36568737 2.131065 -0.529277 1.039989
17620 2.37106719 7.7387558400000005 -0.5638788 1.974413 0.318952 1.374297
17640 1.8824899500000003 8.03798046 -0.13785993 1.7685349999999995 1.165206 1.978525
17660 1.95553521 8.54812008 0.032186610000000004 1.496452 1.113077 1.930758
17680 3.39868431 10.20038895 -0.8116107300000001 1.4837049999999998 0.5265449999999999 1.567157
17700 5.08702455 11.897705339999998 -1.9145196 1.565116 0.880712 1.372855
17720 5.4209765700000005 11.5654014 -2.6321309100000003 1.369312 1.033565 1.412952
17740 4.0243857300000005 9.962977140000001 -2.77163892 1.167019 0.210565 1.207495
17760 3.39957702 9.42619356 -1.14496434 0.778521 -0.641158 0.621555
17780 2.9680253100000002 9.609120630000001 -0.52376571 0.02756 -1.428882 -0.203075
17800 4.33602981 12.59884566 -0.31494024000000004 -0.624532 -0.870334 -0.7883899999999999
17820 1.40856885 14.404248630000001 -0.87103971 -0.921522 0.77498 -1.195293
17840 -0.6045903 12.228969420000002 -0.28470582000000005 -1.506205 1.50535 -1.651102
17860 -1.51095582 11.7879903 -0.5822921700000002 -1.478111 1.139522 -2.0980220000000003
17880 -0.71641449 12.367731870000002 -0.060174540000000006 -1.242019 0.706933 -3.078583
17900 2.1278282400000004 12.054135600000002 1.4117178600000002 -0.8621340000000001 1.957961 -3.50589
17920 4.8060563400000005 10.802134350000001 -0.78422121 -3.443459 2.206166 -1.0043030000000002
17940 4.34920464 11.58905331 -2.04429609 -0.999344 1.122688 0.095198
17960 1.03793724 9.20840175 -3.15274761 1.158779 -0.957198 0.205874
17980 1.02881394 7.36587774 -3.1153224600000002 1.35154 -1.594996 -0.8345469999999999
18000 1.6257720600000003 8.5723704 -1.02776427 -0.563249 -0.113959 -0.8487520000000001
18020 2.87627238 8.32059675 0.33695388000000004 -0.873033 1.211828 -2.056501
18040 3.95582364 5.83741107 -0.09445068 -0.369091 1.860586 -1.961945
18060 2.84857875 4.518505620000002 -1.76453451 -0.288289 1.306537 -1.7395490000000002
18080 2.7403548300000002 4.20835266 -2.98389789 -0.4482060000000001 0.077085 -1.570311
18100 4.58286903 4.23873423 -3.63653757 -0.6630689999999999 -0.305237 -1.14617
18120 6.367308030000001 4.184102340000002 -3.1121734500000002 -0.7424430000000001 0.023789 -0.24343
18140 7.616160270000001 5.1828192 -3.0540982500000005 -0.6773520000000001 -0.31456 0.130268
18160 7.72617942 5.222785139999999 -2.08351647 -0.930961 -0.208472 -0.072465
18180 6.19412229 5.28940485 0.39502908 -1.251809 0.279461 -0.601965
18200 5.264104860000001 3.3861078900000003 1.6727717700000002 -0.8835930000000001 0.427908 -0.482079
18220 4.36941324 1.73638962 0.82089099 -0.17702 -0.35888200000000003 -0.141782
18240 4.935832830000001 0.30611124000000006 -3.2885082000000003 -0.110664 0.110881 -0.193195
18260 4.18379823 5.43489696 -6.91351902 -0.493441 1.048742 -0.498309
18280 8.80619175 25.474029210000005 -5.6236511700000005 -0.528281 0.747975 -0.644513
18300 4.35114702 30.04102566 2.35954044 -0.414083 0.392397 -0.533233
18320 2.8797156900000003 8.57222325 -1.6584001200000003 -0.326113 0.50616 -0.288142
18340 2.04250086 3.0021543000000004 -0.2803698 -0.599143 0.37054 0.030591000000000007
18360 2.84169213 2.91368772 -2.0853117 -0.622049 0.656316 -0.286128
18380 3.6119929500000003 8.848100070000001 -3.47457447 -0.23969 0.536524 -0.496949
18400 3.18671964 10.96754076 -0.9924384600000001 -0.469842 0.051975 -0.335565
18420 4.40473905 10.089614430000003 1.4296799699999998 -0.348516 -0.173428 -0.017166999999999998
18440 4.7165400900000005 9.59893785 1.1642802300000001 0.500993 0.18013800000000002 -0.194352
18460 5.065020720000001 8.903938590000001 -0.026192700000000003 1.411765 1.110236 0.585278
18480 6.324801300000001 6.913675980000001 -0.29099403 1.690549 2.510817 1.206068
18500 5.294486429999999 5.76226647 -1.62606636 1.560468 3.158334 1.361358
18520 1.2283493400000003 6.4433551499999995 -1.32430095 1.538951 3.00239 1.483185
18540 -1.9028457 8.33796045 1.0827002700000001 1.886491 1.852533 1.820371
18560 -2.09818242 9.67946814 2.9859874200000007 2.400772 0.8613040000000001 1.771823
18580 -0.05568156 9.26528013 1.72471572 1.639046 0.280208 0.699025
18600 3.5911859400000004 10.21012047 -2.33320059 0.777489 0.050325 0.592888
18620 3.4211394 9.99142614 -1.72426446 1.325825 0.7198869999999999 1.040241
18640 3.1957056 9.051824340000001 -0.04775508 1.87522 1.89627 1.282921
18660 3.2212998900000005 9.36647028 0.4827501 1.900368 2.522611 1.537599
18680 2.97117432 10.02061089 0.59171958 1.890196 2.259008 1.400065
18700 3.9098736000000005 10.02271023 -0.21525102000000002 1.850365 1.555493 1.010787
18720 6.06942738 9.65552193 -1.03120758 1.862667 1.105246 0.908901
18740 7.3468757700000005 10.82308851 -1.3970421 1.853535 1.252116 0.951378
18760 3.9362134500000003 12.53987775 -1.5705319500000001 1.6517669999999998 0.978013 0.941774
18780 1.7871367500000002 12.311451900000002 -0.16346403 1.194902 1.068404 0.844463
18800 0.06452037000000001 14.00158737 1.77126417 0.745767 1.7560189999999998 0.57339
18820 -2.8475290800000006 14.66470413 2.05148682 0.573807 1.7117759999999995 0.331895
18840 -2.21658912 12.48030162 2.9810529900000002 0.465899 1.098863 -0.012041
18860 0.34503732000000004 11.134448100000002 2.21045787 0.21995 0.517783 -0.4712810000000001
18880 2.13905088 9.63605889 1.16353467 -0.13949 0.7172029999999999 -1.011363
18900 2.53198062 9.44355726 -0.28425456 -0.568182 2.538351 -1.852041
18920 3.61543626 10.543022820000001 -3.70704204 -1.256508 2.643169 -2.425277
18940 2.1999709800000002 13.095516150000002 -4.77013212 -2.121086 1.01296 -1.592809
18960 -1.49718258 13.14251586 -2.5970994000000003 -2.201996 -0.485337 0.203158
18980 -1.8541979100000001 8.068823100000001 -0.13053186 -1.6940669999999998 -0.7906569999999999 1.788066
19000 -1.6673860800000002 5.01592167 1.25319807 -1.551296 0.092899 1.288003
19020 0.82239192 5.549114790000001 0.33994593000000006 -1.006909 -0.17443399999999998 0.0060090000000000005
19040 2.3095486800000007 6.27974397 -0.33829785 -0.630601 -0.792048 -1.977464
19060 2.87986284 6.49858545 -1.0933245 0.437584 0.68324 -3.404379
19080 2.8342071 6.092029620000001 -0.90247095 1.375517 2.321667 -3.69262
19100 2.8521692100000005 5.7583719 -0.7387126199999999 1.27554 3.210025 -3.5854980000000003
19120 2.44052199 6.171520050000001 -0.6837766200000001 0.516139 3.005231 -3.129068
19140 2.57344749 6.2903682000000005 -1.885482 -0.156624 1.355058 -2.265325
19160 2.8509723900000004 5.799240360000001 -1.8133294500000001 -0.844931 -0.633628 -0.651364
19180 3.5125980300000004 5.1003465299999995 -0.9216298800000001 -1.446868 -0.116813 0.62884
19200 4.51491516 5.12010387 -1.39495257 -0.576751 1.604289 1.035432
19220 4.85111367 5.526806850000001 -1.89700875 0.96581 3.048527 1.098835
19240 5.35915395 5.70179763 -2.55443571 1.1078059999999998 2.584355 0.371895
19260 6.3957472200000005 5.69415564 -2.63976309 0.924066 1.725589 0.037358
19280 9.18445554 6.17750415 0.023799060000000004 0.299571 1.224625 -0.149028
19300 11.030864310000002 4.3304969700000004 -1.6310106 -0.361741 0.44437 -0.256265
19320 11.405527830000002 2.4987541500000003 -2.9181807 -0.657828 0.225272 -0.353124
19340 13.89246093 4.313584530000001 -3.5893907100000004 -0.616538 1.213264 -0.24300700000000006
19360 15.215859360000001 8.62910163 -6.155500320000001 0.274147 2.143269 -0.220885
19380 9.85955031 17.19833283 -1.26547038 0.6420279999999999 2.089827 -0.228929
19400 6.7538024100000005 22.45286313 -5.284911870000001 0.262648 1.44051 -0.025649
19420 0.70637886 24.101982990000003 -2.6403615 0.007939 1.008019 0.192112
19440 -2.8476762300000003 13.5724293 3.12266034 0.27522800000000003 1.069244 0.366952
19460 -3.82784238 4.834201230000001 5.745952440000001 0.615035 1.224618 0.64366
19480 -3.91571055 1.35198477 5.11651341 0.576419 1.196029 0.8998
19500 -3.50002161 1.76737941 3.45347316 0.301344 1.292528 0.7161569999999999
19520 -2.86639371 7.16590089 1.0005219 0.33418000000000003 1.986724 0.5125350000000001
19540 0.18112203000000002 13.227696089999998 0.06196977000000001 1.216516 2.370834 0.660279
19560 2.24757891 13.18293306 2.6435007 2.599248 2.640763 0.6898880000000001
19580 5.504950170000001 9.13820139 1.1322407700000001 2.4650380000000003 4.336253 0.913241
19600 7.39597482 8.20458369 -2.34771939 2.542555 4.2096160000000005 1.345506
19620 3.94295292 10.075851 -1.2560331599999999 2.583044 3.221851 0.841786
19640 0.33978897 9.740093940000001 0.7697024100000001 2.517372 1.710057 0.408498
19660 -0.49651353 8.9626122 2.6925997500000003 1.940408 1.411044 0.293756
19680 1.3624618499999999 7.741600740000001 2.43243855 1.751693 1.873128 0.252322
19700 3.28895946 8.49798117 0.6736036500000001 1.6435919999999995 2.240194 0.4594
19720 3.0650265900000004 9.501936570000002 -1.6233784199999999 1.5688950000000002 2.409249 0.8709950000000001
19740 2.0555285400000005 9.58771521 -1.35138636 1.378917 2.275315 1.228762
19760 3.6664776900000002 8.66712519 0.7387126199999999 1.013825 1.7705099999999998 1.245018
19780 4.79617767 8.757387000000001 1.03015791 0.674571 1.191442 0.8962190000000001
19800 4.37195403 8.61264045 1.1244614400000001 0.564765 0.683678 0.366264
19820 3.9222930600000003 7.67244024 1.04452956 0.440734 0.185303 0.164143
19840 3.04945812 7.56796374 1.14661242 0.26850100000000005 0.015618 -0.142354
19860 2.96309088 9.07578036 -0.02245509 0.056591 -0.009922 -0.497383
19880 1.75659822 14.80122009 -0.33485454 -0.227634 0.225895 -0.881026
19900 -0.61432182 18.29600316 1.8754463700000001 -0.605383 0.671377 -1.135268
19920 -1.38911562 14.786701290000002 1.77501159 -0.791971 1.138862 -0.931003
19940 -0.89514288 10.33974981 0.28769787 -0.5124029999999999 1.483926 -0.353721
19960 0.36958194 8.65844334 -1.3013946 0.095577 1.707787 0.145894
19980 1.78324218 10.58733459 -5.166809280000001 0.082725 1.782166 0.470448
20000 -0.43424946000000003 12.308607 -3.61183599 -0.538081 1.586133 0.481318
20020 -1.71618102 9.42754734 -0.71520786 -0.812519 1.025595 -0.028354
20040 -0.70323966 8.0489088 0.81744768 -0.974676 0.304902 -0.278527
20060 1.5971759099999998 8.3873538 0.24009975 -1.085598 -0.18666 -0.065028
20080 2.82507399 8.908274610000001 0.44113608000000004 -0.588784 0.451816 -0.057035
20100 3.59028342 8.70709113 0.18726309 0.521798 1.766932 -0.6278020000000001
20120 4.05147114 8.96485869 -0.35850645000000003 1.227257 2.388135 -1.009299
20140 5.03627742 7.32232134 -1.4567751899999999 0.966852 2.210716 -1.1700549999999998
20160 5.89548627 6.19771275 -2.5286942700000004 0.5005069999999999 1.35633 -1.289722
20180 7.197037830000001 5.589679139999999 -3.2494447800000006 0.213041 1.451336 -1.089958
20200 5.51647692 5.29703703 -3.59731719 0.189776 1.7391330000000005 -0.846935
20220 3.44852892 5.976467820000001 -2.82088512 -0.16913699999999998 1.698718 -0.552424
20240 4.412224080000001 5.87663145 -2.21973813 -0.522683 1.226703 -0.222072
20260 5.407654590000001 5.213210580000001 -2.01256074 -0.124929 0.30887600000000004 -0.14440999999999998
20280 5.4727733700000005 5.0248978200000005 -2.6017395300000006 0.096516 -0.254533 -0.366468
20300 5.40031671 6.3797373 -3.28342662 0.092318 -0.08056100000000001 -0.445769
20320 5.902677000000001 8.663387580000002 -3.2383692900000005 0.043987 0.607476 -0.637131
20340 6.575378130000001 11.15360703 -2.8291157100000004 -0.012656 1.299032 -0.6362770000000001
20360 6.6283619400000005 11.335327470000003 -2.63900772 -0.195204 1.383387 -0.527633
20380 6.1113455100000005 8.191712970000001 -2.16913815 -0.330943 1.310541 -0.30843400000000004
20400 5.6019514500000005 7.954458120000001 -2.6402143500000004 -0.159391 1.175113 -0.156443
20420 6.326890830000001 11.20015548 -3.6887758200000005 -0.091214 0.8311270000000001 -0.239916
20440 5.86555596 15.888109230000001 -0.23440995 -0.181216 0.456672 -0.29240700000000003
20460 1.10336013 13.93467336 -0.50459697 -0.18335 0.440764 -0.308425
20480 -1.30273857 11.28937743 -0.65533743 -0.478696 0.137554 -0.416922
20500 -0.5263065 9.59384646 0.8960355900000001 -0.46644 -0.190827 -0.6247189999999999
20520 0.8157996000000001 8.474476410000001 1.61917974 -0.208329 -0.021078 -0.674408
20540 -0.11810259 9.3676671 0.5869323000000001 -0.084645 -0.047039 -0.683125
20560 -1.09377576 10.205921790000001 -0.82179351 0.111078 -0.125694 -0.630382
20580 1.3690541699999998 10.72923624 1.49868351 0.147728 -0.381921 -0.25592
20600 5.0205618 9.970167870000001 2.90770362 0.130189 -0.552882 0.154374
20620 6.81861708 9.14852151 2.33708535 0.551898 -0.724694 0.396821
20640 7.088205690000001 8.84091915 -0.06122421 1.290229 -0.45348 0.663345
20660 5.04061344 8.67850479 -1.0910780100000002 1.7316650000000002 0.096263 0.798184
20680 1.20439332 8.8817778 0.054484740000000004 1.848844 0.592137 1.098537
20700 0.04250673 8.87849145 1.32998094 1.802706 0.5371100000000001 1.578985
20720 1.83803103 8.31894867 1.2567885300000001 1.7461970000000002 0.161118 2.147366
20740 1.6426844999999999 8.86950549 0.6976970100000001 1.731127 -0.061541999999999986 2.430625
20760 2.47825125 9.32485626 -0.54112941 1.77866 -1.252034 2.533964
20780 3.4236801900000002 9.4800897 -0.7893126 1.892664 -2.2665580000000003 2.264732
20800 3.86720991 10.10713509 -0.7852708800000001 2.144544 -1.741309 2.295728
20820 4.38572727 10.274935140000002 -0.83676357 1.992698 -0.140692 2.5500580000000004
20840 4.66609707 9.79473564 -0.94183848 2.241459 0.469521 2.648222
20860 4.43153016 9.964330920000002 -1.25664138 2.239035 0.077651 2.080413
20880 4.40309097 10.836116190000002 -1.55361951 1.957834 -0.729449 1.165085
20900 3.7073363400000003 10.62146358 -1.3807280700000002 1.293384 -0.671771 1.169984
20920 3.1246027200000004 10.514436480000002 -1.39015548 0.8280559999999999 -0.307221 2.048618
20940 3.50391618 11.29610709 -1.9869664500000002 0.439637 -0.232509 2.615171
20960 3.65330286 12.282110190000001 -0.5794472700000001 0.191904 -0.441919 2.45134
20980 4.14847242 12.31159905 -0.42721569 0.056067 -0.903507 1.585723
21000 3.4849044 12.794192190000002 0.8884034100000001 -0.159224 -1.339914 0.619105
21020 1.5138007199999999 12.52235709 1.21218246 -0.601831 -1.459523 -0.253366
21040 0.9623511900000001 12.6501912 0.8610138900000001 -1.09106 -0.626119 -0.717186
21060 1.16337771 13.328434979999999 0.50939406 -1.508867 0.811537 -1.037072
21080 0.8773279200000001 12.714260310000002 0.66132153 -2.052537 1.91661 -1.459961
21100 0.58138965 11.418555510000001 0.56851893 -2.094534 2.261861 -1.980921
21120 0.7279314299999999 11.30419053 0.07394777999999999 -1.308065 2.76198 -1.989955
21140 0.79903431 12.81799125 -0.24773193000000002 -1.694392 3.5036120000000004 0.688701
21160 1.13868594 14.36861871 -0.7825731300000001 -1.886268 -0.108155 -0.354868
21180 0.09789399 12.08407572 -0.40730139000000004 1.181013 -2.311159 -0.878618
21200 0.14385383999999998 8.042022180000002 1.36994688 0.5768909999999999 -1.965749 -0.952715
21220 1.3632172200000001 3.93231888 0.6899176800000001 -0.521748 -0.269542 -1.935713
21240 2.93659407 2.6446975200000002 -1.3654637100000002 -0.6088899999999999 0.6151810000000001 -2.794169
21260 4.0923396 3.9044781 -4.10551443 -1.074715 0.5261319999999999 -2.499275
21280 3.92394114 4.26388707 -4.7806092 -1.895005 0.6289560000000001 -2.194284
21300 2.428249680000001 4.78898694 -3.6283069800000005 -1.740168 0.983025 -1.629635
21320 2.5400640600000006 6.29725482 -2.4351363000000004 -0.703676 1.192438 -0.8193600000000001
21340 5.58503901 7.82482878 -2.5267420800000004 -0.360881 0.206518 -0.449302
21360 7.044649290000001 7.79579118 -2.7704421 -0.6754100000000001 -0.426362 -0.416505
21380 7.422913080000001 5.19614118 -3.3450922800000003 -1.2568 -0.268427 -0.513704
21400 6.68389635 3.6724617900000003 -3.05125335 -1.5735940000000002 0.317023 -0.65874
21420 6.40098576 2.57943159 -2.5225532100000003 -1.462298 0.44309 -0.846132
21440 4.9472124299999996 4.52883555 -2.5354239300000008 -1.089227 -0.0784 -1.292579
21460 5.056338870000001 4.763098350000002 -2.45938662 -0.698041 -0.784479 -1.680979
21480 4.75366113 4.386776940000001 -1.94939415 -0.361133 -0.630947 -1.473724
21500 5.7827791799999995 3.09062088 -1.14212925 -0.410916 0.530068 -0.8645360000000001
21520 6.7062042900000005 1.4888048400000002 -2.90635965 -1.041417 1.106287 -0.294975
21540 8.361759509999999 12.18900348 -6.79017789 -1.188689 0.499133 -0.180926
21560 14.798826450000002 36.78675444 -2.39397354 -1.033716 0.153171 -0.112103
21580 8.39169963 12.07195056 -0.82299033 -0.805623 0.21372 -0.00056
21600 1.1298471300000001 2.34487449 -3.49208532 -0.443486 0.023172 0.183811
21620 1.91631483 -0.41433516000000004 -3.0114345600000005 0.136572 -0.7574770000000001 0.430282
21640 3.3283269900000003 5.87423781 -1.9579288500000003 0.844103 -1.093768 0.531795
21660 3.9116688300000004 9.2893833 -1.3040923500000001 1.952935 -0.761091 0.558342
21680 3.07041228 10.933264620000001 -0.18710613 2.297892 0.280447 0.33509
21700 2.30012127 10.67729229 0.23815737 2.161302 1.452978 0.803719
21720 3.0602393100000005 10.04336028 -1.23717834 1.4609379999999998 1.642149 2.053745
21740 4.982086980000001 8.9973396 -2.42480637 0.796651 1.406837 3.398571
21760 6.364914389999999 7.660167930000001 -2.00537982 1.623445 1.788852 3.319467
21780 6.896155320000001 6.36132393 -0.97971489 1.929094 0.26655700000000004 1.196723
21800 5.51917467 6.179446530000001 0.96654006 1.531786 -1.37444 0.594642
21820 3.3564718800000004 6.490050750000001 2.0622582 1.742368 -0.80176 1.319633
21840 1.6979148 6.889572810000001 1.74641544 1.723511 -0.177079 2.824894
21860 0.7051820400000001 7.90162146 0.30446316 1.7034759999999998 0.120282 3.071132
21880 0.8372050200000001 9.13894695 -0.72374256 1.675048 -0.136262 2.250868
21900 0.5768966700000001 9.92511054 -1.16861625 1.6281139999999998 -1.013432 1.60539
21920 2.2547598300000002 10.459794780000001 -1.0741655700000001 1.391979 -0.35330900000000004 1.630668
21940 4.3610355 11.22650514 -1.6560064800000003 1.112336 0.670988 1.73102
21960 5.51962593 11.6115084 -1.4983794 0.6128979999999999 0.581248 1.429613
21980 6.48256572 12.152029590000001 -1.81452627 0.15361 0.034678 0.518048
22000 7.071744510000001 12.895088040000001 -2.07244098 0.12921400000000002 0.35041500000000003 -0.628729
22020 5.836067100000001 13.697418509999999 -0.24773193000000002 -0.423904 1.3484969999999998 -1.19362
22040 3.83382648 13.27888467 0.09759969 -1.40961 1.904356 -1.616756
22060 3.5118426600000006 13.758338610000001 -0.6427610100000001 -1.49089 1.402717 -1.838871
22080 0.42705873000000005 13.13443242 -0.67779252 -0.566681 0.817052 -2.96398
22100 -0.79903431 12.10816908 0.39098736000000006 -1.412266 1.168405 -2.717168
22120 -0.37018035000000005 10.42642116 -0.25686504 -1.6659509999999995 1.473488 -1.270822
22140 1.8675198900000003 9.36333108 -0.11945637 0.65988 -0.8248190000000001 -0.231479
22160 6.09277518 10.59003234 -1.10320317 0.754055 -1.969384 -0.730351
22180 2.7041265 13.54428441 -1.36590516 -0.020798 -1.166659 -1.532617
22200 -1.12924872 7.82856639 -0.4625415 -0.971917 0.465852 -2.166262
22220 -1.34136054 4.46701293 -0.01122264 -1.486141 1.2967030000000002 -2.769123
22240 0.5587874100000001 6.567441840000001 -0.08846658 -2.01214 1.558782 -1.787164
22260 3.33611613 7.1579646000000015 -0.47196891 -1.836808 0.6043850000000001 1.230874
22280 2.94991605 7.46961849 -0.7232913 -1.512017 0.694911 1.221276
22300 3.35063493 4.55906997 -2.270034 -0.555044 0.322226 0.618483
22320 2.4941140200000005 3.56978052 -1.81557594 -0.223758 0.02862 -0.036851
22340 1.8660189600000001 3.4557098400000004 -1.9369746900000002 -0.8991040000000001 -0.541247 -1.328045
22360 3.86915229 4.6824111 -3.1892702400000004 -1.446266 -1.225898 -2.530603
22380 7.13326302 6.4713430800000005 -3.6426786300000003 -1.416022 -2.037013 -2.713087
22400 9.908649359999998 7.00393779 -2.00492856 -1.160073 -1.4914690000000002 -1.901218
22420 10.39798197 6.239778030000001 0.46044216 -0.421982 0.138459 -0.692128
22440 8.3119149 4.1195819700000005 0.5110421400000001 0.422599 0.211785 -0.048594
22460 6.675067350000001 2.4556392 -0.30476727000000003 -0.327353 0.184526 -0.572954
22480 7.166499300000001 0.39368511 -3.7600356600000002 -2.043171 -0.189479 -0.660303
22500 7.06081617 4.75097319 -8.71966755 -2.273431 -0.423836 -0.461854
22520 12.12523848 26.02966761 -4.58975565 -1.033058 -0.392443 -0.330384
22540 6.405930000000001 22.43280168 1.64717748 0.282088 -0.483135 -0.103164
22560 3.5121467700000006 7.200628290000001 -2.77687746 1.048813 -0.64612 0.296574
22580 3.40676775 4.472104320000001 -1.9863680400000001 1.360557 -0.416775 0.481123
22600 3.3322215600000007 3.5578025100000006 -1.8342836100000002 1.775332 -0.221087 0.7348020000000001
22620 3.3153091199999998 6.27315165 -1.6116947100000003 2.025824 0.039909 1.049206
22640 3.6173786400000005 10.483005240000002 -0.52076385 2.066528 0.49296 1.468721
22660 5.47725654 10.48689 1.02896109 1.6818939999999998 0.836615 2.174894
22680 9.4601754 9.45852732 1.15949295 1.001645 0.7349720000000001 3.4062050000000004
22700 6.0338072700000005 10.758430800000001 1.85434506 1.309932 0.799236 4.914469
22720 2.7994797000000005 6.65141544 -1.47098988 2.538999 0.213113 3.373815
22740 2.0419024500000003 4.55816745 -1.2763987199999998 1.846362 -1.378855 0.6267550000000001
22760 1.88338266 4.92894621 -1.6402908600000001 0.623979 -2.167563 0.721777
22780 1.8841282200000002 5.7523878 -0.6794406000000001 0.769046 -1.0369549999999998 2.104688
22800 1.94714766 6.630912540000001 0.36898353 1.4901879999999998 -0.431353 3.211355
22820 2.6806217400000003 7.00049448 3.20049288 2.307329 0.046874 2.524242
22840 3.43505979 7.6950522900000005 4.14712845 2.020248 -0.094708 1.683864
22860 4.35564 8.975335770000001 -1.40588091 1.374696 0.227663 1.546482
22880 6.08619267 11.16303444 -5.13342585 1.308842 0.763742 1.54213
22900 8.037833310000002 12.09559266 -3.26770119 1.0145879999999998 1.180427 0.958428
22920 6.554119860000001 11.83603968 -1.2783410999999998 0.328152 1.0834290000000002 0.236981
22940 4.93298793 11.54294631 -0.44472654 -0.403669 0.827987 -0.515559
22960 4.24996668 12.788659350000001 0.45206442 -1.147831 0.767163 -1.175499
22980 4.43977056 12.85990938 0.28695231 -1.89961 0.7582220000000001 -1.750101
23000 4.48691742 14.05532655 -0.45266283000000007 -2.308585 0.506696 -2.163901
23020 2.63272932 12.576694680000003 -1.14002991 -0.865633 1.004191 -3.682017
23040 0.88001586 11.331589860000001 -0.23591088000000002 -1.922396 0.7287680000000001 -2.8878790000000003
23060 1.0204263900000001 11.32155423 0.6905160899999999 -1.414395 0.12665 -1.140221
23080 2.28649518 10.65274767 1.45152684 0.266776 -0.968186 -0.268224
23100 4.92640542 9.1043667 1.35303444 0.152308 -1.114594 -0.58503
23120 7.6179555 7.99996671 -0.14893542 -0.4366600000000001 -0.074738 -1.441849
23140 6.521334840000001 12.00847986 -3.0716091000000003 -0.698036 0.903662 -2.132864
23160 3.2723413199999998 12.648395970000003 -4.12257402 -0.504699 1.540641 -2.020166
23180 0.85681521 6.002219070000001 -2.62269369 -0.591859 0.933932 -1.271174
23200 1.48476312 5.38115778 0.90097983 -0.913041 -0.420304 -1.191565
23220 3.7134774 6.96770946 1.96077375 -0.951124 -0.327465 -0.932372
23240 4.5229986 7.717203270000001 0.8075690100000001 -0.723808 -0.0066 -0.385334
23260 4.2471217800000005 4.8159350100000005 -2.14039485 -0.714479 0.028136 -0.289174
23280 2.0574709200000005 2.062111050000001 -2.31658245 -0.916819 -0.289132 -0.691832
23300 2.0341231200000003 2.21553945 -1.1563439400000002 -1.254137 -0.6903520000000001 -1.295083
23320 5.88636297 3.82589019 -2.2248197100000002 -1.47983 -1.114487 -1.593082
23340 8.92549116 4.64274927 -2.3107455000000003 -1.352688 -1.029777 -1.309223
23360 10.80258561 4.63226238 -1.03869261 -0.736112 -0.390196 -0.8827200000000001
23380 10.61427285 3.02551191 0.27198225000000004 0.028308 0.06385199999999999 -0.540404
23400 8.03574378 0.6011469899999999 0.8385588 0.112336 -0.049135000000000005 -0.596288
23420 6.8892785100000005 -1.3069274400000002 -1.2620270700000003 -0.498298 0.199648 -0.742946
23440 7.079082390000001 0.6968043 -5.16605391 -1.290902 -0.008546 -0.7386020000000001
23460 11.98243431 20.64805857 -7.238200590000001 -1.244073 0.266941 -0.674534
23480 11.93063751 28.97419797 2.17272861 -0.6302840000000001 0.50478 -0.744259
23500 4.32105975 10.12390038 1.0129413600000001 -0.009118 -0.258421 -0.368269
23520 3.71512548 4.95455031 -1.73758644 0.51142 -1.546556 0.033328
23540 3.90268287 3.4774193700000002 -2.76205455 1.288734 -1.947204 0.450536
23560 4.984480620000001 5.83112286 -2.8089071100000003 1.734005 -0.397771 0.732603
23580 4.11329376 9.437121900000001 -0.56582118 1.870138 1.006658 1.047948
23600 4.99930353 9.027132570000001 1.58550201 1.823083 1.787512 1.619186
23620 4.715196120000001 8.371795140000001 1.18238949 1.113071 1.946859 2.610673
23640 3.46139964 7.00812666 -0.01511721 0.602913 0.954333 4.0387309999999985
23660 3.49762797 5.849084970000001 -1.01997513 2.282083 -0.060177 4.006895
23680 5.300480340000001 6.10400763 -0.9467827200000001 2.468552 -0.683655 1.524312
23700 6.152057010000001 6.687045360000001 -0.57375747 0.904262 -1.095621 0.676427
23720 4.72536909 6.58735614 -0.11511054 0.416556 -1.024758 1.492256
23740 3.1106823300000004 6.99241104 0.12678444 0.7387229999999999 -0.48659 2.758591
23760 2.99976066 7.34073471 0.86130819 1.637726 0.344845 3.446399
23780 2.93090427 7.99427691 1.49284656 2.289647 0.091905 2.467445
23800 3.24659988 8.11792215 1.43700804 1.504941 -1.570242 1.629812
23820 3.89610036 7.75013544 0.14804271000000002 0.516618 -0.8047270000000001 1.525788
23840 5.64445818 8.23093335 -1.94909985 0.461696 -0.002357 1.253048
23860 5.8642021799999995 9.60283242 -3.12684921 0.701823 0.15676199999999998 0.680886
23880 6.113886300000001 11.08415223 -2.2537101600000002 0.125059 0.664696 -0.099323
23900 5.035374899999999 12.88461096 -0.5836361400000002 -0.950032 1.071472 -0.7247859999999999
23920 3.1046982300000003 13.226195160000001 1.28417805 -1.802262 1.207982 -1.355824
23940 2.5938032399999997 12.547657080000002 1.80060588 -2.666723 0.902824 -2.081452
23960 3.52800954 14.94986121 0.6403673700000001 -2.322838 0.655786 -2.40561
23980 4.953647790000001 16.02118188 1.57741857 -0.636333 -0.35495 -3.119993
24000 2.82507399 13.37498343 0.36329373000000004 -1.792762 0.733996 -3.24163
24020 1.87470081 11.07920799 -1.3028857200000001 -2.725246 0.804929 -1.260273
24040 3.68293887 9.880053210000002 0.28979721 0.343697 -0.184605 -0.21955300000000005
24060 5.759872830000001 7.67424528 1.23358788 1.059987 -0.653462 -0.539756
24080 7.90131735 7.058873790000001 -1.3816305900000003 0.504085 -0.110169 -1.655286
24100 6.475679100000002 11.25748512 -3.5793550800000005 -0.506113 0.442525 -2.33069
24120 2.5018933500000005 12.153530520000002 -4.9154770800000005 -0.911395 0.9421 -0.905948
24140 -0.52540398 7.725737970000001 -1.7378905500000001 -1.074633 0.924 0.030834
24160 1.2114270900000004 6.728659380000001 0.8797215600000001 -1.681083 1.392948 -0.830717
24180 4.6131034500000005 7.025343210000001 2.2990716000000004 -1.587352 0.880237 -0.833678
24200 6.0454811699999995 7.01695566 0.9017253900000001 -0.729572 0.0075629999999999985 -0.991075
24220 6.78718584 5.5932696 -2.40474492 -0.329573 -0.24759 -1.465449
24240 5.03103888 3.6844398000000003 -5.10797871 -0.4280390000000001 -0.697501 -2.087265
24260 3.91151187 2.2170403800000003 -2.0824668 -0.711752 -1.184288 -2.118533
24280 7.2673853400000015 3.2717429100000004 -1.7272565100000001 -0.58087 -0.980168 -1.596589
24300 8.175997350000001 5.914655010000001 -0.49741605 -0.10963 -0.945694 -0.77081
24320 8.995995630000001 5.6046492 -1.10844171 0.222398 -1.196498 0.121659
24340 7.789650120000001 3.239262 0.6661186200000001 -0.077681 -0.5454220000000001 0.599429
24360 5.71302027 2.00433015 1.56259566 -0.8611690000000001 0.5895560000000001 0.630958
24380 5.319639270000001 1.2331366200000002 1.29226149 -1.02093 0.5351819999999999 0.5145430000000001
24400 5.46228648 -1.1726579700000002 -3.52412478 -0.735459 -0.200321 0.116897
24420 5.2952418 3.88666314 -7.08162318 -0.247346 -0.319302 -0.122028
24440 10.23227145 24.30346077 -1.5488322300000001 0.245815 0.222341 0.128551
24460 9.42066072 23.36102388 2.13486201 1.083532 0.7257170000000001 0.592024
24480 3.4605069300000006 8.94090267 -0.5417278200000001 1.726537 -0.173873 0.957659
24500 1.6060147200000001 4.8298554000000005 -0.7385654700000001 1.729256 0.025265 1.504353
24520 3.00035907 6.107146830000001 -1.14212925 1.354822 1.0395370000000002 1.7963349999999998
24540 6.0935305500000005 8.66398599 -1.87051194 0.5696720000000001 1.53581 2.5123330000000004
24560 7.95251574 6.96845502 1.39555098 1.023482 0.924417 3.962659
24580 8.247698640000001 9.421857540000001 2.4128283600000002 2.915214 0.01008 3.737762000000001
24600 4.251310650000001 9.04254408 1.31741433 2.647382 -0.8830469999999999 1.41579
24620 4.70965347 5.269941810000001 0.1130112 0.961216 -1.229031 0.689815
24640 3.75793632 4.83764454 -0.29788065 0.709651 -1.087582 1.497588
24660 2.5222589100000006 5.61152601 0.43888959000000005 1.320899 -0.320439 2.5285040000000003
24680 1.27564335 6.4551761999999995 0.019011780000000002 1.981847 0.17111800000000002 2.904233
24700 0.65473902 7.04135313 -0.05194395 2.239313 -0.250795 2.165226
24720 -0.0059841 8.358169049999999 0.5439645000000001 1.683817 -1.730228 1.789364
24740 0.81744768 9.04149441 0.5565409200000001 0.8439209999999999 -1.672475 1.661646
24760 4.30190082 9.18579951 -0.8176046400000001 0.529712 -0.114017 1.67775
24780 6.259388220000001 10.06686504 -1.23657993 0.910536 -0.026592 1.063934
24800 8.215364880000001 10.810816200000001 -1.64328291 1.014025 0.4212 0.082387
24820 8.936262540000001 10.563084270000001 -2.41507485 0.0068590000000000005 1.291815 -0.713043
24840 9.02188422 11.51016129 -2.29098816 -1.205915 1.723424 -1.3021120000000002
24860 7.8866514 12.63672207 0.39756987000000005 -2.161139 1.733521 -1.932639
24880 6.2445653100000005 13.50506403 2.24518527 -2.102409 1.301535 -2.378192
24900 5.5522539900000005 13.94679852 2.30535981 -0.475921 0.76884 -3.5059410000000004
24920 1.1587375800000002 12.64810167 -1.72770777 -1.7828389999999998 0.657856 -3.389946
24940 -0.07125002999999999 12.00264291 -2.4599850300000004 -2.193826 0.391621 -1.458994
24960 2.8806084000000003 10.97966592 -1.27310256 -0.294173 -0.678497 -0.032164
24980 5.42920716 9.130863510000001 0.89962605 0.37532 -0.24023000000000005 -0.18935
25000 8.85424113 7.576194330000001 0.73407249 0.557481 0.112721 -0.965128
25020 9.919872000000002 9.38398113 -1.47818061 0.139715 0.390846 -2.2214270000000003
25040 5.3667861299999995 12.051437850000001 -2.82926286 -0.500799 1.641829 -2.552243
25060 0.10044459 9.186996330000001 -1.81273104 -0.779346 2.654914 -1.515039
25080 -0.6706017900000001 6.28079364 -0.25836597 -0.927935 2.304087 -1.564765
25100 2.6693991 6.575378130000001 0.8098155 -0.904622 1.995112 -1.839808
25120 4.74124167 6.8752011600000005 0.6557886900000001 -0.411238 1.017407 -1.257201
25140 5.072800050000001 6.23887551 -0.71641449 0.011629 -0.60216 -1.536319
25160 5.251077179999999 4.39591005 -2.7800166600000003 -0.075062 -1.509995 -1.672493
25180 4.693339440000001 3.6124344 -4.506076350000002 -0.4802770000000001 -1.827551 -1.561685
25200 5.020414649999999 3.22713684 -1.4130618300000002 -0.8045939999999999 -1.554792 -1.292972
25220 6.286179330000001 3.1406224500000004 -0.69231132 -0.692454 -0.75636 -0.993041
25240 7.962541560000001 4.27151925 0.46837845000000006 -0.160157 -0.147361 -0.837348
25260 8.05818906 5.1856641 -0.7619132700000001 0.054114 0.044843 -0.6042930000000001
25280 7.876772730000001 2.0242444500000003 -0.44398098 -0.33296 -0.030021 -0.7276100000000001
25300 7.36648596 -0.021258270000000003 1.09407006 -0.6898920000000001 0.33439800000000003 -0.708137
25320 7.28041302 -1.0180327500000002 -0.8746301700000001 -0.57287 0.62748 -0.576304
25340 8.183933640000001 -0.29833191000000003 -6.03215919 -0.230285 0.707137 -0.281321
25360 11.665993140000001 13.929434819999999 -6.9927053400000005 0.271851 0.31600300000000003 0.126476
25380 13.63829364 27.613080090000004 1.7621310600000002 0.684871 -0.238719 0.495404
25400 6.802754310000001 15.0796377 -1.13464422 0.5844590000000001 -0.343411 0.656138
25420 3.88098315 6.34740354 -0.92971332 0.925696 -0.4632520000000001 1.2910620000000002
25440 2.50533666 3.4753200300000002 -1.05754743 1.045651 0.148836 1.564581
25460 3.65330286 4.505929200000001 -1.98143361 0.603513 1.5965280000000002 1.685687
25480 6.46550613 9.552830850000001 -1.3692013200000002 -0.018582 2.260665 2.3726990000000003
25500 8.77565322 8.408759220000002 1.3082812199999998 -0.199397 0.98554 3.590843
25520 6.83358714 8.14321233 1.7905800600000001 0.432896 -1.46872 4.073763
25540 3.459751560000001 7.65927522 2.3135904000000003 1.384317 -3.318169 2.750706
25560 4.50743013 3.9739329000000003 1.7107953300000003 1.16476 -3.570272 1.252917
25580 3.3346152 4.542000570000002 -0.14010642 0.552481 -3.042222 0.8003779999999999
25600 2.1257289 5.4833976 -0.09385227000000002 0.87684 -2.198985 1.166895
25620 2.5000981200000005 5.68922121 0.39443067000000004 1.586098 -0.364533 1.87132
25640 2.0707929000000003 6.3102825000000005 0.15074046 1.968382 0.7354350000000001 2.187707
25660 1.8959590800000001 7.52979303 0.33829785 1.924607 0.545638 2.00391
25680 2.39292387 9.55193814 0.5965068599999999 1.75745 0.065049 1.920037
25700 4.991671350000001 10.94793057 -0.8931906900000001 1.647966 0.101865 1.865814
25720 7.00843077 11.404487970000002 -1.8938597400000001 1.421235 0.148627 1.557591
25740 8.06942151 11.14791723 -1.73743929 1.101197 0.062435 0.746821
25760 8.234975069999999 11.438764110000001 -1.70465427 0.6914680000000001 0.053834 -0.208883
25780 7.45988697 11.51659665 -1.5846093 -0.036723 0.713019 -0.853611
25800 5.1275889 11.77211772 -0.7189552800000001 -0.876948 1.678046 -1.427943
25820 3.04062912 11.256141150000001 -0.08442486000000002 -1.646432 1.903815 -2.340527
25840 5.2551189 12.577293090000001 0.7232913 -1.8385080000000005 1.196869 -2.8056400000000004
25860 4.259394090000002 12.15307926 -0.47646189000000005 -0.5417649999999999 0.971991 -3.369929
25880 4.19248008 10.981461150000001 -1.8696094200000002 -1.999358 1.313954 -1.312471
25900 3.10379571 12.59106633 -2.25176778 -1.920241 -0.426923 0.003157
25920 2.0430992700000004 12.973518990000002 -1.1982620700000002 -0.30906 -0.876592 0.235042
25940 4.842284670000001 10.686729510000001 0.42002496 -0.274864 -0.472854 -0.32605300000000004
25960 6.75081036 8.89509978 0.18142614 -0.422716 0.056953 -1.087271
25980 6.98686839 9.32530752 -0.3646377 -0.639339 0.786764 -2.254081
26000 4.96577295 8.90318322 -0.96444072 -0.728811 1.65116 -3.089027
26020 3.1957056 8.291255040000001 -2.82746763 -0.922062 2.089898 -2.616648
26040 0.32437746000000006 7.9649352 -1.509759 -1.043288 0.893048 -1.045675
26060 0.6107313599999998 7.024744800000001 0.35475903000000003 -0.653227 -0.369342 -0.309601
26080 1.35169047 6.54738039 2.1927900600000005 -0.087427 -1.01682 -0.319774
26100 2.01256074 6.47328546 -0.2282787 -0.149481 -0.6849930000000001 -0.663532
26120 2.70113445 5.280124590000001 -1.72022274 -0.7383350000000001 0.012587 -1.173808
26140 3.63220155 4.213591200000001 -2.03771358 -1.251774 0.239908 -1.365693
26160 5.033285370000001 3.9796226999999997 -2.412534060000001 -1.410998 0.093922 -1.217067
26180 6.98791806 4.18035492 -2.56686498 -1.215337 -0.192526 -0.8820479999999999
26200 8.66846916 4.47988365 -1.86078042 -0.804531 -0.816279 -0.564322
26220 9.24088266 4.6907986500000005 -1.2955576500000001 -0.128828 -1.18413 -0.534562
26240 8.80738857 3.8845736100000003 -0.82059669 0.427419 -0.7891090000000001 -0.70103
26260 7.87946067 1.5976271700000002 0.47436255000000005 0.136953 0.244639 -0.5569689999999999
26280 6.770871810000001 1.5786153900000002 0.38784816000000005 -0.405759 0.99355 -0.358757
26300 7.83320652 -0.9999234900000001 -4.28783328 -0.686075 0.755201 -0.184153
26320 8.02017531 3.1135272300000003 -6.710991570000001 -0.598147 0.6672279999999999 -0.371433
26340 15.68558178 28.031309820000004 -2.31658245 -0.401607 0.632691 -0.695824
26360 11.546389620000001 23.02706205 -0.23650929 -0.23644 0.361383 -0.922922
26380 4.86353313 6.428385090000001 -1.00830123 -0.148616 -0.047949 -0.932466
26400 2.5879662900000002 2.41447644 -1.5834026700000001 -0.018433 -0.920933 -0.38244
26420 2.2412907 1.0877916599999997 -1.79551449 0.38871 -1.486403 0.813264
26440 3.2458543200000003 5.32083609 -1.6667876700000002 0.88676 -1.364053 1.219306
26460 3.62111625 9.5640633 -0.41568894000000006 1.409337 -0.599266 1.319184
26480 3.8767844700000005 10.3101138 2.19353562 1.510249 0.129633 1.435391
26500 5.121899100000001 8.796156120000001 2.1065699700000002 1.065651 0.07118 1.785942
26520 6.525376560000001 8.486150310000001 1.3498952400000002 0.398492 -0.494972 2.485966
26540 6.29336025 6.97639131 0.0059841 1.099798 -0.646143 3.450321
26560 6.230193659999999 5.163061860000001 -1.5236793900000003 2.256787 -0.044225 3.237578
26580 4.84901433 4.541706270000001 -1.6537599900000002 2.142834 0.352188 1.441661
26600 3.43490283 4.738848030000001 -0.79439418 0.769667 -0.697535 0.874734
26620 3.1446641700000004 5.494620240000001 0.57645522 0.750182 -1.515316 1.070063
26640 3.1503441600000004 6.615491220000001 1.78338933 1.926025 -0.915462 1.888288
26660 3.1585845600000004 7.43010381 1.6657380000000002 2.855912 -0.011926 2.89989
26680 3.35377413 8.61264045 1.04677605 2.520433 -0.185409 2.352976
26700 3.5568999900000002 9.7667379 0.18950957999999998 1.898608 -1.183514 1.546609
26720 4.6012824000000005 10.432258110000001 -1.7411769000000001 1.935087 -0.885534 1.323223
26740 6.256690470000001 10.03318731 -1.2886710300000002 2.389049 -0.034865 1.5838139999999998
26760 7.62110451 8.36909739 -0.9096616800000001 2.149283 0.5919949999999999 1.672135
26780 7.91583615 7.583228100000001 -0.08382645000000001 1.540611 -0.153107 1.519287
26800 7.48339173 9.47933433 0.12304683000000001 1.092416 -0.427611 1.025126
26820 6.81188742 13.002262290000001 0.29233800000000004 0.584388 -0.548249 0.4662560000000001
26840 5.861661389999999 14.49645282 0.45340839000000005 0.033347 -0.7964680000000001 -0.384375
26860 5.441332320000001 15.93301941 -0.5905227600000001 -0.368462 -0.353875 -1.226303
26880 3.9960936900000004 15.41823966 -1.2732497100000002 -0.7841899999999999 0.753862 -1.6269360000000002
26900 3.31710435 12.65348736 -0.46029501 -1.39899 2.386596 -2.075567
26920 3.4804114200000007 11.015295840000002 -1.09946556 -1.24831 3.402082 -2.54156
26940 4.0082188499999996 11.606112900000001 -1.1020063500000001 0.577196 4.022631 -2.399281
26960 4.33528425 9.97750575 -0.51283737 -2.165018 2.833 1.234271
26980 4.4897623200000005 7.520365620000001 0.55309761 0.024726 0.02394 -1.211222
27000 5.673054330000001 6.4117669500000005 0.34159401 -1.013865 -0.771516 -1.186478
27020 7.0344763200000004 8.56249173 -0.31359627000000007 -0.858562 -0.8746510000000001 -1.902038
27040 4.5375174000000005 14.38987698 -0.8791231500000001 -0.685271 -0.12197 -2.200895
27060 0.65219823 10.79390376 -3.71512548 -0.972715 0.31565 -1.900088
27080 0.0836793 5.49387468 -1.8483609600000002 -1.270594 0.700792 -0.988264
27100 2.20072635 4.5218017800000005 0.30730806 -0.8752219999999999 0.972871 -0.374828
27120 5.186419470000001 5.732630459999999 -0.93779676 -0.935554 1.877266 -0.050601
27140 5.833673460000001 7.78770774 -1.09392291 -0.962008 1.975056 -0.239987
27160 6.23812995 6.51654756 -2.17961523 -0.649978 1.550125 -0.538501
27180 5.39119341 4.7544165000000005 -2.30235795 -0.075225 1.745942 -0.987663
27200 2.9906275500000006 5.81361201 -1.35827298 0.611559 2.715583 -1.376146
27220 3.5518184100000005 5.9231799 -2.2107521700000006 1.133405 3.3828410000000004 -1.926695
27240 4.97625003 4.67851653 -2.4768974700000004 0.94567 3.085385 -2.235273
27260 6.53481378 3.9134640600000004 -2.7175956300000004 -0.276425 1.933227 -2.092782
27280 7.666161840000001 3.08448963 -2.96383644 -1.517838 0.275372 -1.478692
27300 8.398282140000001 0.9774684000000001 -3.72275766 -1.852789 -1.047632 -0.6738970000000001
27320 8.569378350000001 -0.10492776000000001 -3.34764288 -1.210474 -1.710171 0.084535
27340 7.15242195 0.57136383 -2.9349459899999997 0.08934600000000001 -1.828634 0.609717
27360 7.21454868 -0.39038895 -1.89266292 0.180521 -0.080852 0.348537
27380 6.30698634 -1.75585266 -0.13321980000000003 -0.191723 1.273608 0.015189
27400 6.60022686 -4.3673139 -7.24837356 -0.132882 1.299012 0.0048850000000000005
27420 11.133094320000001 6.996904020000001 -11.06379648 0.008879999999999999 0.587854 0.036696
27440 29.789399160000002 47.74097322 2.36687832 -0.05612 0.188263 -0.144843
27460 1.6310106 4.777470000000001 -3.5127451800000005 -0.236766 0.967987 -0.240039
27480 3.88876248 5.69775591 -4.6469381400000005 -0.036139 1.498682 -0.194453
27500 4.86488691 7.51362615 -3.4462824300000006 0.267968 1.369392 -0.093887
27520 4.26403422 8.860078080000001 -3.01413231 0.345974 1.061758 0.04699
27540 5.49956448 9.481286520000001 -1.1741589000000001 0.363236 0.8032020000000001 0.221562
27560 9.564661710000001 10.249635150000001 0.29997999 0.326999 0.6390140000000001 0.286681
27580 9.8532621 8.71323219 1.83219408 0.276796 0.7536149999999999 0.176156
27600 2.2031199900000003 3.5061626700000006 0.29818476 0.355698 1.273924 -0.005557
27620 1.13314329 2.3616397800000004 -0.77972823 0.729787 2.032582 -0.108602
27640 2.02304763 1.5328125000000001 -1.89236862 1.12175 1.888464 -0.10568
27660 3.14256483 3.0443667300000006 -0.95381649 1.321187 1.160296 0.133792
27680 2.416271670000001 2.62404747 0.32916474 1.561672 1.576823 0.456473
27700 3.0710106900000005 4.87221498 0.3589577100000001 1.937457 2.001195 0.831363
27720 4.96472328 6.37060419 0.62584857 2.516562 1.902658 1.260687
27740 5.55105717 7.4152809 1.53190998 3.4349300000000005 1.1326 1.4956200000000002
27760 5.447022120000001 8.414449020000001 1.4284831500000004 3.967549 0.803334 1.590561
27780 5.5145345400000005 9.465119640000001 1.97034831 3.189505 2.4177470000000003 1.602286
27800 5.1819264899999995 10.30921128 1.05366267 2.74687 3.967588 1.221194
27820 6.4575698400000014 11.046432780000002 -1.5386494500000003 2.98185 4.257395 0.738559
27840 3.2337291600000007 11.025468810000001 -1.25514045 2.956099 1.565618 0.451272
27860 2.31493437 9.142537410000001 0.8394515100000001 2.8524130000000003 1.321988 0.72753
27880 3.8559774600000005 7.09509231 1.59028929 2.825686 1.7422990000000005 1.400852
27900 4.65232383 6.90528843 2.29831623 2.654946 1.414383 2.033535
27920 5.70508398 7.24552866 1.05515379 2.216701 1.169971 1.7306169999999998
27940 6.48901089 7.98409413 -1.7172306900000003 1.64725 1.1889459999999998 1.209596
27960 5.90536494 7.856260020000001 -0.45340839000000005 1.1209870000000002 0.815874 0.6573319999999999
27980 5.86330947 7.59161565 0.78871419 0.7849109999999999 0.39794 0.236777
28000 5.43714345 7.53713091 1.1469165300000004 0.7628729999999999 0.670694 -0.287155
28020 5.2120137600000005 7.654183830000001 0.7455992400000001 0.831096 0.5798939999999999 -1.08132
28040 4.81518945 8.38975725 0.77553936 0.72788 0.5409109999999999 -1.898112
28060 4.69424196 9.098981010000001 0.9996193800000001 0.047135 0.592862 -2.310995
28080 4.975798770000001 10.24349409 1.1160837000000001 -0.949233 0.771483 -2.160086
28100 4.68151839 10.83551778 2.04579702 -1.429361 0.752232 -1.459457
28120 5.22354051 11.339820450000001 1.57008069 -1.14939 1.305093 0.430407
28140 6.02512542 12.61921122 0.50265459 -1.995137 1.750325 2.239906
28160 6.3659640600000005 12.861106200000002 1.6774119 -1.083174 -0.232004 2.211428
28180 5.60764125 10.971131220000002 1.9580760000000001 0.585083 -0.984765 -0.128179
28200 4.16404089 8.805142080000001 1.02910824 0.753708 2.153854 -0.087226
28220 2.8099567800000003 7.62215418 -0.6114769200000002 1.511791 2.9164060000000003 -0.165161
28240 3.0867263100000004 9.32829957 -3.57621588 1.928404 1.421537 -1.7840330000000002
28260 2.3568525 12.071793600000001 -3.79565577 1.976018 1.833937 -3.190009
28280 0.7087725 13.559548770000001 -1.3305793499999998 0.943286 3.599321 -2.6173040000000003
28300 -1.03374837 11.565695700000001 1.40183919 -0.38286 1.076343 -1.102186
28320 -0.07454619 7.487276490000001 4.88015127 -0.976757 1.493579 -0.7661060000000001
28340 4.02049116 7.94907243 2.7065201400000003 -1.1553 0.8950530000000001 0.146744
28360 7.13581362 7.90162146 1.0835929800000001 -0.791837 0.864101 0.910964
28380 8.29409994 7.69699467 -0.7171600499999999 0.184978 1.891054 0.856651
28400 6.71323806 6.11822232 -1.68774183 1.7176349999999998 2.016556 0.37795
28420 6.1611901200000005 2.9915300700000005 -2.18455947 1.627185 1.296986 0.317352
28440 5.844444840000001 2.75771853 -2.7753765300000004 0.717548 1.485977 -0.068463
28460 5.7314336400000006 4.05911313 -2.2540142700000003 0.439442 1.539246 -0.095043
28480 6.153557940000001 4.81159899 -1.09631655 0.472829 2.019935 0.079763
28500 6.9548387400000005 4.235595030000001 -1.8794880900000002 0.8695870000000001 1.93887 0.028159
28520 6.7916788200000004 3.21261804 -1.97978553 0.958221 1.163369 -0.05355
28540 6.569089920000001 2.9817985500000006 -1.2244547700000001 0.545048 0.708535 0.028537
28560 6.900354000000001 1.57577049 -0.24399432 0.339609 0.643886 -0.142663
28580 7.710316649999999 0.40385808000000006 -0.9743193900000001 0.396661 0.723715 -0.175482
28600 10.97966592 2.1604563000000003 -2.6580195000000004 0.691734 0.567487 0.009446
28620 14.388680160000002 6.633600480000001 -3.8767844700000005 0.737712 0.79118 -0.026839
28640 12.743297909999999 12.57968673 -5.08058919 0.5944619999999999 1.061869 0.07009
28660 12.203071020000001 25.084837080000003 -5.47157655 0.795938 1.040972 0.325761
28680 4.16074473 28.201052250000004 3.8179637100000003 1.314892 0.821327 0.723841
28700 -3.48325632 13.06078875 4.05926028 2.28682 1.400327 1.073855
28720 -3.9694497300000005 7.570053270000001 -0.93869928 3.149411 1.593261 1.627631
28740 -2.4050490300000003 3.9025357200000004 2.71430928 3.3611690000000003 0.641918 1.989252
28760 10.35441576 3.3977817900000002 6.02901018 3.413621 0.543326 2.090157
28780 2.54321307 11.25809334 0.16226721000000002 3.226201 2.058533 1.624367
28800 1.7923752900000003 11.936925720000001 1.28448216 2.73371 2.826328 1.58576
28820 4.575384 8.25772446 2.0648088000000007 2.208318 2.607142 1.709489
28840 6.251147820000001 6.825807810000001 2.20745601 1.952376 0.929543 2.144617
28860 9.27591417 4.70202129 2.3284035000000003 2.08658 0.136009 3.068447
28880 12.688518870000001 2.7523230300000003 -2.58871185 2.177082 0.20917600000000006 4.138276
28900 3.5820528300000003 7.453451610000001 -1.0867419900000002 2.38055 -0.195503 4.994793
28920 2.55264048 9.30839508 1.6646883300000002 2.107064 -1.675819 4.06329
28940 6.17960349 6.9787849500000005 1.88368677 1.157901 -0.767515 1.786593
28960 7.33803696 6.60187494 0.75218175 1.135146 -0.792369 1.362382
28980 6.955584300000001 6.82909416 -1.06009803 0.916534 -1.964445 1.353811
29000 7.1437401000000005 6.96741516 -1.6847497800000002 0.5074390000000001 -2.063293 1.120344
29020 5.53369347 6.418653570000001 -1.25259966 0.739268 -0.785963 0.903477
29040 6.290073899999999 6.15115449 -0.5641731000000002 0.607934 -1.267079 0.920268
29060 7.97196897 6.0176403899999995 -1.0629429300000002 -0.24302 0.782573 -0.220618
29080 7.566168510000001 6.474040830000001 -1.5229338300000004 -0.546888 1.313978 -0.447748
29100 6.027813360000001 9.007816680000001 -0.22842585 -0.505321 1.4028120000000002 -0.587508
29120 6.24021948 10.07255484 0.5547456900000001 -0.8519700000000001 1.617139 -0.8711469999999999
29140 5.96554929 11.97839259 1.01563911 -1.615822 1.25155 -1.490241
29160 5.81450472 13.82030838 1.1334474 -1.482872 0.353113 -2.301078
29180 8.184826350000002 14.62069647 0.89873334 -0.220244 1.24583 -1.270046
29200 7.83410904 13.404030839999999 1.78518456 0.01267 0.4992430000000001 -0.184285
29220 4.19981796 7.8817071599999995 0.06452037000000001 -0.285166 1.269648 -1.042999
29240 2.42106876 5.10199461 -4.0140558 0.03582 0.284852 -1.9987580000000005
29260 3.3421002300000002 10.59407406 -4.37794794 0.134893 0.300916 -2.903939
29280 5.08327713 14.50812672 -1.81378071 -0.270427 1.672682 -2.741885
29300 3.55885218 12.26099907 0.06361785 -0.717403 1.625909 -1.847641
29320 1.4587175700000001 11.703114180000002 0.8000839800000001 -0.8501569999999999 0.49134 -1.454009
29340 2.70292968 8.752295610000001 0.87193242 -0.8630059999999999 -0.488588 -1.474207
29360 6.06598407 4.74767703 1.02192732 -0.682054 -0.686828 -1.34023
29380 8.97039153 2.81265453 0.5577377400000001 -0.331167 0.001281 -1.097242
29400 12.37102803 1.5937326 -2.4776430300000003 -0.13968 0.994909 -0.928399
29420 13.210930800000002 0.67629159 -4.81473819 -0.06516799999999999 1.31152 -1.048993
29440 10.60783749 -0.93210696 -3.43819899 -0.150624 0.684779 -1.417324
29460 5.83755822 3.65509809 -4.482277290000001 -0.521618 0.056301 -1.637027
29480 5.8486337100000005 3.9236370300000005 -4.95290223 -1.071939 -0.038057 -1.539269
29500 5.60928933 2.61401184 -1.2867286500000001 -1.517936 0.125792 -1.368474
29520 6.820412310000001 1.01369673 0.5201654400000001 -1.405409 -0.13823 -1.507287
29540 -0.17603064 -0.45549792000000006 -1.1078433 -0.8627379999999999 -0.486228 -1.531892
29560 10.72744101 -2.10746268 -4.114343430000001 -0.354862 -0.397039 -2.164051
29580 6.711589980000001 -2.18874834 -3.2334250500000006 0.16095299999999998 -0.388719 -2.0279990000000003
29600 8.056393830000001 -1.89925524 -2.57674365 0.928332 -0.975415 -1.962067
29620 9.08774856 -0.70353396 -1.79551449 0.5413 0.51112 -1.479566
29640 10.1108727 -0.9442321200000001 -1.7651329199999999 -0.594496 1.999038 -1.758598
