time Ax Ay Az Gx Gy Gz
20 -3.93876405 7.19209359 -2.90920455 1.904224 -0.137488 -0.567635
40 -4.732854120000002 4.5378117 -3.0388338900000003 1.519576 -0.083718 -0.627007
60 -4.65382476 3.21187248 -2.71744848 1.143184 -0.036591000000000005 -0.6307649999999999
80 -3.9814179300000005 4.511619 -3.77874333 0.687308 0.086726 -0.438622
100 -3.61348407 5.355259380000001 -3.7868267700000002 0.223997 0.257845 -0.206001
120 -3.3576687000000005 4.93389045 -3.9410007300000003 -0.21602 0.319441 -0.043579
140 -3.6077942700000003 5.327418600000001 -4.63346901 -0.728603 0.353687 0.09487
160 -4.20924537 5.75583111 -4.63226238 -1.171916 0.328206 0.191151
180 -4.19352975 4.84872003 -4.63226238 -1.614894 0.445199 0.355618
200 -3.93845994 3.25812663 -5.385503610000001 -1.7793560000000002 0.384197 0.568192
220 -4.17691161 2.65188825 -5.783671890000001 -1.440949 0.093767 0.709796
240 -4.56475977 3.15289476 -5.610182040000001 -1.304401 0.354069 0.49784
260 -4.65306939 3.41559675 -5.42980557 -0.576576 -0.87297 0.8922610000000001
280 -4.62283497 2.48842422 -6.05266209 -1.761741 0.6013930000000001 1.380953
300 -4.32779922 1.8073453500000003 -6.42135132 -2.533831 -0.058641999999999986 0.8764780000000001
320 -3.7827850499999998 1.44389466 -6.854541300000001 -2.38821 -0.063986 0.754656
340 -3.7143799200000003 1.27160163 -7.425306720000001 -2.274202 0.059514 0.67411
360 -4.20026922 1.94685336 -7.6989370500000005 -1.991913 0.210601 0.209075
380 -5.10423129 3.1454097300000003 -8.618928660000002 -2.086977 0.41868 0.203871
400 -5.62500495 4.2802011 -10.627153380000001 -2.321455 0.614823 0.107979
420 -7.91523774 10.45230975 -11.004514649999999 -2.675493 0.815563 0.031541
440 -9.617949630000002 16.93233468 -13.64068728 -2.869851 0.971931 -0.009541
460 -1.8073453500000003 7.83815076 -7.33220001 -2.7706060000000003 0.827421 0.078932
480 -4.22660907 0.7863107400000001 -2.12094162 -2.4607650000000003 0.54367 0.173327
500 -5.4688788 3.4943318100000007 -3.15768204 -2.285406 0.308084 0.32760900000000004
520 -4.8440799000000005 9.99067077 -3.72306177 -2.09351 0.166176 0.218036
540 -6.396198480000001 12.228675120000002 -5.041515960000001 -1.849431 0.118322 -0.014138
560 -5.59221993 9.29192409 -5.001550020000001 -1.829789 0.304211 -0.16379000000000002
580 -3.9152592900000003 6.270610860000001 -5.00903505 -1.861999 0.430292 -0.23040700000000006
600 -3.0114345600000005 6.1011627299999995 -4.6547174700000005 -1.909497 0.389644 -0.147365
620 -2.6087733 7.63397523 -3.57591177 -1.6638939999999998 0.58315 -0.0006190000000000001
640 -3.10484538 8.62057674 -3.29225562 -1.350193 0.6266550000000001 0.036768
660 -2.82358287 7.74714339 -3.16741356 -1.208583 0.547393 0.021835
680 -2.0013381 7.309744920000001 -3.0250606500000004 -1.058618 0.212349 0.028653
700 -1.38192489 7.554190500000001 -3.00918807 -1.052156 -0.080348 -0.040361
720 -1.6816007700000002 7.695346590000001 -3.0482613 -1.00006 0.14943800000000002 -0.0071769999999999985
740 -2.48244012 6.6285189 -2.8249268400000003 -1.085831 0.582033 0.044012
760 -3.27817827 6.07497003 -2.67628572 -1.034174 0.448675 0.048817
780 -4.19862114 7.925273370000001 -2.5933617900000003 -0.811429 -0.13988599999999998 -0.011898
800 -3.2388107400000004 9.84412899 -1.3521417299999998 -0.7115560000000001 -0.230788 -0.010016
820 -1.83188997 10.230623370000002 -0.8930435400000001 -0.76479 0.27431500000000003 -0.004625
840 -1.54269117 9.907893990000002 -0.8494871400000001 -0.654994 0.58875 -0.144198
860 -2.40145857 9.02472912 -1.22460192 -0.273134 0.388939 -0.323941
880 -3.1743001800000004 9.25106544 -1.4991347700000002 0.024118 0.247489 -0.372958
900 -2.87567397 9.635911740000001 -1.56230136 0.297771 0.937506 -0.273654
920 -2.50413984 9.53996013 -1.79986032 0.727394 1.866842 -0.217365
940 -2.6586179100000003 9.60986619 -1.59148611 0.94242 1.880299 -0.5715979999999999
960 -2.3246658900000003 10.257267330000001 -0.54561258 1.609531 0.893861 -1.15106
980 -2.4644780100000006 11.141481870000002 0.28305774 2.283125 -0.37856 -1.081699
1000 -4.59349326 10.98221652 -0.39876669 3.184548 -0.456892 -0.656559
1020 -5.63457951 10.77519609 -1.52458191 3.757052 0.199306 -0.617082
1040 -4.80126906 10.766514240000001 -1.5712873200000002 3.402196 0.768439 -0.378872
1060 -3.9164561100000004 11.952199890000001 -0.73033488 2.658697 0.322653 -0.142076
1080 -4.28783328 12.78177273 -0.7432056000000001 2.67893 -0.076171 -0.057034
1100 -3.7943118000000005 14.013114120000001 1.52592588 3.208791 -0.194002 -0.087365
1120 -5.602245750000001 12.75348069 2.8141456500000004 3.483941 -0.32555700000000004 -0.194233
1140 -6.24021948 9.02278674 0.70128747 3.470436 -0.31033 -0.26057600000000003
1160 -7.042402800000001 9.77856876 -0.80996265 3.2459990000000003 0.147066 -0.430441
1180 -6.3719481600000005 11.19836025 -1.96182342 2.717012 0.246467 -0.853007
1200 -4.116138660000001 12.08152512 -2.17932093 2.551917 0.194233 -0.967324
1220 -2.43303696 12.04904421 -2.60264205 2.557867 0.097259 -0.963954
1240 -2.34322641 11.675126250000002 -1.7923752900000003 2.51402 0.083525 -0.954628
1260 -3.2572241100000006 10.591229160000001 -2.85621093 2.316085 0.096444 -0.817159
1280 -4.0263281100000015 8.79316407 -1.8505976400000002 1.960669 0.010659 -0.634729
1300 -5.479051770000001 5.92513209 -1.16308341 1.576599 0.039587 -0.609675
1320 -5.596261650000001 3.7393758000000004 -1.86736293 1.071098 0.202797 -0.493774
1340 -4.94481879 2.63976309 -2.9503673100000007 0.464617 0.32860500000000004 -0.261027
1360 -3.8459516400000004 3.0656250000000003 -3.66901848 -0.24630700000000005 0.4983770000000001 -0.009837
1380 -3.0982530600000002 5.05962522 -4.48931106 -0.962571 0.41363 0.225619
1400 -3.1916638800000006 6.20489367 -3.88008063 -1.360065 0.263912 0.448429
1420 -3.8856232800000003 6.00925284 -4.52793303 -1.484494 0.049532 0.6208859999999999
1440 -4.0749759 6.06882897 -4.06569564 -1.300636 -0.35895 0.848089
1460 -4.5176031 5.230427130000001 -5.186419470000001 -1.207598 0.16611800000000002 1.327698
1480 -4.2807995100000005 3.4371493200000005 -6.1390293300000005 -0.957226 -0.612776 0.623282
1500 -3.94594497 2.51791308 -6.04053693 -0.80419 0.345198 1.481974
1520 -4.34800782 2.14713432 -5.54447466 -2.3748720000000003 -0.164023 1.250533
1540 -4.131854280000001 1.4133561300000002 -5.96015379 -1.760177 -0.44187 0.936852
1560 -3.25109286 0.83660661 -6.29306595 -2.000321 -0.07964299999999999 0.60463
1580 -3.7721510100000004 1.30079619 -6.49514214 -2.018419 -0.210268 -0.012761
1600 -4.5466407 1.7480635200000003 -7.31363949 -2.136141 -0.022495 0.018223
1620 -4.62822066 2.7271800000000006 -8.80543638 -2.368916 0.108535 -0.046596
1640 -4.64438754 4.343220540000001 -10.989093330000001 -2.634563 0.318374 -0.077563
1660 -4.2787001700000005 7.21694232 -10.44512883 -2.830393 0.3737 0.109006
1680 -11.928989430000001 18.772013790000003 -14.104415790000001 -2.825125 0.231666 0.458533
1700 -4.57703208 9.8159841 -4.56835023 -2.696246 -0.021273 0.730017
1720 -3.3979387500000002 -2.21854131 -0.5547456900000001 -2.368637 -0.065847 0.6704060000000001
1740 -5.9857480800000005 3.3703922700000004 -4.55352732 -2.190071 -0.108663 0.301035
1760 -6.79017789 10.97951877 -5.643712620000001 -2.153664 -0.283736 0.095347
1780 -7.90865523 10.35486702 -5.252126850000001 -2.035606 -0.27068000000000003 0.191227
1800 -5.69400849 7.14014964 -4.81129488 -1.899312 -0.183329 0.339481
1820 -4.03979724 6.40069146 -4.63151682 -1.974349 -0.03071 0.333421
1840 -3.40062669 6.83703045 -4.834044270000001 -2.041109 0.17140899999999998 0.195963
1860 -3.0900224700000005 8.22404673 -4.20685173 -1.689042 0.278294 0.067962
1880 -3.32413812 9.79457868 -3.49597989 -1.4467709999999998 0.086659 0.095537
1900 -2.41222995 8.471778660000002 -2.4424741800000005 -1.40516 -0.248652 -0.003087
1920 -1.8712575 5.7667594499999995 -2.20895694 -1.1934209999999998 -0.36979 0.003888
1940 -1.9258992000000001 5.085827730000001 -1.97933427 -0.746012 -0.129094 0.162665
1960 -2.76729309 6.177357000000001 -2.3622381900000002 -0.648293 0.254044 0.168198
1980 -3.4983735300000003 7.665259320000001 -2.2799126700000008 -0.655983 -0.121614 0.078895
2000 -3.91839849 8.19800118 -2.44127736 -0.4662850000000001 -0.39821 0.086984
2020 -3.4476264000000003 8.22644037 -2.1402477 -0.336436 -0.015073 0.064967
2040 -3.0883743900000002 8.97578703 -1.18389042 -0.480367 0.440468 0.022786
2060 -3.2277352500000003 9.20151513 -0.23591088000000002 -0.57362 0.559018 -0.238664
2080 -3.4055709300000006 8.61338601 0.26389881000000004 -0.124975 0.356472 -0.32500100000000004
2100 -3.50121843 8.66398599 0.09176274 0.40318 0.416215 -0.27225
2120 -3.4019706600000004 10.39902183 -0.39383226000000005 0.629937 0.8412959999999999 -0.211391
2140 -2.51207613 11.07472482 -0.37377081000000006 0.7399279999999999 1.163332 -0.387292
2160 -2.2329031500000003 9.406141920000001 -0.4176313200000001 1.172336 1.216116 -0.64178
2180 -2.8229844600000003 9.52903179 -1.2213057600000001 2.049573 0.834627 -0.839194
2200 -3.12984126 9.57827799 -0.55744344 3.089387 0.373474 -0.969141
2220 -3.74775354 9.923766570000002 -0.35446473 3.824564 0.082518 -1.039477
2240 -4.950351629999999 10.173597840000001 -0.9500788800000001 3.925213 0.111356 -0.613658
2260 -5.670356580000001 11.033257950000001 -0.7288339500000001 3.547185 -0.116602 -0.289131
2280 -6.07825638 12.08123082 0.53064252 3.581469 -0.404968 -0.133629
2300 -5.07519369 13.98855969 1.3192095600000002 4.057208 0.090689 -0.089281
2320 -5.70613365 13.767766020000002 0.97971489 4.086708 0.050888 -0.284508
2340 -6.8732587800000005 12.34707201 0.22048956 3.792027 -0.460641 -0.512374
2360 -6.11044299 10.28510811 0.6032463299999998 3.5699080000000003 -0.082554 -0.564617
2380 -5.55973902 10.0613322 0.8722365300000001 3.149899 0.355068 -0.681343
2400 -5.851635570000001 11.51016129 -0.2809682100000001 2.939341 0.499646 -0.690476
2420 -6.03156078 12.45754242 -1.3817777400000002 2.868897 0.22093 -0.725863
2440 -5.32188576 11.530821150000001 -1.5955278300000002 2.703944 -0.056001 -0.8591200000000001
2460 -4.6169980200000005 11.84262219 -1.44778923 2.40995 -0.059868 -0.969059
2480 -3.3757779599999997 11.32709688 -2.08846071 1.905207 -0.103723 -0.753542
2500 -3.5600490000000002 8.25772446 -1.9000008 1.341009 0.063919 -0.629512
2520 -4.117786740000001 6.60816315 -2.4266016 0.723449 0.289025 -0.44397
2540 -4.92116688 4.689601830000001 -3.32877825 0.012864 0.34674 -0.142428
2560 -4.584065850000002 3.55990185 -3.2657588100000003 -0.806215 0.407248 0.08785
2580 -4.145627520000001 4.396508460000001 -3.3895512 -1.32535 0.301439 0.357824
2600 -3.79206531 5.38160904 -3.02042052 -1.6108129999999998 0.21712 0.6454270000000001
2620 -3.2340234600000004 4.571489430000001 -2.83630644 -1.465705 -0.069627 0.832678
2640 -2.6114710500000005 3.9501338400000003 -3.86915229 -1.7126580000000002 -0.136903 1.3534
2660 -2.66385645 3.1990017600000002 -4.12436925 -1.022424 -0.370747 0.892776
2680 -3.2563314 2.5542885600000003 -4.15595745 -0.429644 -0.042029 1.556657
2700 -3.47412321 2.14997922 -4.83210189 -2.129355 0.350891 1.7397650000000002
2720 -4.98253824 1.7348886900000002 -5.475461310000001 -2.0096700000000003 -0.17030499999999998 1.172975
2740 -5.11755327 1.40647932 -5.90148018 -2.103118 0.069979 0.8387290000000001
2760 -4.5613164600000005 0.76236453 -6.69721833 -2.26772 0.012661 0.13155799999999998
2780 -4.61070981 0.9535123800000002 -6.75470493 -2.450516 0.186872 0.14715
2800 -5.87603304 1.52353224 -7.31633724 -2.594226 0.237524 0.12578499999999998
2820 -5.8745321100000005 2.6887051800000004 -9.977800049999999 -2.861292 0.520154 0.008189
2840 -5.276082870000001 3.86181441 -11.240729640000001 -3.228362 0.7886380000000001 0.051215
2860 -5.46184503 6.36910326 -9.48368016 -3.4891050000000003 0.736226 0.330403
2880 -11.573779140000001 19.65503151 -15.87478725 -3.286133 0.621386 0.634275
2900 -3.6500067000000005 8.825497830000002 -2.55713346 -2.904596 0.376835 0.7205739999999999
2920 -4.084109010000001 -3.04751574 -1.3084283700000001 -2.692877 -0.050843 0.6627810000000001
2940 -6.19172865 2.6427551400000002 -3.93845994 -2.483559 0.080071 0.510251
2960 -7.6640625 10.697805 -5.38445394 -2.319201 0.395512 0.337943
2980 -8.200846080000002 10.110274290000001 -4.6529222400000005 -2.096037 0.410707 0.074563
3000 -5.86180854 6.7021625700000005 -4.3105826700000005 -2.044665 0.390514 0.018332
3020 -4.60771776 5.6236511700000005 -4.24442403 -1.944229 0.792309 0.150979
3040 -3.91151187 6.44319819 -4.79288151 -1.64949 0.98771 0.048101
3060 -2.93449473 8.09456454 -4.7139993 -1.476581 0.414451 -0.066393
3080 -3.2985438300000003 9.10077624 -3.6238140000000003 -1.228604 0.137296 0.030766
3100 -3.0443667300000006 7.9357504500000005 -2.78091918 -1.001189 0.303232 0.161397
3120 -1.509759 6.8331358799999995 -2.61281502 -0.93176 0.6891609999999999 0.292779
3140 -1.64657907 7.25825223 -2.1582098100000007 -0.874185 0.812955 0.187268
3160 -2.4941140200000005 7.389686610000001 -1.81273104 -0.76594 0.128996 0.106648
3180 -3.8622656699999998 6.79287564 -1.7938664100000001 -0.73678 0.294727 0.194233
3200 -4.6532263500000015 7.718851350000001 -2.03771358 -0.8742260000000001 0.511704 0.132107
3220 -4.19262723 9.28773522 -1.16308341 -0.8919239999999999 0.278845 0.038278
3240 -2.76999084 8.29784736 0.02634966 -0.901731 0.219279 0.024399
3260 -2.9904804 8.00085942 0.40505490000000005 -0.966861 0.449591 0.027922
3280 -3.68518536 9.41257728 0.01152675 -0.8638040000000001 0.445555 -0.1177
3300 -2.8689345 9.842932170000001 -0.17198892 -0.405305 0.452107 -0.28862600000000005
3320 -1.9772349300000003 9.496854990000001 -0.67434921 0.08526399999999999 0.430067 -0.263806
3340 -2.0776795200000002 8.48136303 -0.7403607000000001 0.394194 0.999178 -0.06262000000000001
3360 -2.86938576 9.47080944 -0.49547367000000003 0.329017 0.712956 -0.090482
3380 -2.9624924700000004 9.991573290000002 -0.14459940000000002 0.5095149999999999 0.813189 -0.270948
3400 -2.7086194800000003 8.96890041 0.1130112 0.88174 1.150032 -0.380943
3420 -3.02551191 7.5244073400000016 -0.24160068 1.570966 1.074444 -0.457217
3440 -3.5546535 8.164323450000001 0.19429686000000002 2.587096 0.772225 -0.6185109999999999
3460 -3.4956855900000003 9.823773240000003 0.17154747 3.279145 0.6803739999999999 -0.626378
3480 -3.0570903000000005 10.66576554 0.0868185 3.52016 0.777058 -0.5051770000000001
3500 -3.4042171500000005 11.649522150000001 0.35700552 3.148906 0.783674 -0.505642
3520 -5.256168570000001 12.97262628 0.8408052900000001 2.553585 0.498321 -0.557505
3540 -4.7563588800000005 14.411135250000001 1.09841589 2.377167 0.548569 -0.183856
3560 -5.099149710000001 14.642101890000001 1.58849406 2.213595 0.4492100000000001 0.029842
3580 -6.812181720000001 13.115273490000002 -0.17917965 2.152216 -0.210918 -0.268843
3600 -7.01066745 11.729012580000001 0.0779895 2.403633 0.134501 -0.553813
3620 -4.29112944 12.044099970000001 0.89993016 2.483331 0.35547199999999995 -0.737274
3640 -4.05701379 12.155472900000001 1.07655921 1.939257 0.06573 -0.801592
3660 -4.615506900000001 11.96492346 0.24428862 1.560133 -0.051063 -0.8361370000000001
3680 -5.01008472 10.53629316 -0.8631034200000001 1.467877 0.116338 -0.7942670000000001
3700 -4.892423580000001 9.45912573 -1.73100393 1.213151 0.268117 -0.7011689999999999
3720 -4.95484461 8.96335776 -1.47577716 0.7520939999999999 0.303526 -0.631796
3740 -5.37831288 8.051459399999999 -0.94408497 0.318732 0.33667800000000003 -0.5547489999999999
3760 -3.9929446800000004 7.9117944300000005 -0.52615935 -0.205342 0.355268 -0.486862
3780 -3.13403013 6.99839514 -0.44652177000000004 -0.806079 0.261903 -0.32750100000000004
3800 -2.98718424 4.9970570400000005 -0.0056898 -1.288866 0.302342 -0.165351
3820 -4.0383061200000006 4.21703451 -0.26195643 -1.696909 0.558914 -0.038207
3840 -5.050501919999999 4.6051769700000005 -2.90201382 -2.192933 0.703943 0.087398
3860 -5.01501915 5.33760138 -3.2591763000000005 -2.730173 0.696789 0.210773
3880 -4.33812915 5.96838438 -2.58767199 -3.210163 0.650918 0.376258
3900 -4.17047625 6.08529996 -2.28799611 -3.464778 0.4571270000000001 0.574485
3920 -4.09128993 5.23550871 -2.40235128 -2.959305 -0.036924 0.609627
3940 -4.05266796 4.95589428 -3.3126113700000004 -1.055651 -0.212054 0.131767
3960 -3.8044847700000006 4.02393447 -3.16157661 1.538629 1.939604 -0.468165
3980 -3.8871144 4.024081620000001 -3.5423811900000004 1.906767 0.703075 -0.052744000000000006
4000 -3.64956525 3.9775331700000005 -3.6782987400000002 1.243251 -1.176843 0.182176
4020 -3.21516864 4.08755232 -3.3129154800000005 -1.3022129999999998 -0.944965 0.611684
4040 -3.4789203 4.38797376 -3.15678933 -3.26871 -0.026525 0.142776
4060 -3.8775398400000003 4.179903660000001 -3.79476306 -2.249706 0.879001 0.314308
4080 -4.52284164 3.39389703 -4.27211766 -0.8725350000000001 0.576132 0.534756
4100 -5.01367518 3.1338829800000005 -4.45129731 -0.753699 0.7054199999999999 0.334594
4120 -4.61999007 4.66923627 -5.53953042 -1.672323 1.218596 0.137377
4140 -4.51071648 8.72655417 -7.167696120000001 -2.7669740000000003 0.94132 0.096971
4160 -4.4450091 16.93458117 -8.29350153 -2.872296 0.659945 0.223714
4180 -9.027574020000001 22.207220730000003 -7.26544296 -2.171628 0.599017 0.4669
4200 -9.997263089999999 10.010437920000001 -10.460844450000002 -1.509841 1.079649 0.643958
4220 -5.377420170000001 -1.9173645000000001 -10.22253993 -1.451504 1.61473 0.7814810000000001
4240 -2.62883475 -0.09609875999999999 -3.29599323 -1.678441 1.298664 0.631818
4260 -5.36888547 11.8776537 1.10709774 -1.573754 0.6758270000000001 0.453886
4280 -9.59804514 14.16040146 1.8495577800000003 -1.134893 0.813516 0.273041
4300 -8.34110946 8.736884100000001 0.90756234 -1.108097 1.232411 0.18937
4320 -5.67649764 5.4486702000000005 -1.7738147700000002 -1.401424 1.0935469999999998 0.271889
4340 -3.70450125 5.67454545 -0.6930568800000001 -1.462789 0.894969 0.434084
4360 -3.4515209700000002 7.3989668700000015 1.08509391 -1.2099540000000002 0.791266 0.573784
4380 -2.9964645 8.92324467 1.3835729700000001 -1.039222 0.79176 0.568566
4400 -2.6503873200000005 10.79734707 1.0945213200000001 -1.094503 0.706188 0.437967
4420 -3.7474592400000004 11.248361820000001 0.48364281 -1.072998 0.626687 0.320714
4440 -4.25236032 9.75671208 -0.14550192 -0.995141 0.459816 0.159102
4460 -4.41552024 8.30383146 -0.5643300600000001 -1.06031 0.427071 0.14587
4480 -4.605618420000001 7.59670704 -0.40730139000000004 -1.226866 0.415871 0.160745
4500 -3.7711111500000003 7.665710580000001 -0.39188987999999997 -1.275759 0.34617800000000004 0.049397
4520 -2.8868966100000004 8.656049700000002 -0.46778004 -1.152152 0.259673 -0.003039
4540 -3.0979587600000005 9.44400852 -0.7337781900000001 -0.92614 0.384997 0.16181700000000002
4560 -2.8916838900000004 9.63022194 -0.08592579000000002 -0.760788 0.75565 0.300297
4580 -2.36493594 9.58755825 -0.09774684000000002 -0.755601 1.00685 0.347013
4600 -1.7874310500000001 9.79428438 -0.70009065 -0.585663 1.189865 -0.013093
4620 -1.93607217 9.407790000000002 -0.86056263 -0.091085 1.117713 0.019296
4640 -2.7538239600000005 8.58434841 -0.42241860000000003 0.016006 1.649153 0.22553
4660 -3.27249828 8.111781090000001 -0.35087427000000004 0.201177 2.230257 0.199373
4680 -3.1246027200000004 8.68329207 -0.6209043299999999 0.865187 2.199666 0.081205
4700 -2.7792711000000003 8.96036571 -0.29697813 1.763579 1.7999029999999998 -0.093605
4720 -2.6845163100000007 8.92594242 0.04715667 2.421564 1.860806 -0.442669
4740 -2.93599566 9.51017697 0.11420802000000001 2.6368080000000003 2.093975 -0.8634120000000001
4760 -2.78121348 9.845178660000002 -0.43394535 2.630618 1.981718 -1.023544
4780 -2.6596675800000003 10.59451551 -0.40236696 2.479299 1.804482 -0.526583
4800 -2.10462759 11.53292049 -1.03584771 2.446726 1.152961 -0.339037
4820 -2.2369448700000003 11.41989948 1.6096051800000002 2.403475 0.104653 -0.548435
4840 -5.81165982 11.55267783 1.3494439800000002 2.470912 -0.164877 -0.8691540000000001
4860 -7.7984791200000005 9.58651839 -1.2404745000000001 2.729663 -0.055989 -0.8845770000000001
4880 -5.867194230000001 10.73222829 -0.6257014200000001 2.937697 -0.292044 -0.641403
4900 -3.58654581 12.13975728 1.5304188600000002 3.130322 -0.083174 -0.561277
4920 -2.03936166 11.93977062 2.05148682 3.024343 -0.170126 -0.569384
4940 -1.87424955 10.955719710000002 2.0202027300000003 2.546612 -0.395204 -0.611956
4960 -3.5396932500000005 10.991045520000002 2.338733430000001 1.733399 -0.506124 -0.673042
4980 -6.29710767 11.34505899 1.95852726 0.8375319999999999 -0.424214 -0.666586
5000 -7.112308860000001 11.556866700000002 0.37496763 0.145814 -0.17398 -0.573462
5020 -6.593791500000001 9.962535690000001 -0.22708187999999999 -0.410529 -0.07912000000000001 -0.370235
5040 -2.80905426 9.19657089 -0.5405211900000001 -0.8192379999999999 0.095162 -0.17676
5060 -1.68998832 9.982440180000001 0.34937334000000003 -1.2303540000000002 0.203426 0.011441
5080 -3.27324384 11.546840880000001 0.9833053500000001 -1.644088 0.243363 0.239236
5100 -5.18970582 9.6742296 0.35161983 -2.092498 0.180025 0.482945
5120 -5.7052311300000005 7.52410323 0.66132153 -2.495618 0.01309 0.753807
5140 -5.0983943400000005 6.718476600000001 0.20656917 -2.425686 -0.285617 0.800612
5160 -4.0022249400000005 6.874906860000001 -1.07746173 -1.38452 -0.6946399999999999 0.420644
5180 -3.5381923200000003 6.3250956 -2.9476695600000005 1.077171 -0.01067 -0.39625
5200 -3.3256390500000004 5.21890038 -3.52173114 2.176219 0.379173 -0.271568
5220 -3.43520694 4.48961517 -3.40811172 1.476266 -1.522825 0.454507
5240 -3.39928272 4.158802350000001 -3.0873345300000006 0.079777 -2.52935 1.091248
5260 -3.9046350600000013 4.66040727 -3.10409982 -2.184071 -1.509755 0.8914629999999999
5280 -4.03051698 4.160303280000001 -3.3621616800000007 -2.212046 1.199361 0.087698
5300 -3.6217146600000003 3.8845736100000003 -3.46005567 -0.707441 0.559182 0.102232
5320 -3.14256483 3.91810419 -3.79940319 0.5063409999999999 -0.5280739999999999 0.284088
5340 -3.2060355300000003 4.197571470000001 -4.55847156 -0.79569 0.655358 0.369616
5360 -3.45077541 4.88015127 -5.5497132 -3.200746 0.524352 0.051746
5380 -3.9152592900000003 7.0421085 -6.74542467 -4.220409 -0.211266 -0.517386
5400 -4.98598155 12.44048283 -8.45217828 -3.3251150000000003 0.569862 0.233485
5420 -9.63621585 20.661233400000004 -9.08221572 -1.477494 0.203888 0.6421020000000001
5440 -10.791362970000002 10.44407916 -8.200698930000001 -0.666908 0.23268000000000005 0.7310479999999999
5460 -5.044056750000001 -2.51970831 -11.45029086 -1.002786 1.0039790000000002 0.7458739999999999
5480 -0.01915893 1.06967259 -4.44276261 -1.582207 0.194452 0.428806
5500 -2.41942068 12.410993970000002 0.96534324 -1.212652 -0.714356 0.140928
5520 -9.43487541 19.26883143 2.66865354 -0.522134 -0.684708 0.120076
5540 -10.882223190000001 16.196466960000002 0.9657945 -0.507243 -0.37828 0.199904
5560 -5.46857469 4.388876280000001 -1.39495257 -0.854252 -0.404902 0.231697
5580 -0.61716672 1.1530477800000003 0.26539974000000005 -0.815343 -0.664427 0.097706
5600 -2.6728424100000003 3.3395594400000004 1.18748088 -0.556208 -0.958161 0.068914
5620 -3.97917144 8.061485220000002 0.90306936 -0.5735779999999999 -0.884207 -0.028511
5640 -3.3025855500000003 12.342137580000001 1.8492536700000002 -0.765844 -0.585817 -0.15628599999999998
5660 -2.3918742 14.95031247 -0.02140542 -0.791858 -0.491771 -0.208931
5680 -2.3063996700000002 10.7237034 0.40804695 -0.78352 -0.495159 -0.168276
5700 -3.4914869100000003 8.148303720000001 -0.3412899 -0.81106 -0.14486300000000002 -0.099483
5720 -3.86496342 7.67124342 -0.64335942 -0.619053 -0.15298699999999998 -0.0992
5740 -3.66812577 8.401284 0.46328706 0.002376 -0.25008 -0.066961
5760 -3.2748919200000004 9.09029916 1.02147606 0.181524 0.496899 -0.011119
5780 -3.0304463400000006 9.608365260000001 0.9833053500000001 0.275264 0.809221 -0.141188
5800 -2.59485291 9.887842350000001 0.95276682 0.8208059999999999 -0.238907 0.158795
5820 -2.7288280800000004 9.60357798 1.1078433 1.21738 0.7828729999999999 0.30233000000000004
5840 -3.20947884 8.4451347 0.97402509 1.4585860000000002 1.62942 0.180084
5860 -3.3112674 7.803119250000001 0.64426194 1.980763 1.522877 -0.26799
5880 -3.3998811300000003 7.47919305 0.7159632300000001 2.620132 1.371216 -0.723733
5900 -3.63115188 8.11013301 0.5174775 2.725236 1.547468 -0.668746
5920 -3.6092952000000005 9.39431106 -0.1995354 2.2052650000000003 1.830194 -0.059581
5940 -3.5663372100000004 9.66061332 -1.07491113 1.551655 1.433143 0.16603099999999998
5960 -3.36694896 9.24731802 -1.8820386900000001 1.322437 -0.244721 0.1121
5980 -2.74469085 9.27635562 -1.69058673 1.858146 -1.978321 0.013378
6000 -0.07005321 11.21452713 -0.08083440000000001 2.8031 -1.6944549999999998 0.133914
6020 -0.6706017900000001 13.16556936 2.01779928 3.5267730000000004 -1.508883 0.251963
6040 -7.629482250000001 12.04170633 0.35326791 3.9904 -1.252136 0.378786
6060 -6.61744341 11.216322360000001 0.74230308 3.956856 -1.574876 0.398193
6080 -2.9068011000000005 11.91881646 0.47182176000000003 3.773991000000001 -1.922412 0.62062
6100 -2.40654996 11.454028470000003 1.32968664 3.4412480000000003 -1.803264 0.949292
6120 -5.95926108 10.46234538 1.8724543200000003 2.5586450000000003 -1.221364 1.116501
6140 -7.03118016 9.6392079 1.3789328400000003 1.06978 -0.949644 0.790628
6160 -5.80657824 9.845629920000002 -0.043860510000000005 0.222374 -0.6469189999999999 0.679635
6180 -3.0916705500000004 12.77099154 -0.10657584 -0.178589 -0.507429 0.7759999999999999
6200 -2.5536901500000004 13.17320154 0.52510968 -0.537925 -0.566475 0.66888
6220 -3.4259266800000003 11.967464249999999 1.97484129 -1.014271 -0.565388 0.543774
6240 -3.41155503 9.9631341 4.525686540000001 -1.7233169999999998 -0.656967 0.350932
6260 -3.0955651200000003 9.1072116 2.95904916 -2.279598 -1.378807 0.196283
6280 -2.8401912 8.262963000000001 1.90059921 -1.923999 -1.938792 -0.198962
6300 -3.4527177900000003 8.36924454 0.5860297800000001 -0.641613 -0.7874180000000001 -0.463876
6320 -4.58645949 7.46512551 -0.26525259 1.358453 0.344297 -0.4310600000000001
6340 -5.42815749 6.719231970000001 -1.10559681 1.7659029999999998 -0.769439 0.14471199999999998
6360 -4.84886718 5.44986702 -2.19952953 0.843216 -2.54949 0.937442
6380 -3.27817827 3.5127451800000005 -5.24643705 -0.632853 -2.668786 1.413325
6400 -3.31007058 3.22938333 -4.54305024 -1.295164 -0.658784 1.232003
6420 -4.387375350000001 4.97505321 -2.8913895899999997 -0.658089 -0.563475 0.8218610000000001
6440 -3.6446210100000003 4.79452959 -2.4760047600000004 0.017294999999999998 -1.269118 0.344646
6460 -2.54410578 4.00731633 -2.4611818500000004 0.966083 -1.523472 0.259733
6480 -3.2079779100000003 4.24562085 -3.7628707500000003 0.018666 -1.319889 -0.013133
6500 -2.86175358 4.77731304 -5.41768041 -1.870384 -1.023526 -0.293764
6520 -2.62943316 6.21851976 -6.1340949 -2.721132 -0.722086 -0.613082
6540 -5.30017623 10.484496360000001 -6.23737458 -2.176606 0.354152 -0.097911
6560 -8.310865230000001 17.04580695 -8.140524390000001 -1.407709 0.005737 0.584091
6580 -8.68329207 13.638735090000003 -10.21356378 -0.910631 -0.7224229999999999 0.8299139999999999
6600 -3.7217079900000005 6.58674792 -7.34223564 -0.890116 -0.785937 0.7115670000000001
6620 1.7266581 3.6985073400000004 -7.25197383 -0.929089 -1.295587 0.325251
6640 3.02835681 7.528292100000001 -1.33822134 -0.532223 -1.85602 0.006138
6660 -2.38050441 13.46839425 0.20986533 0.158593 -1.825047 -0.079875
6680 -9.38114604 16.63729893 -0.9392976900000001 0.43694 -1.149519 -0.090547
6700 -8.363554740000001 12.084370020000001 0.37242684 -0.047198 -0.772147 -0.003613
6720 -4.462068690000001 3.8814246000000003 0.6336279 -0.630141 -0.780048 0.079919
6740 -1.87844823 2.60892045 2.3611885200000002 -0.788998 -0.802741 0.031837
6760 -2.69230545 7.53907329 0.72988362 -0.671883 -0.922196 -0.033422
6780 -2.47435668 12.507092730000002 2.15117604 -0.55207 -1.133357 -0.078248
6800 -2.89498005 14.59314999 3.00200715 -0.617134 -1.173435 -0.122448
6820 -2.3643375300000002 12.62444976 1.5126039000000002 -0.813243 -0.919105 -0.150849
6840 -2.0061253800000003 10.954817190000002 2.05957026 -0.8296969999999999 -0.5801470000000001 -0.18665
6860 -3.2850648900000006 9.52274358 1.70271189 -0.442599 -0.614545 -0.178561
6880 -4.53048363 8.66637963 0.9383951700000001 0.066153 -0.3990530000000001 -0.16353299999999998
6900 -4.47045624 7.37336277 0.026192700000000003 0.282085 0.177541 -0.154218
6920 -4.426448580000001 7.02025182 -0.61866765 0.467097 -0.381531 -0.097729
6940 -4.06734372 7.922722770000001 -1.3349251800000002 0.796307 -0.860317 0.002392
6960 -3.0270030300000004 8.6327019 -1.47293226 0.804944 0.27765500000000004 -0.069509
6980 -2.11195566 8.825350680000001 0.0634707 0.986897 0.970051 -0.218676
7000 -1.7751587400000002 8.46624582 1.7022606300000003 1.6478119999999998 1.0912879999999998 -0.207806
7020 -2.24143785 8.25533082 2.41552611 2.266293 0.756875 -0.231899
7040 -3.04287561 7.900120530000001 1.69642368 2.748776 0.4160100000000001 -0.389394
7060 -3.5687308500000006 8.05669794 0.5457695400000001 2.799141 0.657832 -0.434217
7080 -3.95866854 8.94599406 -0.3700332 2.218071 0.593567 -0.110249
7100 -4.521948930000001 9.05871096 -0.9867486599999999 1.5887639999999998 0.687248 0.184337
7120 -3.0427186500000003 9.54789642 -1.2340293300000003 1.588151 -0.340973 0.242266
7140 -0.08532738000000001 11.20689495 -0.08232552 1.999083 -0.895756 0.362284
7160 1.01009646 12.868738380000002 1.8498520800000002 2.5098830000000003 -1.518104 0.5087229999999999
7180 -4.424653350000001 12.655881 0.20956122 3.024308 -1.995898 0.466995
7200 -6.35054274 9.6594165 -2.4418757700000002 3.44655 -1.18317 0.386649
7220 -3.8728997100000004 9.3875814 -3.11082948 3.312585 -1.251256 0.213817
7240 -1.5938895600000003 11.03894775 -0.60040143 2.960362 -1.270325 0.226336
7260 -1.6780103100000001 11.65895937 2.5101337500000005 2.375988 -1.341146 0.328099
7280 -3.9754338300000005 11.733495750000001 2.98808676 1.669555 -1.086419 0.37625
7300 -7.33639869 11.796672150000001 2.0868126300000003 0.955946 -0.805942 0.384792
7320 -7.278166530000001 9.59460183 0.2459367 0.297948 -0.548882 0.340343
7340 -6.62656671 9.59056011 -0.77298876 -0.211852 -0.379428 0.230811
7360 -5.45945139 11.896812630000001 0.5762982600000002 -0.619578 -0.20215 0.207439
7380 -4.43513043 12.05174196 1.0623445200000001 -1.023617 -0.059355 0.27921
7400 -4.7066614200000005 10.76111874 2.7979787700000003 -1.498922 -0.092138 0.364594
7420 -4.4797365000000005 10.19380644 1.89191736 -1.865555 -0.570837 0.513266
7440 -4.15820394 10.23586191 3.1320877499999997 -1.80441 -1.160344 0.5625180000000001
7460 -4.30804188 8.35113528 2.8726721100000003 -0.977594 -1.294909 0.197793
7480 -4.61639961 6.682101120000001 0.8178989400000001 1.09826 0.85767 -0.183571
7500 -5.80223241 5.71990689 -0.00928026 2.566611 0.8391649999999999 -0.025876
7520 -5.75403588 5.18551695 -1.41275772 1.346052 -1.875517 0.588645
7540 -4.738995180000001 5.21620263 -2.0092743900000003 -0.402805 -2.676525 1.018632
7560 -4.16090169 5.17893444 -2.1342636 -2.133311 -0.8519950000000001 0.460481
7580 -4.0231791 5.03657172 -2.61281502 -1.5853549999999998 0.5529109999999999 0.300139
7600 -3.67291305 5.035374899999999 -3.1379247 0.131237 -0.116831 0.597134
7620 -3.73248918 5.094951030000001 -3.2275881000000006 0.795235 -0.453953 0.412061
7640 -4.4459018100000005 5.232222360000001 -3.06936261 -0.37363 0.389321 0.199853
7660 -4.47344829 4.920117210000001 -3.6525573000000002 -2.067457 0.441176 0.155909
7680 -3.74775354 4.868477370000001 -4.530326670000001 -2.630276 -0.078221 -0.003317
7700 -3.25393776 6.611753610000001 -5.4007679699999995 -1.764405 0.030843 0.209826
7720 -3.89459943 11.820471210000001 -5.66466678 -0.62836 -0.371991 0.330441
7740 -8.72925192 19.86369021 -4.84901433 -0.697052 0.17514000000000002 0.494835
7760 -10.45230975 14.137946370000002 -7.42306023 -1.366613 1.217319 0.723831
7780 -4.177666980000001 0.25072398 -13.24446138 -2.100003 0.948919 0.548137
7800 0.9153416700000001 0.18351567000000002 -4.1788638 -2.1978150000000003 0.013024 0.246346
7820 -2.51327295 11.462416020000001 1.01638467 -1.439202 -0.289715 0.171916
7840 -8.77534911 18.96795873 1.85614029 -0.84195 -0.346085 0.16441
7860 -8.057149200000001 13.25628243 0.1240965 -0.540887 -0.023454 0.206692
7880 -4.374651780000001 5.817349620000001 -3.50062002 -0.435608 -0.057017 0.250199
7900 -1.9197581400000001 3.7196184600000004 -1.7938664100000001 -0.496148 -0.30685100000000004 0.17638900000000002
7920 -2.86429437 5.36364693 1.8217071900000001 -0.638074 -0.365801 0.12313
7940 -4.31792055 7.45150923 2.11075884 -0.700075 -0.173761 0.104291
7960 -3.3233925600000003 10.12584276 1.81467342 -0.6796369999999999 -0.164134 0.07664800000000001
7980 -2.4813904499999997 12.05114355 -0.34488036 -0.609617 -0.303721 0.024973
8000 -2.64649275 11.04029172 -0.8872065900000001 -0.571109 -0.338779 -0.032397
8020 -3.0684699 8.77175865 -0.67764537 -0.617157 -0.365297 -0.020934
8040 -3.1454097300000003 8.248601160000002 -0.5415708599999999 -0.7473569999999999 -0.370185 -0.017565
8060 -3.42652509 8.63808759 0.12274272000000001 -0.873566 -0.219475 -0.034663
8080 -3.2268425400000003 9.337432680000001 1.5173911800000002 -0.8141189999999999 -0.281487 -0.029895
8100 -3.0713148000000006 9.970167870000001 2.0956416300000003 -0.387405 -0.5205609999999999 -0.020199
8120 -3.1046982300000003 9.79428438 1.78429185 -0.047797000000000006 -0.467329 -0.040327
8140 -3.0627801 9.32934924 0.55385298 -0.102119 0.237119 -0.068315
8160 -2.8836004500000003 9.40329702 -0.22273605000000002 -0.048709 0.263517 -0.056225
8180 -2.7268758900000005 9.616007250000001 -0.018707670000000003 0.279045 0.082314 -0.047295
8200 -2.7440924399999997 9.58187826 1.00456362 0.176074 0.807471 -0.150424
8220 -2.5938032399999997 9.16588521 1.4635048499999999 0.165661 1.4482549999999998 -0.279505
8240 -2.35370349 8.585996490000001 1.3159134000000001 0.843354 1.4460959999999998 -0.327111
8260 -2.57569398 8.602908930000002 1.08988119 1.602023 1.085159 -0.233755
8280 -3.0482613 8.370892620000001 0.67000338 2.106517 0.748111 -0.299234
8300 -3.02955363 8.249346720000002 0.13472073 2.387667 1.079509 -0.566886
8320 -2.80082367 8.84271438 0.10014048 2.478619 1.034868 -0.67088
8340 -2.5653640500000003 10.038573000000001 0.18396693 2.304179 1.265232 -0.31988
8360 -2.21988528 9.81554265 0.5709125700000002 1.830571 1.445316 0.077164
8380 -1.7730594000000002 10.30352148 0.20537235 1.394799 0.4664680000000001 0.153355
8400 -1.51080867 10.545573420000002 0.50834439 1.448536 -0.737172 -0.189763
8420 -4.3525008000000005 10.80617607 0.44188164 2.01581 -1.273947 -0.17977200000000002
8440 -6.246213389999999 10.66412727 -0.6999435 2.692668 -0.773089 -0.012248
8460 -4.8241656 10.0038456 -2.4614859599999996 2.916668 -0.999792 0.009904
8480 -3.2772855600000006 10.564879500000002 -2.3511627 2.98962 -0.6549689999999999 0.028131
8500 -2.45280411 11.19417138 0.23860863000000002 2.625992 -0.6779470000000001 -0.037404
8520 -1.8450648 11.79143361 1.949247 2.063457 -0.954122 -0.015341999999999996
8540 -2.18515788 11.04852231 1.9782846 1.596639 -0.99971 0.067981
8560 -3.6389312100000004 9.7983261 1.9779903 1.236773 -0.709205 0.192214
8580 -6.164633429999999 9.988424280000002 1.5590052 0.871409 -0.449595 0.321788
8600 -6.55711191 10.365344100000002 0.31449879 0.473769 -0.164759 0.29835
8620 -5.855226030000001 10.931322240000002 -0.47450970000000003 0.037165 -0.106277 0.171311
8640 -3.0867263100000004 11.064993300000001 -0.95995755 -0.373519 -0.158902 0.101212
8660 -1.87934094 11.05241688 -0.008985960000000001 -0.8020930000000001 -0.215378 0.210454
8680 -3.1097798100000005 10.72878498 2.08741104 -1.2145780000000002 -0.263346 0.309116
8700 -4.891825170000001 9.9486153 2.48932674 -1.554626 -0.32652 0.417916
8720 -4.8121974 8.53704459 1.71513135 -1.7764830000000005 -0.464582 0.504138
8740 -4.5057820500000005 8.016732000000001 1.0324044 -1.722061 -0.744757 0.4589430000000001
8760 -4.14653004 7.71181758 -0.04266369 -0.743995 -0.7994319999999999 0.230836
8780 -4.709055060000001 7.122334680000001 -1.0380942 1.323301 0.944887 -0.078493
8800 -4.9801446 6.64812909 -1.68714342 1.934685 0.983133 -0.049703
8820 -4.63691232 6.9177177 -1.83548043 0.995454 -1.419092 0.238439
8840 -4.604872860000001 7.23220668 -2.25176778 -0.226519 -2.423553 0.740733
8860 -4.858147440000001 6.935228550000001 -3.2694964200000003 -1.76089 -0.5784199999999999 0.720173
8880 -4.379439060000001 5.573061000000001 -3.8299319100000004 -1.90838 0.697267 -0.087931
8900 -3.45826044 4.830600960000001 -3.6215675100000007 -1.057656 -0.105831 0.209597
8920 -3.48610122 5.10842997 -3.1642743600000003 0.345099 -0.495702 0.586295
8940 -3.45556269 5.4943259399999995 -2.81833452 0.44645 0.355493 0.488704
8960 -3.73038984 5.56647849 -2.6755401600000006 -1.534976 0.770343 0.227573
8980 -3.7684134 5.71256901 -2.99377656 -2.812142 0.063926 -0.228028
9000 -3.6985073400000004 6.07526433 -4.08291219 -2.467938 0.117544 -0.082551
9020 -4.12871508 8.00101638 -5.7332288700000005 -1.289755 0.287868 0.257678
9040 -4.86039393 12.8465874 -6.90783903 -0.939999 0.374662 0.62641
9060 -8.020469610000001 17.063916210000002 -6.215076450000001 -1.56358 1.477251 0.8930379999999999
9080 -8.221957200000002 8.327336220000001 -10.02899844 -2.086633 1.358818 0.594707
9100 -2.86085106 0.23201631 -10.276131959999999 -1.7916029999999998 0.739953 0.324096
9120 -0.04266369 2.22377985 -3.0166731 -0.974788 -0.028026 0.127823
9140 -2.16958941 9.8936793 1.15155666 -0.514012 0.135675 0.082762
9160 -8.30143782 17.990186220000002 -1.18403757 -0.535517 0.677555 0.187671
9180 -12.191102820000001 19.2007206 -1.8628797600000002 -0.806884 0.6198060000000001 0.212555
9200 -5.946380550000001 6.881940630000001 -1.01308851 -0.979682 0.124109 0.182073
9220 -1.7615326500000001 1.6983660600000001 -0.038621970000000005 -0.910644 -0.160648 0.204285
9240 -0.96788403 4.190233590000001 2.34487449 -0.844648 -0.239526 0.158913
9260 -3.7220121000000006 8.19785403 1.65301443 -0.841409 -0.284065 0.105582
9280 -3.6994098600000003 10.74959199 1.34166465 -0.788085 -0.297001 0.097425
9300 -3.2741365500000006 11.89666548 -0.4596966 -0.813632 -0.313836 0.067358
9320 -3.1461552900000003 11.17381563 -1.17161811 -0.95762 -0.332397 0.038602
9340 -2.43678438 9.465718050000001 -0.76102056 -1.020915 -0.382355 0.065998
9360 -3.2198087699999998 8.50965507 0.16046217000000002 -0.791096 -0.513157 0.076317
9380 -4.08365775 8.28677187 1.5877485 -0.307424 -0.456149 0.052916
9400 -3.59626752 8.81442234 1.10530251 -0.056673 -0.020077 0.008176000000000001
9420 -2.7496350900000004 9.57319641 0.8628091200000001 -0.286047 0.647771 -0.039148
9440 -2.33753661 9.920617560000002 0.49157910000000005 -0.094577 0.405749 -0.153936
9460 -2.2020703200000002 9.856254150000002 0.04505733 0.291927 0.315651 -0.068868
9480 -2.33604549 9.321864210000001 0.34383069000000005 0.228583 1.105528 -0.140825
9500 -2.34502164 8.740621710000001 1.07102637 0.437363 1.696222 -0.188194
9520 -2.1794680800000004 8.75544462 1.3389669 1.123459 1.545485 -0.116979
9540 -2.2638929400000003 9.02173707 1.30154175 1.853012 0.954134 -0.1859
9560 -2.49396687 8.28931266 0.93001743 2.261365 1.068972 -0.48657
9580 -2.68930359 8.09546706 0.26973576 2.538514 1.013464 -0.964195
9600 -2.41358373 8.60006403 0.04699970999999999 2.692072 1.2918 -0.905795
9620 -2.2905369 9.896524200000002 0.3617928 2.463153 1.308079 -0.516446
9640 -2.23065666 9.978398460000001 0.42107463000000006 2.057755 1.033862 -0.321305
9660 -2.14938081 9.46616931 -0.6014511 1.556938 -0.360424 -0.193761
9680 -1.7962600499999999 11.236236660000001 -1.02537063 1.757653 -1.244376 -0.158112
9700 -1.77635556 11.582460990000001 0.12529332 2.5533 -0.890976 0.018977
9720 -5.6278498500000005 10.861867440000001 1.0238697 3.204599 -0.733644 0.069258
9740 -7.437883139999999 9.22097817 -0.25806186000000003 3.4214260000000003 -0.620648 0.12831199999999998
9760 -5.36364693 9.935440470000001 -1.51499754 3.061203 -0.760057 0.138793
9780 -3.1257995400000005 12.34558089 0.47301858 2.397682 -0.765105 0.111732
9800 -1.7504571599999998 13.2402627 2.28424869 1.7863939999999998 -0.704593 0.160796
9820 -1.5313115700000002 11.00810511 1.7437275 1.29619 -0.451037 0.048088
9840 -2.4872274 9.552232440000001 1.7956616400000003 0.8002739999999999 -0.231751 -0.014409
9860 -5.15273193 8.128997640000001 1.31711022 0.270919 -0.218401 0.036355
9880 -6.2087882400000005 8.478822240000001 0.81730053 -0.232065 -0.127006 -0.005731
9900 -5.86031742 10.006837650000001 -0.64156419 -0.655929 -0.039977 -0.089988
9920 -2.8259765100000003 11.37199725 -1.25633727 -1.096989 -0.016552 0.028678
9940 -0.9083079000000001 11.55162816 -0.5655268800000002 -1.562438 0.030432 0.13753
9960 -1.9366705800000001 12.26025351 1.01698308 -2.182299 0.159906 0.264426
9980 -4.1299119 11.721674700000001 2.2023744300000003 -2.625255 0.06694800000000001 0.451594
10000 -4.494402450000001 8.708739210000001 1.14092262 -2.243754 -0.50962 0.450725
10020 -5.23266381 7.287898050000001 -0.16330707 -0.405587 -0.020915 0.253567
10040 -5.325329070000001 6.271209270000001 -1.9098794700000001 1.829471 0.832248 -0.054517
10060 -4.70202129 7.36648596 -3.38237028 1.935074 -1.271016 0.22238
10080 -4.00193064 7.47366021 -3.52592001 0.8636950000000001 -2.287417 0.915885
10100 -3.63579201 6.4417070700000005 -3.01712436 -1.089077 -1.089891 1.2372
10120 -4.11224409 5.71945563 -2.94393195 -1.933315 0.517065 0.774181
10140 -4.836594870000002 5.36514786 -3.0138282000000003 -0.947333 0.6695479999999999 0.415541
10160 -4.35114702 5.197190850000001 -2.90396601 0.290727 -0.255909 0.340985
10180 -3.09601638 4.60083114 -2.6295803100000006 -0.061918 -0.220399 0.025487
10200 -3.0144266100000006 4.56894864 -2.6198487900000003 -1.432588 0.175905 -0.123464
10220 -3.36500658 4.92670953 -2.78855136 -2.489357 -0.000443 -0.660457
10240 -3.6307006200000003 4.73330538 -3.34973241 -2.354135 0.676608 -0.395461
10260 -4.1852991600000005 4.9572382500000005 -4.64005152 -1.570503 0.324778 0.328308
10280 -3.55285827 6.77955366 -6.34724658 -1.237491 0.679294 0.893133
10300 -4.205654910000001 12.22103313 -7.747290540000001 -1.3488209999999998 1.24984 0.83394
10320 -5.7728907 18.70869024 -9.512717760000001 -1.553191 0.8669969999999999 0.580903
10340 -6.724911960000001 13.975688970000002 -10.37163231 -1.332703 0.13499 0.164638
10360 -4.15341666 3.7697573699999998 -8.51054778 -0.8397469999999999 -0.196538 0.060616
10380 1.13957865 2.7762790500000003 -3.90298698 -0.4718020000000001 0.107527 0.158936
10400 -1.0933245 10.60140213 1.18942326 -0.56012 0.8101 0.096531
10420 -8.00669637 17.181126090000003 1.70376156 -0.8864120000000001 0.8241219999999999 0.069664
10440 -9.9719631 13.361965560000002 1.3350723300000003 -0.879857 0.395809 0.082009
10460 -6.210436320000001 5.018609610000001 -1.10994264 -0.700607 0.151276 0.072893
10480 -2.41642863 3.8926570500000004 -0.08471916 -0.6036279999999999 0.226174 0.172819
10500 -2.61056853 5.457352050000001 -0.32332778999999995 -0.582445 0.579059 0.08492000000000001
10520 -3.40437411 8.00101638 -0.52750332 -0.634988 0.7168260000000001 0.043784
10540 -4.10281668 11.46555522 0.38828961 -0.7656390000000001 0.583156 0.018474
10560 -3.8553790500000003 13.50731052 -1.00501488 -0.7997989999999999 0.39875 0.076155
10580 -1.94505813 11.30718258 0.6491963700000001 -0.721508 0.154921 -0.021262
10600 -2.13395949 8.26132473 0.98105886 -0.630731 -0.121065 -0.080094
10620 -3.27324384 8.05534416 1.20798378 -0.665463 -0.008053 -0.073004
10640 -3.6878831100000005 9.1277145 0.85322475 -0.667125 0.287224 -0.120396
10660 -3.73712931 9.446559120000002 -0.03847482 -0.462422 0.173922 -0.202142
10680 -3.35003652 9.2401371 -0.11675862 -0.123203 0.06872 -0.29471
10700 -2.8322647200000004 10.47028167 -0.07409493 0.147368 -0.083256 -0.352445
10720 -2.7433468800000003 10.61442981 0.62211096 0.514534 0.216824 -0.322491
10740 -3.0258062100000003 9.77048532 1.6854953400000003 0.8545870000000001 1.114793 -0.070235
10760 -3.0747581100000003 8.98207524 0.82043973 0.8576010000000001 0.545075 -0.12396300000000003
10780 -2.9928740400000002 9.16154919 -0.5285529900000001 1.20996 0.400762 -0.56997
10800 -2.45219589 9.48337605 -0.91310499 1.782725 0.7315729999999999 -0.677488
10820 -3.01891959 9.361231740000001 -0.8659483200000001 2.314514 1.178848 -0.570729
10840 -2.94302943 9.10646604 -1.07985537 2.756236 1.038459 -0.477733
10860 -2.07603144 9.075329100000001 -0.55204794 2.975085 0.35167800000000005 -0.481734
10880 -1.65526092 9.64354392 0.24069816 2.950514 0.035774 -0.314858
10900 -2.9800033200000002 10.028694329999999 0.05957613 2.867611 -0.514944 0.015349000000000003
10920 -3.89175453 10.0644714 -0.71955369 3.54149 -0.947124 0.149865
10940 -3.9113647200000004 11.131004790000002 -0.8961827400000001 4.251275 -0.744545 0.289159
10960 -3.6275516100000003 11.83364604 -0.5445629100000001 4.361349 -0.914523 0.07757
10980 -3.8965516200000003 12.53613033 -0.04955031 4.132992 -0.6009899999999999 -0.076115
11000 -4.3525008000000005 12.66066828 0.32018859000000005 3.87008 -0.21779 -0.305974
11020 -4.61819484 13.62272517 1.15664805 3.768253 0.02065 -0.438382
11040 -4.3384234500000005 11.78005401 2.2040127000000003 3.45088 -0.430579 -0.541501
11060 -6.54813576 9.99126918 1.72232208 3.238692 -0.339656 -0.71722
11080 -6.86098647 9.2723139 0.57569985 2.8294330000000003 -0.35483000000000003 -0.8300860000000001
11100 -5.113070100000001 10.4547132 -0.029783160000000003 2.522671 -0.251461 -0.8398389999999999
11120 -2.33080695 11.55731796 -0.24908571000000002 2.215841 -0.137542 -0.823968
11140 -2.19293721 11.57168961 -0.23650929 1.72584 -0.1499 -0.771828
11160 -3.0587383800000003 11.44729881 -0.24055101 1.145965 0.060528 -0.677871
11180 -3.35123334 11.73080781 0.38051028000000003 0.747458 -0.105055 -0.482822
11200 -3.2986909800000004 10.90767033 0.38215836 0.475871 -0.054777 -0.299981
11220 -3.2873113800000002 10.64660661 -0.01466595 0.170652 0.059730999999999985 -0.166595
11240 -4.82940414 8.800501950000001 -1.25918217 -0.189935 0.032464 0.038156
11260 -5.54132565 6.24875418 -1.70345745 -0.516941 0.072376 0.197122
11280 -5.84114868 4.3092387 -2.0341231200000003 -0.826442 0.141264 0.28780700000000004
11300 -5.13387711 5.377420170000001 -3.33401679 -1.171192 0.183711 0.361189
11320 -3.7134774 6.152204159999999 -4.15206288 -1.328797 0.102932 0.452058
11340 -3.10678776 7.013218050000001 -4.27570812 -1.218699 -0.309776 0.468311
11360 -3.09226896 6.0185331 -4.60846332 -1.39545 -0.230225 0.707325
11380 -4.69139706 4.7940783300000005 -5.80043718 0.087478 -0.5422640000000001 -0.065992
11400 -4.969069110000001 4.30429446 -5.12744175 -0.8979659999999999 -0.552938 0.7923979999999999
11420 -4.52254734 3.9480443100000002 -4.85126082 -2.090244 0.405057 0.682429
11440 -4.42748844 2.8976778000000003 -4.81114773 -2.370155 -0.15961199999999998 0.676925
11460 -4.828364280000001 2.40654996 -5.221588320000001 -2.308416 0.531604 0.926434
11480 -4.32495432 2.0917470600000008 -5.34283992 -1.7654450000000002 -0.063231 0.825235
11500 -4.16194155 2.10147858 -5.65538652 -1.948032 -0.120024 0.800532
11520 -4.33154664 2.2191397200000003 -5.9360604299999995 -2.322043 -0.028233 0.547838
11540 -4.62103974 1.63489536 -6.43601727 -2.604604 0.223074 0.284896
11560 -4.4304903 1.16607546 -6.46191567 -2.688803 0.31564200000000003 0.119683
11580 -4.227207480000001 1.5982255800000003 -6.887924730000001 -2.746315 0.142035 0.161164
11600 -4.679271900000001 2.18905245 -7.19718498 -2.724246 0.370835 0.466537
11620 -5.4866937600000005 2.71534914 -8.339755680000001 -2.702985 0.556368 0.670478
11640 -6.073920360000001 3.7664710200000004 -10.20488193 -2.681864 0.372548 0.534129
11660 -6.295910850000001 4.30385301 -7.50389463 -2.619154 0.21403000000000005 0.427948
11680 -8.77175865 10.64017125 -12.79524186 -2.537578 -0.028566 0.551674
11700 -9.955197810000001 13.19610789 -11.011852530000002 -2.370932 0.042131 0.576248
11720 -2.64754242 2.43663723 -6.6683376899999995 -2.235709 0.41043 0.530787
11740 -5.511238379999999 1.4422465800000002 -5.069356740000001 -2.297969 0.468553 0.435206
11760 -6.67821636 10.2497823 -5.433552990000001 -2.034411 0.632969 0.11637
11780 -6.41251251 13.086235890000001 -4.26418137 -1.828044 0.4386060000000001 0.05824
11800 -6.00521112 6.3973953 -4.147726860000001 -1.682948 0.135824 -0.006587999999999999
11820 -4.19248008 3.92004657 -4.73540472 -1.615532 0.323459 -0.10143
11840 -3.58085601 5.6538954 -4.5473960700000005 -1.255005 0.431418 0.027000000000000003
11860 -3.5221725900000003 7.719449760000001 -4.33423458 -0.807318 0.226958 0.15323499999999998
11880 -4.14637308 7.963444080000001 -3.86525772 -0.364603 0.134135 0.07205700000000001
11900 -5.0006475 7.54880481 -3.92303862 -0.126832 0.056788 0.027883
11920 -4.49874828 6.34755069 -3.57097734 -0.185586 0.088755 0.07657
11940 -3.2534865 5.558395050000001 -3.5052601500000002 -0.479609 0.28539200000000003 0.174677
11960 -2.08621422 5.9180885100000005 -3.2386635900000003 -0.688407 0.7105779999999999 0.054101
11980 -1.8845794800000002 7.259007600000001 -2.7072657 -0.543743 0.649103 -0.14884
12000 -2.3321509200000006 8.26087347 -2.21569641 -0.115989 -0.018535 -0.32552600000000004
12020 -3.12474987 8.30129067 -2.36717262 0.299002 -0.066686 -0.365294
12040 -4.15311255 7.33220001 -2.12692572 0.650845 0.950014 -0.244499
12060 -4.29995844 7.50539556 -1.59508638 0.345113 1.424589 -0.111578
12080 -3.5578025100000006 7.3787582700000005 -1.1892761100000002 0.52735 0.722454 -0.771703
12100 -2.6765800200000003 8.16117444 -1.15275348 1.565004 0.05662 -0.8629459999999999
12120 -2.8159408800000003 9.91657584 -0.39098736000000006 2.929553 -0.110345 -0.7848350000000001
12140 -3.6709706700000004 10.632686220000002 -0.34922619 3.874011 0.006393 -0.959985
12160 -3.4765168500000003 9.389072520000001 -1.49269941 3.888158 0.284575 -0.742326
12180 -3.18731805 10.537038720000002 -2.07064575 3.2480130000000003 0.209551 -0.340776
12200 -2.26554102 12.363238890000002 -1.4468867100000002 2.766604 -0.118747 -0.141825
12220 -2.82926286 11.03474907 -1.1906200800000002 3.1036490000000003 -0.217502 0.019821
12240 -3.3793684200000005 10.205176230000001 -0.7665534 3.787904 -0.08044 0.31498200000000004
12260 -3.5443333800000003 10.65918303 0.07903917 4.131604 -0.60742 0.466541
12280 -5.147797500000001 11.32454628 1.11623085 4.109543 -0.497863 0.261147
12300 -5.1102251999999995 10.9670895 1.01473659 3.694276 -0.231717 -0.134132
12320 -5.01577452 12.10577544 0.73916388 3.17778 -0.083832 -0.438099
12340 -4.149522090000001 13.39743852 0.18067077 2.981815 -0.28220500000000004 -0.476602
12360 -4.2947199000000005 14.133463200000001 2.26209771 2.76419 -0.292041 -0.491996
12380 -6.72311673 9.70192323 0.23830452000000002 2.585738 -0.230243 -0.606553
12400 -5.973328620000001 7.956851760000001 -0.67329954 2.297232 -0.098184 -0.614079
12420 -5.02520193 10.022406120000001 -0.2894931 1.870195 -0.071488 -0.526297
12440 -3.52936332 12.748536450000003 -1.36037232 1.386906 -0.016749 -0.476332
12460 -2.9720670300000007 12.354262740000001 -1.8535995 0.8491209999999999 0.107069 -0.338174
12480 -2.83854312 11.049120720000001 -1.8184208400000001 0.2288 0.195815 -0.14927200000000002
12500 -3.0422772 11.441010600000002 -1.1199684600000002 -0.398086 0.307782 0.099374
12520 -3.6515076300000002 10.567871550000001 -1.45137969 -0.8425309999999999 0.153975 0.319725
12540 -4.420905930000001 9.72617355 -0.93016458 -1.163975 0.048823000000000005 0.5205770000000001
12560 -5.479807139999999 7.577989560000001 -1.02611619 -1.493628 -0.023119 0.681804
12580 -5.36663898 5.7708011699999995 -2.507436 -1.451102 -0.393472 0.820377
12600 -3.7374236100000005 4.1294606400000005 -3.1186186200000003 -0.767259 -0.38728 1.076178
12620 -3.3413546700000003 4.45323969 -3.64342419 -0.149515 -0.648405 0.57449
12640 -3.4214337000000006 5.01396948 -4.22196894 -0.702581 -0.520379 1.271216
12660 -3.53669139 5.38684758 -3.94324722 -2.28358 0.057951 1.33848
12680 -3.7619780400000002 5.0927143500000005 -4.689150570000001 -1.7349560000000002 -0.532485 0.931804
12700 -4.46461929 4.430637450000001 -4.49559927 -1.938061 0.07337300000000001 0.912517
12720 -4.24023516 4.277503350000002 -4.65457032 -1.8712990000000005 -0.29649200000000003 0.642129
12740 -3.7389245399999997 3.39000246 -5.04525357 -2.222394 -0.018647 0.461996
12760 -3.84430356 2.4481541700000005 -5.051100330000001 -2.552203 0.08507200000000001 0.118796
12780 -4.063302 1.9606266 -5.254520490000001 -2.541374 0.1604 -0.079914
12800 -3.9788771400000003 1.7272565100000001 -5.49612117 -2.525568 0.304465 0.109087
12820 -4.9274550900000005 2.49097482 -5.741763570000001 -2.6540630000000003 0.406459 0.5545760000000001
12840 -4.94496594 2.4120828 -6.61340169 -2.581437 0.326809 0.69619
12860 -4.66055442 2.73122172 -7.41602646 -2.333695 0.386626 0.707458
12880 -4.0658427900000005 3.2832696600000006 -8.54842419 -2.2539130000000003 0.099778 0.710519
12900 -4.446353070000001 4.63046715 -10.285559370000001 -2.075838 -0.078113 0.553894
12920 -4.6090617300000005 6.48885393 -11.93378652 -1.832821 -0.036835 0.410261
12940 -11.707303049999998 17.276028030000003 -13.21062669 -1.6649 0.068948 0.184835
12960 -5.67889128 7.797439260000001 -8.995838670000001 -1.4794120000000002 0.008643999999999999 -0.079779
12980 -1.281186 -0.16211025 0.10552617 -1.240214 -0.051411 -0.18699
13000 -6.05431017 5.19150105 -5.66242029 -1.088094 0.087716 0.053176
13020 -7.140748050000001 12.930855300000001 -3.8314328400000006 -0.962861 0.060167 0.173727
13040 -9.01200555 9.27950463 -3.71467422 -0.953717 0.119034 0.096803
13060 -5.101543350000001 5.02819398 -4.03546122 -0.894208 0.047529 0.078083
13080 -4.13649441 6.370300080000001 -3.6315933300000003 -0.872748 -0.196359 0.044362
13100 -4.211943120000002 7.394925150000001 -3.45541554 -0.831426 -0.044082 0.023091
13120 -4.271067990000001 7.728278760000001 -4.10491602 -0.736217 -0.00811 0.002345
13140 -4.000733820000001 7.602985439999999 -4.5472391100000005 -0.624851 0.049163 -0.031133
13160 -2.53183347 6.627469230000001 -3.93741027 -0.611633 -0.069236 -0.004184
13180 -1.5530210999999998 5.801035590000001 -2.98299537 -0.6123569999999999 -0.087917 0.138977
13200 -1.24690986 6.53211603 -2.6053299900000004 -0.696615 -0.108821 0.11171
13220 -2.06660403 7.52335767 -2.2947257700000003 -0.70153 0.095174 -0.015704
13240 -3.5022681 8.160281730000001 -1.9739485800000003 -0.6874170000000001 0.096404 -0.069018
13260 -4.324807170000001 7.15122513 -1.8839810700000001 -0.552419 -0.047744 -0.102074
13280 -4.01525262 6.85514952 -1.62921537 -0.22431 0.283614 -0.13439
13300 -3.8230452900000005 8.52522354 -1.42698222 0.121717 1.22022 -0.22504
13320 -3.5857904400000002 10.22628735 -1.51320231 0.124632 1.301543 -0.31805900000000004
13340 -2.23619931 10.195748820000002 -1.8691581600000002 0.354581 0.537656 -0.496004
13360 -1.89326133 9.83274939 -1.5290748900000002 0.994768 0.397659 -0.406963
13380 -2.68257393 9.26049285 -1.31337261 1.635363 0.247415 -0.419387
13400 -3.3685970400000005 9.69862707 -1.36171629 2.161156 -0.048363 -0.434564
13420 -3.69745767 10.266547590000002 -0.89993016 2.7717080000000003 -0.05765 -0.506131
13440 -3.16831608 9.10511226 -0.82284318 3.31856 0.136215 -0.443807
13460 -2.90815488 8.4479796 -0.51343578 3.335963 0.142927 -0.272779
13480 -3.3286311 9.32680845 -0.6267510900000001 2.88709 0.132119 -0.111394
13500 -3.2298345900000003 10.27178613 -0.11152008000000001 2.836142 0.013807 -0.050710000000000005
13520 -2.5456067100000004 10.01687328 -0.55489284 2.986704 0.087671 -0.004887
13540 -3.2073795000000005 9.64115028 -0.37646856 3.213148 -0.230964 0.094311
13560 -4.04847909 9.77661657 -0.42781410000000003 3.5030870000000003 -0.178195 -0.032986
13580 -4.2510065400000006 10.325525310000002 -0.13666311 3.3677370000000004 -0.037653 -0.163367
13600 -4.036952340000001 12.711415410000003 0.8608569300000001 3.092325 -0.038004 -0.369321
13620 -3.99818322 13.652057070000001 1.48476312 3.012622 -0.028959 -0.430777
13640 -5.78936169 14.09498838 1.43401599 2.83794 -0.003693 -0.470486
13660 -7.56751248 11.30478894 -0.05718249 2.621971 -0.015132 -0.619395
13680 -6.5451437100000005 9.24088266 0.8464852800000001 2.415846 -0.151477 -0.709322
13700 -4.537664550000001 10.643918670000001 0.89813493 2.185571 -0.169621 -0.767523
13720 -4.53152349 10.855422270000002 -0.08337519 1.903174 -0.148188 -0.8207979999999999
13740 -4.88225061 10.364147280000001 -1.18853055 1.571485 -0.159667 -0.859419
13760 -4.78539648 9.79488279 -1.6777160100000001 1.11517 -0.026239 -0.797616
13780 -4.060908360000001 9.441320580000001 -2.1683925900000003 0.69538 -0.039022 -0.7001189999999999
13800 -3.8520927000000005 9.55942317 -1.5946351200000002 0.435471 -0.037643 -0.553454
13820 -4.063302 9.96358536 -1.8756033300000001 0.12652 0.012743 -0.365533
13840 -5.09300865 9.44355726 -1.82919222 -0.234521 0.093187 -0.189765
13860 -5.3154504000000005 6.54813576 -1.29645036 -0.655516 0.093015 -0.048495
13880 -5.408253 5.69759895 -1.2726513 -1.024653 0.005288 0.09859
13900 -4.932546480000001 6.26222331 -2.9277650700000004 -1.04821 0.04455 0.157127
13920 -4.22182179 6.195015 -3.93860709 -0.662617 -0.417709 0.071751
13940 -4.4971002 6.43331952 -4.1561046 -0.672848 0.254006 -0.066982
13960 -4.64124834 5.939650889999999 -4.69872513 -0.5514680000000001 -1.553713 0.08039199999999999
13980 -4.2966622800000005 5.44836609 -4.88733219 -1.450379 0.994527 1.099545
14000 -4.46880816 5.0427127800000004 -5.394332610000001 -2.517342 0.5589109999999999 0.67284
14020 -5.02520193 4.92326622 -5.31529344 -1.86829 0.509145 0.301423
14040 -4.79452959 4.25176191 -5.181622379999999 -1.839958 0.221309 0.595751
14060 -4.277954610000001 3.3681457800000003 -5.41289313 -2.001589 0.298741 0.552862
14080 -4.223764170000001 3.26740689 -5.351521770000001 -2.309661 0.480304 0.437246
14100 -4.7142936 2.6286875999999997 -5.47561827 -2.405722 0.430734 0.396046
14120 -4.96263375 2.57629239 -5.928575400000001 -2.422262 0.383628 0.46863
14140 -4.772672910000001 2.36418057 -6.244859610000001 -2.45205 0.209912 0.51351
14160 -4.3445645100000005 1.7896775400000002 -6.4830169799999995 -2.569757 0.348891 0.492213
14180 -3.8508958800000004 0.97208271 -6.4158086700000005 -2.663579 0.39702 0.525679
14200 -4.503829860000001 1.2244547700000001 -6.620729760000001 -2.640026 0.351387 0.461809
14220 -5.38998678 2.38603725 -7.662718530000001 -2.590037 0.31394 0.4590010000000001
14240 -6.558161580000001 3.2262441300000004 -9.46856295 -2.51428 0.113373 0.733252
14260 -7.48399014 3.1195113300000004 -8.016732000000001 -2.2225040000000003 0.276214 0.7831520000000001
14280 -9.995310900000002 6.20085195 -9.04733136 -2.027158 0.23319 0.7172729999999999
14300 -10.25561925 11.397002940000002 -12.509633520000001 -1.964321 0.29430300000000004 0.564878
14320 -0.6162642 3.7693159200000004 -4.41985626 -1.882659 0.24679 0.388185
14340 -6.778808100000001 1.96751322 -5.37053355 -1.7866990000000005 0.15834 0.313125
14360 -8.98836345 10.637032050000002 -5.41827882 -1.5653629999999998 0.346758 0.155264
14380 -6.3141672600000005 10.27897686 -4.85051526 -1.307664 0.363356 0.043811
14400 -4.684206330000001 5.755527000000001 -4.924757340000001 -1.033672 0.25824899999999995 -0.016097
14420 -4.322266379999999 5.976624780000001 -5.27772114 -0.874765 0.06995599999999999 0.047211
14440 -4.29981129 7.7005851299999994 -5.14555101 -0.799828 0.003189 0.16212
14460 -3.93771438 8.352027990000002 -4.912936290000001 -0.8789889999999999 0.23977 0.208266
14480 -3.8538879300000004 7.93739853 -4.7424384900000005 -0.931006 0.29535500000000003 0.205695
14500 -3.97992681 6.996148649999999 -4.56625089 -0.819312 0.145072 0.128687
14520 -3.59282421 6.139627740000001 -4.07123829 -0.753234 0.028071 0.026749
14540 -2.83360869 6.144876090000001 -3.85044462 -0.6567149999999999 -0.041737 0.084129
14560 -2.92087845 6.77865114 -3.33671454 -0.632328 0.16058599999999998 0.082972
14580 -3.1561909200000002 7.871681340000001 -2.8059150600000002 -0.738434 0.260148 0.052193
14600 -2.6917070400000003 7.2359541 -2.294872920000001 -0.7179369999999999 0.400223 -0.096327
14620 -2.8533660300000006 7.015307580000001 -2.56356882 -0.574994 0.420819 -0.308999
14640 -3.1338829800000005 6.99435342 -2.60712522 -0.170202 -0.020292 -0.371836
14660 -3.6824876100000004 7.50150099 -2.7596609100000005 0.164632 0.3316 -0.217192
14680 -3.30213429 7.75926855 -1.6546625100000003 0.17097 1.302964 -0.181005
14700 -2.79453546 8.92668798 -0.75413394 0.068781 1.225013 -0.311942
14720 -2.92177116 9.04284819 -0.76850559 0.866907 0.6484300000000001 -0.669892
14740 -3.06457533 9.27171549 -1.1150340300000001 1.976344 0.11418 -0.695641
14760 -3.06457533 9.352854 -1.67291892 2.939552 -0.075012 -0.8382209999999999
14780 -2.66640705 9.7115076 -2.2080544200000003 3.595653 0.63948 -1.0631540000000002
14800 -2.06151264 10.148445 -2.0910015 3.67796 0.477218 -0.783565
14820 -1.9336785300000001 9.477843210000001 -1.41485706 3.186938 0.054623000000000005 -0.438213
14840 -2.94393195 10.066717890000001 -0.5953100400000001 2.609836 -0.309017 -0.109561
14860 -3.83382648 9.58532157 -0.33081282000000006 2.934377 -0.098819 0.056943
14880 -4.01749911 8.76681441 -0.9383951700000001 3.494478 -0.30226 0.097435
14900 -3.80419047 9.942621390000001 -1.0809050400000002 3.87595 -0.366607 0.140775
14920 -3.1663638900000004 10.83970665 -0.68033331 3.801346 -0.530733 -0.042202
14940 -3.25782252 11.5508826 0.60908328 3.458993 -0.316395 -0.332219
14960 -4.20685173 12.44677104 1.32609618 3.109268 -0.107251 -0.648988
14980 -5.03149014 13.92628581 1.13763627 2.83706 -0.181772 -0.691386
15000 -4.934037600000001 14.71140954 1.1261095200000002 2.771116 -0.13786099999999998 -0.692971
15020 -5.58339093 14.62564071 1.7263638000000001 2.603623 -0.192443 -0.750687
15040 -7.59894372 11.46271032 0.07978473 2.310931 -0.111225 -0.8276110000000001
15060 -5.2955361000000005 8.601564960000001 -0.26075961000000003 2.043124 -0.121981 -0.8358770000000001
15080 -3.2388107400000004 9.708358590000001 0.07888221 1.74302 -0.136069 -0.782408
15100 -3.2540849100000004 11.374842150000001 -1.1060480700000002 1.363351 -0.050803 -0.73069
15120 -4.26448548 11.153302920000002 -1.90688742 1.015835 -0.094852 -0.602738
15140 -4.32525843 9.827363700000001 -2.89378323 0.599121 0.000464 -0.368625
15160 -3.5594505900000004 10.054141470000001 -2.6179064100000002 0.170897 0.099205 -0.181599
15180 -2.8928807100000005 10.53464508 -1.6411835700000001 -0.115468 0.111479 -0.07252
15200 -2.7264344400000002 9.94756563 -1.0008162 -0.403001 0.117302 0.052582
15220 -3.7845802800000006 8.631348120000002 -1.30933089 -0.697299 0.054918 0.190544
15240 -5.27847651 6.343057710000001 -1.36156914 -1.060142 0.142029 0.298993
15260 -5.64041646 4.62897603 -2.39876082 -1.352333 0.283218 0.408934
15280 -4.30534413 3.74162229 -3.3542253900000003 -1.259834 0.028079000000000003 0.463318
15300 -3.43161648 4.2650838900000005 -4.25520522 -0.467141 -0.0394 0.400575
15320 -3.6309949200000005 5.82198975 -4.22331291 0.196313 -0.8999719999999999 0.049526
15340 -3.9490841700000003 6.014197080000001 -4.48302285 -0.918073 -0.13787 1.173081
15360 -3.96675198 5.1480918 -4.591256580000001 -2.110723 0.620436 1.184075
15380 -4.64274927 4.50293715 -4.65038145 -1.857171 -0.155197 0.726436
15400 -4.86892863 4.30818903 -5.338199790000001 -1.870216 0.31242600000000004 1.012029
15420 -4.836594870000002 4.07617272 -5.9502751200000015 -1.84149 -0.100366 0.8535940000000001
15440 -4.57433433 3.27833523 -6.04323468 -2.305638 0.22671 0.714268
15460 -4.59619101 2.4737582700000003 -5.79010725 -2.578513 0.276577 0.468744
15480 -4.70651427 2.7101106 -5.73667218 -2.6026 0.276002 0.367095
15500 -4.605618420000001 1.7342902800000002 -6.06344328 -2.697809 0.206078 0.35370100000000004
15520 -4.7424384900000005 1.33133472 -6.3298828799999995 -2.797061 0.261567 0.415962
15540 -4.615349940000001 1.55960361 -6.591839310000001 -2.912814 0.334706 0.6073390000000001
15560 -4.23155331 1.20334365 -6.93972153 -2.908432 0.420734 0.668149
15580 -4.2231657600000005 1.6958252700000003 -7.39672038 -2.769927 0.380826 0.671304
15600 -4.6997748 2.1654005400000003 -7.540417260000001 -2.65466 0.238399 0.757749
15620 -5.604796350000001 2.7520287299999997 -8.110878569999999 -2.476959 0.210838 0.835938
15640 -6.80170464 3.9820163400000004 -8.96216094 -2.143647 0.007423000000000002 0.534083
15660 -9.99516375 8.71143696 -12.80706291 -1.913829 0.16605699999999998 0.35816
15680 -10.834919370000001 11.25389466 -11.592938070000002 -1.711329 0.206438 0.207835
15700 -0.9436337100000001 4.14653004 -7.722441810000001 -1.492766 -0.019387 0.015235
15720 -5.557492530000001 2.0910015 -4.89153087 -1.27836 0.043494 0.088223
15740 -9.80805762 10.53509634 -6.49184598 -1.207072 0.156601 0.245605
15760 -7.447467510000001 10.15353639 -4.133502360000001 -1.163424 0.381188 0.254168
15780 -5.69805021 4.01779341 -4.758154110000001 -1.129745 0.189679 0.164918
15800 -3.86047044 4.9612799700000005 -4.538861370000001 -1.1181 0.112104 0.107414
15820 -4.465512 7.21020285 -4.476146040000001 -1.132399 0.252776 0.106066
15840 -4.36611708 7.70103639 -4.5693999 -1.093371 0.289376 0.243024
15860 -3.8928042 7.29582453 -4.75965504 -0.941725 0.051426 0.21020500000000006
15880 -3.6612391500000006 6.80141034 -4.509676620000001 -0.7020689999999999 -0.17363 0.073299
15900 -3.31007058 6.30099243 -4.10850648 -0.6498079999999999 -0.16746 0.08327000000000001
15920 -2.49531084 6.08574141 -3.60869679 -0.6784020000000001 -0.057888 0.145955
15940 -2.18276424 6.916962330000001 -2.84542974 -0.569045 0.107725 0.193508
15960 -2.33005158 7.578587970000001 -2.1165957900000003 -0.411171 0.18662 0.040686
15980 -2.736009 7.430398110000001 -1.9085355000000002 -0.353672 0.361168 -0.235806
16000 -3.79775511 6.84062091 -1.67860872 -0.247345 0.221484 -0.294704
16020 -4.6093658400000015 6.515350740000001 -1.8465559200000001 0.194504 0.35377600000000003 -0.194579
16040 -3.63653757 7.661668860000002 -1.9074858300000002 0.499353 0.8551639999999999 -0.103362
16060 -2.97565749 8.88971409 -1.2448105200000001 0.503378 1.008671 -0.133441
16080 -3.13493265 10.232575559999999 -0.9861502500000001 0.8762280000000001 1.0278770000000002 -0.464146
16100 -2.55174777 10.362352049999998 -1.1858328 1.62125 0.659651 -0.666774
16120 -2.74514211 9.12158325 -1.05694902 2.351608 0.276973 -0.706047
16140 -3.15438588 8.42927193 -1.1588945400000001 3.062826 0.078925 -0.8129890000000001
16160 -3.26530755 9.0582597 -0.60025428 3.851525 0.063693 -0.8843719999999999
16180 -3.3501836700000003 9.787544910000001 -0.80861868 3.853621 0.137922 -0.801131
16200 -2.9166895800000003 9.234447300000001 -1.0578515400000001 3.263011 -0.057818 -0.623408
16220 -2.30625252 9.63486207 -0.8402068800000001 3.274979 -0.072398 -0.451322
16240 -2.3575980600000004 10.64122092 -0.24519114 3.361781 -0.044661 -0.270222
16260 -3.3751795500000004 10.35336609 -0.66596166 3.526392 -0.265536 -0.3222
16280 -3.46125249 9.998008650000001 -0.8660954700000001 3.763214 -0.191161 -0.478738
16300 -3.06232884 11.65356387 0.0011968200000000001 3.638403 0.079733 -0.448978
16320 -3.0112874100000004 11.997551520000002 0.51552531 3.36608 -0.098869 -0.570293
16340 -4.90290066 12.582237330000002 0.9005285700000001 3.137867 -0.287905 -0.7842210000000001
16360 -6.23887551 13.030103070000001 1.07701047 2.993378 -0.215774 -0.848347
16380 -4.693486590000002 13.783187340000001 2.0540276100000003 2.740368 -0.35721 -0.956756
16400 -4.73315823 13.52273184 1.5310172700000002 2.476062 -0.220341 -1.122215
16420 -6.236334719999999 10.954817190000002 0.6599775600000001 2.185086 -0.197856 -1.1648690000000002
16440 -5.38400268 9.223823070000002 0.69604893 1.80449 -0.125195 -1.156938
16460 -3.66033663 9.08805267 0.78826293 1.461768 -0.138021 -1.115519
16480 -3.6217146600000003 10.43390619 0.5911211700000002 1.197309 -0.214332 -0.98374
16500 -4.321815120000001 11.300148810000001 -0.5116405499999999 0.851209 -0.185925 -0.8612120000000001
16520 -4.160303280000001 10.794050910000001 -1.45407744 0.426536 -0.009431 -0.674261
16540 -4.26269025 10.240659 -1.4323679100000002 -0.051227 0.173841 -0.537896
16560 -4.25325303 9.958935420000001 -1.6328058300000001 -0.504317 0.407014 -0.381127
16580 -3.7809898200000003 9.53577126 -1.70016129 -0.783857 0.320018 -0.22807600000000006
16600 -3.6848910600000004 8.908578720000001 -1.4516838 -0.878083 0.154634 -0.080039
16620 -5.13222903 6.72057594 -1.2954105 -1.014385 0.173485 0.118742
16640 -5.67635049 5.56512471 -2.01436578 -1.355522 0.444403 0.32965700000000003
16660 -5.2314669899999995 5.24179692 -3.4973238600000003 -1.437107 0.410287 0.407111
16680 -4.175567640000001 4.79153754 -4.45533903 -1.08334 0.083999 0.179264
16700 -3.4453897200000005 5.868999270000001 -4.571489430000001 -1.028566 -0.159898 -0.14691700000000002
16720 -3.7968525900000003 5.0927143500000005 -4.42375083 -0.809212 -1.291416 0.24383
16740 -4.00941567 4.7894382 -4.51116774 -1.654427 0.564443 1.204425
16760 -5.029537950000001 4.328848890000001 -4.25415555 -2.32218 0.07255 0.918381
16780 -4.783002840000001 3.8796293700000004 -5.17264623 -1.80735 0.096861 1.052269
16800 -4.31582121 3.1025988900000003 -5.2837150500000005 -2.088261 0.265191 1.291509
16820 -4.4768916 2.94422625 -5.503302090000001 -2.525888 0.355545 1.186855
16840 -4.84078374 2.2296168 -5.675752080000001 -2.950032 0.615159 1.100239
16860 -4.7626470900000015 2.01930021 -5.64445818 -3.104473 0.517252 0.943325
16880 -4.47105465 1.5012243 -5.823637830000001 -3.12528 0.282364 0.827044
16900 -4.20086763 0.5881291200000001 -6.58465839 -3.0940540000000003 0.335561 0.816512
16920 -4.27226481 -0.06885639 -6.87311163 -3.123053 0.563496 0.850201
16940 -4.283644410000001 0.10283823 -6.796917360000001 -3.238946 0.573912 1.009611
16960 -4.22870841 0.46118772 -7.48922868 -3.283149 0.363684 1.139895
16980 -4.64723244 1.4245885800000002 -7.595804520000001 -2.937134 0.580186 1.043758
17000 -5.3618517 1.91122344 -7.82976321 -2.743905 0.767313 0.966888
17020 -6.5274759 1.94190912 -8.44917642 -3.03189 0.054541999999999986 0.7094159999999999
17040 -8.511597450000002 2.37465765 -9.46975977 -2.922768 -0.091988 0.495653
17060 -10.57236453 5.182672050000001 -9.72048375 -2.414818 0.268993 0.358802
17080 -13.0637808 9.19747341 -15.21810585 -2.021586 0.14627 0.33820500000000003
17100 -2.6952975 8.00565651 -11.645931690000001 -1.6702290000000002 0.197352 0.31282
17120 -4.341425310000001 3.19540149 -3.99459276 -1.513763 0.403269 0.363855
17140 -10.454860350000002 4.367019600000002 -5.363499780000001 -1.305104 0.8645209999999999 0.452316
17160 -8.10400176 8.35307766 -5.348382570000001 -1.136631 0.935999 0.546337
17180 -6.52013802 6.117780870000001 -5.122948770000001 -0.976939 0.6827300000000001 0.607597
17200 -4.80321144 5.326977149999999 -4.50398682 -0.951123 0.725268 0.60345
17220 -4.57777764 6.646029750000001 -3.93905835 -0.902444 0.843468 0.5726600000000001
17240 -4.74812829 7.2834050700000015 -3.54328371 -0.7965939999999999 0.756302 0.434642
17260 -4.52793303 7.20871173 -3.9956424300000006 -0.7699699999999999 0.698872 0.3879
17280 -3.7908684900000003 6.5909466000000005 -4.1436851400000005 -0.6945279999999999 0.787351 0.307129
17300 -3.2668084800000003 6.25459113 -4.4364744 -0.752153 0.7748079999999999 0.297128
17320 -3.0404819700000005 6.00836013 -4.07932173 -0.840741 0.699752 0.229308
17340 -2.8110064500000003 5.506451100000001 -3.2262441300000004 -0.809792 0.608406 0.13563699999999998
17360 -2.47211019 5.813906310000001 -2.47749588 -0.760779 0.560434 0.101858
17380 -2.3692719600000003 6.54738039 -2.27467413 -0.772968 0.678796 0.083462
17400 -2.7241879500000006 7.6728915 -1.2880726200000001 -0.705295 0.767033 0.06993400000000001
17420 -4.1932256400000005 7.641009 0.32332778999999995 -0.560871 0.923912 0.140177
17440 -4.832396190000001 7.049740679999999 0.5825864700000001 -0.524003 1.194869 0.280024
17460 -5.12953128 7.69474818 0.9401904 -0.62408 1.498743 0.299232
17480 -4.13051031 8.720717220000001 1.04362704 -0.636283 1.610726 0.277639
17500 -2.83870008 9.919872000000002 1.4455427399999998 -0.4950020000000001 1.724166 0.291299
17520 -2.99856384 10.76561172 1.5777226800000002 -0.485671 1.894604 0.284736
17540 -3.13283331 10.73327796 1.35767457 -0.424052 1.806094 0.254302
17560 -3.3685970400000005 9.14897277 1.1319464700000001 -0.25333 1.739737 0.184008
17580 -2.8565052300000002 9.49894452 1.3840242299999999 0.068237 1.7602259999999998 0.109316
17600 -2.5881134400000003 9.67468086 1.50841503 0.5137510000000001 1.819711 0.032235
17620 -2.7348121800000005 9.414372510000002 1.66648356 1.098123 1.711329 -0.010546
17640 -2.7193908600000003 9.12667464 1.85045049 1.7605650000000002 1.811752 -0.123552
17660 -2.4748079400000003 8.798108310000002 1.61798292 2.272155 2.226052 -0.543525
17680 -2.44441656 8.670117240000002 1.6049650500000001 2.579848 2.736226 -1.318627
17700 -2.81818737 8.55545796 1.6416348300000003 2.585561 3.222265 -1.391849
17720 -3.4560139500000004 9.07337691 1.21711689 2.11625 3.112924 -0.814942
17740 -2.9831425200000004 9.44880561 0.17513793000000002 1.751093 2.824396 -0.805373
17760 -2.168991 9.02847654 0.28829628 1.637743 1.856298 -0.766468
17780 -1.54194561 9.369462330000001 0.91624419 1.798546 0.492629 -0.8768290000000001
17800 -2.1459375 10.25382402 0.9285165000000001 2.56658 1.24591 -1.042277
17820 -2.17198305 10.90497258 0.54950715 2.997058 1.176976 -1.22612
17840 -3.66318153 10.21670298 1.31770863 2.838556 0.932006 -1.099795
17860 -4.95783666 9.262288080000001 0.8434932300000001 2.029082 0.449358 -1.17747
17880 -4.772672910000001 8.72176689 -0.09789399 1.1519629999999998 0.220983 -1.380925
17900 -3.0097864800000003 9.70342416 0.24533829000000001 0.587069 0.464182 -1.502687
17920 -1.97873586 10.177933860000001 0.33365772000000005 0.058498 0.484703 -1.3814229999999998
17940 -2.05013304 10.29215169 0.1357704 -0.514304 0.45932 -1.197385
17960 -2.14773273 10.96724646 0.75038652 -1.045095 0.551921 -0.984362
17980 -2.6375166 12.48942492 2.07842508 -1.390116 0.936722 -0.744779
18000 -3.7847274300000002 11.79442566 2.38603725 -1.662782 1.242585 -0.540909
18020 -4.42300527 10.30980969 3.12190497 -1.927484 1.4089200000000002 -0.349622
18040 -5.3272714500000005 8.03888298 2.74947813 -2.1688080000000003 1.331168 -0.143973
18060 -6.537354570000001 8.801551620000001 1.4864112000000003 -2.3404 1.109329 0.069825
18080 -8.275088160000001 10.478061 0.05792805 -2.373894 0.8206950000000001 0.350903
18100 -9.37575054 11.84666391 -0.73272852 -2.109968 0.524446 0.680002
18120 -6.22794717 10.293642810000001 0.34503732000000004 -1.576714 0.172512 0.848684
18140 -5.099748120000001 10.28751156 0.9143018100000001 -0.564521 0.6022569999999999 0.3948
18160 -3.6904239000000003 11.06439489 2.72163735 0.67684 1.214352 -0.304476
18180 -2.82717333 10.44318645 2.18305854 0.8607799999999999 0.279903 -0.147102
18200 -3.43161648 8.269104060000002 -0.3529638 0.225058 -0.591483 0.13479000000000002
18220 -4.56880149 6.1390293300000005 -2.82462273 -0.742056 -0.677706 0.158055
18240 -4.69723401 5.21306343 -3.9591198000000003 -2.006753 -0.182675 0.269296
18260 -4.28828454 4.99286817 -2.95814664 -2.723491 0.046948 0.210584
18280 -3.74640957 5.37726321 -1.9782846 -1.926136 0.740218 0.108443
18300 -3.7723079700000004 5.870196090000001 -2.35625409 -0.0758 0.528379 0.065023
18320 -3.7080917100000006 5.600901780000001 -3.5256159 0.5760430000000001 0.061591 0.081925
18340 -3.4138015200000003 5.35032495 -3.89550195 -1.011602 0.607896 0.17161600000000002
18360 -3.83098158 5.14091088 -3.9851653500000004 -3.126684 1.180084 0.372958
18380 -4.11913071 4.86503406 -4.5214976700000005 -3.173669 1.415752 0.6190869999999999
18400 -4.3553457 4.73749425 -4.92685668 -2.294448 1.444732 0.8676780000000001
18420 -4.06749087 4.657111110000001 -4.93882488 -1.764975 1.7708990000000002 0.8933909999999999
18440 -3.83442489 5.06172456 -4.83539805 -1.654041 2.25091 0.904233
18460 -3.5763630300000004 5.929468110000001 -4.98628566 -1.717238 2.282627 0.753132
18480 -3.3606607500000005 7.431594929999999 -5.52111705 -1.663454 2.206441 0.5784159999999999
18500 -2.5896143700000005 10.05818319 -6.69871926 -1.18414 2.4499 0.285555
18520 -1.82859381 12.3550083 -7.059315240000001 -1.242432 2.643441 0.154577
18540 -5.51946897 12.063710160000003 -7.39177614 -1.605058 2.915252 0.16130999999999998
18560 -10.80138879 7.4184201000000005 -8.02661067 -1.801353 2.816319 0.296798
18580 -8.94569976 2.8370520000000004 -7.42545387 -1.540017 2.184396 0.390232
18600 -6.7079995199999995 2.94377499 -5.68712187 -1.245533 1.7241959999999998 0.401424
18620 -4.97505321 6.388860600000001 -2.5863182100000004 -1.018711 1.812044 0.347348
18640 -5.095107990000001 12.41728218 -0.9819613800000001 -1.00759 2.116808 0.313921
18660 -9.55402767 14.52923784 0.6412698900000001 -1.033873 2.158626 0.268818
18680 -11.125314990000001 11.124265320000001 0.6095345400000001 -0.901841 2.049711 0.218605
18700 -6.55217748 6.64932591 -0.83645946 -0.550198 1.912297 0.178509
18720 -2.7165557700000003 5.33685582 -0.9156457800000001 -0.452697 1.885804 0.059583
18740 -1.7107953300000003 7.18879743 1.41650514 -0.608092 1.753097 0.0811
18760 -3.85613442 9.10945809 2.18200887 -0.610973 1.602838 0.097296
18780 -3.9609150300000002 10.053395909999999 1.47084273 -0.438619 1.614433 -0.021156
18800 -3.8393691300000006 10.758273840000001 0.00673947 -0.423745 1.510347 -0.111717
18820 -4.62343338 9.12203451 -0.19578798 -0.533565 1.474716 -0.163714
18840 -4.92730794 8.102353680000002 0.01751085 -0.596577 1.433498 -0.190806
18860 -5.20137972 7.93544634 0.4366431 -0.499082 1.29464 -0.18247
18880 -4.932242370000001 8.68748094 0.08756406 -0.375031 1.141795 -0.16218
18900 -3.5563015800000004 9.31228965 0.2956341600000001 -0.361713 1.10306 -0.07764700000000001
18920 -2.94362784 10.22913225 1.72680525 -0.4498140000000001 1.018997 -0.024744
18940 -3.1057380900000005 11.03699556 3.65210604 -0.488686 0.933837 -0.006747
18960 -2.84618511 10.965451230000001 4.486024710000001 -0.469768 0.612142 -0.027567
18980 -2.10582441 10.16880075 3.70000827 -0.531207 0.439914 -0.06089
19000 -1.7013581100000001 9.989925209999999 2.18470662 -0.722916 0.4864979999999999 -0.088994
19020 -1.93726899 9.953098469999999 1.40677362 -0.7941010000000001 0.291894 -0.112743
19040 -2.9047115700000004 9.64324962 0.8780734800000001 -0.960388 0.29897 -0.139551
19060 -2.9150415000000005 9.07547625 1.2308901300000001 -1.09248 0.452284 -0.269925
19080 -2.07349065 8.65454877 1.23822801 -0.982713 0.377523 -0.317132
19100 -1.26307674 9.615850290000001 0.73617183 -0.6241300000000001 0.703055 -0.250952
19120 -1.35498663 10.157274000000001 0.18875421000000003 -0.153013 0.710568 -0.140848
19140 -1.8217071900000001 9.17756892 -0.054190440000000006 0.208467 0.112011 -0.219809
19160 -1.47892617 8.47237707 -0.10178856 0.47919 0.81066 -0.411094
19180 -1.62996093 9.07054182 -0.39996351 0.59483 1.224312 -0.32642600000000005
19200 -2.15431524 9.74159487 -0.25641378000000004 0.697275 1.81569 -0.452519
19220 -2.7892969200000004 9.45972414 0.16121754000000002 1.004217 2.041283 -0.390843
19240 -3.0542454 8.38526427 0.31330197000000004 1.321047 1.423925 -0.524572
19260 -3.02341257 7.99876989 -0.22168638000000002 1.630287 0.755666 -0.443575
19280 -2.69918226 8.93237778 -1.02910824 2.007868 0.075553 -0.387723
19300 -1.8050988600000002 9.41871834 -1.6281657 2.397168 -0.4179890000000001 -0.37903
19320 -1.02237858 9.75640797 -1.28252997 2.586839 -0.418857 -0.32643
19340 -1.8805377600000002 10.088721720000002 -1.1593359900000002 3.087459 -0.067169 -0.264631
19360 -2.76864687 9.81434583 -1.6247223900000003 3.448275 0.661408 -0.292955
19380 -3.21396201 9.353599560000001 -1.09407006 3.300852 0.134647 -0.302924
19400 -3.36844989 9.430235280000002 -0.03847482 3.4642510000000004 -0.111708 -0.109187
19420 -3.66018948 9.68620761 -0.06706116000000001 3.87203 -0.245438 -0.053824
19440 -4.28543964 10.739271870000001 -0.06765957 4.284804 0.059441 -0.197678
19460 -5.8335165 11.33068734 -0.08891784 4.3060480000000005 0.239545 -0.23408
19480 -5.5815957 12.270730590000001 0.7381142100000001 3.834312 0.154029 -0.284267
19500 -4.67283654 14.050529460000002 3.3623088300000004 3.316383 0.071463 -0.499287
19520 -5.198240520000001 13.34998755 1.68774183 3.197318 0.270556 -0.6339020000000001
19540 -5.811365520000001 11.00422035 -1.90718172 3.06659 0.38063 -0.874237
19560 -4.14907083 11.77451136 -2.32361622 2.699657 0.251469 -1.022981
19580 -1.20080286 11.677814190000001 -0.2601612 2.314148 -0.050853 -1.009263
19600 -0.92523015 11.29057425 2.5938032399999997 1.880992 -0.000542 -0.961079
19620 -4.66729389 11.000178629999999 3.9944456100000005 1.479284 0.174251 -0.901084
19640 -6.05999997 10.065521069999999 3.1545428400000004 1.0385719999999998 0.047431 -0.772608
19660 -5.710175370000001 9.35689572 2.01884895 0.592101 0.13128299999999998 -0.5760770000000001
19680 -4.759056630000001 9.885291750000002 0.9005285700000001 0.30564 0.149838 -0.439233
19700 -4.06913895 10.79674866 0.9282222 0.138131 0.034872 -0.315274
19720 -4.068089280000001 11.022025500000002 0.7080269400000001 -0.12798800000000002 0.09586 -0.151636
19740 -4.132011240000001 10.78357383 0.53288901 -0.443144 0.169786 0.015915000000000002
19760 -4.28424282 10.4060556 -0.00808344 -0.708821 0.207824 0.05780800000000001
19780 -4.92146118 9.114990930000001 -0.36224406000000003 -0.910573 0.219036 0.092704
19800 -5.99907006 6.18244839 -0.01856052 -1.131615 0.230239 0.14669300000000002
19820 -5.485938389999999 5.44552119 0.09714843000000001 -1.45263 0.341804 0.230833
19840 -5.1802784100000006 6.18259554 -0.98210853 -1.502837 0.160599 0.301218
19860 -5.053641120000001 5.961056310000001 -3.2934524400000003 -1.151961 -0.484438 0.399567
19880 -5.31664722 5.97122928 -4.35564 -1.048656 0.24044 0.4538390000000001
19900 -4.84303023 6.38392617 -3.4341572700000005 -0.916282 -1.199295 -0.056138
19920 -4.524636870000001 6.6900374099999995 -2.4869331000000003 -1.531456 0.322139 0.42152
19940 -4.32390465 5.3612532900000005 -4.53676203 -2.677699 0.141252 0.563296
19960 -4.448599560000001 4.4740467 -5.97227895 -2.5485990000000003 0.356193 0.7786350000000001
19980 -4.18439664 4.39216263 -5.97946968 -2.112403 -0.030501 0.666809
20000 -3.9956424300000006 3.7564353900000005 -5.737869 -2.0644430000000003 -0.059359 0.649022
20020 -3.8040433200000003 3.12190497 -5.63742441 -2.369093 0.111779 0.473622
20040 -3.76152678 2.99167722 -5.689819620000001 -2.710926 0.241808 0.221104
20060 -3.9821733000000004 2.11450626 -5.95910412 -2.871404 0.255653 0.094984
20080 -4.09099563 2.24174196 -6.199203870000001 -2.880049 0.209961 0.073617
20100 -4.330644120000001 2.2781174400000004 -6.42494178 -2.829305 0.364276 0.333352
20120 -4.17721572 2.0871069300000005 -6.33243348 -2.846492 0.419512 0.653628
20140 -4.27720905 1.78893198 -7.030876050000001 -2.726552 0.504376 0.639402
20160 -4.22945397 1.7422265700000001 -7.400762100000001 -2.591785 0.22952 0.526395
20180 -4.137691230000001 1.49389623 -7.522160850000001 -2.31732 -0.0671 0.406915
20200 -4.7066614200000005 1.72141956 -7.95536064 -2.181239 -0.13071 0.212463
20220 -5.21890038 2.22122925 -8.68314492 -1.869958 -0.154404 0.0074319999999999985
20240 -5.57994762 3.62845413 -10.40786064 -1.464315 -0.125904 -0.012203
20260 -6.0134417099999995 5.07624336 -11.20734621 -1.213825 -0.248884 0.155278
20280 -5.9718276900000005 5.998177350000001 -7.685919180000001 -1.1659 0.051028 0.23748200000000005
20300 -14.619352500000002 15.64186842 -12.9857913 -1.17808 0.123775 0.171074
20320 -5.83546869 6.59603799 -8.8265475 -1.116406 0.169953 0.025099
20340 -4.908737610000001 0.5544513900000002 -3.8586752100000004 -0.927945 0.058616 -0.001216
20360 -5.43714345 6.132898080000001 -5.49581706 -0.791758 -0.187174 0.074826
20380 -6.01300026 12.50080452 -5.238510570000001 -0.777217 -0.01156 0.101408
20400 -5.74026264 8.871899130000001 -4.18499505 -0.766705 0.036961 -0.053473
20420 -4.21658325 4.00477554 -4.9135347 -0.633934 -0.322537 -0.043539
20440 -3.9179570400000006 4.03965009 -5.210512830000001 -0.521666 -0.431883 0.031093
20460 -2.9933253000000004 6.670280070000001 -4.416412950000001 -0.522796 -0.139316 -0.138069
20480 -2.8201395600000003 8.318350259999999 -3.6286012800000003 -0.54252 -0.066612 -0.187438
20500 -3.9330742499999998 7.711366320000001 -3.6639270900000005 -0.451187 -0.196745 -0.224021
20520 -4.43437506 6.64557849 -3.8815815600000003 -0.226573 -0.049649 -0.440558
20540 -3.99683925 6.368808960000001 -3.0220686000000003 0.173497 0.275631 -0.347382
20560 -2.6204472000000005 6.86651931 -2.36448468 0.314499 0.33057600000000004 -0.091162
20580 -1.73579121 7.115457870000001 -2.04938748 0.4981 0.08493200000000001 -0.358757
20600 -1.78458615 7.27367355 -1.75404762 1.343927 -0.117775 -0.748899
20620 -2.84542974 7.46347743 -1.0870362900000001 2.53724 -0.157519 -0.901815
20640 -4.49918973 7.84967751 -1.45901187 3.328319 0.063956 -1.029032
20660 -4.59693657 9.22636386 -2.22512382 3.324011 -0.060094000000000015 -0.906058
20680 -3.3018301800000005 9.05945652 -1.81273104 2.965151 -0.475839 -0.523472
20700 -2.3944248 8.10340335 -1.89072054 3.000501 -0.000505 -0.077317
20720 -2.4281025300000003 8.760977460000001 -1.4162010300000003 3.076277 0.190237 0.108838
20740 -3.48430599 10.13258223 -0.96399927 3.303914 -0.021237 0.048743
20760 -3.38041809 10.36564821 -1.3253408100000001 3.547114 -0.370027 -0.050593
20780 -2.42585604 8.928031950000001 -1.2376296 3.649837 -0.633134 -0.143542
20800 -2.9982695400000003 9.1883403 -1.02057354 3.705561 -0.227914 -0.029372
20820 -3.34179612 9.91088604 -1.0234184400000002 3.476431 0.490017 -0.08103099999999999
20840 -2.43767709 9.75685923 -1.0240168500000002 3.092301 0.492258 -0.308043
20860 -2.97865935 11.40882399 -1.56904083 2.900014 0.101305 -0.40823
20880 -4.1990724 11.42917974 -1.9622648700000003 3.0056700000000003 -0.193882 -0.473344
20900 -3.92289147 10.43135559 -1.63115775 2.752986 -0.173756 -0.492226
20920 -4.70366937 11.61868932 -0.44697303 2.34626 0.022556 -0.481432
20940 -5.889502169999999 15.20538228 0.93630564 1.963592 0.093158 -0.489536
20960 -6.14067741 16.30035486 2.7345178800000003 1.561049 -0.047909 -0.560533
20980 -7.970477850000001 13.13219574 0.36119439 1.108899 -0.145776 -0.469563
21000 -6.20983791 10.095157080000002 -0.7906565700000001 0.544455 -0.275325 -0.350494
21020 -4.7204346600000004 10.225836090000001 -0.9617527800000001 0.037604000000000005 -0.136766 -0.196115
21040 -5.2518325500000005 11.11378824 -1.1570895 -0.385174 0.244175 0.010884
21060 -6.812181720000001 11.776905 -1.95343587 -0.692394 0.534825 0.053229999999999986
21080 -6.30624078 10.05100227 -1.71049122 -0.8166100000000001 0.4627 0.082365
21100 -4.06569564 9.26018874 -0.01961019 -1.096437 0.278897 0.202424
21120 -2.47794714 9.71763885 0.64022022 -1.500384 0.144008 0.451875
21140 -2.3716656 10.953620370000001 -0.91504737 -1.325335 0.047029 0.576068
21160 -3.3590126700000003 9.19477566 -1.0916764200000002 0.095095 -0.010814 -0.042051
21180 -5.49387468 4.91487867 -1.5004787400000001 -0.540218 -1.467075 0.515126
21200 -6.9210040500000005 2.83929849 -0.78122916 -1.6688029999999998 1.014641 1.0541969999999998
21220 -5.335502040000001 3.77664399 -1.399887 -2.30153 0.09828 0.85974
21240 -3.7200599100000002 5.142706110000001 -2.6912557800000005 -1.756731 0.35270300000000004 0.9647
21260 -2.53812168 5.90507064 -3.37353147 -1.918757 0.028833 0.845411
21280 -2.73421377 5.90028336 -3.15693648 -2.289405 0.266116 0.702581
21300 -3.8091249000000005 5.641014870000001 -3.7895245200000005 -2.67669 0.4794390000000001 0.438956
21320 -3.9175057800000004 5.54596578 -4.62732795 -2.828092 0.490552 0.188989
21340 -4.66115283 3.9986344800000007 -5.27862366 -2.925023 0.428429 0.091183
21360 -5.07310416 2.76205455 -5.978714310000001 -2.855909 0.251962 0.205123
21380 -4.6009782900000005 2.8913895899999997 -4.90110543 -2.842445 0.223016 0.505425
21400 -4.26118932 2.63617263 -4.55906997 -2.784767 0.334279 0.602893
21420 -3.9832131600000005 2.6646118199999997 -5.069356740000001 -2.7155720000000003 0.487639 0.552974
21440 -4.304598570000001 3.56154012 -5.76286488 -2.701528 0.412524 0.677082
21460 -5.123400030000001 2.82088512 -6.86292885 -2.621836 0.21578000000000006 0.791122
21480 -5.60405079 1.63460106 -7.4878749 -2.284574 0.101194 0.649415
21500 -4.694085 1.9375731 -7.95116196 -1.867805 0.111918 0.270957
21520 -3.6827917200000004 2.31089265 -7.986193470000001 -1.545423 0.052496 -0.06641
21540 -3.72620097 3.1183145100000003 -8.248002750000001 -1.314823 0.038038 -0.113919
21560 -5.861661389999999 4.56985116 -8.74032741 -1.195346 -0.053527 0.036584
21580 -14.115344129999999 15.10209279 -15.701003100000001 -1.257442 0.215881 0.11699
21600 -7.89188994 6.78598902 -11.934080820000002 -1.267334 0.393796 0.122034
21620 -2.16389961 3.9519290700000003 -4.84916148 -1.143269 0.231414 0.129518
21640 -6.611596649999999 4.18125744 -4.581525060000001 -0.957577 0.195803 0.082791
21660 -8.34245343 10.007887320000002 -5.62065912 -0.8906620000000001 0.098753 0.052404
21680 -8.120462940000001 6.76383804 -5.878573830000001 -0.8306709999999999 0.00126 0.138406
21700 -5.49387468 3.96360297 -4.58781327 -0.766865 0.014646 0.198655
21720 -4.672983690000001 5.4253224 -4.21448391 -0.8360219999999999 0.181525 0.084727
21740 -4.57463844 7.01097156 -4.32196227 -0.801017 0.120746 0.069026
21760 -4.00686507 8.16057603 -4.00492269 -0.5814779999999999 0.024279 0.026886
21780 -3.91705452 8.077504950000002 -3.5235263700000004 -0.495463 0.07443999999999999 -0.070854
21800 -3.6116888400000002 7.42949559 -3.57366528 -0.539814 0.361365 -0.123875
21820 -2.65113288 6.7997622600000005 -3.3970362300000003 -0.503548 0.559531 -0.16126300000000002
21840 -1.9553880600000002 7.181018100000001 -2.90426031 -0.27218000000000003 0.627452 -0.297534
21860 -1.7134832700000002 7.81404759 -1.89985365 0.118514 0.892488 -0.315441
21880 -1.8684126 7.78156668 -1.16997003 0.366416 1.14438 -0.385603
21900 -2.93764374 7.48892457 -1.0255177800000002 0.626402 0.986041 -0.707256
21920 -3.74760639 7.17068817 -0.997677 1.317482 0.479538 -0.915424
21940 -3.80299365 6.89331042 -1.01204865 2.399986 0.041591 -1.024806
21960 -3.67889715 7.776926550000001 -0.9354031200000001 3.52782 0.242457 -1.085551
21980 -3.52082862 8.980123050000001 -1.36156914 4.113995 0.238813 -0.948993
22000 -2.9624924700000004 9.465570900000001 -1.14017706 3.687524 0.278961 -0.496961
22020 -2.89648098 10.21251411 -1.10800026 2.85072 0.4969270000000001 -0.200778
22040 -2.6490433500000004 9.80805762 -0.87133401 2.870252 0.364636 -0.168425
22060 -2.8952743499999998 8.92324467 -0.6899176800000001 3.324879 0.308003 -0.252772
22080 -3.10993677 9.42245595 -1.00425951 3.770953 -0.340438 -0.450719
22100 -2.7919946700000002 9.87392196 -1.08599643 4.100261 -0.214692 -0.480626
22120 -2.30086683 10.729540349999999 -0.8617594500000001 3.739786 0.260729 -0.5115270000000001
22140 -2.6158070700000002 10.66697217 -0.55608966 3.116035 0.5494859999999999 -0.786514
22160 -3.4160480100000004 8.98940331 -0.45580203 2.848001 0.134394 -0.911768
22180 -3.2885082000000003 10.095608340000002 0.09430353000000001 2.882464 -0.21652 -1.098017
22200 -2.59679529 12.210703200000001 0.20252745000000003 2.641123 -0.260444 -1.093237
22220 -3.68683344 12.8266731 -0.054190440000000006 2.154723 0.020269 -1.074562
22240 -6.11014869 12.4070994 -0.32467176000000003 1.583342 -0.017534 -0.982364
22260 -7.037311409999999 12.225526110000002 -0.07663572 1.1193030000000002 -0.034861 -0.776212
22280 -6.23049777 13.233680190000001 1.75090842 0.610916 0.117078 -0.503288
22300 -5.898036870000001 12.8061702 2.410591680000001 0.102941 0.364873 -0.226212
22320 -6.086339820000001 9.56331774 0.69245847 -0.33789600000000003 0.345104 0.03779
22340 -5.316048810000001 8.86216761 -0.41329530000000003 -0.594012 -0.14498 0.273774
22360 -4.88853882 10.67384898 -1.25798535 -0.983078 -0.023316 0.555048
22380 -5.3100549 12.34168632 -1.57098321 -1.303367 0.194043 0.821724
22400 -5.26814658 11.855492909999999 -2.00238777 -1.04188 -0.152446 0.929748
22420 -4.02348321 10.86874425 -1.3992885900000003 -1.996918 -0.02939 1.087426
22440 -2.93943897 11.197310580000002 0.5117877000000001 -2.4406950000000003 0.8706459999999999 1.501916
22460 -2.53752327 11.07187992 -0.14280417 -0.390639 -1.803413 0.845614
22480 -3.6176729400000003 8.99479881 0.28575549 -1.440067 0.8247389999999999 1.724745
22500 -5.75388873 5.6712591 -0.32856633 -2.431576 0.045159 1.734841
22520 -6.79557339 3.96360297 -1.1493101700000001 -1.912647 -0.574723 1.258561
22540 -5.19314913 4.06015299 -2.8129488300000003 -2.249585 -0.337208 0.496397
22560 -3.1903199100000004 5.42382147 -3.3521260500000007 -2.391045 0.089869 0.11137
22580 -2.69439498 6.15399939 -3.2090275800000003 -2.523472 0.079709 0.368968
22600 -2.7129555000000005 6.05117097 -2.50219746 -2.706996 0.092 0.384762
22620 -3.8594207700000003 5.34673449 -3.4640973900000005 -2.961933 0.06640499999999999 0.346694
22640 -5.02265133 4.16449215 -4.57987698 -3.0533810000000003 0.347099 0.560408
22660 -4.8270105 3.05245017 -5.7471492600000005 -2.944635 0.406178 0.876218
22680 -4.20699888 2.9728224000000005 -5.82872922 -2.512122 0.240707 0.85595
22700 -4.43721996 2.8129488300000003 -6.133496490000001 -2.136073 -0.400777 0.577388
22720 -5.06038059 2.5346783700000004 -6.032306340000001 -2.039468 -0.344467 0.265002
22740 -5.34238866 1.26427356 -5.9749767 -2.061935 -0.070923 0.076487
22760 -4.96412487 1.2271525200000002 -6.4018882800000005 -1.6849880000000002 0.34164 -0.05920900000000001
22780 -4.38902343 2.47001085 -7.23265794 -1.270506 0.279244 0.000382
22800 -3.96854721 3.36260313 -8.46025191 -1.130212 -0.123623 0.19309
22820 -5.15542968 3.93666471 -10.250979120000002 -1.117679 0.285423 0.187312
22840 -5.84040312 4.37794794 -9.91867518 -0.948614 0.5514819999999999 0.105899
22860 -3.4856499600000004 3.2370155100000004 -2.07693396 -0.813769 0.356269 0.055816
22880 -8.34125661 12.367427759999998 -14.43582702 -0.827702 -0.153755 0.273221
22900 -11.33293383 18.4976379 -12.48853221 -0.81985 -0.370727 0.4466060000000001
22920 -0.42901092 2.65937328 0.43200297000000004 -0.811508 -0.03693 0.34796
22940 -4.44695148 -1.2840309 -2.7764262 -0.670848 -0.015397 0.169454
22960 -5.096599110000001 8.14904928 -3.68593092 -0.478304 -0.013494999999999998 0.059701
22980 -8.227490040000001 12.129280200000002 -4.5955926 -0.223591 0.503881 -0.073778
23000 -7.56452043 7.14988116 -4.1706234 -0.013499 0.985505 -0.285504
23020 -4.12092594 4.7834541 -3.8628640800000005 0.327758 0.8186720000000001 -0.418571
23040 -3.0053033100000004 6.44484627 -3.97992681 0.954586 1.022833 -0.336474
23060 -3.0798495000000004 7.4443185000000005 -4.3354314 1.145612 1.037071 -0.333021
23080 -2.9526138000000004 8.11028016 -3.18522852 1.577027 0.516031 -0.9425
23100 -2.40954201 7.791445350000001 -1.4688905399999999 2.40118 0.244242 -1.088082
23120 -1.40378157 7.45539399 -1.5164984700000002 3.541972 0.470776 -0.919102
23140 -2.1594066300000003 6.86367441 -1.6434300600000002 4.185268 0.354029 -0.786273
23160 -3.98890296 6.799163850000001 -1.3564777500000003 3.586632 -0.068066 -0.472651
23180 -4.92191244 7.36019775 -0.8271792000000001 3.029306 0.09891 -0.454326
23200 -4.63017285 8.127800820000001 0.029341710000000003 3.141475 0.07637000000000001 -0.509061
23220 -4.80216177 9.57648276 -0.82299033 3.393237 0.163429 -0.65376
23240 -3.6007605000000003 10.414296000000002 -0.62420049 3.5158720000000003 -0.508336 -0.5997
23260 -2.33889039 9.23564412 -0.15462522000000004 3.48343 -0.417366 -0.4109680000000001
23280 -2.4840882 8.922195 -0.17767872 3.383188 -0.034173 -0.51364
23300 -3.1593301200000004 9.94426947 -0.060920100000000005 2.985993 0.048407 -0.840192
23320 -3.00200715 10.57296294 -0.6253973100000001 2.672439 -0.281329 -0.959464
23340 -2.5725547800000004 10.38315906 -1.6093010700000001 2.461282 -0.296433 -0.995102
23360 -2.44755576 11.309733180000002 -1.5964303499999999 2.15619 -0.040808 -0.986879
23380 -3.34119771 11.368858050000002 -1.39330449 1.931099 0.16784100000000002 -1.021833
23400 -5.191353899999999 12.07030248 -1.4126105700000002 1.535837 0.039314 -1.038316
23420 -5.7113721900000005 11.756853360000001 -1.13553693 1.171601 0.072028 -0.911648
23440 -5.879770649999999 11.52154089 -0.48559500000000005 0.756467 0.235701 -0.723545
23460 -5.81645691 12.987145080000001 0.9259757100000001 0.323577 0.292724 -0.489497
23480 -4.65801363 13.452374520000001 2.38379076 -0.035128 0.410474 -0.321238
23500 -6.20534493 9.953549729999999 0.92882061 -0.35443600000000003 0.506798 -0.156949
23520 -6.191130240000001 8.111182680000002 -0.72524349 -0.56362 0.399345 -0.010858
23540 -6.18439077 10.5560505 -1.0044066600000001 -0.756777 0.287614 0.125737
23560 -4.9021551 12.46533156 -1.3572233100000002 -1.07867 0.299725 0.306139
23580 -2.41073883 12.43075131 -2.29847319 -1.394156 0.31288 0.486584
23600 -1.6281657 12.852424350000001 -1.66079376 -1.301123 0.024373 0.626472
23620 -2.12348241 11.237884740000002 -1.7583934500000002 -1.073699 -0.273122 0.766243
23640 -3.1174218000000002 9.222174990000001 -1.29735288 -0.228238 -0.741297 0.429849
23660 -5.304070800000001 6.21253566 -1.13134806 -0.4826180000000001 -0.360876 1.152907
23680 -7.003035270000001 4.02348321 -1.3392612000000002 -2.431451 0.750293 1.22226
23700 -5.3649909000000005 3.6956624400000004 -1.3970421 -1.754579 -0.110621 1.2109999999999999
23720 -3.54073311 3.4170976800000004 -2.90980296 -1.969347 0.213334 1.369318
23740 -2.9075564700000003 4.19847399 -3.52800954 -1.960674 -0.131399 0.99167
23760 -3.0741597 4.771024830000001 -3.65704047 -2.446063 0.128994 0.7636189999999999
23780 -3.64926114 5.27742684 -4.242923100000001 -2.824176 -0.077085 0.413002
23800 -3.8814246000000003 4.625385570000001 -4.64050278 -2.943854 -0.193655 0.098258
23820 -4.75321968 3.59058753 -4.52479383 -3.03413 -0.022155 0.178592
23840 -5.66571645 3.7470079800000002 -5.33655171 -3.17457 0.203722 0.556541
23860 -5.78756646 3.8242519200000005 -5.6317346100000005 -3.104564 0.379241 0.8249290000000001
23880 -4.98732552 3.0770046 -6.1269041699999995 -2.913641 0.30225 0.998345
23900 -4.5870579000000005 2.4578856900000003 -6.54543801 -2.643921 0.15153 0.893599
23920 -4.33198809 2.20821138 -6.624918630000001 -2.327737 0.026639 0.683392
23940 -4.52448972 2.03456457 -6.736889970000001 -2.105674 -0.026097 0.359203
23960 -4.61326041 1.72680525 -6.941369610000001 -2.276665 -0.202948 0.245004
23980 -4.41506898 1.7958186 -7.183715850000001 -2.001747 -0.113069 0.17417
24000 -4.27840587 2.24009388 -7.27053435 -1.398659 -0.026835 0.1975
24020 -5.6595852 3.22084863 -7.92691164 -1.310078 -0.231781 0.224018
24040 -7.047042930000001 4.22077212 -9.3995496 -1.225297 -0.109617 0.23620500000000005
24060 -7.17263055 5.07130893 -10.22149026 -1.106562 0.214806 0.254778
24080 -9.1416447 10.74855213 -12.86799282 -1.011074 0.37198 0.2937
24100 -8.931475260000001 13.73618763 -13.074257880000001 -0.980605 0.263232 0.289779
24120 -1.0373388300000002 1.12221495 -2.498607 -0.829235 0.122539 0.177785
24140 -7.6811319000000005 -1.4976338400000002 -4.89002994 -0.581059 -0.016618 0.13055899999999998
24160 -5.33041065 11.091784409999999 -4.926258270000001 -0.477616 -0.060519 0.097154
24180 -7.75896444 11.91492189 -4.87835604 -0.407263 0.133236 0.067487
24200 -6.10295796 4.8957197400000005 -5.17384305 -0.430651 0.280763 -0.041824
24220 -3.9639070800000002 4.11628581 -4.5533801700000005 -0.437896 0.011601 -0.123783
24240 -3.4956855900000003 6.662795040000001 -3.4480776600000005 -0.293685 0.208499 -0.204213
24260 -4.4134209 8.29709199 -3.47711526 -0.049544 0.280594 -0.329718
24280 -4.93898184 8.07315912 -3.5221725900000003 0.406814 0.304233 -0.243239
24300 -4.299360030000001 7.241791050000001 -3.5494149600000005 0.728292 0.733021 -0.126175
24320 -3.3910521300000003 6.82281576 -2.67134148 0.7348819999999999 0.659848 -0.480685
24340 -2.00837187 6.21687168 -1.59508638 1.257611 0.182662 -0.947508
24360 -1.27355382 5.664225330000001 -1.92289734 2.362727 0.161687 -0.922671
24380 -2.0360655000000003 6.8156250300000005 -2.4659691300000004 3.48836 0.252157 -1.07943
24400 -3.2630610600000005 7.5357771300000005 -1.9976004900000002 4.04133 0.311001 -1.08953
24420 -4.04862624 7.7445927900000004 -0.7412632200000001 3.775782 0.690797 -0.732949
24440 -4.36252662 8.44663563 -0.05538726 3.1557630000000003 0.402313 -0.513652
24460 -3.84625575 8.96230809 -1.39120515 3.328411 0.289188 -0.345658
24480 -3.02685588 8.75589588 -1.25423793 3.765841 0.158341 -0.237749
24500 -2.9210256000000006 9.10481796 -0.64455624 4.075544 -0.454444 -0.443104
24520 -3.1738489200000006 10.07944146 -0.14818986 3.950073 -0.322176 -0.643907
24540 -2.9401845300000002 10.03663062 -0.08741691000000001 3.335089 0.318902 -0.855191
24560 -3.1525906500000005 10.24349409 -0.06556023 3.024237 0.372577 -0.95464
24580 -3.00275271 10.57640625 -0.01182105 3.1702630000000003 -0.016162 -0.836685
24600 -2.9014154100000003 9.67513212 -0.37721412000000004 3.157454 -0.364024 -0.946356
24620 -4.04758638 10.25293131 -0.84573972 2.802778 -0.365441 -1.083427
24640 -4.21163901 11.140285050000001 -0.38410074000000005 2.450452 -0.197975 -1.098922
24660 -4.2234698700000015 11.14477803 -0.01961019 1.942417 -0.017185 -1.114452
24680 -3.4747216200000004 10.841953140000001 0.14699304000000002 1.541092 -0.186659 -1.009148
24700 -4.3840791900000005 11.072625480000001 0.57105972 1.158734 -0.099758 -0.8314010000000001
24720 -5.53294791 13.07291391 0.6717986100000001 0.683477 0.0064930000000000005 -0.616939
24740 -5.382060300000001 14.64569235 2.4004089 0.15043199999999998 0.1043 -0.371892
24760 -6.53481378 11.88528588 1.3853682000000003 -0.327189 0.25916 -0.057097
24780 -6.5629488600000006 8.73598158 -0.27393444 -0.695343 0.503339 0.20387
24800 -5.33849409 9.8564013 0.36554022 -0.911239 0.43595 0.4598890000000001
24820 -4.97265957 12.272682780000002 0.50055525 -1.006199 0.275219 0.776694
24840 -4.74423372 13.324540410000003 -1.19676114 -1.091816 -0.026889 1.009355
24860 -4.1794622100000005 11.353887990000002 -1.8299475900000002 -0.8250569999999999 -0.4265020000000001 1.0779610000000002
24880 -3.5811503100000004 11.43307431 -0.50999247 -0.866351 -0.137593 1.059142
24900 -3.65330286 12.16520442 -1.2003516 -0.380018 -0.73052 0.26426900000000003
24920 -4.0689918 10.268941230000001 -1.2509515800000002 -1.165897 -0.059828999999999986 1.3186639999999998
24940 -4.83494679 7.2834050700000015 -1.8250033500000002 -1.822252 0.212811 1.63847
24960 -5.82438339 4.20101478 -2.35415475 -1.784905 0.002499 1.187142
24980 -4.54409991 3.6356350500000003 -2.44262133 -2.232947 0.659474 1.118009
25000 -3.6646824600000003 5.00873094 -3.59357958 -2.581183 0.503162 0.816675
25020 -3.90567492 6.06104964 -2.61236376 -2.954062 0.520846 0.713635
25040 -3.21665976 5.624406540000001 -2.15117604 -2.968658 0.524384 0.640889
25060 -3.26621007 4.94017866 -3.9434041800000004 -3.038592 0.8041 0.814163
25080 -4.48871265 3.5772655500000003 -4.50638046 -3.16223 0.695463 0.915988
25100 -4.06554849 1.83383235 -5.11156917 -3.192188 0.815384 1.055562
25120 -4.12227972 2.0341231200000003 -5.83456617 -3.199239 0.955833 1.103403
25140 -4.24592496 2.64125421 -5.4925307100000005 -3.1712130000000003 0.76395 0.846403
25160 -4.57194069 2.00552697 -5.3275755600000005 -3.086153 0.98705 0.658704
25180 -4.3562384100000004 1.73339757 -5.0647166100000005 -3.0533080000000004 1.175481 0.660828
25200 -3.8128723200000003 0.7937957700000001 -5.4564495299999995 -2.960246 0.984393 0.4149640000000001
25220 -3.4356581999999998 0.5269049100000001 -6.462062820000001 -2.563825 1.067268 0.126002
25240 -3.84490197 0.8885505600000001 -7.45914141 -2.419216 0.947498 0.115415
25260 -4.86338598 1.08928278 -8.29589517 -2.182425 0.939196 0.121353
25280 -4.8458751300000005 1.12880727 -8.4129579 -1.896439 1.128176 0.299365
25300 -5.235959970000001 2.20281588 -9.542353770000002 -1.634302 1.180032 0.423975
25320 -6.475836060000001 3.44912733 -11.397444390000002 -1.44278 1.047341 0.407323
25340 -8.100705600000001 6.183341100000001 -10.62565245 -1.270705 0.867815 0.398073
25360 -16.716789360000003 14.67068823 -17.348023620000003 -1.216785 1.18209 0.346772
25380 -4.91083695 3.58684011 -6.66518868 -1.286695 1.27403 0.32587
25400 -3.8425083300000002 1.4518309500000002 -1.7956616400000003 -1.192935 1.235395 0.315892
25420 -8.638381890000002 7.500598470000001 -3.38266458 -1.055555 1.160426 0.296651
25440 -9.65762127 7.577989560000001 -4.12048449 -0.902209 0.996243 0.196452
25460 -8.282877299999999 4.61070981 -3.62261718 -0.914055 1.002552 0.227339
25480 -5.019963389999999 5.3612532900000005 -3.9380086800000003 -1.240687 0.988686 0.248577
25500 -4.13739693 7.64026344 -3.94474815 -1.453439 0.805478 0.161867
25520 -3.78742518 8.73493191 -4.32734796 -1.334037 0.705249 0.08164500000000001
25540 -4.173174 8.31894867 -4.80380985 -1.045289 0.835364 0.05999400000000001
25560 -4.01884308 7.02099738 -4.449345120000001 -0.877919 1.1974200000000002 0.215592
25580 -2.90904759 6.353093340000001 -4.33303776 -0.747919 1.375073 0.4309850000000001
25600 -2.41971498 6.453832230000001 -3.4323620400000006 -0.59035 1.757035 0.412368
25620 -2.8806084000000003 6.85873998 -2.15507061 -0.455635 1.560646 0.39006
25640 -3.47457447 7.470364050000001 -1.33822134 -0.276309 1.792354 0.365378
25660 -3.79655829 7.16335029 -0.39428352 -0.200774 2.122716 0.268274
25680 -4.13993772 7.27532163 0.10733121 0.186969 2.37207 0.178796
25700 -4.08755232 7.531137000000001 0.17499078 0.924713 2.398622 0.092048
25720 -3.67231464 8.113723470000002 0.16165899 1.560676 2.162128 0.074361
25740 -2.8333045800000005 9.943072650000001 0.7500922200000001 1.985735 2.260667 -0.16101
25760 -1.8399734100000003 9.902959560000001 1.04766876 2.255214 2.7214970000000003 -0.551756
25780 -2.3831923500000003 9.35165718 0.93405915 2.484073 2.799485 -1.071549
25800 -3.1081317299999998 9.45957699 0.25956279 2.513601 2.414148 -0.904207
25820 -3.5838480600000002 8.422238160000001 0.12678444 2.388387 2.059971 -0.935606
25840 -3.3952410000000004 8.33631237 0.41433516000000004 1.970459 1.25883 -1.092391
25860 -2.8698370200000003 9.12936258 1.0180327500000002 1.5582049999999998 0.286308 -1.020317
25880 -2.2760181 8.99090424 0.98105886 2.153736 0.985422 -1.076873
25900 -1.91961099 8.74676277 0.4837899600000001 2.5487610000000003 0.77857 -1.105896
25920 -2.6144631000000005 9.544149 0.0022464900000000003 2.636841 0.716305 -1.062472
25940 -2.66385645 8.90153514 0.028439190000000003 2.18025 0.544029 -1.007756
25960 -2.78061507 7.87452624 0.6408186300000001 1.484157 0.402781 -1.045553
25980 -2.74289562 7.98320142 1.0931773500000002 0.722622 0.272047 -0.991952
26000 -2.98254411 8.93342745 0.8231374800000001 0.115026 0.323546 -0.82321
26020 -3.2042403000000004 10.503959400000001 -0.16286562000000002 -0.429659 0.43315 -0.587874
26040 -2.8915367400000003 10.921885020000001 -0.68303106 -0.993957 0.653753 -0.388068
26060 -1.8058444200000001 10.89898848 0.38993769 -1.524063 0.8732219999999999 -0.20084
26080 -3.59342262 10.669807259999999 0.6385721400000001 -1.892308 1.0144030000000002 -0.023064
26100 -5.34613608 10.021356449999999 -0.62075718 -2.160551 1.063736 0.126687
26120 -5.11111791 9.68620761 -0.7006890600000001 -2.548217 0.978906 0.364438
26140 -4.24277595 10.21835106 0.9259757100000001 -2.9279 0.838384 0.669614
26160 -3.36276009 11.121126120000001 1.6916364000000002 -2.974282 0.438313 0.8578100000000001
26180 -2.88075555 11.59474311 1.84775274 -1.860242 -0.510288 0.8176680000000001
26200 -2.12378652 11.303592120000001 2.44022769 0.5645140000000001 0.483034 0.459455
26220 -3.96600642 10.714266180000001 3.16576548 2.962183 3.174719 -0.485442
26240 -6.16223979 11.621082959999999 2.12812254 2.107044 -2.025481 0.13588599999999998
26260 -7.576194330000001 12.14843913 0.43110045 0.312791 -2.64447 0.641166
26280 -7.4423761200000005 10.36295046 -0.44382402 -2.998812 -1.161042 0.440945
26300 -3.85463349 9.131010660000001 -0.42286986 -3.487914 0.441374 0.00605
26320 -3.8986411500000004 10.79540469 0.51223896 -1.460286 1.12871 0.586558
26340 -4.341719610000001 11.377539900000002 2.65353633 0.356747 -0.102405 0.5239149999999999
26360 -4.781060460000001 8.774897850000002 2.08306521 0.17514000000000002 0.389884 0.116092
26380 -4.73929929 7.28729964 0.31868766000000004 -2.103645 0.8252440000000001 0.045137
26400 -4.149522090000001 6.78539061 -0.98959356 -3.193954 0.7484390000000001 -0.048906
26420 -3.53056014 6.68733966 -2.23679772 -2.215287 1.121992 0.257621
26440 -3.7305468000000004 6.38945901 -2.7413946900000004 -0.968413 0.296705 0.69895
26460 -3.88741851 5.841904050000001 -2.32796205 -0.706858 1.202777 0.857713
26480 -4.33408743 5.3569074599999995 -2.32361622 -1.354983 1.91935 0.976181
26500 -3.89969082 4.972208310000001 -2.91399183 -1.735827 1.490046 0.773245
26520 -3.5831025000000003 4.80890124 -3.5015225400000003 -1.305543 1.04121 0.489474
26540 -3.3105120300000004 4.87865034 -3.9175057800000004 -0.7527119999999999 1.269472 0.203555
26560 -3.17669382 4.834044270000001 -3.83397363 -0.8654879999999999 1.443088 0.307231
26580 -3.1760954100000003 4.71639294 -3.81392199 -1.189581 1.4286219999999998 0.475901
26600 -3.0774460500000003 4.4758419300000005 -3.60824553 -1.262343 1.02466 0.594483
26620 -3.04376832 6.3876637800000005 -3.56737707 -1.081501 0.668233 0.594067
26640 -2.96577882 10.961556660000001 -4.59573975 -0.89965 0.664846 0.484246
26660 -2.38364361 15.843650310000001 -6.44439501 -0.788773 0.586937 0.424232
26680 -5.103338580000001 20.456763570000003 -5.81226804 -0.8043520000000001 0.395438 0.37523
26700 -10.491235829999999 9.95878827 -13.865964120000003 -0.920219 0.795999 0.20512800000000006
26720 -6.159836340000001 -3.18522852 -10.07884305 -1.116898 0.76335 0.015788999999999997
26740 -2.2356009 -1.26157581 -2.11525182 -1.02379 0.4970810000000001 -0.077223
26760 -2.7318201300000005 13.448479950000001 2.95665552 -0.988356 0.352973 -0.034062
26780 -8.732538270000001 17.7601221 3.29524767 -1.092379 0.26479400000000003 -0.003697
26800 -8.92339182 12.20876082 0.9487251000000001 -0.915778 0.201133 0.045688
26820 -5.935756320000001 5.51273931 -2.7881001000000003 -0.60068 0.412566 0.17794200000000002
26840 -3.4649901000000005 2.7424443600000004 -1.02282003 -0.340565 1.143244 0.243984
26860 -2.87941158 6.0589503 1.51215264 -0.272219 1.128211 0.21457
26880 -3.68398854 9.92929941 3.64012803 -0.21181 1.016236 0.192703
26900 -3.4028731800000003 11.62497753 0.896634 -0.183528 1.299801 0.117762
26920 -3.04152183 13.1910165 -1.6378972200000002 0.06458799999999999 1.834 0.045103
26940 -3.57591177 9.533073510000001 -1.0380942 0.579544 1.923036 -0.022985
26960 -4.006717920000001 7.68981375 -1.19571147 1.320759 1.901121 0.019608
26980 -3.89175453 7.379052570000001 -0.01078119 1.94612 2.161055 0.008688
27000 -3.74461434 7.98289731 0.5998030200000001 2.461693 2.660812 -0.7393109999999999
27020 -3.50121843 8.06687091 0.34652844000000005 2.886104 2.6533 -1.891085
27040 -3.12220908 8.76412647 0.15522363 2.957289 3.169388 -1.544077
27060 -2.59964019 9.91867518 0.37855809 2.589369 3.054421 -0.980342
27080 -1.9247023800000003 9.34042473 0.75428109 2.152731 1.639902 -0.910008
27100 -1.31217579 9.57678687 1.34061498 2.406176 0.6427510000000001 -0.8503440000000001
27120 -1.0955709900000001 9.779314320000001 1.55780838 3.3213760000000003 0.380518 -1.066874
27140 -2.0737849500000003 9.36647028 0.95082444 3.88763 0.237203 -1.149261
27160 -2.7167029200000004 8.98416477 0.62075718 4.235163 0.540043 -1.259385
27180 -2.8309109400000003 8.25712605 0.68452218 3.766782 0.280648 -1.518697
27200 -3.04376832 8.09486865 1.4130618300000002 2.83561 0.22031 -1.872297
27220 -2.8442329200000005 8.39215089 1.7771011200000002 2.347452 0.176808 -2.025202
27240 -2.1794680800000004 10.077793380000001 0.9367569000000001 2.280139 0.220454 -1.959498
27260 -1.77231384 11.169773910000002 0.017363700000000003 2.146966 0.146923 -1.837488
27280 -2.3640334200000006 9.839037600000001 -0.47002653 1.779035 -0.029808 -1.81099
27300 -1.2064926599999997 9.52065405 -0.8972324100000001 1.360202 0.016723 -1.629173
27320 0.15133887000000001 11.74293297 0.66028167 1.00492 -0.040297 -1.447847
27340 -1.03389552 12.256211790000002 0.4628358 0.7707069999999999 -0.082427 -1.36504
27360 -4.12691985 10.570863600000001 -0.52226478 0.424571 0.061487 -1.35696
27380 -5.01547041 9.505683990000001 -1.2310372800000002 0.11895 0.116221 -1.19359
27400 -4.54814163 9.94381821 -0.46029501 -0.042143 0.15297 -0.920229
27420 -3.4934391 11.397444390000002 0.6652161000000001 -0.110854 0.376697 -0.599461
27440 -3.00110463 13.277540700000003 1.9863680400000001 -0.162358 0.413858 -0.258038
27460 -3.15364032 12.870984870000001 3.12310179 -0.138738 0.273013 0.044615
27480 -6.07107546 10.79270694 3.6110904300000004 -0.115242 0.022774000000000003 0.265153
27500 -7.7884533000000005 8.525969100000001 2.2369448700000003 -0.229176 -0.202407 0.4654720000000001
27520 -10.37088675 8.90902017 0.86834196 -0.166681 -0.377032 0.391356
27540 -9.98827713 11.0157471 -0.5123861099999999 0.501699 -0.578477 -0.160261
27560 -4.104013500000001 12.055185269999999 -0.48199473000000004 0.469825 -0.836181 -0.687855
27580 -3.77559432 11.920160430000001 2.56027266 -1.074083 -0.389331 0.257915
27600 -4.5713422800000005 12.28405257 3.2883610500000007 -1.7037240000000002 0.161019 0.370317
27620 -4.629123180000001 9.60372513 1.21023027 -2.068318 0.146404 -0.186619
27640 -5.648205600000001 7.18551108 -1.00231713 -2.2048330000000003 0.596785 0.25516300000000003
27660 -5.978272860000001 5.5152801 -3.99055104 -2.283167 0.509761 0.506828
27680 -5.17144941 5.576955570000001 -5.32607463 -2.375027 0.638365 0.659845
27700 -4.64155245 7.17023691 -3.87768699 -2.552738 0.872813 0.7918310000000001
27720 -4.643347680000001 8.12345499 -3.31216011 -2.648321 0.800434 0.8596219999999999
27740 -4.8180343500000005 6.9927053400000005 -4.7306174400000005 -2.638554 0.669093 0.929293
27760 -4.70876076 5.03013636 -5.814063270000001 -2.6560650000000003 0.521281 0.8791540000000001
27780 -4.59619101 3.56258979 -6.236776170000001 -2.748311 0.651555 0.881547
27800 -4.56909579 3.22968744 -6.411168540000001 -2.903054 0.658419 0.8975489999999999
27820 -3.94983954 1.92215178 -5.90057766 -3.112668 0.552597 0.90263
27840 -4.0140558 1.82755395 -5.113815659999999 -3.16633 0.679712 0.862568
27860 -4.61879325 1.73758644 -4.82342004 -3.15377 0.787565 0.786674
27880 -4.157899830000001 1.87051194 -5.5679696100000005 -3.039071 0.685902 0.80256
27900 -4.21493517 1.9002951000000001 -7.066505970000001 -2.957141 0.518953 0.922987
27920 -4.08874914 1.38761469 -7.81360614 -2.630918 0.703168 0.926098
27940 -4.388572170000001 1.1214693900000001 -8.05205781 -2.353076 0.968808 0.85506
27960 -4.80515382 0.8825664599999999 -7.740551070000001 -2.18493 1.120414 0.625304
27980 -5.11515963 0.6780868200000001 -7.43938407 -1.887369 1.361933 0.176283
28000 -6.424039260000001 0.94603716 -8.11447884 -1.5802040000000002 1.219665 0.056834
28020 -9.13715172 2.7870504300000003 -11.34819819 -1.479329 1.013161 0.195604
28040 -14.45184675 5.73801615 -10.33496253 -1.41549 0.926843 0.14809
28060 -12.33345573 3.6702153 -8.363858850000002 -1.304924 0.868816 0.177779
28080 -3.4636461300000003 1.68654501 -8.17809669 -1.167673 0.858453 0.252458
28100 -8.016575040000001 4.8041139600000005 -5.451515100000001 -0.923616 0.769311 0.22223
28120 -9.08954379 5.957612999999999 -4.62403179 -0.6190060000000001 0.603333 0.173296
28140 -8.65769778 7.71480963 -4.44650022 -0.37426 0.426847 0.139981
28160 -8.46399933 7.4124360000000005 -4.297859100000001 -0.412449 0.20023 0.101548
28180 -6.255944909999999 6.7020154199999995 -4.67148276 -0.512087 0.33165900000000004 0.087865
28200 -4.76489358 7.2952261200000015 -4.3384234500000005 -0.656334 0.62989 -0.041711
28220 -3.8838280500000004 7.38593919 -3.68698059 -0.599151 0.764899 -0.28717600000000004
28240 -3.9721376700000004 6.988967730000001 -4.58197632 -0.31250100000000003 0.567312 -0.407766
28260 -4.21134471 7.394768190000001 -4.188438360000001 0.129564 0.688125 -0.367445
28280 -4.513865490000001 7.04659167 -3.94159914 0.309271 1.548176 -0.084213
28300 -3.9906981900000003 6.264028350000001 -3.13717914 0.133507 1.257254 -0.43865
28320 -4.17721572 5.5919256299999995 -3.2534865 0.8781120000000001 0.5724779999999999 -0.8662690000000001
28340 -3.7133302500000003 6.31207773 -2.8331574300000004 1.995549 0.269973 -0.7779590000000001
28360 -3.67934841 7.3009159200000004 -2.39681844 2.980542 -0.161648 -0.7865489999999999
28380 -3.83397363 7.603289550000001 -1.67951124 3.845302 -0.444129 -0.957472
28400 -3.8574783900000003 7.85027592 -1.36022517 4.210037000000002 -0.111414 -0.828232
28420 -3.5714187900000005 7.3248719399999995 -1.14092262 3.718428 1.10703 -0.6110369999999999
28440 -4.139790570000001 7.504493040000001 -1.40722488 2.861758 0.326396 -0.454719
28460 -3.58534899 7.932150180000001 -0.5566880700000002 2.84175 -0.632963 -0.284851
28480 -3.51049869 8.34305184 -0.84724065 3.467257 -0.124733 -0.317452
28500 -4.0639004100000005 9.02967336 -0.20941407000000004 3.839709 -0.380462 -0.35832
28520 -3.63653757 9.59728977 -0.09909081000000002 3.885927 -0.187324 -0.478954
28540 -2.9011211100000005 9.6511761 -0.39756987000000005 3.409003 0.142894 -0.859791
28560 -2.9982695400000003 9.456732090000001 -0.8214894 2.9113290000000003 0.111173 -1.020255
28580 -2.9789536500000002 9.62887797 -1.48236948 2.743094 -0.009852 -0.978546
28600 -2.41327962 10.29034665 -1.99205784 2.660406 0.07791000000000001 -1.009146
28620 -1.85868108 10.88820729 -1.54568322 2.293822 0.116698 -1.067304
28640 -2.1465359100000003 10.846298970000001 -1.2606831000000003 1.870448 0.031436 -0.956921
28660 -2.6647589700000003 9.97002072 -0.9322639200000001 1.484084 -0.11791 -0.836583
28680 -3.73847328 10.73806524 -0.54321894 1.027709 -0.13933199999999998 -0.678441
28700 -4.84841592 11.21378157 0.2080701 0.539525 0.034757 -0.368017
28720 -4.95828792 11.33922204 0.94767543 0.044549 0.35377 -0.063167
28740 -5.879623500000001 12.7278864 0.88615692 -0.48524 0.250133 0.205662
28760 -4.70022606 14.62564071 1.4112666 -0.848052 -0.214122 0.468641
28780 -6.25130478 14.522498370000001 2.41882227 -1.013201 -0.556792 0.7905300000000001
28800 -6.83822727 10.00205037 0.60563997 -0.950817 -0.8427020000000001 1.106457
28820 -6.165231840000001 9.414519660000002 1.02925539 -1.593017 -0.7469359999999999 1.423384
28840 -4.371806879999999 11.13040638 0.8749342800000001 -1.290768 0.643791 1.558309
28860 -3.7598787000000002 12.74973327 -1.00561329 -0.640602 -1.869884 0.369663
28880 -4.2050564999999995 12.38060259 -2.3611885200000002 -0.8543379999999999 0.454434 1.115083
28900 -4.20371253 10.348127550000001 -2.43259551 -2.518182 0.311277 1.327971
28920 -3.67965252 9.36378234 -1.44644526 -2.090591 -0.024631 1.044037
28940 -3.74341752 8.633143350000001 -2.12647446 -1.866179 -0.354103 0.393343
28960 -3.3549709500000002 8.920546920000001 -1.03015791 -2.077281 -0.11780999999999997 0.35951900000000003
28980 -4.175714790000001 7.547156730000001 -0.22453128 -2.281443 0.097829 0.422978
29000 -4.83539805 5.309760600000001 -2.0719897200000004 -2.461241 0.08628200000000001 0.536037
29020 -4.3297416 3.98112363 -3.76571565 -2.67079 0.239294 0.5482640000000001
29040 -3.6893742300000003 4.40892792 -4.935832830000001 -2.7852080000000004 0.381633 0.7491760000000001
29060 -3.82918635 5.016372929999999 -4.296966390000001 -2.693527 0.35059 0.973115
29080 -3.74341752 6.27135642 -3.3118658100000005 -2.440803 0.147055 1.037098
29100 -3.98545965 5.24509308 -3.9270803400000003 -2.038624 0.021487 0.921495
29120 -3.8197589400000003 3.74296626 -4.85276175 -1.890992 0.178252 0.75141
29140 -3.7985006700000006 2.55862458 -4.890628350000001 -1.954407 -0.04794 0.6284109999999999
29160 -4.03651089 2.4697165500000002 -5.676193530000001 -1.7830000000000001 -0.180531 0.338154
29180 -4.18290552 2.5753898700000004 -6.1689694500000005 -1.554303 0.178478 0.137397
29200 -4.070482920000001 2.032170930000001 -6.351288300000001 -1.298547 0.33955 0.128295
29220 -4.28379156 1.4485347899999998 -6.239925179999999 -1.044434 0.202079 0.186862
29240 -5.2337134800000005 1.15320474 -6.51685167 -1.037352 -0.113299 0.194793
29260 -5.076841770000001 1.39060674 -7.320977370000001 -1.044604 -0.020774 0.239489
29280 -3.9908551500000002 2.03247504 -8.784482220000001 -1.019916 0.223196 0.212644
29300 -3.8910089700000006 2.7825672600000004 -10.065364109999999 -0.97814 0.272006 0.224623
29320 -4.48946802 3.7351869300000002 -6.581362230000001 -0.982968 0.16223900000000002 0.239685
29340 -4.3439661 5.363794080000001 -5.27922207 -0.8421790000000001 0.382295 0.231841
29360 -19.37346489 18.86617017 -14.65527672 -0.908307 0.169388 0.251948
29380 -6.78524346 10.78132734 -8.29469835 -1.003829 -0.100282 0.107416
29400 -0.3381507 -2.10537315 0.33664977 -0.962334 0.055330999999999984 0.050891000000000006
29420 -3.81825801 5.038376760000001 -3.9610621800000003 -0.789795 0.346025 -0.066849
29440 -7.524848790000001 11.82765213 -4.42344672 -0.542334 0.4924850000000001 -0.14435599999999998
29460 -9.3124368 9.90744273 -3.3482412900000003 -0.264784 0.555214 -0.354006
29480 -5.74191072 4.98762963 -4.4004030300000005 0.079419 0.996941 -0.295552
