time Ax Ay Az Gx Gy Gz
20 6.49110042 21.025282500000003 -1.4801229900000001 -1.101376 -3.298626 -1.573752
40 8.236476 18.17520282 -3.01338675 -0.994785 -3.77716 -1.077808
60 5.426960670000001 14.814846180000002 1.7465724 -0.630934 -3.931904 -0.524934
80 2.81474406 13.170660750000001 2.60128827 -0.167095 -3.878464 -0.172454
100 -0.0779895 12.10233213 0.8104139100000001 0.537401 -3.694814 0.176199
120 -2.54246751 11.56645107 -0.31134978 1.1727610000000002 -3.178859 0.3338
140 -3.4533162 9.771682140000001 -0.1619631 -0.123538 -1.897698 -0.048638
160 -1.07521524 6.42539304 -1.1999003400000001 -0.442825 -1.9381150000000005 0.211967
180 0.31000581 2.7015857100000003 -1.88727723 -0.517845 -2.644785 -0.423244
200 1.16232804 0.63962181 -1.9387699200000001 -0.086466 -1.320583 -1.078884
220 0.70773264 -0.6191091000000001 -2.24907003 0.15933599999999998 -0.520333 -1.082466
240 0.6453116099999999 -1.67487111 -2.38110282 -0.485073 2.006105 -0.691757
260 1.3347780300000003 -1.3892627700000002 -2.06405343 0.929582 3.3189230000000003 0.644242
280 1.1533518900000002 -0.73976229 0.28979721 0.209674 2.469137 0.925517
300 -0.08382645000000001 0.9601047 4.27556097 0.08323 0.182433 0.6583720000000001
320 -6.25354146 10.12734369 13.132637190000002 0.742751 1.609043 1.10019
340 -4.40653428 20.578162320000004 9.3357846 3.1963630000000003 3.1878740000000003 1.081122
360 0.22842585 27.28960515 11.603719259999998 3.814223 3.24665 1.829914
380 0.98584614 15.13861542 10.518174089999999 3.754332 2.133546 2.652384
400 -2.06734959 5.10992109 7.725581010000001 2.131316 1.388914 2.196553
420 -0.25970994000000003 3.75179526 12.05907003 1.380639 -0.14741 1.033189
440 2.61670959 22.841604 2.87342748 1.915018 -0.083927 0.412999
460 11.571385500000002 26.40928518 -13.800099779999998 1.568213 0.968127 0.290656
480 3.88577043 4.465364850000001 3.1653142200000004 1.25089 1.877557 0.112086
500 0.8544215700000001 2.4417188100000002 1.17325638 1.884602 1.759907 0.47879
520 -1.34390133 8.18917218 -8.46744264 2.241952 0.937942 0.86049
540 -1.2789395099999998 11.235039839999999 -10.973230560000001 1.906237 0.383895 1.177185
560 -1.1946618 11.47963257 -5.88546045 1.689202 -0.171398 1.435959
580 -3.93591915 14.90914971 4.07198385 0.918295 1.048001 1.124568
600 -4.77596907 13.07740689 2.54336022 0.974688 2.343126 0.074308
620 -2.1255817500000003 8.6591889 1.67546952 0.8451489999999999 2.493732 0.086029
640 0.7890084900000001 4.1794622100000005 0.8271792000000001 0.557226 2.177832 0.213678
660 2.15536491 3.80868345 0.8238830400000001 0.360106 1.645277 0.097615
680 1.56380229 6.13858788 -1.8661661100000002 -0.304343 1.204284 -0.398911
700 0.8834591700000001 8.069568660000002 -1.8452119500000002 -0.952719 0.28171 -1.156423
720 0.53783325 7.29897354 -1.2982455900000003 -1.309702 -0.048983 -2.063276
740 0.44008641 9.19792467 0.71536482 -1.517985 0.396711 -2.51716
760 1.3132156500000003 10.746148680000001 0.7851139200000001 -1.969856 -0.06918400000000001 -3.097628
780 0.74844414 11.97494928 -0.17558919000000003 -2.398692 -0.04134 -3.561062
800 -3.6443169 14.2752177 -3.3373129500000003 -2.924641 0.461086 -3.541879
820 -6.20505063 16.482075299999998 -0.13636880999999998 -2.575145 -0.25096 -3.202035
840 -8.58195477 17.120647440000003 0.05703534 -2.491347 -0.714064 -3.081216
860 -9.230258430000001 17.345924280000002 1.54044468 -2.353939 0.223377 -3.997992
880 -7.252866540000001 14.649586920000003 -0.24294465 -2.450352 0.319041 -5.723966000000001
900 -5.017265640000001 8.6184774 -2.83630644 -2.023556 -0.990295 -6.331398
920 -5.03433504 5.80088844 1.96586514 -1.825318 -3.071764 -5.990857
940 -6.33527838 8.42807511 -0.64321227 -2.660381 -3.970411 -4.581212
960 -4.16418804 12.083771610000001 0.08038314 -2.075427 -3.901277 -2.666166
980 -0.30670965 17.16450795 2.84857875 -1.586171 -5.15533 -1.438027
1000 1.3341796200000002 19.144891890000004 0.9234251100000002 -1.054682 -5.613546 -0.265093
1020 2.6444032200000005 17.77912407 -3.33057348 -0.051284 -5.187483 1.006145
1040 3.95283159 17.89678521 -2.14787988 0.653529 -2.461307 1.692305
1060 0.37137717000000003 22.14315162 4.41416646 1.457769 0.8266040000000001 1.942605
1080 -3.90148605 23.018537160000005 6.59513547 2.550526 3.54555 2.236242
1100 -6.2354322 17.65743102 5.85597159 3.429085 4.306659 2.414455
1120 -10.01327301 15.856677990000001 1.4349185100000001 2.368913 4.225116000000001 3.211526
1140 -15.48020943 9.69788151 1.72396035 0.787077 3.142341 2.034297
1160 -11.0997207 14.443616160000001 6.54618357 4.0642190000000005 2.882164 1.3877469999999998
1180 -5.93695314 8.37239355 4.33963008 1.11155 2.528405 2.10358
1200 -1.8949094100000001 -0.9726811200000001 2.1146534100000003 0.676079 2.089658 2.178013
1220 -1.2663630900000002 -2.2836502800000003 -0.0634707 0.771134 0.71172 1.963593
1240 6.79227723 -1.01308851 -1.8401205600000001 1.213884 0.145313 2.830535
1260 11.030864310000002 -3.9188497500000006 -3.4804114200000007 2.196697 -1.1236620000000002 3.899771
1280 6.0068592 -5.50614699 -2.83301028 3.300799 2.555293 3.336611
1300 3.5310114 -3.4073661600000005 -0.71476641 3.254566 0.250527 0.8598979999999999
1320 3.4801171200000005 2.2329031500000003 -0.11346246 3.4199650000000004 1.333157 1.7035619999999998
1340 -10.624759740000002 19.57374585 3.89400102 2.597578 -0.062088 2.881059
1360 -3.3732371700000003 15.63813081 -7.864343460000001 1.661957 1.050134 2.076204
1380 0.66880656 12.233756699999999 7.1000365500000004 0.947475 0.490582 1.43527
1400 2.08666548 7.694149770000001 -2.1414445200000003 0.21136 0.048611 0.978837
1420 1.2081407400000002 4.77701874 -1.3675532400000001 -0.8393370000000001 -0.5101220000000001 -0.107758
1440 -1.14526845 4.57373592 -2.63871342 -1.965478 -0.349286 -1.255623
1460 -5.07609621 11.558210670000001 -0.82043973 -1.831532 0.546664 -1.917065
1480 -15.562240650000001 40.28138055 1.7441689500000002 -1.985595 0.496403 -3.065347
1500 -15.023063430000002 27.48854214 0.12993344999999998 -2.978692 1.100101 -3.457618
1520 -0.42062337 12.88789731 1.4422465800000002 -3.058964 1.524227 -3.690526
1540 0.3505701600000001 16.86767697 6.22600479 -3.167936 -0.12049 -3.879323
1560 -5.9998254300000005 23.52643029 5.78651679 -1.865685 0.998295 -4.802082
1580 -1.87395525 9.53472159 2.5803341100000003 -2.676769 3.872969 -6.633817999999999
1600 -3.7393758000000004 1.55436507 2.6476895700000003 -2.016942 -0.420696 -6.522225
1620 -8.06193648 2.40235128 4.9804389 -2.548629 -4.711621 -5.2652800000000015
1640 -9.21229632 0.6019023600000001 4.568046120000002 -3.227506 -7.0143330000000015 -3.4510940000000003
1660 -6.50427525 -0.69590178 0.42975648 -2.676975 -6.445817 -1.448266
1680 -2.7791239500000002 -2.13845247 -0.81400437 -1.578871 -4.816283 0.611507
1700 2.46851973 1.3377700800000003 2.86563834 0.18332 -2.18059 1.430151
1720 3.4405926300000003 5.9360604299999995 5.60584602 1.591652 0.683478 1.921291
1740 1.9264976100000002 11.21378157 -0.058977720000000004 2.840164 3.499595 2.554518
1760 -4.67208117 25.787625480000003 0.22543380000000002 2.627261 4.351683 3.303967
1780 -14.111606520000002 43.5258909 10.24604469 1.975478 4.351792 3.043041
1800 -18.024766470000003 27.05219334 7.76764629 1.853925 4.903129 1.670956
1820 -22.439541150000004 17.248334400000005 1.7130418200000002 4.125836 4.252722 0.915335
1840 -10.783720980000002 3.9541755600000013 -3.5630410500000003 0.327692 2.886944 2.630688
1860 -0.80113365 -0.28470582000000005 0.33874911 1.268529 1.990497 2.485653
1880 2.10042891 1.4678506800000002 3.19376322 1.40182 0.615129 1.596381
1900 6.863527260000001 -0.52331445 3.72156084 0.279927 1.073776 2.423307
1920 8.864266950000001 -4.559668379999999 -2.7439452900000005 0.611517 0.5682689999999999 3.873711
1940 6.75081036 -7.07324544 -7.2489719699999995 1.877379 0.458138 3.4116089999999994
1960 8.669077380000001 -6.12855225 -5.29029756 2.27619 3.316651 0.843794
1980 6.59573388 -0.42406668000000003 0.78750756 2.110416 1.163601 2.349452
2000 -7.09628913 10.01971818 9.24162822 1.747699 1.277459 2.695012
2020 -11.03834934 19.586175120000004 -12.596010569999999 0.8798 1.934104 2.273639
2040 -1.16861625 16.83773685 7.612716960000001 0.869136 1.195905 2.007455
2060 -1.46634975 12.67354881 0.7059276 0.675503 0.042172 1.918918
2080 -2.4551977500000004 2.29592259 -4.115393100000001 0.327277 -1.007496 0.7171489999999999
2100 -1.8064428300000002 3.0870304200000005 -2.78091918 -0.709034 -0.8246129999999999 -0.693967
2120 -2.72208861 8.90348733 -1.2263971500000002 -1.341804 -1.0455370000000002 -1.37322
2140 -8.44364358 27.127485090000004 3.7628707500000003 -0.401587 -0.7928430000000001 -1.17897
2160 -20.549870280000004 33.20470161 -1.0716247800000003 -0.056959 -1.058101 -1.210406
2180 -1.7625823200000001 18.56289402 -0.13696722 -0.563082 -0.69758 -1.950408
2200 -5.007386970000001 22.88365947 2.5385729400000003 -0.600775 1.150476 -2.400624
2220 -7.47246339 22.160221019999998 5.266351350000001 -1.6117549999999998 2.966754 -2.585202
2240 -6.7539593700000005 17.171394570000004 3.3144066000000003 -1.478173 2.0991310000000003 -2.312897
2260 -3.30467508 0.93764961 3.5859474 -1.507843 0.661675 -1.655374
2280 -5.35212018 -1.6649924400000002 0.34353639 -2.068524 0.599568 -1.355836
2300 -7.69340421 0.17423541000000003 2.2924792800000002 -2.2479150000000003 0.18414 -1.740048
2320 -7.011864270000001 0.6944106600000001 2.63736945 -2.113232 0.8975190000000001 -2.033782
2340 -5.71062663 0.09624591 1.2536395200000001 -1.839445 1.87731 -1.6731349999999998
2360 -1.40258475 -0.82598238 -2.3992120800000003 -1.35981 2.507478 -1.171732
2380 5.360203620000001 0.38275677 -1.9579288500000003 -1.189059 2.033939 -1.180615
2400 4.9274550900000005 3.4401413700000005 3.8000016 -1.175045 1.262045 -1.03425
2420 1.2798420300000002 10.169252010000001 4.564612620000001 -1.199483 0.754325 -0.8511040000000001
2440 1.34659908 22.53563991 1.6986701700000002 -0.782894 0.532856 -0.706905
2460 2.60503569 25.1236062 -2.33020854 -0.327753 0.294624 -0.13405799999999998
2480 2.6551746 15.20074215 2.13875658 -0.187765 -0.203788 0.508491
2500 -0.94783239 12.71066985 4.14861957 -0.118051 -0.286135 1.060286
2520 -1.22251239 13.083538140000002 2.69574876 0.221413 -0.31450900000000004 1.46755
2540 0.08532738000000001 12.919936770000001 1.4855086800000001 0.8369840000000001 -0.556237 1.710373
2560 -0.09564750000000001 10.472076900000001 1.77396192 1.129484 -1.2421799999999998 1.6994080000000005
2580 -1.711845 6.394256100000001 1.73818485 0.8660450000000001 -2.603194 1.027401
2600 -1.71587691 4.3581906 0.9657945 0.35252 -2.079412 -0.040807
2620 -1.26711846 3.88412235 0.10298538000000002 -0.272113 0.37181 -0.569603
2640 -2.12199129 3.9300821999999997 -0.18277011 0.177824 0.898993 -0.927127
2660 -3.1400240400000006 2.09878083 0.09655002 0.5492779999999999 2.305377 -0.505455
2680 -1.07191908 -1.32249591 -1.23462774 0.204193 4.264215 0.376249
2700 0.79050942 -3.0701179800000005 -0.43874244 -0.504772 2.929974 0.586651
2720 0.0691605 -2.15431524 0.20402838 -0.7055279999999999 1.884796 0.529972
2740 -1.10410569 -1.3558793400000002 0.82927854 -0.478239 2.699738 0.863801
2760 -1.90134477 -0.30506157000000006 1.2464585999999998 0.33579200000000003 2.896593 1.544351
2780 -4.27046958 2.17482795 1.15050699 1.72573 1.998752 1.890632
2800 -9.536516820000001 9.020393100000001 3.4159008600000003 1.680188 1.930134 1.507978
2820 -8.09666388 20.046911580000003 17.630934210000003 1.1865370000000002 3.499315 0.8637229999999999
2840 -4.86548532 23.532267240000003 12.158916210000001 1.6660580000000005 4.648729 0.7192529999999999
2860 3.48385473 15.4237725 8.47373085 1.108273 5.247861 0.558628
2880 2.9582937900000004 17.3787093 4.27420719 -0.21257 4.640218 -0.051228
2900 7.82632971 23.043533040000003 -2.5590758399999998 -0.484054 4.442203 -0.379747
2920 6.059852820000001 10.48808682 -3.38191902 0.042168 4.69948 -0.173438
2940 1.89206451 4.1990724 -2.93060997 0.738871 3.795774 0.109256
2960 0.7005419100000001 5.9082098400000005 -3.81870927 0.952218 3.016556 0.049788
2980 -0.58617693 8.197108470000002 -8.378828910000001 0.953465 3.009394 0.241017
3000 -1.4579720100000002 14.37206202 -9.16394283 0.514141 2.839355 0.25419
3020 -0.3150972 15.112726830000001 -6.158345220000001 0.364823 2.39005 -0.208818
3040 0.03951468 10.810364940000001 -2.10896361 0.718492 2.39672 -0.318519
3060 -1.6898313600000001 9.26154252 -1.0279114200000001 0.768321 1.828957 -0.102731
3080 -2.50788726 8.48569905 -1.86976638 0.50962 1.856874 -0.199645
3100 -2.19728304 7.08372252 -4.21867278 0.223887 1.777184 -0.80188
3120 -1.98846738 8.725210200000001 -5.74684515 -0.109889 1.344644 -1.035461
3140 -2.8806084000000003 12.0774834 -7.75282338 -0.794791 0.743567 -1.175139
3160 -4.43721996 11.20405005 -3.9535771500000005 -1.836185 0.600557 -1.537948
3180 -5.83905915 8.15968332 -1.0021699800000001 -2.491164 1.206813 -2.861486
3200 -7.52410323 4.55053527 0.13921371000000002 -3.221616 3.34172 -4.380858
3220 -7.32396942 2.3673295800000003 -0.4918734 -3.680844 4.410458 -5.113963
3240 -5.0247506699999995 3.70584522 -0.21271023000000003 -3.5747660000000003 4.603926 -4.304825
3260 -2.43169299 6.9442047 -1.25798535 -3.329079 2.574435 -2.3542080000000003
3280 -0.95276682 8.113282020000002 -0.7159632300000001 -3.650743 2.148663 -2.426412
3300 -4.95544302 9.969118199999999 0.22063671 -3.255847 2.983277 -2.095711
3320 -7.13730474 12.11835186 -0.35475903000000003 -3.3637330000000003 3.359428 -3.359585
3340 -7.54221249 14.54151015 1.0548594900000001 -3.361587 1.6409330000000002 -4.374315
3360 -6.39933768 13.71507651 1.6560064800000003 -4.179839 -1.769697 -3.761432
3380 -5.01666723 11.12351976 -1.61005644 -4.2887330000000015 -3.703345 -2.826089
3400 -1.26621594 9.823174830000001 -0.5060979 -4.056914 -2.923932 -1.870478
3420 0.55324476 12.879068310000001 1.51080867 -2.841039 -1.864415 -0.953218
3440 -0.48663486 21.279744089999998 1.8979014600000002 -1.915046 -0.8472219999999999 -0.388305
3460 0.82897443 26.6968359 3.1147240500000004 -1.529245 -0.7682939999999999 -0.214796
3480 2.6917070400000003 23.6485746 -1.9154123100000002 -1.19852 0.099183 -0.054432000000000015
3500 4.8964653 21.38333769 1.05335856 -1.345761 1.182425 -0.157262
3520 -0.7054861499999999 16.76648682 -3.93681186 -0.640709 -1.361569 -1.004723
3540 -10.014028380000001 10.12734369 0.63692406 0.060957 -2.890664 -1.506336
3560 -6.39724815 9.9688239 -2.11675275 0.600216 -2.267177 -0.984212
3580 -7.864647570000001 11.861928270000002 -4.4825814 1.035217 -0.340478 0.06535099999999999
3600 -3.0550007700000004 11.263930290000001 -7.864647570000001 1.047088 0.082535 1.89262
3620 2.01391452 1.4895504000000002 -6.984926010000001 0.204324 -0.172292 1.614663
3640 5.4922266 -10.166858370000002 1.5989711400000002 1.811327 2.947618 1.358039
3660 1.51215264 -3.8805318900000003 3.25573299 0.919974 2.692144 2.879698
3680 -3.38775597 -0.1041822 1.1567952000000001 0.713212 3.769537 2.959126
3700 -7.2372980700000005 -1.7453657700000003 5.26604724 1.245596 3.212789 2.400605
3720 -9.584419050000001 0.28141947 10.877426100000001 0.270112 2.99847 2.496616
3740 -10.731933990000002 4.40848647 8.01792882 0.337152 2.863334 2.400049
3760 -13.0464171 4.78615185 6.29127072 0.7370260000000001 3.520314 2.393454
3780 -13.285624140000001 5.02220988 6.568040250000001 0.740969 2.476638 2.848814
3800 -12.056676390000002 5.88201714 13.28472162 1.387935 1.159785 2.863566
3820 3.91855545 7.75867014 8.569525500000001 1.37576 1.561229 2.649322
3840 -2.07902349 23.46819813 17.345777130000002 2.321104 1.1353030000000002 1.252827
3860 -6.013745820000001 10.0357281 -1.80823806 2.371856 1.313075 1.773178
3880 8.03498841 2.32930602 0.05613282 2.174804 0.973058 2.790253
3900 1.6774119 5.3271243 3.29524767 1.747914 1.25175 1.666349
3920 -3.1057380900000005 10.532398590000001 -1.59044625 0.84585 0.6305270000000001 1.15878
3940 -5.067267210000001 10.911712050000002 1.4365665900000002 0.124766 0.336069 0.8293809999999999
3960 -6.360568560000001 11.15554941 0.4363389900000001 -0.357005 -0.277227 0.10682
3980 -3.11981544 10.86515379 1.82979063 -1.678055 -1.01047 -1.060489
4000 -3.4816082400000004 8.8789329 -0.84109959 -1.862782 -0.097315 -2.017939
4020 -7.3551063600000015 10.750043250000001 -1.80120429 -2.0635 0.164778 -2.916984
4040 -13.872105180000002 19.39187826 4.45742856 -2.980396 0.5310590000000001 -3.409899
4060 -15.075900090000001 25.32687921 -0.43993926 -3.292053 1.570207 -3.5319800000000003
4080 -11.299099140000001 16.36007814 1.02941235 -2.8859220000000003 2.08168 -3.652644
4100 -1.69716924 12.573555480000001 2.42540478 -1.775127 0.951727 -3.626345
4120 -9.13519953 21.87086526 5.54596578 -1.247521 1.605553 -4.285796
4140 -8.35278336 15.262564770000001 3.94444404 -1.445547 1.467809 -6.4277190000000015
4160 -6.263577090000001 4.66160409 1.9258992000000001 -0.931051 -3.049621 -4.579927
4180 -6.40652841 1.2338821800000002 3.42382734 -1.35036 -4.086035 -3.709858
4200 -7.11365283 0.42317397000000007 2.72598318 -1.020407 -4.5625550000000015 -2.579969
4220 -6.414759000000001 -1.23687423 3.48071553 -1.175666 -4.423932 -0.883826
4240 -4.68046872 -1.6284600000000002 0.16959528 -0.814388 -3.233816 0.880807
4260 -1.24840098 -0.59396607 0.06182262000000001 0.33907600000000004 -0.792722 1.873841
4280 2.5286942700000004 6.47987778 2.3770611 1.109261 1.98749 2.3104240000000003
4300 3.17968587 11.08639872 4.816239120000001 1.348553 2.372187 2.868146
4320 1.57487778 16.116682230000002 -0.80247762 0.888033 2.16214 3.0478650000000003
4340 -8.845559280000002 31.89328119 -2.25026685 1.240747 2.947362 2.9798880000000003
4360 -25.147552410000003 32.853385890000006 7.444024199999999 2.110265 3.619036 3.419867
4380 -21.31013547 16.44031413 0.19534653000000002 1.473468 3.119514 2.884085
4400 -19.911739590000003 15.73093341 -0.54097245 1.968792 2.106805 1.565315
4420 -8.74181853 10.74480471 1.1135331000000002 0.91576 2.005411 1.460882
4440 0.37826379000000004 6.20699301 -1.1078433 0.453838 0.8250129999999999 2.410953
4460 1.47832776 -0.02095416 2.13395949 0.356352 -0.743574 2.354598
4480 6.04502991 -2.6101270800000003 -0.8786718900000001 0.18857 -0.66568 2.733614
4500 8.65695222 -3.8205045 -2.9993094000000005 0.876028 -0.407563 3.388632
4520 8.386912350000001 -4.81653342 -2.8689345 2.444105 1.228738 1.7556310000000002
4540 6.13424205 -4.1330511 -0.18186759 1.950045 0.770007 1.550874
4560 1.55840679 -1.2156257700000002 0.6087791700000001 2.094904 -0.143253 2.834922
4580 -0.16136469000000003 0.9249260400000001 -2.3532522300000003 1.517217 0.888949 2.54969
4600 0.9819613800000001 0.38888802 0.4543011 1.700999 0.752532 1.873896
4620 -2.8367478900000003 10.3710339 -6.99824799 1.424016 -0.098862 1.641248
4640 -8.77789971 26.53262631 3.1549842900000007 0.609332 -1.071564 1.042873
4660 -5.80538142 18.050517720000002 -0.24668226000000004 -0.927519 -1.2720200000000002 -0.24092600000000006
4680 -3.85733124 10.61218332 -1.61334279 -1.803566 -0.800894 -1.4130790000000002
4700 -4.30624665 6.61025268 0.21479976 -1.925985 -0.749624 -2.139322
4720 -3.95343 10.067169150000002 0.19114785 -1.271427 -0.482233 -2.70766
4740 -10.77489198 17.88121674 -1.55122587 -1.681453 -0.178102 -3.2824120000000003
4760 -16.18584273 31.577879880000005 0.6162642 -1.941896 0.887396 -3.378532
4780 0.8439444899999999 14.730117210000001 -1.336122 -2.2370970000000003 2.476381 -3.2875589999999995
4800 -3.77305353 17.56403001 2.26044963 -2.207068 3.3619190000000003 -3.38676
4820 -8.39095407 16.72442154 2.4004089 -2.155239 1.594876 -4.824097
4840 -7.5975997500000005 10.70993016 5.24045295 -2.319891 0.19461 -6.154457
4860 -4.797070379999999 2.86863039 1.5606532800000001 -2.043625 0.4752810000000001 -7.051262
4880 -5.98126491 2.6191032300000003 4.10132556 -2.31145 -2.379686 -6.812328999999999
4900 -8.231237460000001 1.9785887100000001 6.042185010000001 -2.0825400000000003 -3.997407 -4.990543
4920 -6.64393041 -0.51642783 2.7039793500000004 -3.126356 -6.631001 -3.4968120000000003
4940 -2.48932674 -0.74409831 -0.29818476 -2.959435 -6.750168 -1.815181
4960 -0.21360294000000002 -0.47091924000000007 -2.4923187900000006 -1.894814 -4.999194 -0.257861
4980 1.14421878 0.0634707 -1.70869599 -0.613468 -2.6434450000000003 0.920978
5000 1.16337771 5.870637540000001 3.6705194100000003 0.093856 -0.566792 2.06305
5020 -0.6277909500000002 13.596522660000002 7.44087519 0.565817 1.41015 2.770977
5040 -6.778808100000001 24.4988073 -0.2874035700000001 1.309741 1.932815 2.755207
5060 -15.10134723 30.014087400000005 5.400169560000001 1.331959 2.772342 2.447707
5080 -17.04969171 19.11480462 2.5012949399999997 1.944351 3.879369 2.132235
5100 -18.878138370000002 17.93780082 5.00873094 2.134617 3.713731 2.363444
5120 -24.48204201 22.7639088 -0.10822392 1.368529 2.64268 -0.8516090000000001
5140 -20.39269446 22.105883430000002 -0.48873420000000006 0.792874 1.082156 -0.37934
5160 -6.8931632700000005 8.85288735 -3.22653843 1.200417 1.296989 1.750061
5180 -6.81861708 8.89196058 1.3320802800000002 1.831455 1.933755 1.802791
5200 2.38693977 -0.88481295 3.2079779100000003 1.261541 2.27051 1.4661620000000002
5220 9.33908076 -1.3403108700000002 0.46463103000000006 1.457554 2.695138 2.198719
5240 8.98896186 -4.74543054 -4.71849228 1.329574 2.831651 2.802264
5260 8.20249416 -7.313345190000001 -6.913675980000001 1.098003 2.294694 2.751128
5280 4.5289827 -5.69625498 -3.02685588 1.48606 2.4065060000000003 2.691738
5300 0.8458868700000001 -2.44441656 3.5983668600000005 1.344182 2.554494 2.835836
5320 0.68931927 -2.00552697 -1.8839810700000001 1.045252 2.092864 2.65381
5340 3.1147240500000004 -1.4844590100000001 -3.42293463 0.937785 1.374462 2.582409
5360 -22.708227240000003 28.688736780000003 9.42754734 0.942544 1.055631 2.390571
5380 2.30610537 8.19651006 11.548037700000002 0.981713 1.169483 1.857656
5400 -3.24315657 6.52807431 1.76468166 0.998828 1.7335900000000002 1.698955
5420 -1.9955011500000002 2.6435007 1.83143871 0.796608 1.1078940000000002 1.43663
5440 -3.98681343 3.40227477 2.9292561900000003 0.6716449999999999 0.146202 1.215868
5460 -3.8898121500000005 8.26281585 1.49778099 0.7030270000000001 0.7244079999999999 0.982474
5480 -4.627779210000001 12.42820071 1.9690043400000001 0.732449 1.552002 0.7220409999999999
5500 -5.16006981 16.12402011 1.60525935 0.64449 1.14669 0.658921
5520 -4.63211523 13.82509566 0.8678907000000001 0.741812 1.254893 0.954291
5540 -4.39067151 12.573104220000001 -0.68767119 0.27576300000000004 1.466862 1.363098
5560 -4.8847914 13.08025179 -2.5676105400000004 0.156874 2.216662 1.504448
5580 -5.110970760000001 12.363543 -3.03029919 -0.220599 3.261422 0.836039
5600 -5.279074919999999 9.7143525 -2.4673229100000005 -0.943484 3.330864 0.082077
5620 -5.826933990000001 7.723187370000001 -2.41927353 -0.608345 2.364526 -0.4409770000000001
5640 -4.745136240000001 5.762413620000001 -2.05328205 -0.114644 1.23059 -1.279971
5660 -3.85792965 5.9405436 -2.21868846 -0.647972 0.487613 -2.294351
5680 -3.6178299000000003 5.42920716 -1.71768195 -1.270544 0.715662 -3.371486
5700 -3.2356715400000002 3.8779812900000006 0.41987781 -1.901359 1.681398 -3.772372
5720 -1.4907472200000003 3.4715824200000003 -0.35910486 -2.221245 2.29465 -3.67498
5740 -1.05770439 4.96502739 -0.22363857000000004 -2.56371 2.15612 -3.101423
5760 -0.33380487 5.75269191 0.8119148400000001 -2.8054360000000003 2.490741 -2.391036
5780 -0.39203703 5.77049706 0.24713352 -3.3033010000000003 3.068926 -1.895326
5800 -0.7426071900000001 5.732630459999999 0.97522191 -3.139016 2.895507 -1.826659
5820 -0.28245933 5.747894820000001 0.44666892 -3.052126 3.234087 -1.591477
5840 -0.22962267000000003 5.079235409999999 -1.6537599900000002 -2.859352 2.790791 -1.7230900000000002
5860 -6.6128032800000005 5.249429100000001 -5.05423953 -3.118748 1.947225 -2.063515
5880 -10.62804609 6.19202295 -4.40878077 -3.138297 0.737985 -2.008691
5900 -6.50023353 7.316033129999999 -2.0011909500000002 -2.90431 -0.286692 -1.442791
5920 -3.64208022 12.168490770000002 2.1197448 -2.628646 -0.561651 -0.854059
5940 -1.07461683 19.667303820000004 1.61259723 -1.967769 -0.247126 -0.16297899999999998
5960 -0.44097912 26.4625731 3.8208086100000003 -1.19402 -0.158122 0.350785
5980 1.60361127 24.194040030000004 1.62996093 -0.451732 -0.135256 0.914621
6000 3.4497257400000003 21.8177343 3.98157489 0.314512 0.032148 1.276544
6020 5.047804169999999 22.48309755 6.055212689999999 1.220459 -0.019555 1.43249
6040 3.62725731 17.59426443 1.8468600300000002 2.042077 -0.33084 1.57536
6060 0.43649595 11.304494640000001 -1.7402841900000001 1.775241 0.067425 1.045284
6080 -2.5354239300000008 8.433460799999999 -3.60150606 0.393587 1.842028 0.681914
6100 -3.9351637800000003 8.42432769 -1.6085555100000002 -0.253425 0.7013659999999999 0.115904
6120 -3.4961270400000006 7.80911316 -1.1587375800000002 0.146385 -0.268963 -0.7965949999999999
6140 -2.57315319 4.71728565 -1.9666107000000002 0.329982 1.195183 -0.53761
6160 -1.5054229799999999 0.57825045 -2.31987861 1.139998 3.3173449999999995 0.590166
6180 -2.17408239 -0.46732878 -0.8490358800000001 0.75726 4.651431 1.629436
6200 -1.57936095 -0.018707670000000003 -0.22048956 0.320494 -0.716445 2.527365
6220 -0.9247788900000001 0.35341506000000006 -0.13337676 -0.212252 0.810553 1.278277
6240 -0.6843750300000001 0.39472497000000006 0.6575839200000001 -1.368228 4.152819999999998 1.888693
6260 -2.6060853600000002 0.7355734200000001 1.4400099000000002 -0.116514 2.496529 2.082224
6280 -6.58286316 0.79050942 3.12206193 1.135782 1.526678 1.642493
6300 -10.859768100000002 1.5934383 7.428750030000001 1.420658 0.7713300000000001 0.880604
6320 -15.41524761 8.9424036 12.73880493 1.696473 1.39006 0.4245390000000001
6340 -16.08195483 22.63263138 11.75520528 1.211174 3.806355 -0.281633
6360 -9.14074218 27.162516600000004 8.93701791 1.019614 5.089439 -0.770656
6380 -4.74138882 8.56368855 6.38153253 0.701236 4.810994 -1.191266
6400 -0.20881566000000004 8.642727720000002 1.4055768 0.313895 3.712678 -0.851801
6420 4.37734953 9.147030390000001 -0.47436255000000005 -0.147579 3.376584 -0.5854020000000001
6440 7.93230714 15.68453211 -2.8319606100000003 -0.055999 2.944393 -0.742306
6460 10.564585200000002 21.63765213 6.311479320000001 0.532404 2.158131 -0.6976640000000001
6480 3.44283912 8.749901970000002 1.6856424900000002 0.61782 0.793362 0.064188
6500 -0.9096616800000001 7.058716830000001 -8.39095407 0.266365 1.128289 0.261061
6520 -2.4566888700000002 8.050262580000002 -9.52558848 0.096287 1.527204 0.28286300000000003
6540 -3.9446010000000005 12.64959279 -8.903938590000001 -0.057932 1.110568 0.710676
6560 -3.40930854 9.99262296 -4.3065409500000005 -0.249977 1.1069870000000002 0.707203
6580 -2.0776795200000002 6.9928623 -1.94445972 -0.194009 0.629887 0.35676
6600 -1.9094282100000002 7.891438679999999 -0.48873420000000006 -0.151874 0.917524 0.051175
6620 -2.4899251500000004 8.848247220000001 -1.5473313000000002 -0.361875 1.834682 -0.02197
6640 -3.5829455400000003 9.30689415 -1.64522529 -0.4884770000000001 2.137609 -0.275343
6660 -5.739664230000001 10.29005235 -2.07708111 -0.5476840000000001 1.501911 -0.558021
6680 -7.9117944300000005 9.342524070000001 -1.7055567900000002 -0.875817 0.648518 -1.04526
6700 -7.52245515 7.22636973 -3.7178232300000005 -1.35479 0.371191 -1.339875
6720 -3.78936756 5.24284659 -3.16277343 -1.646164 0.5584020000000001 -2.082428
6740 -1.11368025 6.1022124 0.73931103 -1.83853 1.098068 -3.138798
6760 -2.90306349 9.36378234 1.8058444200000001 -2.790283 2.224243 -3.423559
6780 -1.21981464 9.47080944 -0.29488860000000006 -2.978645 2.2604450000000003 -3.256142
6800 -2.1200391 7.64849403 -0.6665600700000001 -3.2456150000000004 1.935124 -1.858219
6820 -5.088064409999999 9.78261048 -1.3739886 -3.4133 1.4779520000000002 -0.606849
6840 -3.6410305500000004 12.41817489 -2.21389137 -2.252486 -0.222152 -1.364613
6860 -1.29495924 13.33157418 0.6054928200000002 -1.994884 0.940948 -3.404608
6880 -3.03194727 14.759311770000002 -0.97641873 -2.466759 1.091774 -5.811597
6900 -5.96898279 14.85495927 -3.2331307500000004 -2.352834 -1.55059 -5.790324
6920 -10.318344390000002 15.1490925 -1.61858133 -2.510931 -3.140742 -5.197596
6940 -8.84091915 12.99372759 -1.39450131 -2.714897 -2.896798 -3.955922
6960 -5.976026370000001 12.250973250000001 -2.2339528200000003 -2.720273 -3.311014 -2.931004
6980 -3.24509895 12.94762059 -3.41918721 -2.372344 -2.769831 -2.174035
7000 -2.11135725 16.498693440000004 -2.64155832 -1.931136 -1.625177 -1.628695
7020 -1.5667943400000004 18.47038572 -0.1155618 -1.471229 -1.305112 -1.083235
7040 -1.31007645 20.78652672 1.96242183 -1.06857 -1.539101 -0.460554
7060 0.36389214000000003 19.75381821 1.4642504099999998 -0.894173 -0.975873 -0.003927
7080 2.3920213500000003 14.755711500000002 -1.05111207 -0.206706 -1.294715 0.546077
7100 0.78616359 11.37844242 -5.8308285600000005 0.580349 -1.379312 0.772805
7120 -7.521258330000001 8.93432016 3.56199138 1.6700279999999998 -1.278556 1.270601
7140 -8.024962590000001 8.303537160000001 -3.51633564 2.5891740000000003 -0.20126 1.995622
7160 -7.539818850000001 6.59603799 -2.3574509100000003 1.193143 -0.835619 1.471801
7180 -6.31880739 3.71617515 -0.6753988800000001 1.98581 0.8464450000000001 0.787247
7200 -2.8771650900000005 4.15775268 0.36823797 2.091483 1.298547 2.185709
7220 3.5022681 3.1412208600000002 -1.3859666099999999 1.549911 2.850372 2.458743
7240 4.98882645 4.1255660700000005 -0.4601478600000001 1.722001 3.347454 2.41017
7260 2.6201529 -0.42601887000000005 1.0509649200000002 1.6958650000000002 3.21148 2.869497
7280 -2.25820314 -1.2501962100000001 2.42286399 1.410174 3.000591 2.842134
7300 -5.132827440000001 -2.6906573700000003 2.6176023 1.020699 2.80019 2.41345
7320 -6.129749070000001 -0.43888959000000005 6.70455621 0.614789 1.845414 2.039029
7340 -10.62909576 1.6049650500000001 7.24463595 0.444223 1.874884 2.2760130000000003
7360 -18.06188751 2.5086328200000003 8.61878151 0.726679 1.616274 3.032482
7380 -14.493764880000002 0.00703377 5.52530592 1.0515450000000002 1.608521 3.623352
7400 -6.51161313 1.1150340300000001 8.344248660000002 1.438726 0.5030180000000001 3.49074
7420 -6.580165409999999 14.65781751 14.03137053 2.106844 -0.408798 1.567367
7440 -12.023292960000001 18.64104048 5.526502740000001 2.142609 -0.191028 1.4231280000000002
7460 5.09824719 5.033285370000001 2.95845075 2.405369 -0.860181 2.8316
7480 2.2023744300000003 6.483321090000001 5.41604214 1.866552 -0.724984 2.2572330000000003
7500 -0.09445068 9.230552730000001 2.95111287 1.111993 0.208195 1.580991
7520 -1.4567751899999999 10.7934525 1.8076396500000003 0.631394 0.075624 1.318226
7540 -1.82964348 10.068807419999999 1.84999923 0.02043 -0.588132 0.805267
7560 -2.25176778 8.28227889 2.06526006 -1.014633 -1.213031 -0.265111
7580 -2.04235371 7.90131735 -2.48333283 -2.356922 -1.345912 -1.566865
7600 -3.1253482800000003 6.43661568 0.1966905 -2.055772 -0.07649 -2.262869
7620 -4.71983625 5.123095919999999 -0.60758235 -2.3459790000000003 0.136052 -3.479737
7640 -8.00789319 8.60515542 1.3042395000000002 -2.843162 0.588258 -3.979444
7660 -13.64547456 19.86743763 1.7594431200000002 -2.83666 2.460234 -3.790586
7680 -21.112101 25.63463853 -0.77135049 -2.090055 2.487046 -3.949911
7700 -13.46839425 16.9013547 1.2810388499999998 -2.080055 1.6610630000000002 -4.3920949999999985
7720 1.7681249700000001 12.98819475 -0.15822549 -1.741395 0.6088399999999999 -5.550606
7740 -0.70532919 18.166825080000002 4.159253610000001 -2.031139 -0.423577 -5.258615
7760 -7.88395365 17.29203795 5.89339674 -1.420983 -2.921757 -4.1637010000000005
7780 -2.1692853 6.4346733 1.99205784 -1.130714 -4.485418 -3.1256310000000003
7800 -4.27197051 2.2558095 1.5844523400000003 -1.128656 -3.964105 -1.629706
7820 -6.951542580000001 0.6819813900000001 2.10537315 -0.381085 -2.88253 -0.228636
7840 -8.89809183 -0.3210813 3.67710192 0.209996 -2.063126 1.070196
7860 -6.02692065 -2.1734839800000003 0.53857881 1.005463 0.379637 1.956042
7880 -2.48244012 -1.64761893 -2.30071968 1.663706 2.297089 2.4613150000000004
7900 0.7478457300000001 -0.03726819 0.7126670700000001 1.719061 2.553659 2.98587
7920 2.19159324 7.914040920000001 7.78381317 1.249764 2.353927 2.991394
7940 1.42817904 17.05238946 3.99459276 1.7138099999999998 3.557134 3.260149
7960 -4.03905168 28.728859680000003 1.6058577600000001 0.941141 4.0578379999999985 2.858868
7980 -16.02132903 35.62232706 3.19675527 2.744741 2.800415 2.194756
8000 -19.127528190000003 19.95006726 3.5702219700000004 0.713792 1.2000030000000002 1.916634
8020 -17.55624087 15.33561003 2.7785255400000004 0.1745 1.026026 1.13756
8040 -11.845918350000002 19.152818370000002 0.21539817000000003 0.263595 0.936343 1.642498
8060 -2.19473244 8.66877327 0.57540555 0.133578 0.362513 2.464857
8080 -1.6151380200000003 1.8468600300000002 4.233799800000001 0.45752 -0.183774 3.198483
8100 0.9202859100000002 -0.86879322 -0.69096735 1.382052 -0.5372 3.666866
8120 7.6612176000000005 -4.445460360000001 -4.12976475 2.122593 -0.145951 1.888675
8140 8.16238107 -3.64416975 -5.376066389999999 1.80295 0.02274 1.007079
8160 7.73770617 -3.31575057 -2.17452384 1.664708 -1.765824 2.448369
8180 4.99032738 -1.7289045900000002 1.28762136 1.162221 -0.20409 2.341376
8200 0.35281665 1.2249060300000003 1.87051194 1.151083 0.617045 1.601037
8220 -1.6136469 2.61700389 -0.76026519 0.8687889999999999 0.387221 1.510697
8240 -5.42187909 9.22292055 -3.27922794 0.204688 -0.6027359999999999 1.100334
8260 -4.174223670000001 16.657664490000002 -6.71758389 -0.724614 -0.978652 0.011148
8280 -5.1190542 19.773134100000004 4.70336526 -1.907289 -1.02875 -1.3515549999999998
8300 -3.76183089 6.99346071 -1.00501488 -1.823992 -0.419653 -2.427453
8320 -2.12408082 2.12333526 -0.9322639200000001 -1.314478 -0.415684 -2.79564
8340 -1.16652672 9.07592751 -1.50093 -1.906688 -0.235674 -3.075609
8360 -4.93643124 15.580055609999999 0.9026181 -2.315381 0.835686 -3.177044
8380 -15.450720570000001 29.826824310000003 -2.82866445 -2.026406 1.618192 -3.309556
8400 -22.012923869999998 27.877430160000003 -2.43468504 -1.811639 1.76913 -3.94491
8420 -0.15133887000000001 14.913191430000001 -0.79484544 -1.799446 0.972792 -4.609307
8440 4.143979440000001 16.401839309999996 1.6048080900000001 -1.2252379999999998 1.060636 -5.761224
8460 -6.38497584 15.87449295 4.85200638 -0.762624 0.7648689999999999 -5.724499
8480 -5.17069404 9.4279986 3.81347073 -0.714432 -2.109881 -5.075272
8500 -2.98389789 2.7385596000000003 0.8146027800000001 -1.014686 -2.93925 -4.13734
8520 -4.29561261 1.18089837 2.39562162 -1.309027 -5.907921 -2.615512
8540 -8.12510307 1.3308834600000001 6.22345419 -1.7462970000000002 -6.160143 -1.234896
8560 -9.71060508 -0.11197134000000002 4.01389884 -1.1145040000000002 -4.741479 0.151047
8580 -5.92812414 -1.2261028499999997 -0.15717582000000002 0.06228300000000001 -2.75343 1.199304
8600 -1.6070545800000002 -0.40521186000000003 -2.2619505600000007 1.037481 -0.12327 1.68665
8620 0.57749508 0.12169305 -1.2897207000000002 1.5021799999999998 2.55795 2.101998
8640 1.71828036 3.6627302700000004 2.0945919600000003 1.6473209999999998 2.990375 2.52761
8660 -1.2451146300000002 10.498416750000002 4.26269025 1.215623 3.0177970000000003 2.704021
8680 -4.2450224400000005 20.045263500000004 2.32915887 1.335372 4.229793 2.672326
8700 -10.837764270000001 32.100595919999996 3.28895946 2.472625 5.739822 1.820552
8720 -17.739609390000002 26.146877490000005 5.21455455 2.974406 2.604537 1.696684
8740 -16.14497427 18.00395946 3.2576753700000003 -0.157457 1.132843 2.948946
8760 -19.62868185 17.772090300000002 0.03666978 1.091519 1.472692 2.6592
8780 -17.78825718 15.552960389999999 2.28619107 0.954425 1.04266 1.629028
8800 -7.93080621 8.32344165 -1.9254479400000002 -0.229176 1.132117 1.330089
8820 -4.551889050000001 4.76788563 -0.18845991 -0.373111 1.405598 2.060466
8840 1.06263882 -1.01264706 1.52652429 0.6110770000000001 -0.7337560000000001 3.1404400000000003
8860 2.61072549 -1.9121259600000002 -0.9749178000000001 1.099392 0.8513870000000001 2.182556
8880 7.624842120000001 -4.8521633400000015 -4.15521189 1.209986 2.118441 0.912658
8900 8.098763220000002 -4.89526848 -3.2421069 1.407709 0.875876 2.450666
8920 7.346277360000001 -4.377045420000001 0.20447964000000002 1.372847 1.202034 2.701037
8940 4.33963008 -0.76161897 2.26044963 0.7017 0.749346 2.736453
8960 0.13876245 2.71475073 1.27295541 0.570246 0.430238 2.4656830000000003
8980 -9.40688748 11.14492518 -0.33784659 0.62772 0.158408 2.46216
9000 -6.610851090000001 17.25596658 -10.01073222 0.35330700000000004 -0.543223 1.805254
9020 -3.7758984300000002 15.040574280000001 4.956639840000001 -0.248808 -0.730991 0.268391
9040 -5.30631729 11.486960640000001 2.2011678 -1.04184 -0.886109 -1.01027
9060 -2.77972236 5.666913270000001 -1.9059849 -1.066129 -1.262458 -1.444724
9080 -0.77599062 4.6533735 -2.10028176 -0.493799 -1.540832 -1.589921
9100 0.20611791 8.219406600000001 -2.73526344 -0.191128 -1.525633 -2.455222
9120 -4.1677785 14.11864029 -1.72022274 -0.094214 -1.385338 -2.990973
9140 -16.10381151 27.23122584 -1.02611619 -0.10368 0.8588110000000001 -3.152011
9160 -14.157556560000002 22.98500658 -0.044007660000000004 -0.8754629999999999 1.9291080000000005 -2.939788
9180 -0.52076385 21.83135058 -1.2536395200000001 -0.6782279999999999 1.173627 -1.996339
9200 -13.898445030000001 22.057677090000002 1.69223481 -0.567236 -0.177465 -1.21403
9220 -9.95250006 20.74386303 2.0246859 -0.771237 -0.463209 -0.974739
9240 -6.29171217 16.441658099999998 2.36314071 -1.845635 1.607182 -1.514735
9260 -2.57629239 2.4138780300000002 4.02393447 -1.7487830000000002 2.112407 -1.669598
9280 -3.63818565 -4.08126411 3.3118658100000005 -1.210241 2.592973 -1.369486
9300 -5.72679351 3.1774393800000005 2.3444232300000003 -1.329051 2.246094 -1.632654
9320 -9.02518038 2.7756806400000005 2.06526006 -1.601747 1.137097 -1.651298
9340 -7.27053435 -1.09093086 -0.7625116799999999 -1.7651150000000002 1.189751 -1.09169
9360 -4.19847399 -4.717893870000001 0.51882147 -1.748821 0.811721 -0.34333600000000003
9380 0.92387637 -2.57674365 -7.21335186 -1.524625 -0.129381 0.110225
9400 0.668061 1.2433194000000003 -2.0779836300000003 -1.169134 -0.641389 0.503266
9420 -1.3257920699999999 7.40884554 5.70897855 -0.837756 -0.370241 0.8727010000000001
9440 -2.58048126 17.98389801 4.8734118 -0.46014 -0.04588 1.214618
9460 -1.3235455800000002 29.821438620000002 2.6752360500000005 -0.120231 0.409741 1.531534
9480 1.41320898 17.00179929 -0.78092505 0.248535 0.681862 1.891615
9500 2.19668463 11.749064220000001 -0.17094906 0.4619470000000001 0.020582 2.174896
9520 -0.40490775 14.231504339999999 4.96068156 0.265022 -1.123672 2.116234
9540 -2.86863039 16.83833526 3.91660326 0.419834 -1.7671849999999998 1.205879
9560 -2.08666548 14.971717890000003 3.1091814 -0.299897 -0.143672 -0.839397
9580 -2.3474152800000003 12.265344899999999 3.1064934600000003 -0.494322 0.560632 -1.508228
9600 -2.60683092 9.69474231 1.79027595 0.309176 1.672745 -1.131231
9620 -3.6386369100000002 7.564667580000001 1.50557013 0.686489 1.857111 -0.146067
9640 -3.05065494 5.17009563 -0.33784659 -0.377228 1.82057 0.056989
9660 -2.83540392 4.437975330000001 -1.2482538300000001 -0.730537 2.228854 0.026224
9680 -1.7937192600000003 1.85704281 -1.53790389 -0.085939 2.862223 0.383497
9700 -0.01990449 -1.116378 -0.89438751 0.528622 3.183943 1.179998
9720 1.82590587 -2.22811587 -0.45580203 1.6448490000000002 2.992095 2.366289
9740 1.53341091 -2.3716656 -0.045351630000000004 2.111275 2.285518 2.569142
9760 0.2891988000000001 -2.61940734 1.09511973 2.034908 1.252142 2.384062
9780 -1.32998094 -3.183129180000001 2.2815509400000002 1.559059 0.52487 1.654211
9800 -4.20804855 -2.14668306 1.7724609900000001 0.814078 1.314758 0.8393510000000001
9820 -9.1937358 4.25460681 2.5810796700000003 -0.23049 2.435846 0.30932600000000005
9840 -15.959957670000001 18.444497130000002 10.747051200000001 -0.6085659999999999 3.411103 -0.293837
9860 -10.8885114 21.74826969 8.83104048 0.050282 3.414636 -0.416358
9880 1.03974228 12.978463230000001 8.078996069999999 0.769907 2.92913 -0.306024
9900 4.396204350000001 17.70368517 2.16284994 0.90995 3.041252 -0.494264
9920 9.23265207 20.99803032 0.8750814299999999 0.8547370000000001 2.929214 -0.6664899999999999
9940 3.8037392100000003 11.763141570000002 1.48282074 0.401393 2.466361 -0.675473
9960 0.8768766600000001 7.38668475 -4.2629845500000005 -0.015938 1.923684 -0.467253
9980 -0.795591 7.905810330000001 -5.542669620000001 -0.238294 1.626028 -0.4299689999999999
10000 -1.09003815 10.125097199999999 -5.70014955 -0.102992 1.662412 -0.5882350000000001
10020 -1.3566249000000001 15.7243509 -5.98514967 0.098985 1.750073 -0.574118
10040 -2.69918226 15.366442860000001 -4.09757814 0.093182 1.358383 -0.38565
10060 -4.11090012 12.010127940000002 -2.7559233 -0.184921 1.039351 -0.548485
10080 -4.118090850000001 9.0867087 -0.22648347000000002 -0.844463 0.7465 -0.8005439999999999
10100 -2.13276267 4.72791969 -0.67569318 -1.816534 0.95091 -1.524373
10120 0.7656606900000001 3.59941653 -2.7388539 -2.982903 1.51004 -2.3418810000000003
10140 1.0578515400000001 4.98268539 -3.10843584 -4.052547 3.121762 -2.735977
10160 -1.5778698300000003 9.301655610000001 -4.639453110000002 -4.258991 5.2692260000000015 -3.3223519999999995
10180 -3.6766506600000004 10.08078543 -3.2623155 -4.124391 3.3517080000000004 -2.90128
10200 -5.37472242 8.711584109999999 -0.78841008 -3.163149 0.776939 -2.13817
10220 -7.3627385400000005 7.68022938 -0.8226862200000001 -3.396764 2.185515 -1.207981
10240 -8.355775410000001 7.36378821 0.01406754 -3.591736 1.584 -1.396579
10260 -5.70733047 8.0836362 -0.39502908 -3.162488 1.622929 -1.912786
10280 -3.3263846100000003 8.649761490000001 -0.6557886900000001 -2.497867 1.649223 -1.871858
10300 -1.53790389 8.543636910000002 -0.8565209100000001 -2.334906 -0.005989 -1.803437
10320 -1.6887915 9.00856224 -1.4579720100000002 -2.25952 -0.6301180000000001 -1.633332
10340 -4.33394028 10.262662830000002 -1.6259192100000002 -2.06337 -0.603136 -1.092544
10360 -4.981939830000001 11.59578297 -1.64388132 -1.491641 -0.403423 -0.38378
10380 -4.02049116 13.04492598 -1.6932746699999999 -0.8277620000000001 -0.409401 0.26820700000000003
10400 -3.3617104200000005 13.207487490000002 0.7738912800000001 -0.105671 -0.20825900000000006 0.75583
10420 -3.2708502 10.48045464 0.93091014 0.853448 0.281765 1.2564879999999998
10440 -3.05544222 10.47088008 3.57277257 1.708746 0.262788 1.796598
10460 -2.375256060000001 19.08456039 4.74633306 0.904955 0.519733 1.90709
10480 -0.5022033300000001 21.490207830000003 -3.34733877 -0.33065300000000003 0.967905 1.19179
10500 1.9080842400000002 17.65533168 -1.16892036 -0.648111 0.299611 -0.30401300000000003
10520 -0.26105391000000006 14.94492678 3.84101721 -0.442344 0.05463 -0.756256
10540 -5.63877819 12.00548781 0.05134554 0.440339 1.70662 -0.127298
10560 -4.83494679 8.91097236 -1.58610042 0.89736 3.31566 0.688886
10580 -3.2199559200000003 6.01508979 -3.19974732 0.081246 2.419466 1.20349
10600 -3.42652509 5.05887966 -1.7518109400000001 -0.28772 1.62559 1.318366
10620 -1.39255893 2.4354306 -1.4747373 -0.274316 2.145862 1.468412
10640 -0.16660323000000002 -0.26284914 -0.8834591700000001 -0.09791 2.390671 1.632769
10660 -1.01009646 -1.0707222600000001 0.26180928000000003 0.646459 1.5245799999999998 1.791834
10680 -1.4292287099999998 0.22438413000000001 0.9749178000000001 0.736267 1.805604 2.032451
10700 -2.18126331 1.96840593 2.2826006100000003 1.132759 1.304254 1.856401
10720 -4.24157913 1.7904231000000002 4.1553590400000004 1.032581 1.344691 1.155965
10740 -6.599324340000001 2.6222424300000005 6.23169459 0.322543 2.125735 0.391566
10760 -10.006994610000001 7.32965922 9.12472245 0.100479 1.564992 -0.378386
10780 -16.56126162 15.666422850000002 10.70962605 0.658918 1.820004 -0.698483
10800 -13.843665990000002 21.15685422 12.46397778 0.5089520000000001 1.796428 -1.065901
10820 -6.5707379999999995 9.52783497 6.867264870000001 0.14313900000000002 1.110502 -1.308995
10840 -1.93681773 9.971060580000001 1.95388713 -0.157686 0.16666199999999998 -1.313092
10860 1.6534656900000002 14.22537309 -1.1937690900000002 -0.468899 0.197735 -1.354829
10880 4.07796795 12.729083220000001 -1.6143924600000004 -0.7524109999999999 0.7281920000000001 -1.362831
10900 1.21082868 7.648199730000001 -0.80113365 -1.39364 0.699951 -0.6718609999999999
10920 0.47466666 7.1973321299999995 -0.17603064 -0.610142 0.370283 0.104222
10940 -0.6165683100000001 9.89891784 -4.5289827 0.357043 -0.097572 1.178731
10960 -1.54343673 13.81252905 -7.42006818 0.780829 1.213515 2.208709
10980 -1.9715549400000003 13.182785910000002 -3.35961108 0.637926 2.592715 2.149328
11000 -4.114343430000001 12.286151910000003 -1.9911553200000003 0.459556 2.668597 2.507975
11020 -6.6903415200000005 10.42731387 0.12259557 0.339513 1.844558 2.757089
11040 -6.54828291 6.115534380000001 0.6848262900000002 0.304595 0.49896 2.293892
11060 -4.887783450000001 5.30167716 -1.09198053 0.401966 0.294945 1.548147
11080 -5.1302768400000005 6.33587679 -2.1076196400000002 0.221513 0.43209 1.241199
11100 -5.88096747 7.3827999900000005 0.25866027 -0.094795 0.168218 0.371932
11120 -4.79139039 6.66653265 1.9339826400000002 -0.628728 -0.293506 -1.17906
11140 -5.620060710000001 5.835615840000001 1.13988276 -1.114699 -0.552897 -2.754545
11160 -6.4276297200000005 5.449268610000001 0.8991846000000001 -1.813455 0.152263 -3.732411
11180 -5.01577452 5.42755908 0.15942230999999998 -2.619046 0.0075 -3.861766
11200 -2.37092004 7.66136475 6.0016206599999995 -2.660076 0.218347 -3.540788
11220 -5.05708443 8.323735950000001 -3.49507737 -2.616494 1.41421 -3.734296
11240 1.86931512 7.0924043700000015 -2.1585139200000003 -3.281301 1.370448 -4.467411
11260 6.46445646 12.771589950000001 -2.4117885 -2.911449 0.284716 -4.9996839999999985
11280 -2.8225332 23.83852563 -1.01578626 -2.977188 0.439997 -5.412676
11300 -10.247987070000002 29.41892451 -1.33402266 -2.679184 -2.177764 -4.778057
11320 -15.46179606 22.01606307 -0.43813422 -1.947607 -3.018962 -3.64169
11340 -16.4299842 17.891242560000002 -1.4804172899999999 -2.047561 -4.353982 -2.433587
11360 -10.109675880000001 16.05231882 0.051041430000000006 -1.665601 -3.999316 -0.8845879999999999
11380 -3.1743001800000004 13.02201963 0.16899687000000005 -1.069663 -2.614949 0.850457
11400 -1.20544299 7.297472610000001 -1.8800865 -0.26205100000000003 -1.087916 2.156304
11420 -4.35399192 5.16157074 -1.9486485900000001 0.5817359999999999 2.040989 2.708322
11440 -6.247263060000001 6.13275093 -1.5820587000000002 1.215776 3.873945 3.053302
11460 -4.7642951700000005 7.68052368 2.6586179100000003 0.875927 3.657212 3.201825
11480 -2.99841669 8.465049 2.5469506800000006 0.699571 3.925864 3.303866
11500 -2.75532489 11.01963186 2.8445370300000006 2.58452 3.233475 2.19415
11520 -4.800964950000001 14.236742880000001 4.60532412 1.330279 3.124053 2.938626
11540 -7.6472972100000005 19.396067130000002 4.65607125 0.298888 2.026165 3.19668
11560 -7.126229250000001 20.85942483 2.3915799 0.716417 0.901557 2.222546
11580 -7.191946440000001 19.731520080000003 -0.35416062000000004 0.669689 0.990083 2.50198
11600 -11.53292049 16.911380519999998 1.9350225 1.025093 0.501884 4.13199
11620 -20.333863890000003 21.41671131 2.17363113 1.075065 -0.5216569999999999 4.573759
11640 -12.61426698 11.406126240000003 0.7667103599999999 2.221227 -0.394031 1.771109
11660 -3.5154429300000003 0.60054858 0.02170953 1.868087 0.457575 1.432129
11680 0.23995260000000002 -3.2602161600000006 2.27616525 1.469594 -1.375754 2.572556
11700 5.285961540000001 -2.84827464 -1.50362775 1.669577 -0.090008 1.611974
11720 11.005260210000001 -3.08643201 -6.1688223 1.117529 -0.082359 1.243844
11740 12.541516020000001 -5.045106420000001 -4.293071820000001 0.286021 -0.709005 0.699387
11760 9.35240274 -3.23253234 -0.33634566000000005 -0.959679 -1.200957 -0.135488
11780 1.80524601 1.3769904600000002 0.72973647 -2.191386 -1.24448 -1.501745
11800 -7.323223860000001 7.08760728 -0.10253412 -1.808984 -0.381446 -2.404964
11820 -8.03498841 12.492269819999999 -6.549930990000001 -1.862059 0.008992 -3.02754
11840 -8.53599492 16.36457112 2.9999078100000007 -2.745657 0.686232 -3.257839
11860 -1.67262462 12.65049531 -2.3186817900000003 -2.896802 0.964837 -3.534853
11880 -1.65062079 5.62275846 -0.97357383 -2.344542 2.2517720000000003 -4.299628
11900 -3.46484295 3.33491931 -0.6297431400000001 -1.616735 0.46078 -5.661708999999999
11920 -7.02953208 15.42797118 2.67808095 -1.6404029999999998 1.647513 -5.3792480000000005
11940 -15.350727240000001 31.388831370000002 -3.79625418 -1.359053 -1.022868 -4.891025
11960 -18.29375667 21.74498334 -1.5506274600000003 -1.056606 -3.443033 -3.858181
11980 0.7475416199999999 13.35941496 1.5555618900000003 -0.805964 -3.711751 -2.677838
12000 -3.95163477 16.525631699999998 4.47734286 -0.6977869999999999 -4.582806 -1.260572
12020 -9.06035904 12.91454127 5.65210017 -0.40781 -3.5089930000000003 0.346684
12040 -4.28977566 6.82625907 -0.39173292000000004 0.418695 -1.593241 1.396859
12060 -4.02707367 1.8627228 0.89574129 1.128468 1.510083 2.068684
12080 -8.260118100000001 1.2295461600000002 5.259759030000001 1.53264 2.842826 2.49602
12100 -9.79457868 0.09011466 3.3792212700000004 1.095237 2.229418 2.827036
12120 -5.7591272700000005 -1.2846293100000001 0.10972485000000001 0.796713 3.067443 2.90613
12140 -1.29720573 -1.79926191 -1.15380315 1.120213 3.785343 2.384041
12160 1.60286571 0.39278259 0.30581694000000004 2.37986 2.184392 2.051992
12180 1.06518942 7.554190500000001 5.69879577 1.176479 1.792253 2.591018
12200 -0.19774017000000002 21.77117604 6.78299697 1.099085 1.514023 2.440215
12220 -12.478653540000002 42.90872418 0.68303106 0.583843 0.921709 1.82742
12240 -21.938083380000002 32.94948465 5.229073350000001 0.482684 0.916304 2.732573
12260 -15.25448133 10.07494848 -0.3182364 0.920207 0.620458 3.608745
12280 -16.824562019999995 11.66823963 3.8690051400000005 0.7849520000000001 -0.6110899999999999 3.748247
12300 -10.049805450000001 8.61653502 0.21735036 1.780096 -1.07474 2.152392
12320 -1.0479728700000002 1.72591254 -0.36793386 1.86718 0.697181 0.921206
12340 3.73038984 0.6126737400000001 -2.3077534500000003 1.574492 -1.444559 2.904526
12360 11.07801117 -1.83922785 -4.346811 1.096862 -0.372702 2.472527
12380 10.87234452 -4.1330511 -4.09024026 0.936848 0.388908 1.562445
12400 7.57320228 -4.3623794700000005 -1.26771687 0.454986 0.167041 1.253852
12420 4.50099477 -2.89333197 1.63369854 -0.029988 -0.527834 0.6884020000000001
12440 -0.13771278 1.09707192 0.44906256 -0.51048 -1.136809 -0.316166
12460 -3.7522465200000004 5.23731375 -1.88472663 -1.516728 -1.601807 -1.704878
12480 -2.80052937 9.6423471 -7.5218567400000005 -1.271381 -0.8237260000000001 -2.82259
12500 -6.47493354 14.265182070000002 4.9353913799999996 -1.678149 -0.7275119999999999 -3.619243
12520 -4.89526848 19.39411494 -2.56057677 -2.460893 -0.438118 -3.649651
12540 -2.64304944 10.352326230000001 -1.80254826 -2.37997 -0.034518 -3.684854
12560 -2.3992120800000003 7.377708600000001 0.42391953000000004 -2.031211 1.662074 -3.622635
12580 -5.29912656 15.15822561 0.17154747 -1.7805349999999998 1.873038 -4.115741000000001
12600 -13.0287591 22.162614660000003 -0.64141704 -1.934467 1.165725 -4.521833999999999
12620 -21.428689320000004 26.575731450000003 -3.3908951700000003 -2.0902 1.830782 -5.532176
12640 -9.21079539 16.559162280000002 0.7200049500000001 -1.997867 -2.48926 -4.992952
12660 6.433917930000001 15.022612170000002 -1.5593093100000002 -1.507249 -3.255102 -3.5784910000000005
12680 -9.170525340000001 16.23119436 5.57380656 -1.7965400000000002 -4.858126 -2.051969
12700 -6.9469024500000005 11.58889635 5.92213023 -1.528901 -3.457386 -0.131231
12720 -0.80651934 5.82963174 1.2380710499999998 -0.675817 -1.960579 1.234793
12740 -3.8453532300000006 0.8614553400000001 0.8767295100000001 0.523273 0.35069 2.153536
12760 -8.78298129 -0.7568218800000002 2.13515631 1.332298 2.447242 2.761115
12780 -10.695705660000002 -1.5447905100000001 3.9189969000000002 0.971121 2.332448 3.009771
12800 -8.13198969 -1.38491694 0.95516046 0.171577 3.1385240000000003 2.722211
12820 -3.28102317 -1.12565826 -1.24975476 1.840651 3.668074 1.250499
12840 0.09864936 0.6674625900000001 0.28590264 2.913257 3.768342 0.554972
12860 1.32684174 7.463330280000001 4.935832830000001 1.249119 2.487229 1.360043
12880 0.6590750400000001 16.55317818 6.0773636699999996 1.753223 1.926833 3.067028
12900 -5.1882147 31.340772180000002 0.84633813 1.238418 1.266378 3.242672
12920 -12.80122596 43.13759148 2.76489945 0.939363 0.865958 2.672802
12940 -16.41591666 19.976407110000004 4.072278150000001 0.6337510000000001 1.7138939999999998 2.677058
12960 -17.20626912 14.591501910000002 -0.40117014 0.457436 1.194585 2.693584
12980 -15.350275980000001 18.879188040000003 1.85568903 1.302351 0.550016 2.77936
13000 -4.404444750000001 8.931024 -0.7937957700000001 1.427739 0.573207 2.200161
13020 3.9489370200000002 -1.7730594000000002 0.62180685 1.133555 0.605979 1.453514
13040 6.008056020000001 -2.3932279800000003 0.24040386000000002 1.048598 0.928735 0.734662
13060 7.95221163 -4.54814163 -3.70419714 1.107316 0.8425159999999999 0.400829
13080 10.11431601 -5.76855468 -4.57628652 1.153793 0.935306 0.5986560000000001
13100 6.53256729 -5.646106260000001 -1.35857709 1.145674 1.0103030000000002 1.29712
13120 3.3337126800000005 -3.38161491 2.9816514 0.8638469999999999 1.43118 1.517871
13140 -5.031931590000001 4.80635064 4.86008982 0.195171 1.171778 1.433416
13160 -7.38010224 6.6963256200000005 -8.446488480000001 -0.167533 0.734034 1.460285
13180 -5.385199500000001 10.193953590000001 2.7015857100000003 -0.445953 1.282185 1.285654
13200 -5.804184600000001 17.31300192 0.7171600499999999 -0.6034189999999999 2.460179 0.940145
13220 -3.43131237 16.49719251 -2.0254412700000004 -0.317698 3.130184 0.706274
13240 -3.0728059200000004 14.821732800000001 -1.09243179 -0.174012 3.181149 0.357904
13260 -1.4272863300000003 12.705578460000002 -1.6509150900000003 -0.245326 2.746643 0.121885
13280 -1.09138212 12.000249270000001 -3.294198 -0.403653 1.500351 -0.559149
13300 -2.49935256 12.20517036 -2.4288480900000002 -0.52394 1.114587 -1.485644
13320 -4.183651080000001 12.17792799 -2.63032587 -1.005634 2.0348080000000004 -2.354379
13340 -5.491481040000001 8.95811922 -2.4899251500000004 -0.327436 2.060576 -2.725689
13360 -5.439085830000001 5.2973313300000004 -1.11652515 -0.5661430000000001 0.4814100000000001 -2.944318
13380 -4.19503068 4.41237123 -1.6878889799999999 -1.037317 -0.394898 -3.437869
13400 -0.5924651400000001 4.46506074 0.8122091400000001 -1.472284 0.791497 -3.5129300000000003
13420 2.1083652 4.8675748500000005 1.49628987 -1.63754 1.7448419999999998 -2.818825
13440 -1.61738451 4.52853144 -0.12319398000000001 -1.6973599999999998 -0.070037 -1.524369
13460 -1.69417719 4.259394090000002 -0.37646856 -1.607966 0.188664 -0.497514
13480 0.44188164 5.5787508 -0.15253569 -2.530644 3.243636 -1.767308
13500 -0.00793629 9.10840842 0.15777423000000002 -2.428368 2.168572 -2.3377830000000004
13520 -1.9591256700000002 10.187214120000002 -0.03248091 -2.200481 1.702898 -2.231977
13540 -3.7296442800000005 8.42523021 -2.17377828 -2.497076 0.8531129999999999 -2.849324
13560 -5.69625498 9.950410530000001 -2.66894784 -2.529139 -0.724619 -2.274959
13580 -8.788975200000001 12.16640124 -1.7986635000000002 -2.575513 -1.881476 -1.178873
13600 -10.38884886 13.82853897 -2.1333610800000002 -2.082279 -1.7149279999999998 -0.366997
13620 -9.39057345 13.039981740000002 -0.75293712 -1.324278 -1.800489 0.391504
13640 -4.352647950000001 13.10151006 0.78586929 -0.491231 -1.2412219999999998 1.00122
13660 -0.53618517 10.95990858 0.8015849100000001 0.4219810000000001 -0.127524 1.419573
13680 1.7637791400000002 13.86027432 -0.1041822 1.350054 1.161013 1.791873
13700 -0.29293641 17.19564489 4.37570145 1.826066 1.777867 1.896957
13720 -4.48198299 17.549805510000002 4.39081866 1.367219 1.418644 1.552381
13740 -3.4416423000000003 17.57090682 6.355634129999999 0.547513 1.497147 0.747525
13760 0.49891698 17.87328045 2.4381283500000004 -0.079831 0.722659 -0.031394
13780 3.1491473400000003 16.355585160000004 -0.76356135 -0.306346 1.681532 -0.664456
13800 4.79378403 16.2996093 3.6410305500000004 1.280355 1.58934 -0.563524
13820 1.77665967 12.84359535 2.6446975200000002 0.822784 2.541808 0.602831
13840 -0.9276237900000001 8.80603479 -0.29578131 -0.264334 1.86043 0.380329
13860 -3.69162072 6.683150790000001 -0.6655202100000001 -0.378525 1.77793 0.06558
13880 -6.917413590000001 5.672151810000001 -0.91190817 -0.543347 2.54185 0.710793
13900 -5.782475070000001 2.77148196 -3.25573299 -0.175948 3.178803 1.743377
13920 -0.86489865 -0.9542677500000001 -1.9553880600000002 0.6599079999999999 2.501016 2.151735
13940 2.08456614 -2.08846071 -1.61065485 1.331644 1.375156 2.06814
13960 3.45945726 0.41793543000000005 -1.6265176200000002 1.6833919999999998 1.622762 1.914319
13980 2.69694558 0.5123861099999999 -1.50093 1.665466 2.812696 1.3924450000000002
14000 1.11427866 -0.33320646000000004 2.34172548 1.035467 2.937999 0.441439
14020 -1.39524687 -1.0434798900000002 4.23439821 0.403022 2.15748 -0.156978
14040 -5.175638280000001 0.82942569 4.82296878 0.564439 2.5007490000000003 -0.35925300000000004
14060 -8.584201259999999 6.597077850000001 8.35771779 0.596992 2.2912630000000003 -0.214547
14080 -11.3892138 15.029341830000002 11.256886710000002 0.6494939999999999 2.031553 -0.048273
14100 -10.986856650000002 25.232428530000004 7.13326302 0.308155 1.979747 -0.116821
14120 -5.07504654 8.685685710000001 4.36671549 -0.141809 1.944518 0.02536
14140 1.61618769 13.4856108 2.7804679200000004 -0.269354 1.5191940000000002 0.205543
14160 4.50159318 22.648798260000003 1.4855086800000001 0.011334 1.188442 0.091492
14180 4.68585441 23.71712688 1.83952215 0.266947 1.065037 -0.171484
14200 1.46036565 7.27532163 -3.2183078400000005 0.335713 0.682318 -0.425818
14220 1.3850739 7.54012296 -2.66970321 0.491453 0.292475 -0.5727140000000001
14240 0.7159632300000001 8.13378492 -4.386924090000002 0.586248 0.237785 -0.830491
14260 -0.36733545 12.90107214 -6.020328330000001 0.196663 0.711866 -1.033577
14280 -3.2494447800000006 16.11863442 -4.92925032 -0.646782 1.022791 -1.067641
14300 -5.226532560000001 11.625870240000003 -1.77051861 -1.7133 1.520817 -1.60984
14320 -6.6660912 8.73164556 -0.92507319 -3.187214 1.697961 -2.273046
14340 -5.81196393 6.573730050000001 -2.2312648800000003 -3.854281 3.147333 -2.908745
14360 -3.7859242500000003 5.096599110000001 -2.2252709700000004 -4.089371 4.5389800000000005 -3.3362550000000004
14380 -2.45938662 5.96599074 -0.69530337 -4.025748 3.274676 -2.371722
14400 -2.68092585 7.869738960000001 -1.05395697 -3.594649 1.601024 -1.921118
14420 -3.50375922 8.90528256 0.20043792 -3.041745 1.421301 -1.678812
14440 -3.55256397 7.471864979999999 0.44442243000000003 -2.997214 1.981625 -2.246445
14460 -3.60824553 6.364767240000001 0.45295713 -3.160891 1.673671 -3.412624
14480 -4.59738783 8.097262290000002 -1.14571971 -3.034843 -0.947169 -3.4564550000000005
14500 -5.16650517 8.448136560000002 -1.29840255 -2.953469 -2.133693 -3.0431
14520 -4.275256860000001 6.65501571 -1.6154421300000001 -2.86559 -2.54477 -2.35082
14540 -3.94085358 6.33991851 -2.1402477 -2.834475 -1.915439 -1.518196
14560 -4.58017128 7.87392783 -2.6002386000000004 -2.246679 -1.895143 -1.242788
14580 -3.8565758700000004 11.196565020000001 -1.72785492 -1.850823 -1.233464 -0.8231959999999999
14600 -0.97941078 14.619950910000002 -0.89393625 -1.157828 -0.561721 -0.513705
14620 0.45759726 16.86931524 -0.01287072 -0.683375 0.241328 -0.350118
14640 -2.03127822 15.38456193 0.92686842 -0.534082 0.7338939999999999 -0.315524
14660 -4.284988380000001 12.83415813 -0.12948219000000002 -0.08868200000000001 -0.270473 -0.482041
14680 -4.86233631 12.698838990000002 1.6735173300000001 0.5070819999999999 -1.447196 -0.56717
14700 -3.7520993700000003 16.715592540000003 3.15064827 1.07325 -1.123746 -0.160911
14720 -2.04235371 18.93892113 -0.31629402 1.887087 1.186644 0.778644
14740 0.8373619800000001 15.52406994 -1.78578297 0.979711 0.604202 1.498375
14760 -0.77523525 11.979442259999999 -0.9855518400000001 0.995389 1.686379 0.988624
14780 -5.59072881 9.49789485 0.8916995700000001 1.425627 2.109756 1.830709
14800 -7.678581300000001 11.67706863 -0.29024847 0.432796 2.574291 2.671347
14820 -6.486764399999999 10.39019283 -1.79161992 0.364343 3.69308 2.40238
14840 -5.206922370000001 8.97623829 -1.61469657 0.389058 3.4968660000000003 2.165659
14860 0.15447807000000002 3.9910023000000003 -2.2097025 0.04181 3.233428 2.012952
14880 -1.16727228 0.8577177300000002 -0.21166056000000003 -0.300795 3.959898 2.055561
14900 -2.33648694 2.8401912 0.76805433 -0.154789 3.252105 2.573439
14920 -1.73010141 3.0570903000000005 2.10088017 0.092555 1.401682 2.901209
14940 -1.56139884 1.6392411900000001 3.3036254100000004 0.598143 0.327583 2.804636
14960 -3.81811086 0.29967588 3.93546789 1.117941 0.940814 2.180435
14980 -7.0540767 1.51155423 5.63069475 1.350849 1.28436 0.783319
15000 -10.006543350000001 3.7938605400000003 7.62170292 1.32919 0.939024 2.1787080000000003
15020 -12.918582989999999 3.5772655500000003 7.669752300000001 1.594101 0.91962 2.804425
15040 -13.08803112 2.4191165700000004 7.608979350000001 1.329067 1.01732 2.046147
15060 -9.95804271 2.6174551500000005 8.02421703 0.963359 0.642143 1.614648
15080 -2.00283903 8.406963990000001 6.90903585 0.386906 0.269422 1.550211
15100 -9.624237840000001 24.368275439999998 12.513979350000001 -0.125498 -0.14084100000000002 0.96284
15120 -3.7309882500000002 12.02838435 -1.3810321799999998 -0.737727 -0.347912 -0.001503
15140 4.14832527 3.1823836200000004 3.5079579000000005 -1.969711 -0.758571 -1.197445
15160 0.55400013 3.61422963 1.7148370499999999 -2.447249 -0.099688 -2.781525
15180 -2.14039485 8.24619771 -0.04371336 -2.150327 0.759174 -3.89898
15200 -4.29995844 10.503959400000001 -0.35042301000000003 -1.92036 0.397206 -4.154351
15220 -5.94084771 11.36436507 0.6854247 -2.351763 0.679421 -4.026335
15240 -6.17960349 10.94149521 0.03951468 -1.741844 1.175671 -3.448007
15260 -6.65411319 8.00265465 -3.36979386 -2.037812 0.056213 -3.760561
15280 -8.59273596 8.58509397 -3.9824676 -1.549411 0.0388 -5.155429
15300 -11.599824690000002 14.22476487 1.63565073 -1.53308 0.058025 -5.4480330000000015
15320 -13.86252081 22.293892080000003 0.13277835000000002 -1.397997 -3.171823 -4.783858
15340 -7.68412395 21.66849477 0.7722432 -1.064797 -4.219868 -3.5228900000000003
15360 -0.92657412 15.51703617 -0.283509 -1.102068 -4.514824 -1.92578
15380 -12.316239180000002 16.18598988 1.77785649 -0.580604 -3.485231 -0.117094
15400 -10.78222986 14.3796942 3.41230059 -0.056564 -1.943114 1.391852
15420 -7.24552866 9.52708941 4.74932511 0.656464 1.144441 2.274159
15440 -5.8642021799999995 4.3177734 1.08928278 1.146266 3.013894 2.940687
15460 -7.00363368 0.26808768000000005 1.66334436 0.679642 3.276279 3.528886
15480 -8.16566742 -1.2611245500000001 2.8487259 0.585662 4.164364 3.965063
15500 -8.83956537 -0.60250077 3.38969835 1.095744 4.016163 3.555414
15520 -4.78689741 1.26652005 -1.68384726 2.017481 3.584159 2.8990400000000003
15540 -0.60130395 2.32705953 0.12903093000000002 0.477246 3.187592 2.175217
15560 -0.27797616 7.954310970000001 5.081187600000001 0.455138 1.294806 1.876249
15580 -1.30933089 16.184047500000002 5.1278832 0.281349 0.558658 2.303268
15600 -4.66579296 29.70617112 2.46552768 0.24489 0.116836 3.3322769999999995
15620 -15.915802860000001 29.649145590000003 1.52532747 0.934183 -0.237193 4.154735
15640 -11.96327538 17.720303310000002 4.94242515 1.504885 -0.904389 3.744038
15660 -17.576302320000003 18.45961434 -0.41987781 2.028063 0.328369 0.838413
15680 -17.999172180000002 21.196525859999998 3.0190765500000003 1.73205 -0.721618 1.79909
15700 -6.9988464 8.354725740000001 0.08951625 1.696063 -1.031565 2.616426
15720 -1.9237998600000001 2.3740592400000002 1.93128489 1.410391 0.049944 1.736034
15740 3.82634145 -2.04864192 -0.7450008300000001 0.664254 0.059513 1.588737
15760 10.798848000000001 -4.840636590000001 -3.7862283600000004 -0.013872 -0.582634 1.324177
15780 10.643016150000001 -3.03463521 -5.03613027 -0.792275 -0.621366 0.231339
15800 10.80303687 -3.40167636 -2.59964019 -2.018278 -1.077091 -1.154647
15820 9.429038460000001 -2.3568525 1.2970487700000002 -1.954535 -0.339015 -2.500039
15840 2.78450964 1.3028857200000001 0.15762708 -1.96543 0.180059 -3.35963
15860 -3.41349741 8.27778591 -8.0110422 -2.448086 0.038014 -3.649103
15880 -8.5228299 15.53349735 -3.4792145999999997 -2.406683 0.09275 -3.786685
15900 -14.52010473 29.324915280000003 4.9253557500000005 -2.075212 2.054131 -4.125509
15920 -4.25355714 11.61285237 -2.6192503800000004 -2.126464 0.907763 -4.3145419999999985
15940 -3.05754156 0.42451794000000004 -0.8265807900000001 -1.430268 0.5237970000000001 -5.0665559999999985
15960 -3.9853125 -0.29233800000000004 -0.92059002 -1.458173 1.261659 -5.481099
15980 -5.793403410000001 12.98564415 -1.11967416 -0.986869 -2.617059 -4.546688
16000 -16.15006566 35.8564329 -1.07550954 -0.513166 -2.929982 -3.427754
16020 -17.540819550000002 22.06022769 -0.2860596 -0.380712 -3.954248 -2.344476
16040 1.3238496900000003 13.239369990000002 -0.4972689 -0.48103 -3.206544 -0.631638
16060 -3.06412407 17.05238946 4.820427990000001 -0.201765 -2.312041 0.804856
16080 -8.461899990000001 14.95136214 4.87730637 0.45194 -0.240861 1.763895
16100 -3.7479105 6.83463681 -0.07065161999999998 0.800365 2.350812 2.5620380000000003
16120 -4.01001408 1.1244614400000001 2.5557894900000004 0.693438 2.144402 3.12344
16140 -9.15944985 -0.39876669 4.07542716 0.423888 2.426946 3.561303
16160 -10.935207 -0.4980144600000001 4.581525060000001 1.293328 4.545948 3.564661
16180 -8.4881025 -1.52023608 1.09602225 2.7207790000000003 3.018518 2.285108
16200 -3.3040766700000006 -2.06121834 -2.08112283 1.443862 1.760302 2.889893
16220 0.018707670000000003 -1.1274534900000002 -1.3424102100000002 0.685964 1.510786 2.010045
16240 1.2009500100000001 5.9718276900000005 4.693339440000001 0.546363 1.155979 1.616418
16260 -0.33919056000000003 18.532512450000002 9.01859787 0.437291 0.281461 2.224595
16280 -5.911358850000001 36.66071556 0.35760393 0.414005 0.196093 2.813132
16300 -18.36680193 39.90956193 3.3576687000000005 1.091148 -0.24855700000000006 3.398477
16320 -17.13142863 18.31396527 2.87312337 1.263008 -0.43687 3.189479
16340 -16.97978565 14.46741522 -0.13472073 1.826527 0.008959 0.969874
16360 -11.15061498 18.73908162 3.5341506000000003 1.55059 -0.984086 1.792818
16380 -3.32263719 9.820025820000001 0.12933504 1.194796 -1.067868 2.539264
16400 1.06009803 -2.0538804600000002 0.6843750300000001 1.093622 -0.099423 1.801311
16420 4.664301840000001 -4.4020413000000005 -2.07258813 0.787883 0.372915 1.694953
16440 9.11558934 -6.62536989 -5.7131674199999996 0.620211 -0.129462 1.465826
16460 11.920611690000001 -5.54162976 -5.0564860199999995 -0.06342 -1.168665 0.601395
16480 11.0795121 -3.70090098 -1.8622813500000002 -1.405699 -1.844553 -0.771234
16500 5.220244350000001 -0.47271447000000005 2.24802036 -1.81576 -1.232355 -2.460537
16520 -2.08336932 1.12116528 1.1394315000000002 -1.58578 -0.4482390000000001 -3.475814
16540 -7.68486951 8.89869024 -10.499917680000003 -2.261507 -0.703 -3.648987
16560 -5.378469840000001 13.14506646 -2.66670135 -2.330881 -1.22436 -3.212969
16580 -7.95880395 24.20032824 4.63271364 -1.78932 1.463001 -2.801364
16600 -2.42705286 15.115120469999999 -2.43678438 -2.535715 2.827757 -2.721801
16620 -2.53482552 6.2842271400000005 -1.6293625200000001 -2.440953 2.225777 -3.045107
16640 -2.97416637 5.62529925 -0.68348232 -2.577862 2.548569 -4.791951
16660 -5.13971406 13.608206370000001 -0.25956279 -2.206939 1.612221 -5.652352
16680 -16.57578042 32.142357090000004 -0.26090676 -2.484018 -0.802415 -5.764425
16700 -20.16412146 21.20550201 -1.8775457100000001 -1.3950209999999998 -3.203646 -4.288141
16720 -1.5362558099999999 12.12628815 1.83114441 -1.304955 -4.120021 -2.444723
16740 2.0209482900000006 15.3685422 1.3069274400000002 -1.028718 -4.328361 -1.201252
16760 -6.8482629 14.6048337 4.68480474 -0.115923 -3.022773 -0.019369
16780 -5.64805845 9.04853799 2.66356215 1.027089 -0.954705 1.027481
16800 -3.1572307800000003 2.82073797 1.9404180000000002 1.528101 0.7827850000000001 1.917515
16820 -5.84100153 0.5364892800000001 2.4002617500000003 1.406361 1.541613 2.466895
16840 -10.25202879 0.0378666 3.85882236 1.570107 0.930909 2.93243
16860 -12.029434020000002 -0.93435345 2.93315076 2.257549 1.413509 2.861837
16880 -6.9728008500000005 -0.32213097 -2.0275308000000005 0.840808 2.826321 1.6302219999999998
16900 -0.7212017700000001 0.76730877 -4.519849590000001 2.975079 3.239151 -1.157346
16920 2.507436 3.0350864700000004 0.2565707400000001 1.844729 1.4340700000000002 0.478929
16940 3.48939738 12.62773611 8.31685914 1.981518 2.2117310000000003 1.6881150000000005
16960 3.83382648 21.91981716 4.87835604 2.080294 2.918245 1.54369
16980 2.62359621 29.15412318 1.6001679600000003 1.45087 2.289606 1.854156
17000 -9.94202298 21.69408906 4.509676620000001 0.934857 1.7044689999999998 2.375799
17020 -12.67968006 16.13703798 2.5098296400000004 0.6198359999999999 1.553582 2.287265
17040 -13.93841097 15.437545740000003 0.89813493 0.836557 1.578421 2.28127
17060 -18.35483373 19.71669717 1.0597939200000002 0.873907 1.835062 2.537575
17080 -13.438905390000002 14.512168440000002 3.8508958800000004 0.79684 1.455484 2.689211
17100 -7.400762100000001 2.36029581 1.20304935 0.8653860000000001 0.423453 2.308589
17120 0.33874911 1.1298471300000001 1.78697979 0.800607 -0.340928 1.710911
17140 5.40615366 -2.24802036 1.27085607 0.69808 -0.399348 0.95931
17160 4.44261546 -3.67470828 1.10695059 0.6698689999999999 0.983006 0.545008
17180 3.69821304 -4.09039722 0.24114942 0.6818569999999999 2.610957 0.21613
17200 2.64514878 -4.56206202 -1.83683421 0.5234439999999999 1.99186 0.662333
17220 2.3540076 -4.53108204 -2.1806649 0.6975140000000001 1.572634 0.92046
17240 2.69903511 -3.16786482 -0.9259757100000001 0.79293 1.282219 1.002683
17260 -11.18249748 13.09147443 9.77467419 0.893445 1.266158 0.936108
17280 -6.864272820000001 14.51771109 -6.1073037900000005 0.768708 1.618706 0.7927109999999999
17300 -0.40625172 14.99626251 5.648499899999999 0.464834 2.033504 0.6885760000000001
17320 -2.9183278500000003 12.08063241 1.8558361800000003 -0.024444 2.016483 0.5740850000000001
17340 -1.8883269 8.20713429 -0.47555937000000004 -0.143343 2.377948 0.3271
17360 -1.9184141700000001 7.77977145 -1.55361951 -0.13803800000000002 2.444528 -0.076736
17380 -2.6174551500000005 9.2805543 -0.9824028300000001 -0.141943 2.113941 -0.25152800000000003
17400 -2.74693734 11.33293383 0.53498835 0.196406 1.359802 -0.5633239999999999
17420 -1.94819733 11.97509643 -1.11907575 0.230745 0.303427 -0.953767
17440 -2.4932115 11.89411488 -3.70883727 -0.099611 -0.192806 -1.77797
17460 -3.22953048 10.95751494 -4.12347654 -1.464356 -0.466332 -2.255034
17480 -3.94384563 9.740398050000001 -3.1868766 -2.686743 0.179731 -2.387245
17500 -5.0448121200000005 8.76412647 -3.1963040100000004 -2.924702 2.624934 -2.545865
17520 -4.465512 7.18745346 -2.51791308 -3.667192 3.893754 -2.7203880000000003
17540 -1.5040692000000002 5.721398010000001 -0.42930522000000004 -3.300247 2.171067 -3.004037
17560 1.14153084 5.78486871 -1.08389709 -3.246402 1.751714 -2.344031
17580 0.84753495 6.51370266 -1.6991214300000002 -4.141141 1.951773 -1.516256
17600 -2.2609008900000003 5.651796060000001 -2.2107521700000006 -3.995608 1.133107 -1.242862
17620 -3.54777669 5.39882559 -1.3611178800000001 -3.491771 1.262098 -1.170073
17640 -3.6988114500000004 5.92872255 -0.76490532 -3.036742 1.53876 -1.486648
17660 -3.07580778 7.047042930000001 0.21465261000000002 -2.471423 1.611683 -2.09702
17680 -2.25939996 8.30143782 -0.22737618 -2.606523 -0.886973 -1.834116
17700 -1.0856923200000002 8.63734203 -0.5471135100000001 -2.318218 -1.119788 -1.405583
17720 -1.7787492000000003 8.58389715 -0.93719835 -1.848193 -1.277483 -0.7398
17740 -3.5256159 8.22120183 -1.20963186 -1.162407 -0.775026 -0.181246
17760 -6.730748909999999 7.9330527 -1.74717081 -0.350071 -0.328547 0.4135140000000001
17780 -9.05601321 9.493705980000001 -2.3553515700000003 0.473949 0.214288 0.8779100000000001
17800 -5.33640456 12.61890711 -2.31688656 1.437395 0.6564949999999999 1.078489
17820 -1.9396626300000002 16.269365070000003 -1.33567074 2.0066080000000004 1.024249 1.325548
17840 -1.34405829 15.98870097 -0.5748071400000002 0.961813 2.105143 1.521964
17860 -2.00403585 13.126054680000001 0.83930436 -0.067909 2.4732220000000003 1.209857
17880 0.53663643 16.255895940000002 5.45854887 -0.154973 -0.122783 -0.06288200000000001
17900 1.8507546000000001 19.53737037 2.44740861 -0.175717 0.216904 -0.809081
17920 3.33311427 17.64126414 -0.7568218800000002 0.35838600000000004 1.986969 -0.367511
17940 3.65105637 17.74739853 3.08134062 0.506428 3.809764 0.807299
17960 0.77927697 16.596440280000003 2.2775092200000002 0.077463 3.890761 0.903544
17980 -1.19855637 12.099634380000001 -0.6188148 0.027854000000000004 2.090481 0.405577
18000 -1.85764122 8.920252620000001 -2.03860629 0.6345189999999999 3.069014 0.526065
18020 -3.4214337000000006 7.59670704 -3.0514005 0.645111 3.545299 1.022251
18040 -5.0289395400000005 7.25271939 -1.32684174 0.561661 3.816155 1.823556
18060 -3.724857 6.1255602 -0.5954571900000001 -0.14110599999999998 3.778666 1.951155
18080 -1.6190325900000002 3.83681853 -0.98270694 0.148427 2.260162 1.289621
18100 -0.33949467 1.7312982300000002 -0.6072880500000001 0.780872 2.689271 1.057412
