time Ax Ay Az Gx Gy Gz
20 1.38806595 10.06072398 0.83645946 -0.064239 -0.293767 -0.006481999999999999
40 1.52846667 10.109077470000003 0.8842145400000001 -0.076912 -0.262839 -0.004473
60 1.5865516800000001 10.12090833 0.96788403 -0.093757 -0.230749 -0.022792
80 1.57547619 10.003551300000002 0.9542677500000001 -0.093431 -0.173165 -0.037818
100 1.59418386 9.68650191 1.03494519 -0.07370499999999999 -0.058179 -0.038896
120 1.5783210900000002 9.521850870000002 1.18958022 -0.050831 0.056749 -0.028202
140 1.64612781 9.35254989 1.4223420900000001 -0.031527 0.08329600000000001 -0.023828
160 2.1055203 9.32425785 1.63369854 -0.021064 0.065039 0.0040420000000000005
180 2.33304363 9.72617355 1.71063837 -0.012301 -0.041841 0.084357
200 2.05596999 10.0875249 1.9461078 0.010964 -0.076058 0.096314
220 1.49284656 9.76300029 2.08935342 0.016288 -0.06865800000000001 0.105956
240 0.77329287 9.588009510000001 1.82110878 0.025986 -0.025106 0.1284
260 0.23172201 9.707917140000001 1.57876254 0.043051 -0.051695000000000005 0.102916
280 -0.034727400000000005 9.81449298 1.20304935 0.062279 -0.09312 0.056102
300 -0.06870924 9.85939335 1.0340524800000002 0.06026 -0.096193 0.02725
320 -0.053739180000000004 9.91478061 1.0524658500000001 0.052945000000000006 -0.076932 0.012219
340 0.2342628 9.92989782 1.16861625 0.039421 -0.023527 -0.011445
360 0.7059276 9.83963601 1.31337261 0.0076209999999999984 0.014963999999999996 -0.019194
380 0.94827384 9.818829 1.3961493900000002 0.0024170000000000003 0.04905 -0.013933
400 1.57188573 9.90968922 1.5621542100000003 0.003651 0.100124 -0.000103
420 1.84042467 9.986334750000001 1.5549634799999998 0.008076999999999999 0.152239 0.016953
440 1.99804194 9.859246200000001 1.55675871 0.014536000000000004 0.16606 0.018049000000000003
460 1.3841713800000002 9.735453810000001 1.6381915200000001 0.019913 0.175629 0.018074
480 1.00456362 9.53577126 1.60361127 0.040107 0.15427000000000002 0.013969
500 0.9199916100000001 9.625287510000001 1.59044625 0.06451 0.126479 0.016312
520 0.8617594500000001 9.671835960000001 1.60257141 0.07516 0.13279100000000002 0.02706
540 0.68647437 9.88110288 1.6564577400000002 0.061334000000000014 0.142426 0.026951
560 0.4568517 9.906844320000001 1.64807019 0.05919 0.12650999999999998 0.013069999999999998
580 0.37436922000000006 9.755515260000001 1.58879817 0.036753 0.100034 -0.006281
600 0.43470072 9.6767802 1.5057172800000003 0.026017 0.080913 -0.010604
620 0.5161237200000001 9.6887484 1.47997584 0.020606 0.067071 -0.00742
640 0.6195603599999999 9.72153342 1.3992885900000003 0.012081 0.071353 -0.005348
660 0.8146027800000001 9.83664396 1.3475016 0.014229 0.074541 -0.005337
680 0.95097159 9.95325543 1.38716343 0.009856 0.047937 -0.008537999999999999
700 1.0532114099999998 9.874814670000001 1.4416481700000001 0.003311 0.017063 -0.007476000000000002
720 1.16997003 9.7724277 1.35857709 0.001115 0.009588 -0.001073
740 1.17490446 9.831709530000001 1.24136721 0.009611 0.010585 0.008598999999999999
760 1.1461709699999998 9.818377739999999 1.3446567 0.012769 0.009474 0.017169
780 1.11338595 9.79697232 1.344951 0.009592 0.011629 0.013938999999999998
800 1.21637133 9.71988534 1.2717585900000001 0.017099 0.018003 0.011847
820 1.3404580200000002 9.56615283 1.35258318 0.020309 0.015878 0.007599
840 1.34136054 9.60971904 1.39823892 0.022404 0.007349 0.007625
860 1.2717585900000001 9.67886973 1.2948120900000002 0.019232 0.015874 0.009728
880 1.16892036 9.76419711 1.27848825 0.023528 0.019067 0.006548999999999999
900 1.17970155 9.83484873 1.25259966 0.022438 0.012684 0.005482
920 1.2495978 9.891285660000001 1.23433344 0.018127 0.008416 0.010798
940 1.3401637199999998 9.79742358 1.27250415 0.019204 0.0073599999999999985 0.0076019999999999985
960 1.2521484 9.74638215 1.28881818 0.013946 0.01063 -0.006326
980 1.05500664 9.81987867 1.20783663 0.014128 0.036256 -0.021312
1000 0.9397489500000001 9.83245509 1.1332904400000001 0.001407 0.041678 -0.034227
1020 0.94393782 9.803711790000001 1.12505985 -0.016744 0.03218 -0.040751
1040 1.00695726 9.79593246 1.2025980900000002 -0.024236 0.012025 -0.055732
1060 1.06024518 9.78889869 1.2602318400000003 -0.024279 -0.00605 -0.06425499999999999
1080 1.0124901 9.81074556 1.2506474699999999 -0.033862 -0.009183 -0.071796
1100 0.9842078700000001 9.77646942 1.31142042 -0.038024 0.015329 -0.070788
1120 1.0448238600000002 9.743390100000001 1.33237458 -0.032646 0.030203 -0.065428
1140 1.06787736 9.737101890000002 1.2976471800000002 -0.035895 0.029110000000000007 -0.055836
1160 0.96025185 9.75326877 1.27040481 -0.031747000000000004 0.009891 -0.048304
1180 0.96474483 9.76628664 1.2304388700000002 -0.028647 0.004485 -0.031184
1200 1.05081777 9.743841360000001 1.2603789900000002 -0.032943 0.018268 -0.010936
1220 1.15918884 9.755368110000001 1.2578382000000001 -0.029748 0.02674 -0.00131
1240 1.14526845 9.72153342 1.2723570000000002 -0.015835 0.036279 -0.001225
1260 1.1258054100000001 9.71689329 1.28567898 -0.005128 0.044764 -0.001161
1280 1.1795445900000001 9.78245352 1.2750449400000001 0.002278 0.033011 0.001042
1300 1.1945146500000001 9.824822910000002 1.2088863 0.006462999999999999 0.014887 0.001094
1320 1.16636976 9.819133110000001 1.21023027 0.005334 0.007408 0.007504999999999999
1340 1.0716247800000003 9.78485697 1.2356774099999999 0.00421 0.004178 0.017116
1360 1.0041123600000001 9.80266212 1.23657993 -0.00012 -0.004351 0.022437
1380 1.01953368 9.863287920000001 1.1493101700000001 -0.000187 -0.013959 0.02779
1400 1.04871843 9.80895033 1.06443405 0.001947 -0.006540000000000001 0.035273
1420 1.02087765 9.82841337 1.0681814699999999 -0.001244 0.001968 0.041649
1440 0.94513464 9.84143124 1.01982798 -0.007693000000000002 -0.003357 0.046952
1460 0.9113097600000001 9.84577707 0.97956774 -0.006603 -0.002279 0.042686
1480 0.9651960900000001 9.81344331 0.98584614 0.014835 0.01259 0.035338999999999995
1500 1.00021779 9.75865446 1.03659327 0.022395 0.019011 0.021497
1520 1.0355436 9.819133110000001 1.06249167 0.019242 0.023309 0.01506
1540 1.06787736 9.820182780000001 1.08839007 0.006506999999999999 0.044634 0.021353
1560 1.0990143 9.835447140000001 1.17774936 0.0012779999999999998 0.065966 0.019152
1580 1.12505985 9.826912440000001 1.24765542 0.004589 0.077724 0.006342
1600 1.1662226100000002 9.787397760000001 1.2740050800000002 0.008846 0.063907 -0.005361
1620 1.2156257700000002 9.854753220000003 1.26996336 0.003507 0.069227 0.001004
1640 1.1817910800000002 9.89157996 1.25798535 0.003493 0.070275 0.005275
1660 1.10963853 9.73650348 1.2609774000000002 0.006659999999999999 0.07235599999999999 0.014909
1680 1.0761079500000001 9.66330126 1.25858376 0.012081 0.08939 0.012788
1700 0.9563572800000001 9.84053853 1.30917393 0.016343 0.0777 0.002151
1720 0.7650622800000001 9.895023270000001 1.31756148 0.017353 0.067035 0.004308
1740 0.74485368 9.844727400000002 1.3066331400000002 0.02483 0.078688 0.013959
1760 0.7137167400000001 9.799071660000001 1.29974652 0.028036 0.08717000000000001 0.021449
1780 0.64770525 9.804015900000001 1.26427356 0.034475 0.098852 0.024683
1800 0.5953100400000001 9.77063247 1.30064904 0.033418 0.102048 0.02574
1820 0.77958108 9.721386270000002 1.3705452900000001 0.033437 0.097821 0.0172
1840 0.98974071 9.75431844 1.3720462199999999 0.03237 0.095702 0.015059
1860 1.1681748 9.72871434 1.38851721 0.030227 0.102067 0.023581
1880 1.2347847 9.8128449 1.42248924 0.03349 0.109538 0.017185
1900 1.1567952000000001 9.9138879 1.4063223599999999 0.040948000000000005 0.097833 0.007638
1920 0.96848244 9.89772102 1.36126503 0.044087 0.089278 0.013012
1940 0.9172938600000001 9.843383430000001 1.29226149 0.040872000000000006 0.098826 0.025796
1960 0.8843616900000001 9.80805762 1.2650191200000003 0.044077 0.097758 0.023683000000000003
1980 0.8222447700000001 9.8213796 1.28747421 0.043092 0.102078 0.009784
2000 0.86130819 9.787544910000001 1.3418117999999999 0.042068 0.106364 0.00443
2020 0.8714909700000001 9.78470001 1.30573062 0.033519 0.10532 0.006508
2040 0.87852474 9.73515951 1.2754962 0.019649 0.105369 0.006412
2060 0.9873470700000001 9.7348554 1.24765542 0.00579 0.093754 -0.007556999999999999
2080 1.0699767 9.83948886 1.19676114 -0.000616 0.087407 -0.012935
2100 1.04512797 9.909542069999999 1.23462774 -0.007022 0.08212 -0.017246
2120 0.9756731700000001 9.803417490000001 1.26726561 0.0101 0.084229 -0.026743
2140 1.0282155300000004 9.79009551 1.2584366100000002 0.009971 0.042735 -0.039509
2160 1.0659349800000002 9.887842350000001 1.26996336 -0.007271 0.008689 -0.035313
2180 0.92686842 9.82631403 1.2190690800000001 0.032413 0.092558 0.0022440000000000003
2200 0.86864607 9.7493742 1.1596401 0.018659 0.14682 0.030921
2220 0.9924384600000001 9.71883567 1.15275348 0.017453 0.126541 0.04162
2240 1.05994107 9.7029729 1.13029839 0.038618 0.098727 0.052486
2260 1.0704279600000002 9.830502899999999 1.18224234 0.037695 0.115834 0.037503
2280 1.04557923 9.846071370000002 1.1132388 0.043 0.09457 0.022612
2300 1.1201254200000001 9.73590507 1.09183338 0.0356 0.102083 0.015073
2320 1.20484458 9.70641621 1.1036544300000002 0.022821 0.111698 0.019244
2340 1.09991682 9.74533248 1.12700223 0.006693999999999999 0.080874 0.015966
2360 1.01953368 9.846669780000001 1.1482605000000001 -0.008228000000000001 0.078817 0.010524
2380 0.9313614 9.871675470000001 1.0240168500000002 -0.005075 0.057543 -0.000109
2400 1.2195105300000002 9.608963670000001 1.1103939 -0.007223999999999999 0.04905 -0.005454
2420 1.2331366200000002 9.883202220000001 1.28044044 0.002373 0.052195000000000005 -0.001119
2440 0.9743193900000001 9.96103476 1.0865948400000003 0.00555 0.047918 -2.3e-05
2460 0.9692378100000001 9.85130991 1.0759608 0.003368 0.036212 -0.001091
2480 0.96340086 9.891285660000001 1.1455725600000002 -0.000995 0.009617 -0.006429000000000001
2500 1.09647351 9.83425032 1.24435926 -0.004263 0.00108 -3.1e-05
2520 1.21038723 9.97585767 1.1300040900000001 -0.010645 0.009608 0.004186
2540 1.3102235999999998 9.80026848 1.11682926 -0.019175 0.013886 0.007326000000000002
2560 1.2340293300000003 9.68606046 1.05620346 -0.010669 0.008525 0.008459999999999999
2580 1.13988276 9.804015900000001 1.0409391000000001 -0.01174 0.004281 0.005254
2600 0.9154986300000001 9.847268190000001 1.0005219 -0.005372999999999999 -0.001076 0.007441
2620 0.94078881 9.80162226 1.03719168 -0.002206 -0.001117 0.014941
2640 1.03974228 9.740241090000001 1.05426108 -0.004378 -0.001144 0.023472
2660 1.08434835 9.72946971 1.07446968 -0.004315 0.013765 0.024521
2680 1.09227483 9.743684400000001 1.05605631 -0.001057 0.01911 0.01706
2700 1.11173787 9.767787570000001 1.05426108 0.003181 0.005277 0.009629
2720 1.14900606 9.767934720000001 1.06084359 -0.001163 -0.014936 0.00642
2740 1.21322232 9.79682517 1.0782072900000002 -0.003368 -0.022419 0.01496
2760 1.23687423 9.77452704 1.05949962 -0.011898 -0.021324 0.014899
2780 1.2433194000000003 9.77317326 1.1160837000000001 -0.016152 -0.028723 0.004197
2800 1.1186244900000002 9.7812567 1.10530251 -0.012908 -0.022330000000000003 0.001007
2820 1.08524106 9.7986204 1.06608213 -0.013898 0.003206 0.009513
2840 1.14631812 9.791439480000001 1.0681814699999999 -0.0074680000000000015 0.013819 0.013817
2860 1.14571971 9.857755080000002 1.09647351 0.001148 0.034021 0.015988
2880 1.07910981 9.914486310000001 1.0844955 0.019275 0.037132 0.021451
2900 0.95381649 9.864033480000002 1.07132067 0.027834 0.051977 0.031106
2920 0.9424368900000001 9.75700638 1.06069644 0.024648 0.05094 0.026812
2940 1.03225725 9.69862707 1.0662292800000002 0.015104 0.051025 0.013927000000000002
2960 1.06413975 9.68186178 1.04542227 0.013008 0.044701 -0.001035
2980 1.04108625 9.787544910000001 1.0699767 0.002369 0.036275 -0.016053
3000 0.9657945 9.82841337 1.0930302 -0.010568 0.000127 -0.022507
3020 0.9767228400000001 9.793087560000002 1.1332904400000001 -0.021285 -0.020038 -0.03217
3040 0.9892894500000001 9.84307932 1.09991682 -0.028848 -0.031768 -0.022593
3060 0.9229836600000001 9.899212140000001 1.10035827 -0.027834 -0.030757 -0.009769
3080 0.9398961000000001 9.938579670000001 1.11577959 -0.024586 -0.02436 -0.014027
3100 0.89678115 9.880504470000002 1.1030560200000001 -0.016118 -0.026571 -0.001147
3120 0.9937824300000001 9.840234420000002 1.14407163 -0.005344 -0.009539 -0.007503
3140 1.08554517 9.77721498 1.18284075 0.02052 0.031981 -0.023399
3160 1.10021112 9.76972995 1.17041148 0.033456 0.060702 -0.024413
3180 1.1533518900000002 9.80281908 1.11967416 0.025993 0.054367 -0.031935000000000005
3200 1.2337350300000003 9.7288713 1.15754076 0.029352 0.065106 -0.056494
3220 1.33402266 9.75716334 1.19690829 0.031495 0.056619 -0.067151
3240 1.2582796500000002 9.72467262 1.1511054 0.037968 0.070454 -0.069259
3260 1.22175702 9.7143525 1.0975133700000002 0.026175 0.073627 -0.053323
3280 1.22759397 9.78889869 1.10575377 0.008101 0.092844 -0.048132
3300 1.1573936100000002 9.78679935 1.09407006 0.006111 0.13648 -0.036452
3320 1.09437417 9.80954874 1.08045378 -0.007744 0.141846 -0.034419
3340 1.01384388 9.88454619 1.06054929 -0.024862 0.146107 -0.019589
3360 1.0762649100000001 9.89636724 1.08643788 -0.027058 0.155609 0.003884
3380 1.0355436 9.846669780000001 1.1578448700000001 -0.0228 0.173622 0.024187
3400 1.0150407000000001 9.78829047 1.17535572 -0.001707 0.116036 0.021204
3420 0.8906499 9.820182780000001 1.15364619 0.002565 0.116025 0.020165
3440 0.9184906800000001 9.75176784 1.1319464700000001 0.0046890000000000005 0.108582 0.014849
3460 0.8885505600000001 9.7263207 1.1397258000000001 0.000427 0.112846 0.018018
3480 0.88077123 9.7288713 1.1343401100000001 -0.007137 0.094749 0.021193
3500 0.84798621 9.75296466 1.08255312 -0.002975 0.07236000000000001 0.022319
3520 0.91698975 9.89756406 1.04452956 -0.013668 0.06601 0.021184
3540 0.9125065800000001 9.9284067 1.00590759 -0.028676 0.050083 0.0211
3560 0.95950629 9.85250673 0.98988786 -0.027619 0.039461 0.012575
3580 1.0856923200000002 9.871822620000001 0.94707702 -0.02968 0.056508 0.013607
3600 1.16009136 9.84412899 0.9949792500000001 -0.039124 0.093817 0.01563
3620 1.10800026 9.821075490000002 0.9683352900000001 -0.027408 0.08421000000000001 0.010383
3640 1.04228307 9.80565417 0.9744763500000001 -0.013548 0.07990900000000001 0.008348999999999999
3660 1.0523088900000002 9.96971661 0.77089923 -0.0083 0.068143 0.015878
3680 1.11099231 10.01223315 0.8066763 -0.00299 0.079774 0.032992
3700 1.1060480700000002 9.97270866 0.8214894 0.005579 0.104177 0.050112
3720 1.12431429 9.73739619 0.88510725 0.008759999999999999 0.0946 0.044805000000000005
3740 1.17221652 9.70776018 0.9276237900000001 0.014066 0.087129 0.043784
3760 1.2261028499999997 9.81643536 1.0027683900000002 0.001311 0.105253 0.051149
3780 1.19302353 9.72273024 1.08195471 -0.011419 0.115972 0.045705
3800 1.12865031 9.783503190000001 1.0532114099999998 -0.011515 0.07769 0.028662
3820 1.08614358 9.896524200000002 1.0431855900000004 -0.012615 0.064932 0.02333
3840 0.9587607300000001 9.87151851 1.04572638 -0.016873 0.06601699999999999 0.02223
3860 0.92523015 9.771829290000001 1.1557455300000001 -0.015969 0.035099 0.027617000000000003
3880 0.9803133 9.77737194 1.17865188 -0.025571 0.039376 0.031818
3900 1.08315153 9.870625800000001 1.15380315 -0.030858 0.04156 0.023232
3920 1.14631812 9.867476790000001 1.1681748 -0.020141 0.047931 0.019026
3940 1.0591955100000001 9.920323260000002 1.17341334 -0.015802 0.061773 0.016902
3960 0.98689581 9.808351920000002 1.18643121 -0.017935 0.055415 0.010486
3980 1.03510215 9.75716334 1.1485646100000002 -0.019002 0.05754 0.012612
4000 1.12176369 9.76613949 1.1011136400000001 -0.01905 0.057498 0.023294
4020 1.1066464800000002 9.71105634 1.09183338 -0.014888 0.036169 0.025487
4040 1.0503665100000001 9.683961120000001 1.1277576 -0.010774 0.0063100000000000005 0.029827
4060 1.04527512 9.88155414 1.13120091 -0.001354 -0.01935 0.044881
4080 1.07550954 9.899212140000001 1.10619522 0.009247 -0.023691 0.055642
4100 1.13448726 9.77452704 1.16906751 0.023083000000000003 -0.026952 0.060016
4120 1.15065414 9.787544910000001 1.21367358 0.043396 -0.017436 0.06014600000000001
4140 1.06024518 9.80640954 1.15065414 0.06476699999999999 -0.00687 0.063486
4160 0.9930368700000001 9.78036399 1.12700223 0.071168 -0.001588 0.068865
4180 0.95561172 9.81793629 1.10635218 0.072264 0.0026780000000000003 0.066731
4200 0.9638423100000001 9.79877736 1.0827002700000001 0.075555 0.025029 0.068862
4220 1.09392291 9.78634809 1.0958751 0.077737 0.038857 0.072064
4240 1.19092419 9.765246780000002 1.08928278 0.075623 0.046309 0.075244
4260 1.20304935 9.80416305 1.12940568 0.074599 0.059083 0.078426
4280 1.14676938 9.85984461 1.21996179 0.07346 0.05584 0.09124
4300 1.1105410500000001 9.86283666 1.27864521 0.076752 0.058030999999999985 0.073101
4320 1.17296208 9.85415481 1.29974652 0.07691 0.081514 0.061321
4340 1.1511054 9.88079877 1.27534905 0.080341 0.101866 0.030341000000000007
4360 1.09736622 9.884399040000002 1.3238496900000003 0.07724600000000001 0.098788 0.003618
4380 0.97821396 9.8617968 1.38955707 0.061338 0.09893 -0.017858000000000002
4400 0.84813336 9.87780672 1.4533318800000001 0.044436 0.106565 -0.047896
4420 0.79110783 9.84053853 1.4691946500000002 0.021057 0.102484 -0.07262300000000001
4440 0.8129547 9.88454619 1.3750382700000001 0.002977 0.094111 -0.094103
4460 0.8890018199999999 9.922864050000001 1.3537800000000002 -0.032282 0.062357 -0.114605
4480 0.91624419 9.828109260000002 1.3822290000000002 -0.06011100000000001 0.024177 -0.13291
4500 0.91010313 9.851162760000001 1.3509449100000002 -0.070909 0.002879 -0.12548099999999998
4520 0.87193242 9.898613730000001 1.3578217199999998 -0.063566 -0.00999 -0.110458
4540 0.8178989400000001 9.84008727 1.3780303200000001 -0.056127 0.0005679999999999999 -0.093328
4560 0.94947066 9.688306950000001 1.33133472 -0.043449 0.000413 -0.065466
4580 0.83825469 9.66749994 1.21218246 -0.016777 0.016235 -0.049276
4600 0.82808172 9.61300539 1.20828789 0.006573999999999999 0.029839 -0.008537999999999999
4620 0.9184906800000001 9.599085 1.27070892 0.016194999999999998 0.053165 0.010727
4640 1.0916764200000002 9.63516618 1.2159200700000001 0.020443 0.064804 0.026765
4660 1.2031965 9.661810140000002 1.0975133700000002 0.012965 0.072248 0.036318
4680 1.29780414 9.67154166 1.0548594900000001 0.018319 0.082857 0.042751
4700 1.3614219900000002 9.64474074 1.0506608100000001 0.015224 0.106304 0.042699
4720 1.4060280600000001 9.63112446 1.02611619 0.006603 0.074427 0.029861
4740 1.4434532100000004 9.69922548 0.9780668100000001 -0.007372 0.037246 0.015924
4760 1.4528806200000002 9.76599234 0.83750913 -0.030939 0.01284 0.012586
4780 1.51320231 9.81344331 0.7312275899999999 -0.048062 0.006487000000000001 0.017816
4800 1.5619972500000001 9.90026181 0.65832948 -0.055578 0.002226 0.024178
4820 1.5178424400000001 9.94067901 0.6026479200000002 -0.052339 0.010737 0.02419
4840 1.48236948 10.01147778 0.51059088 -0.04366 0.045848 0.027410000000000004
4860 1.30933089 10.05354306 0.37272114 -0.032871 0.075626 0.030652
4880 1.32414399 10.006994610000001 0.32782077000000004 -0.029661 0.07774500000000001 0.030672
4900 1.31531499 9.92900511 0.44128323 -0.033967000000000004 0.063933 0.025318
4920 1.2940567200000002 9.84053853 0.5439645000000001 -0.043502 0.064026 0.010296
4940 1.26771687 9.880651620000002 0.7207505100000001 -0.049654 0.10671 -0.00262
4960 1.1843416800000002 9.79173378 0.8339186700000001 -0.055858000000000005 0.147225 -0.00592
4980 1.18942326 9.680517810000001 0.96728562 -0.07400000000000001 0.138796 -0.013513
5000 1.2726513 9.66135888 0.9967744800000001 -0.090007 0.126116 -0.025359
5020 1.32504651 9.748922940000002 0.97926363 -0.093079 0.138974 -0.041421
5040 1.3210047900000002 9.803417490000001 0.97027767 -0.087562 0.166704 -0.054236
5060 1.2439178100000001 9.82032993 0.9294190200000001 -0.087375 0.202944 -0.059623
5080 1.20185253 9.88364367 0.86235786 -0.081075 0.177368 -0.06275
5100 1.16442738 9.90924777 0.86011137 -0.084726 0.088915 -0.050912
5120 1.14961428 9.83798793 0.85247919 -0.099141 -0.010195 -0.028453
5140 1.1975067000000001 9.75401433 0.81445563 -0.097391 -0.071021 -0.003794
5160 1.1758069800000002 9.70177608 0.7954438500000001 -0.092215 -0.100888 0.001622
5180 1.13104395 9.75042387 0.77613777 -0.054736 -0.06694299999999999 0.005045
5200 1.1076961500000004 9.81119682 0.8126604000000001 -0.027748 0.007515000000000002 0.009411
5220 1.13074965 9.75865446 0.9572598 -0.014706 0.057551 0.006233
5240 1.1539503 9.664802190000001 1.0493168400000001 -0.016844 0.044822 -0.005516
5260 1.17909333 9.661810140000002 0.98151012 -0.029709 0.026774 -0.009856
5280 1.1720595600000001 9.70447383 0.93091014 -0.050114 0.012933000000000002 0.006043
5300 1.22550444 9.747883080000001 1.02761712 -0.062017 0.001154 0.031612
5320 1.2995993700000001 9.84637548 1.2829812299999999 -0.072753 -0.002052 0.043292
5340 1.40138793 9.6944382 1.70944155 -0.060046 -0.014913999999999997 0.051943
5360 1.4618567700000002 9.74279169 2.0460913200000004 -0.044158 -0.042658 0.049953
5380 1.41650514 9.828109260000002 1.9752925500000003 -0.026041 -0.060775 0.036216000000000005
5400 1.2998936700000001 9.894876120000001 1.4193500399999999 -0.016329 -0.04904 0.02345
5420 1.02776427 9.91896948 1.0298538000000002 -0.015157 -0.019242 0.029829
5440 0.8857056600000001 9.84053853 1.0135397700000002 -0.024859 -0.037335 0.034057
5460 0.8069706000000001 9.80101404 1.0720662300000001 -0.019635 -0.053367 0.04266
5480 0.7628157900000001 9.72227898 1.19406339 -0.018563 -0.043817 0.051201
5500 0.75742029 9.73500255 1.31426532 -0.026065 -0.036394 0.066094
5520 0.94199544 9.82646118 1.37594079 -0.016525 -0.046032 0.07044600000000001
5540 1.2609774000000002 9.84353058 1.45542141 -0.012244 -0.050278 0.06300399999999999
5560 1.4316223499999998 9.80565417 1.52592588 -0.00578 -0.050245 0.049162
5580 1.3980917700000002 9.858794940000001 1.4406083100000002 -0.00031600000000000004 -0.039538 0.031027
5600 1.3251936599999998 9.8302086 1.3199551200000001 -0.00334 -0.016027 0.014952000000000003
5620 1.2331366200000002 9.78245352 1.19286657 -0.019333000000000003 -0.008536 0.020172
5640 1.18972737 9.72512388 1.0627859700000002 -0.028887 -0.006338 0.011557
5660 1.2081407400000002 9.66690153 1.05111207 -0.034255 -0.008471 0.016863
5680 1.25409078 9.915379020000001 1.2434665500000002 -0.034231 0.00216 0.022191
5700 1.22160987 9.82796211 1.46141532 -0.022481 0.015925 0.032937
5720 1.2982455900000003 9.71644203 1.38267045 -0.001024 0.030811 0.021318
5740 1.35767457 9.81329616 1.3210047900000002 0.007515999999999998 0.032908 0.022443
5760 1.29720573 9.831709530000001 1.3554280800000003 0.008468 0.015826 0.031017000000000006
5780 1.1425707 9.79218504 1.37563668 0.01286 0.024409 0.011809
5800 1.0180327500000002 9.77273181 1.42683507 0.0064540000000000005 0.025489 0.013899000000000002
5820 0.91205532 9.774968490000001 1.37788317 0.010779 0.032951999999999995 0.008579
5840 0.8821152000000001 9.799071660000001 1.2638223 0.008669 0.028737 -0.001044
5860 0.9544149000000001 9.7784118 1.21337928 0.002282 0.024528 -0.008561
5880 1.01339262 9.71375409 1.37414556 0.003368 0.02348 -0.013893
5900 1.11083535 9.63471492 1.5313115700000002 0.0044740000000000005 0.033059 -0.01283
5920 1.11817323 9.668843910000001 1.5141048300000002 0.006665000000000001 0.041591 -0.017098
5940 1.10425284 9.88634142 1.4831150400000002 0.014152 0.045826 -0.017051
5960 1.00186587 9.890235990000003 1.46470167 0.015257 0.057527 -0.013854
5980 0.99602892 9.83754648 1.48161411 0.014162 0.050079000000000005 -0.01492
6000 1.04034069 9.775566900000001 1.54493766 0.020529 0.037294 -0.020201
6020 1.08509391 9.71763885 1.5756233400000001 0.025902 0.039432 -0.026575
6040 1.1349385200000002 9.74159487 1.6913322899999998 0.017381 0.037352 -0.031973
6060 1.20694392 9.77018121 1.67815746 0.016276 0.029895 -0.030903
6080 1.19601558 9.736954740000002 1.6064561700000002 0.0077129999999999985 0.026716000000000004 -0.027754
6100 1.11577959 9.71674614 1.60466094 0.011961 0.023501 -0.026652
6120 1.08853722 9.69338853 1.58939658 0.024821 0.038362 -0.024445
6140 1.05125922 9.731559240000001 1.5645478499999999 0.036623 0.056417 -0.021181
6160 1.03719168 9.743841360000001 1.52772111 0.035556 0.051116 -0.026523
6180 1.08315153 9.76030254 1.4292287099999998 0.037805 0.066065 -0.037208
6200 1.13239773 9.74458692 1.4275806300000002 0.034806000000000004 0.102329 -0.045822
6220 1.19242512 9.752523210000001 1.43327043 0.036132 0.146057 -0.059755
6240 1.1512525500000002 9.799375770000001 1.40916726 0.047973 0.157781 -0.071438
6260 1.13778342 9.74578374 1.39495257 0.046772 0.122652 -0.07674199999999999
6280 1.23029172 9.71390124 1.3488455700000002 0.043312 0.081054 -0.06069
6300 1.2521484 9.771829290000001 1.3504936500000002 0.030222 0.05644 -0.021226
6320 1.2957048 9.70985952 1.4084217 0.032092 0.04771 0.029005
6340 1.3019930100000001 9.69294708 1.3861137600000002 0.05019 0.066711 0.056881
6360 1.30438665 9.73844586 1.35169047 0.046928 0.046507 0.050475
6380 1.26786402 9.81254079 1.2240035100000002 0.077852 0.021983000000000003 0.029358
6400 1.2573869400000002 9.799670070000001 1.2240035100000002 0.10152 0.046479 0.010264
6420 1.25992773 9.76060665 1.1858328 0.10174 0.089115 0.003801
6440 1.2650191200000003 9.65925954 1.0380942 0.083623 0.089196 -0.000598
6460 1.26532323 9.719434080000001 0.93719835 0.062271000000000014 0.079708 -0.007145
6480 1.14496434 9.862542359999999 0.9544149000000001 0.043068 0.079776 -0.007279000000000002
6500 1.13584104 9.65791557 1.05306426 0.036695 0.092556 -0.000931
6520 1.1612881800000001 9.65057769 1.2451146300000002 0.038805 0.096771 0.008693000000000001
6540 1.2954105 9.71644203 1.5425440200000002 0.048306 0.075428 0.009855
6560 1.48865769 9.84053853 1.7275606200000002 0.060917 0.031711 0.008931
6580 1.5802634699999998 9.9230112 1.75315491 0.070403 0.003989 0.006895999999999999
6600 1.47727809 9.903852270000002 1.55960361 0.072475 -0.009866 0.006928
6620 1.13763627 9.95818986 1.2126239099999998 0.062959 0.0008539999999999999 -0.001698
6640 0.8258352300000001 9.97002072 0.88615692 0.055578 0.010506 -0.011376
6660 0.72658746 9.783503190000001 0.83256489 0.043991 0.041448 -0.013633
6680 0.9093575700000001 9.71899263 0.9096616800000001 0.029141000000000007 0.061736 -0.012694
6700 1.13419296 9.661810140000002 1.04512797 0.021668 0.066002 -0.007411
6720 1.25798535 9.69878403 1.10155509 0.023826 0.072382 -0.006336
6740 1.37518542 9.73246176 1.09991682 0.030227 0.07448099999999999 -0.004157
6760 1.49628987 9.71075223 1.0976703300000001 0.032418 0.083013 -0.008426000000000001
6780 1.4923952999999999 9.69907833 1.10695059 0.025008 0.090517 -0.013828
6800 1.4346144 9.740093940000001 1.05964677 0.013330000000000002 0.098036 -0.019261
6820 1.3847697899999998 9.855057330000001 1.05276015 -0.002668 0.090669 -0.027909
6840 1.36291311 9.85206528 1.04438241 -0.015475999999999997 0.08328300000000001 -0.034398000000000005
6860 1.30917393 9.79712928 1.02836268 -0.015513999999999997 0.070517 -0.038655
6880 1.21876497 9.833504759999999 1.0523088900000002 -0.0059310000000000005 0.069405 -0.035382
6900 1.0409391000000001 9.791586630000001 1.00800693 0.001541 0.07787100000000001 -0.027863
6920 0.9485779500000001 9.787849020000001 1.0449808200000001 0.006833 0.07993600000000001 -0.016078
6940 0.89273943 9.7986204 1.0773145800000001 0.010019 0.084156 -0.008584
6960 0.8300241 9.84697389 1.0469232 0.011062 0.088375 0.001032
6980 0.7851139200000001 9.934842060000001 1.0642869000000001 0.016353 0.085135 0.007483
7000 0.7890084900000001 9.910591740000001 1.0767063600000002 0.022682 0.071256 0.009681
7020 0.8340658200000001 9.849671640000002 1.06084359 0.024778 0.060604 0.007573000000000002
7040 0.8684891100000001 9.82122264 1.04886558 0.021543 0.047854 0.002226
7060 0.9951264000000001 9.81045126 1.0463247900000001 0.018348 0.043625 -0.003132
7080 1.0877916599999997 9.80565417 1.01279421 0.006659999999999999 0.051136 -0.006428
7100 1.16577135 9.74458692 0.9710330400000001 -0.01461 0.065063 -0.007663
7120 1.20140127 9.75356307 0.92552445 -0.03576 0.08970700000000001 -0.024934
7140 1.1726579700000002 9.764795520000002 0.9035206200000001 -0.048625 0.090757 -0.01007
7160 1.17999585 9.825715620000002 0.91175121 -0.053988 0.066347 -0.028236
7180 1.2073853700000001 9.89292393 0.95695569 -0.049769 0.042948 -0.040995
7200 1.2407688000000001 9.91358379 0.92358207 -0.04231 0.040791 -0.04094
7220 1.21322232 9.8854389 0.9313614 -0.032704000000000004 0.057738 -0.024872
7240 1.25184429 9.85340925 0.9225324 -0.020978 0.069359 -0.010918
7260 1.2094847100000001 9.815689800000001 0.95082444 -0.009295 0.06821 -0.000152
7280 1.15095825 9.80581113 0.9681881400000001 -0.009329 0.069242 0.008392
7300 1.0837499400000001 9.847572300000001 0.9572598 -0.015773 0.06604299999999999 0.01476
7320 1.06548372 9.88260381 0.86669388 -0.013658000000000002 0.06813999999999999 0.021182
7340 1.1021535 9.783208890000001 0.8735805000000001 -0.011587 0.058528 0.025481
7360 1.18478313 9.70147197 0.9833053500000001 -0.014864 0.044678 0.028681
7380 1.18343916 9.743988510000001 1.04422545 -0.012874000000000002 0.008468999999999999 0.024468
7400 1.0672789500000002 9.75805605 1.09527669 -0.004493 -0.029893 0.020303
7420 0.99588177 9.68291145 1.08583947 0.008199 -0.0555 0.019356
7440 0.8006823900000002 9.72557514 1.0743127199999998 0.011448 -0.043798 0.020432
7460 0.75832281 9.77826465 1.0343467800000004 0.003057 -0.014993 0.017131999999999998
7480 0.9135464400000001 9.90370512 1.00320984 -0.006411 0.008502 0.010627
7500 1.01833686 9.921372930000002 1.0093509 -0.014883 0.018136000000000003 0.006282
7520 1.05081777 9.85056435 1.0352493 -0.020155000000000003 0.029881 0.004094
7540 1.06608213 9.82856052 1.02896109 -0.016907 0.038401 0.0019690000000000003
7560 1.12790475 9.839783160000001 0.9984225600000001 -0.01683 0.052262 -0.001253
7580 1.20245094 9.88304526 0.9879454800000002 -0.016666999999999998 0.081054 -0.008766
7600 1.2084350400000001 9.833651910000002 1.00800693 -0.015485 0.093884 -0.021593
7620 1.19257227 9.850417199999999 1.01279421 -0.01969 0.097138 -0.032309
7640 1.1511054 9.88454619 1.03793724 -0.032469 0.096143 -0.038806
7660 1.1231174700000002 9.906098759999999 1.05186744 -0.039927 0.098299 -0.038861
7680 1.1081474100000002 9.79383312 1.05994107 -0.048443 0.105773 -0.035725
7700 1.09707192 9.76659075 1.06847577 -0.049548 0.100438 -0.032521
7720 1.06249167 9.76898439 1.05350571 -0.048539 0.085529 -0.034632
7740 0.96340086 9.807302250000001 1.0671318 -0.053921 0.070651 -0.038923
7760 0.9029222100000001 9.79189074 1.14631812 -0.049711 0.056792 -0.039944
7780 0.8843616900000001 9.77108373 1.21023027 -0.048663 0.054649 -0.037798000000000005
7800 0.8448470100000001 9.85415481 1.15065414 -0.045506 0.051417 -0.031362
7820 0.87313905 9.88454619 1.09707192 -0.04774 0.038603 -0.021747
7840 0.83212344 9.84412899 1.09093086 -0.048956 0.015132 -0.012112
7860 0.8138572199999999 9.79203789 1.09511973 -0.048047 -0.010476 -0.002459
7880 0.77014386 9.791586630000001 1.0880859600000001 -0.046043 -0.027575 0.009328
7900 0.7788257100000001 9.74174202 1.0412334 -0.045072 -0.037213 0.021097
7920 0.89229798 9.780962400000002 1.04467671 -0.045091 -0.035108 0.027504
7940 1.03494519 9.84831786 1.08538821 -0.047249 -0.046793 0.021094
7960 1.12969998 9.86627997 1.0945213200000001 -0.047301 -0.06169400000000001 0.017908
7980 1.13209362 9.862689510000001 1.0585971 -0.050536000000000005 -0.067017 0.020029
8000 1.12760064 9.763598700000001 1.02881394 -0.049517 -0.072369 0.025384
8020 1.15349904 9.759409830000001 0.9231308100000001 -0.054932 -0.081972 0.033904000000000004
8040 1.1539503 9.83948886 0.87792633 -0.062429 -0.08727599999999999 0.034927
8060 1.1410795800000002 9.815238540000001 0.85637376 -0.063539 -0.090494 0.041333
8080 1.20364776 9.819427410000001 0.93600153 -0.065692 -0.093686 0.04239
8100 1.26247833 9.835143030000001 0.96414642 -0.058186 -0.087312 0.040298
8120 1.3016889 9.860295870000002 0.99033912 -0.045407 -0.081012 0.05213
8140 1.27355382 9.82661814 1.02910824 -0.031418 -0.071405 0.035123
8160 1.2921143400000001 9.80162226 1.06069644 -0.016434 -0.053378 0.042682
8180 1.27879236 9.82856052 1.0698295500000001 -0.001613 -0.052471 0.06949
8200 1.217421 9.82766781 1.0659349800000002 0.011419 -0.018359 0.052446000000000007
8220 1.11338595 9.792783450000002 1.0844955 0.016854 0.012481 0.06099
8240 1.0330028100000002 9.774968490000001 1.1094913800000001 0.01263 0.014656 0.053481
8260 1.0330028100000002 9.83200383 1.1111394600000002 0.000981 0.011591 0.03097
8280 1.0767063600000002 9.815689800000001 1.1668210200000002 -0.010616 0.021304 0.009513
8300 1.0972190700000002 9.80026848 1.25664138 -0.020088 0.02888 -0.011928
8320 1.05560505 9.832150980000002 1.28956374 -0.037115 0.021551 -0.029129
8340 1.0008162 9.83679111 1.2780468 -0.05097 0.013124 -0.040965
8360 0.9479795400000001 9.83035575 1.27085607 -0.058375 0.025938 -0.042102
8380 0.9122024700000001 9.82332198 1.2407688000000001 -0.066858 0.034502 -0.045377
8400 0.8963397000000001 9.74174202 1.17894618 -0.061514 0.033431 -0.048543
8420 0.8116107300000001 9.8043102 1.2031965 -0.057304 0.020633 -0.048497000000000005
8440 0.9726811200000001 9.791292330000001 1.31576625 -0.053079 0.012092 -0.047388
8460 0.9225324 9.86433759 1.3913522999999999 -0.042497 0.007734 -0.032353
8480 0.84813336 9.89622009 1.38790899 -0.032939 0.014028 -0.016271
8500 0.9339120000000001 9.83290635 1.4437475100000001 -0.02549 0.012924 -0.013013
8520 0.8376562800000001 9.81583695 1.5521185800000001 -0.017983000000000002 0.02142 -0.012972
8540 0.7750881000000001 9.72557514 1.5437408400000001 -0.017873 0.045921 -0.013002
8560 0.73781991 9.70462098 1.43372169 -0.0093 0.05123 -0.016153999999999998
8580 0.7505434800000002 9.71734455 1.36186344 0.00023 0.040523 -0.010733
8600 0.7774817399999999 9.74563659 1.45257651 0.007617 0.031936 -0.001056
8620 0.7581756600000001 9.81777933 1.5437408400000001 0.011807 0.026548 0.010731
8640 0.86804766 9.77512545 1.52577873 0.01595 0.006263 0.018263
8660 0.9442321200000001 9.79218504 1.42143957 0.019141 0.010488 0.024689
8680 0.95216841 9.771230880000001 1.36530675 0.016017 0.020116 0.017178
8700 1.03195314 9.67857543 1.3278914099999999 0.0076310000000000015 0.040437 0.004274
8720 1.13404581 9.72976401 1.3090267800000002 -0.005065999999999999 0.053307000000000014 -0.006513
8740 1.17176526 9.854910180000001 1.30573062 -0.019873 0.073634 -0.015188
8760 1.1681748 9.8936793 1.3181598900000002 -0.033766000000000004 0.064112 -0.019546
8780 1.1078433 9.829610190000002 1.2752019000000003 -0.039177 0.048147 -0.018495
8800 1.0523088900000002 9.79488279 1.19302353 -0.02968 0.033166 -0.009864
8820 1.0767063600000002 9.81478728 1.2091806 -0.020131 0.034147000000000004 0.00302
8840 1.0720662300000001 9.75685923 1.2274468200000002 -0.004124 0.042583 0.010599
8860 1.08105219 9.73650348 1.3458535200000001 0.005497 0.04681 0.010661
8880 1.14002991 9.73260891 1.3816305900000003 0.008775 0.057477 0.004261
8900 1.1720595600000001 9.77781339 1.34300862 0.005627 0.064962 -4.4e-05
8920 1.17490446 9.7929306 1.3494439800000002 0.007759999999999999 0.064955 -2.9e-05
8940 1.16757639 9.752219100000001 1.3145694300000001 0.0013310000000000002 0.06283 0.004202
8960 1.05770439 9.7986204 1.23148854 -0.011486 0.05649600000000001 0.000916
8980 0.9322639200000001 9.827814960000001 1.2162241800000002 -0.021122 0.049072000000000005 0.000858
9000 0.88510725 9.81868185 1.20469743 -0.023265 0.039522 -0.006622
9020 0.97641873 9.80071974 1.1858328 -0.023246 0.034234 -0.01623
9040 1.0334540700000001 9.768385980000001 1.2265541100000001 -0.023212 0.034264 -0.023707
9060 1.0795512600000001 9.752219100000001 1.3108220099999999 -0.025327 0.039594 -0.02266
9080 1.125207 9.76254903 1.33881975 -0.032833 0.041708 -0.012033
9100 1.17760221 9.80385894 1.3244481 -0.040387 0.028925 -0.00566
9120 1.1798487 9.82032993 1.21682259 -0.040536 0.007573000000000002 0.006116
9140 1.11982131 9.78335604 1.27011051 -0.027839 -0.002115 0.020104
9160 1.05111207 9.727821630000001 1.31411817 -0.009746 0.003089 0.035179
9180 0.94169133 9.82122264 1.25887806 0.008357999999999999 0.008301000000000001 0.048118
9200 0.8972324100000001 9.86388633 1.25708283 0.020093 0.014625999999999997 0.054601
9220 1.03389552 9.77018121 1.27011051 0.019127 0.043366 0.060966999999999986
9240 1.13883309 9.7061121 1.2919671900000003 0.005277 0.036004 0.049129
9260 1.20484458 9.69338853 1.25169714 0.009405 0.0008529999999999999 0.04493
9280 1.16413308 9.71854137 1.2295461600000002 -0.00987 0.001917 0.061885
9300 1.13120091 9.72287739 1.22759397 -0.010999 0.003987 0.077898
9320 1.05455538 9.71390124 1.17251082 -0.000259 0.024173 0.08222
9340 1.0464719400000002 9.73784745 1.1258054100000001 0.010549 0.048662 0.07585499999999999
9360 1.10380158 9.755064 1.16113122 0.035216000000000004 0.056119 0.054653
9380 1.1825366400000001 9.78005988 1.2546891900000001 0.048076 0.049759 0.035523
9400 1.1514095100000001 9.84262806 1.3278914099999999 0.050301 0.05832100000000001 0.023778
9420 1.13898024 9.83274939 1.34614782 0.03336 0.076532 0.012954
9440 1.17011718 9.87392196 1.32624333 0.021654 0.073416 0.003262
9460 1.1627793 9.871675470000001 1.3335812100000002 -0.001846 0.064984 0.000972
9480 1.12865031 9.787692060000001 1.34405829 -0.00508 0.054356 -0.002242
9500 1.0991614500000002 9.696988800000002 1.37130066 -0.00609 0.061838 -0.007599
9520 1.00171872 9.833347799999999 1.4564710800000003 -0.0028120000000000003 0.074627 -0.011866
9540 0.8256782699999999 10.03917141 1.6483743 0.002556 0.07888200000000001 -0.015038
9560 0.8451413100000001 9.811500930000001 1.67755905 0.006789 0.067166 -0.019267
9580 1.05740028 9.84487455 1.55152017 0.011057 0.06184600000000001 -0.024571
9600 1.08195471 9.84622833 1.39450131 0.010024 0.06081900000000001 -0.033123
9620 0.97956774 9.813590460000002 1.4129146799999999 -0.004865 0.070462 -0.034307
9640 0.85367601 9.75760479 1.3662092700000001 -0.018715 0.071589 -0.037610000000000005
9660 0.74514798 9.69398694 1.38012966 -0.028297000000000006 0.062090999999999986 -0.051552
9680 0.7511418900000002 9.60971904 1.43476155 -0.043219 0.04624 -0.070864
9700 0.8207438400000001 9.61974486 1.4436003599999998 -0.055968 0.049515 -0.07950299999999999
9720 0.91698975 9.71419554 1.41904593 -0.068948 0.014389 -0.075276
9740 0.94647861 9.74473407 1.5124567500000001 -0.06396900000000001 -0.05491 -0.065538
9760 1.0557522 9.7260264 1.5649991100000002 -0.062122 -0.084881 -0.031304000000000005
9780 1.06323723 9.77766624 1.45137969 -0.046187 -0.05635 0.012568
9800 1.02581208 9.90700128 1.36307007 -0.010894 -0.004407 0.045863
9820 0.93271518 9.866436929999999 1.37144781 0.03191 0.040121 0.062128
9840 0.9394448400000001 9.708809850000002 1.39779747 0.061979 0.080509 0.059082
9860 0.99333117 9.620941680000001 1.3967478000000002 0.076011 0.113497 0.055933
9880 1.05904836 9.65702286 1.38267045 0.08035 0.133705 0.06021
9900 1.05589935 9.704022570000001 1.36695483 0.074877 0.108136 0.06554600000000001
9920 1.0811993400000002 9.81434583 1.3992885900000003 0.06084 0.06029 0.054827
9940 1.06383564 9.79593246 1.3769904600000002 0.043713 0.025286000000000003 0.03232
9960 1.07191908 9.7058178 1.31426532 0.027801 0.016935 0.003377
9980 1.08958689 9.70626906 1.2976471800000002 0.012932 0.011741 -0.017016
10000 1.1335945500000002 9.743537250000001 1.34630478 0.000197 0.020334 -0.023526
10020 1.21472325 9.736954740000002 1.5304188600000002 -0.00619 0.016125 -0.031042
10040 1.23672708 9.639953460000001 1.63624914 -0.014711000000000004 0.022534 -0.027905000000000003
10060 1.32549777 9.63815823 1.63146186 -0.017931 0.029955 -0.016187
10080 1.3239968400000002 10.0155195 1.5229338300000004 -0.012582 0.045864 -0.003351
10100 1.14661242 10.19799531 1.34600067 -0.003951 0.0682 -0.002251
10120 0.90890631 10.129590180000001 1.3816305900000003 0.009067 0.10336 -0.015024
10140 0.73137474 9.916879950000002 1.3937557500000002 0.01456 0.125764 -0.027833
10160 0.7488954 9.849367529999999 1.1811926700000002 0.0253 0.1364 -0.033113
10180 0.9574069500000001 9.82032993 1.1225190600000001 0.026386 0.139597 -0.034178
10200 1.17475731 9.63770697 1.20589425 0.016775 0.133256 -0.03851
10220 1.3019930100000001 9.61481043 1.3052891699999998 0.008225 0.123724 -0.044966000000000006
10240 1.24107291 9.63337095 1.25753409 0.006149 0.136514 -0.044997
10260 1.17535572 9.65357955 1.23672708 -0.001343 0.140763 -0.035441
10280 1.2003516 9.68860125 1.2489993900000003 -0.010017 0.116266 -0.029061
10300 1.2717585900000001 9.70282575 1.37623509 -0.011366 0.068273 -0.014054
10320 1.2467529000000002 9.70596495 1.45901187 -0.00188 0.051161 -0.00542
10340 1.15065414 9.739642680000001 1.54194561 0.006593000000000001 0.052137 0.009593
10360 1.16113122 9.791439480000001 1.54149435 0.017281 0.066971 0.020331
10380 1.1422764000000003 9.77976558 1.5079637700000004 0.032346 0.09462 0.019333000000000003
10400 1.1021535 9.73306017 1.38790899 0.043159 0.115931 0.008699
10420 1.015335 9.747726120000001 1.16906751 0.044297 0.12554 0.002285
10440 0.9741722400000001 9.733207320000002 1.07760888 0.030404 0.119201 0.001128
10460 1.02836268 9.72976401 1.0627859700000002 0.011086 0.093702 0.001026
10480 1.0597939200000002 9.70476813 1.09961271 -0.002913 0.072415 0.008433
10500 1.11458277 9.74563659 1.10095668 -0.010453 0.05752300000000001 0.009467
10520 1.12625667 9.83080701 1.0936286100000001 -0.005152 0.047926 0.0073799999999999985
10540 1.2019996800000001 9.783650340000001 1.10140794 0.003435 0.058553 0.006358
10560 1.2464585999999998 9.783208890000001 1.24256403 0.004637 0.089437 0.007395
10580 1.22594589 9.779314320000001 1.41081534 0.016367 0.078782 -0.002123
10600 1.1901786300000001 9.7695828 1.4718924000000002 0.026983 0.07233200000000001 0.0033
10620 1.0761079500000001 9.841735350000002 1.38641787 0.019515 0.07978500000000001 0.010716
10640 1.0747639800000002 9.89592579 1.2331366200000002 0.013071 0.071281 0.01175
10660 1.07132067 9.923766570000002 1.14945732 0.018242 0.038226 0.015034
10680 1.01518785 9.85266369 1.0958751 0.021304 0.007323 0.015095
10700 0.94528179 9.75880161 1.0747639800000002 0.020203 -0.007558 0.007628
10720 0.91190817 9.72707607 1.08554517 0.016008 -0.010662 -0.011625
10740 0.9774684000000001 9.74832453 1.16981307 0.008717 0.002254 -0.038398
10760 1.07865855 9.76180347 1.2752019000000003 -0.006051 0.017309 -0.060953
10780 1.2567885300000001 9.752670360000002 1.41949719 -0.023939 0.047303 -0.086754
10800 1.34645193 9.756564930000001 1.4154554700000002 -0.036554 0.065551 -0.110366
10820 1.2495978 9.72871434 1.27848825 -0.047108 0.091154 -0.110473
10840 1.09257894 9.779167170000001 1.15799202 -0.066129 0.140189 -0.102123
10860 0.9723770100000001 9.811343970000001 1.0597939200000002 -0.074654 0.162509 -0.081915
10880 0.7987400100000002 9.955197810000001 1.0493168400000001 -0.07908899999999999 0.150703 -0.056293
10900 0.73137474 9.76988691 1.08629073 -0.076162 0.113314 -0.032724
10920 0.95216841 9.727370370000001 1.21966749 -0.0412 0.08751 -0.003605
10940 1.09602225 9.82526436 1.3180127400000001 -0.005118999999999999 0.060688 0.012705
10960 1.15005573 9.82930608 1.42593255 0.02139 0.023314 0.01187
10980 1.10874582 9.811500930000001 1.52891793 0.036249 0.00834 0.014129
11000 1.0593426599999998 9.76628664 1.5293691900000002 0.040488 0.014665 0.02697
11020 0.95501331 9.72153342 1.39495257 0.026676 0.037046 0.036458
11040 0.90022446 9.756260820000001 1.24855794 0.003282 0.049928 0.032006
11060 0.88960023 9.680517810000001 1.1573936100000002 -0.022121 0.07035599999999999 0.007233
11080 0.85247919 9.61076871 1.14631812 -0.033708 0.08856599999999999 -0.007826000000000001
11100 0.8137100700000001 9.605226060000001 1.10679363 -0.038971 0.0791 -0.033488
11120 0.7424600400000001 9.783807300000001 1.0841913900000002 -0.0432 0.082332 -0.038863
11140 0.73452375 9.97825131 1.06787736 -0.042118 0.098256 -0.026057
11160 0.8238830400000001 9.947261520000001 1.06249167 -0.037942 0.090733 -0.0132
11180 0.97192575 9.77766624 1.06009803 -0.027446 0.070383 0.005059
11200 1.1642802300000001 9.73231461 1.0835929800000001 -0.024423 0.045811 0.020067
11220 1.27145448 9.85311495 1.12355892 -0.025643 0.024458 0.032904
11240 1.2301445700000002 9.900860220000002 1.25873091 -0.021639 -0.030963 0.036208
11260 1.04916969 9.86134554 1.3274401500000002 -0.012263 -0.08955199999999999 0.027803
11280 0.9348047100000001 9.88304526 1.31411817 0.0005200000000000001 -0.093858 0.027898000000000003
11300 0.95905503 9.943072650000001 1.23717834 -0.000412 -0.049173 0.042789
11320 1.0876347 9.87017454 1.2524427 -0.016142 0.030701 0.061805
11340 1.15155666 9.7607538 1.35902835 -0.018108000000000003 0.070115 0.063877
11360 1.0005219 9.677378610000002 1.3750382700000001 -0.012802 0.050973 0.05112
11380 0.7438040100000001 9.75372003 1.31636466 -0.031102 -0.004281 0.031835
11400 0.73736865 9.73755315 1.2487050900000003 -0.026954 -0.041537 0.021229
11420 0.5480062200000001 9.752817510000002 1.21861782 0.003042 -0.038348 -0.003134
11440 0.71476641 9.71674614 1.1479662000000002 0.014893 -0.012823 -0.003084
11460 0.82507986 9.919420740000001 1.16981307 0.018271000000000003 0.029764 8.9e-05
11480 0.7945511400000002 10.046205180000001 1.22520033 0.028896 0.0212 0.001243
11500 0.8333202600000001 9.982293030000001 1.28956374 0.018324 0.036177 -0.005259000000000001
11520 1.0086053400000003 9.850711500000001 1.30678029 -0.011357 0.07677 -0.007654999999999999
11540 1.18613691 9.79428438 1.29450798 -0.025087 0.108772 -0.006723999999999999
11560 1.22355225 9.743390100000001 1.26755991 -0.022809 0.1386 -0.008883
11580 1.2195105300000002 9.66435093 1.2190690800000001 -0.018465 0.143959 -0.02061
11600 1.26247833 9.69458535 1.22565159 -0.004596 0.140727 -0.023713
11620 1.23672708 9.835299990000001 1.2936054600000002 0.004953 0.119427 -0.033233
11640 1.0720662300000001 9.911935710000002 1.38911562 0.00589 0.080051 -0.043859
11660 0.79589511 9.88963758 1.5054229799999999 -0.00596 0.049221 -0.049243
11680 0.5144756400000001 9.70177608 1.5402975300000001 -0.014634 0.023663 -0.04393
11700 0.31554846000000003 9.68321556 1.4995860300000001 -0.019055 0.005504 -0.027914
11720 0.39847239000000007 9.58860792 1.2798420300000002 -0.016988 0.008620000000000001 -0.009744
11740 0.69604893 9.604176390000001 1.23029172 -0.01162 0.025607 -0.000114
11760 1.00485792 9.851162760000001 1.3828274100000002 0.004416 0.036191 0.003189
11780 0.7744896900000001 10.0647657 1.6313049000000004 0.008722 0.052126 0.010676
11800 0.44621766 9.95250006 1.7890791300000002 0.001273 0.060657 0.014886000000000003
11820 0.21884148000000003 9.832602240000002 1.7788963500000001 -0.004118999999999999 0.053197 0.020199
11840 0.36314658000000005 9.87151851 1.75105557 -0.005291 0.031887 0.022355
11860 0.60654249 9.883947779999998 1.73325042 0.003138 0.019031 0.033112
11880 0.7726944600000001 9.74563659 1.7218708200000001 0.013797 0.02323 0.039591
11900 0.90397188 9.66210444 1.58535486 0.023322 -0.000214 0.033277999999999995
11920 1.01145024 9.66106458 1.47727809 0.036043 -0.021551 0.03019
11940 1.05426108 9.57604131 1.40856885 0.04032 -0.02368 0.025949
11960 1.12072383 9.62304102 1.36561086 0.025566 0.012608 0.021527
11980 1.14407163 9.70312005 1.4009366699999999 0.01088 0.050017 0.003217
12000 1.16009136 9.80610543 1.3686029100000001 0.004637 0.066095 -0.016076
12020 1.1193700500000001 9.845629920000002 1.3798353600000002 -0.006979000000000001 0.078975 -0.030060000000000007
12040 1.03793724 9.922716900000001 1.37159496 -0.013265 0.102442 -0.032271
12060 0.8803199700000001 9.99411408 1.23987609 -0.017388999999999998 0.135476 -0.031274
12080 0.7536826799999999 9.92525769 1.10410569 -0.019455 0.15251900000000002 -0.029173
12100 0.7156591200000001 9.76972995 1.11877164 -0.025722 0.17918499999999998 -0.032456
12120 0.7626686400000001 9.74952135 1.1418251400000001 -0.025718 0.176007 -0.036725
12140 0.7831715400000001 9.75027672 1.20589425 -0.026914 0.148309 -0.035629
12160 0.7429014899999999 9.77467419 1.21023027 -0.018638 0.102426 -0.023762
12180 0.7619132700000001 9.7929306 1.25229555 -0.002899 0.067123 -0.000106
12200 0.8069706000000001 9.83484873 1.32309432 0.006492 0.041438 0.021357
12220 0.7424600400000001 9.893973599999999 1.4426978400000001 0.020155000000000003 0.014681 0.040714
12240 0.73272852 9.849073230000002 1.54852812 0.025442 0.016742 0.053567
12260 0.81684927 9.79428438 1.7691746400000001 0.020208 0.031704 0.046034
12280 0.8872065900000001 9.76195062 1.7904231000000002 0.021275 0.014724 0.028972
12300 0.8032329899999999 9.803711790000001 1.61917974 0.011731 0.010565 0.011819
12320 0.62749665 9.74248758 1.53670707 -0.001105 -0.012762 -0.004264
12340 0.60070554 9.647889750000001 1.5938895600000003 -0.008693000000000001 -0.04149 -0.006417
12360 0.6403673700000001 9.67782006 1.57727142 -0.0056170000000000005 -0.058588 0.004309
12380 0.68078457 9.75042387 1.4956914600000002 -0.000288 -0.054367 0.009682
12400 0.6195603599999999 9.825715620000002 1.31770863 0.0030280000000000003 -0.031995 0.006470999999999999
12420 0.60384474 9.83320065 1.17595413 0.004339 0.012781 -0.003191
12440 0.64007307 9.7784118 1.09826874 -0.000798 0.058598 -0.001149
12460 0.74829699 9.81014715 1.1132388 -0.002827 0.078858 -0.004394
12480 0.9497747700000001 9.879601950000001 1.09602225 0.0035310000000000007 0.067126 -0.006470999999999999
12500 1.16053281 9.87421626 1.15290063 0.011956 0.052144 0.003221
12520 1.23732549 9.80281908 1.18523439 0.015088999999999997 0.058439 0.0246
12540 1.17655254 9.81449298 1.16413308 0.020361 0.059426 0.03959
12560 1.06518942 9.81059841 1.21292802 0.020323 0.049843 0.038534
12580 1.03015791 9.73904427 1.31201883 0.015022 0.04777 0.028886
12600 0.9737209800000001 9.723632760000001 1.40542965 0.012937 0.049942 0.020323
12620 0.97612443 9.772280550000001 1.5170968800000002 0.015099 0.055265 0.019263
12640 1.05440823 9.816141060000001 1.5073653599999999 0.015142 0.063791 0.018184
12660 1.19690829 9.823773240000003 1.48775517 0.018352 0.061666999999999986 0.013936000000000002
12680 1.2427111800000001 9.81090252 1.54089594 0.006626000000000001 0.061716 0.011718
12700 1.0792569600000002 9.81538569 1.6048080900000001 -0.005099 0.062827 0.010566
12720 0.72239859 9.731412090000001 1.573524 -0.025351 0.05761 0.000817
12740 0.4543011 9.71689329 1.4173978500000002 -0.051003 0.023704 -0.022819
12760 0.37362366 9.683961120000001 1.32908823 -0.079924 -0.028286 -0.04966
12780 0.43215012 9.69802866 1.33567074 -0.08756900000000001 -0.08252899999999999 -0.064599
12800 0.51432849 9.756113670000001 1.3777360200000002 -0.072858 -0.125222 -0.056964
12820 0.6050415600000001 9.791292330000001 1.34659908 -0.055024 -0.18497 -0.049286
12840 0.79020531 9.85431177 1.3654637100000002 -0.038021 -0.187211 -0.036345
12860 0.94453623 9.93603888 1.29510639 -0.017712000000000002 -0.15754 -0.014877
12880 0.9907903800000001 9.88125003 1.2555917100000002 -0.000465 -0.098026 0.005463
12900 0.8843616900000001 9.868232160000002 1.2651662700000001 0.012572 -0.037384 0.014023
12920 0.7725473100000001 9.90400923 1.2717585900000001 0.013797 0.004132 0.020387
12940 0.7750881000000001 9.832602240000002 1.2900150000000001 0.011625 -0.000139 0.02465
12960 0.77463684 9.74159487 1.3834258200000003 0.013619999999999998 -0.020429 0.035373
12980 0.722997 9.72258309 1.44869175 0.014485 -0.047137 0.053573
13000 0.6725539800000001 9.66989358 1.4837134500000002 0.032445 -0.077066 0.06335
13020 0.6962058900000001 9.67468086 1.44405162 0.052591 -0.105895 0.06246
13040 0.78750756 9.66360537 1.3834258200000003 0.060059 -0.108043 0.060378
13060 0.9225324 9.69024933 1.3274401500000002 0.050572000000000006 -0.101541 0.041076
13080 1.0891356300000001 9.69294708 1.1996060400000002 0.046487 -0.090754 0.011123
13100 1.3953940200000001 9.67438656 1.14676938 0.037158 -0.053343 -0.012491
13120 1.7384889600000002 9.731863350000001 1.18193823 0.02262 0.013906 -0.034043000000000004
13140 1.89326133 9.900860220000002 1.28941659 0.007861 0.038519 -0.049133
13160 1.5229338300000004 10.00414971 1.50930774 -0.014615 0.025802 -0.046069
13180 1.02805857 9.874069109999999 1.4471908199999999 -0.030881 -0.015756 -0.029038
13200 0.64022022 9.819731520000001 1.1805942600000001 -0.03104 -0.036055 -0.014057
13220 0.46149183000000005 9.71913978 1.08315153 -0.034283 -0.047754000000000005 -0.016202
13240 0.41853384000000005 9.73396269 1.06907418 -0.033245 -0.046722 -0.008718
13260 0.48424122 9.895327380000001 1.1078433 -0.038484 -0.016909999999999998 -0.00024700000000000004
13280 0.66132153 9.94337676 1.3371716699999998 -0.04686 0.012969 -0.005685
13300 0.95202126 9.787093650000001 1.49433768 -0.042416 0.030087 -0.028109
13320 1.1855385 9.6511761 1.5070612500000002 -0.039215 0.017344 -0.040889
13340 1.2644207100000002 9.79847325 1.52877078 -0.030704 0.019415 -0.033354
13360 1.1900216700000001 10.025702279999999 1.5138007199999999 -0.031838 0.035274 -0.002404
13380 1.05350571 9.895023270000001 1.55916216 -0.022318 0.041534 0.022224
13400 0.94408497 9.76180347 1.5946351200000002 -0.023442 0.048914 0.042502
13420 0.8089129800000001 9.668539800000001 1.5464385900000002 -0.012826 0.056257000000000015 0.061795
13440 0.69290973 9.61151427 1.4202427499999999 0.023389 0.06350599999999999 0.082335
13460 0.56567403 9.736954740000002 1.24840098 0.046702 0.041002 0.095345
13480 0.5923179900000001 9.72946971 1.1677235400000001 0.059308000000000013 -0.006963 0.091222
13500 0.7412632200000001 9.64459359 1.31172453 0.05296 -0.018564 0.067692
13520 0.9394448400000001 9.65925954 1.4365665900000002 0.025336 -0.020487 0.039727
13540 1.12281336 9.78515127 1.42219494 -0.018419 -0.053238 0.009554
13560 1.13015124 9.88858791 1.1886777000000002 -0.07500599999999999 -0.110373 -0.038838
13580 1.18448883 9.842932170000001 1.0359948600000002 -0.119771 -0.156862 -0.095707
13600 1.25169714 9.76613949 1.0656308700000001 -0.154834 -0.161916 -0.13333399999999998
13620 1.0737143100000002 9.818377739999999 1.0568018700000001 -0.176066 -0.138406 -0.133512
13640 0.6717986100000001 9.836496810000002 1.01758149 -0.181472 -0.136329 -0.115393
13660 0.48902850000000003 9.879003540000001 0.89962605 -0.170995 -0.151391 -0.08752599999999999
13680 0.5674692600000001 9.8968185 0.93210696 -0.1402 -0.160115 -0.063799
13700 0.8301712500000001 9.78874173 1.02491937 -0.086785 -0.123102 -0.042109
13720 1.07057511 9.792783450000002 1.05890121 -0.035504 -0.07759400000000001 -0.011899
13740 1.0584499500000002 9.954295290000001 1.0816506000000001 0.001884 -0.049035 0.006485
13760 1.0418318100000001 9.95400099 1.0741655700000001 0.012587 -0.025701 0.022554
13780 1.0373388300000002 9.880053210000002 1.26487197 0.003975 -0.027861 0.037451
13800 0.9467827200000001 9.79353882 1.49329782 0.00496 -0.034303 0.049217
13820 0.8297199900000001 9.80236782 1.68145362 0.001808 -0.025761000000000003 0.047047000000000005
13840 0.84528846 9.72662481 1.6437341699999999 -0.004454 -0.0097 0.032027999999999994
13860 1.0057604400000002 9.63471492 1.54957779 -0.014907 0.024481 0.018024
13880 1.14916302 9.632174130000001 1.49583861 -0.016888 0.05115 0.010499
13900 1.2031965 9.508676040000001 1.47653253 -0.022093 0.068259 -0.00131
13920 1.32265287 9.34162155 1.4373121500000001 -0.016628999999999998 0.089576 -0.008777
13940 1.6024144500000002 9.44790309 1.39629654 -0.00907 0.118278 -0.000215
13960 1.79850654 9.767493270000001 1.33911405 -0.003668 0.150149 0.016874
13980 1.64942397 9.99082773 1.3787856900000002 0.010287 0.18519 0.032949
14000 1.21787226 10.009682549999999 1.50422616 0.023181 0.22130100000000005 0.049017000000000005
14020 0.73407249 9.96268284 1.4726379600000001 0.032782 0.228694 0.056552
14040 0.5074418700000001 9.889186320000002 1.2760946100000001 0.020649 0.16684300000000002 0.08325199999999999
14060 0.50654916 9.791292330000001 1.13239773 0.032461000000000004 0.164748 0.064109
14080 0.64201545 9.77766624 1.21606722 0.037891 0.182852 0.060919000000000015
14100 0.83990277 9.84008727 1.4004854100000002 0.032652999999999995 0.196749 0.053387
14120 1.04302863 9.783208890000001 1.4564710800000003 0.050809 0.19352 0.04604
14140 1.06967259 9.77377167 1.53819819 0.066754 0.187047 0.052569000000000005
14160 0.9196875 9.7781175 1.5458401800000001 0.084862 0.18908 0.061239
14180 0.68916231 9.79457868 1.44958446 0.105161 0.197522 0.06350700000000001
14200 0.53843166 9.78215922 1.3825233000000001 0.123495 0.232647 0.055044
14220 0.56282913 9.771230880000001 1.35902835 0.129121 0.279572 0.036863
14240 0.61387056 9.76149936 1.3853682000000003 0.132648 0.338206 0.022926
14260 0.58394025 9.78679935 1.39359879 0.12551500000000002 0.405374 0.015312
14280 0.51896862 9.803113380000001 1.4413538700000001 0.101188 0.447026 0.009748
14300 0.54426861 9.831101310000001 1.58684598 0.076722 0.457786 0.004222
14320 0.5327418599999999 9.90145863 1.66214754 0.056447 0.453608 0.0008810000000000002
14340 0.5007122100000001 9.97959528 1.6697797200000002 0.043573 0.437674 0.0008119999999999999
14360 0.5084915400000001 9.935734770000002 1.6217303400000003 0.034923 0.426992 0.015719999999999998
14380 0.62180685 9.77706783 1.5386494500000003 0.047548 0.40663 0.035062
14400 0.66626577 9.66106458 1.4479363800000002 0.055891 0.376722 0.047978
14420 1.29316401 9.596240100000001 1.49538735 0.062206 0.350098 0.040578
14440 1.4694987600000002 9.705670650000002 1.56289977 0.070602 0.31705300000000003 0.038543
14460 1.40856885 9.85281084 1.5952335300000002 0.065215 0.293683 0.026785000000000003
14480 1.24735131 9.759556980000001 1.6979148 0.054441 0.254369 0.010737
14500 1.09946556 9.80236782 1.7504571599999998 0.022339 0.217261 -0.005463
14520 0.95231556 9.866731230000001 1.78099569 -0.01192 0.179077 -0.017404
14540 0.6902119800000001 9.823626090000001 1.8251505000000001 -0.028144 0.126948 -0.020655
14560 0.4628358 9.78874173 1.81512468 -0.031661 0.057713 -0.019523
14580 0.27003987 9.78455286 1.7003182500000003 -0.031896 0.012942 -0.01199
14600 0.24803604 9.72287739 1.74057849 -0.026648 0.000115 -0.005527000000000001
14620 0.33919056000000003 9.744439770000001 1.78324218 -0.008578 -0.004253 0.005287
14640 0.42661728 9.75162069 1.8675198900000003 0.004157 -0.012845 0.011796
14660 0.61297785 9.79323471 1.8217071900000001 0.023274 -0.026782 0.017287999999999998
14680 0.83241774 9.779010210000001 1.69043958 0.031737 -0.035364 0.024836
14700 1.0285098300000002 9.808803180000002 1.4316223499999998 0.029623000000000007 -0.030034 0.025883
14720 1.2397191300000001 9.801171 1.28252997 0.021102000000000003 -0.036357 0.016217
14740 1.3787856900000002 9.8242245 1.21876497 0.01151 -0.050108 0.000145
14760 1.3329828000000001 9.81059841 1.14916302 -0.0023350000000000003 -0.058527 -0.013828
14780 1.2376296 9.73336428 1.0472175000000001 -0.014061 -0.063782 -0.021381
14800 1.11742767 9.677221650000002 1.01069487 -0.021534 -0.06376 -0.020365
14820 1.01563911 9.65133306 1.00291554 -0.025806 -0.066933 -0.022527
14840 1.10874582 9.633518100000002 1.10080953 -0.025768 -0.06796 -0.032139999999999995
14860 1.13689071 9.74234043 1.22070735 -0.015088999999999997 -0.071171 -0.037402
14880 1.18478313 9.74997261 1.2428681400000001 -0.01508 -0.066919 -0.035271
14900 1.31217579 9.608522220000001 1.20858219 -0.016118 -0.059463 -0.034219
14920 1.4278847399999999 9.57154833 1.21847067 -0.013041999999999998 -0.07974400000000001 -0.026694
14940 1.52338509 9.76628664 1.15050699 -0.015296 -0.095758 -0.016007
14960 1.52188416 9.948311190000002 1.09152927 -0.024945 -0.084096 0.006343
14980 1.43372169 9.97256151 1.11099231 -0.035561 -0.061729999999999986 0.016922
15000 1.2835796400000001 9.92226564 1.2253474800000002 -0.037633 -0.052119000000000006 0.012623
15020 1.14811335 9.79413723 1.3298337900000001 -0.036556 -0.054236 0.00836
15040 1.0686229200000001 9.752523210000001 1.27654587 -0.039771 -0.062725 0.003007
15060 1.04003658 9.72303435 1.27310256 -0.040919 -0.084014 -0.000178
15080 0.98225568 9.711949050000001 1.3362691500000001 -0.040948000000000005 -0.092528 -0.002304
15100 0.86221071 9.72617355 1.4359681800000001 -0.047378 -0.10208 -0.005541
15120 0.8376562800000001 9.74952135 1.35962676 -0.051732000000000014 -0.123362 -0.007681
15140 0.9285165000000001 9.759556980000001 1.3109691599999997 -0.053875 -0.126546 -0.008759999999999999
15160 0.9699833700000001 9.736954740000002 1.28372679 -0.032663 -0.153256 -0.007509
15180 0.9339120000000001 9.747726120000001 1.23462774 -0.018865 -0.162918 -0.000991
15200 0.89079705 9.74114361 1.1817910800000002 -0.003948 -0.162987 0.003386
15220 0.8942403600000001 9.82901178 1.19092419 -0.000685 -0.15551600000000002 -0.00301
15240 0.9159498899999999 9.90415638 1.14167799 -0.000575 -0.128893 -0.000907
15260 0.95381649 9.8535564 1.0961694000000002 -0.004828 -0.110828 0.013995
15280 1.06413975 9.74578374 1.11427866 -0.006919 -0.089562 0.025704
15300 1.15380315 9.75162069 1.19886048 -0.006784999999999999 -0.057613 0.0278
15320 1.17490446 9.839037600000001 1.2404745000000001 -0.0013310000000000002 -0.032061 0.026737
15340 0.9892894500000001 9.841735350000002 1.18987452 -0.001263 -0.02033 0.023518
15360 0.7963463700000001 9.795029940000001 1.11427866 -0.00122 -0.017109 0.017105000000000002
15380 0.8032329899999999 9.76374585 1.09527669 0.006296 -0.009665 0.013943
15400 0.92523015 9.81898596 1.15454871 0.01485 -0.002251 0.017197999999999998
15420 1.0057604400000002 9.801171 1.1858328 0.025504 -0.00124 0.021544
15440 1.04302863 9.81494424 1.1273063400000003 0.040397 -0.005575 0.026995
15460 1.09227483 9.787397760000001 1.10740185 0.046741000000000005 -0.015197 0.030256
15480 1.09482543 9.71000667 1.19302353 0.051061 -0.000311 0.033472
15500 1.07715762 9.70491528 1.30154175 0.052171 0.0167 0.040935
15520 1.01683593 9.810304109999999 1.34659908 0.049999 0.01349 0.046265
15540 0.97926363 9.87751242 1.35453537 0.042516000000000005 0.003954 0.039816
15560 0.89678115 9.87825798 1.38851721 0.039388 0.008273 0.028038
15580 0.8873537400000001 9.807007950000001 1.51365357 0.021361 0.029655 0.02468
15600 0.93315663 9.7547697 1.6272631800000001 -0.004215 0.01916 0.007423999999999998
15620 0.9886910400000001 9.78934014 1.7090001000000001 -0.027719 -0.002008 -0.0066
15640 0.97043463 9.69204456 1.72680525 -0.050157 -0.017875 -0.015283
15660 0.91459611 9.731863350000001 1.62157338 -0.054295 0.004536 -0.02175
15680 0.86969574 9.79398027 1.5181465500000002 -0.052046 0.016302 -0.035636
15700 0.8647515000000001 9.78515127 1.46665386 -0.046611 0.026983 -0.047362
15720 0.89393625 9.84202965 1.43865612 -0.041243 0.028055 -0.053735000000000005
15740 0.9047174400000001 9.81418887 1.3063290300000001 -0.02835 0.046129 -0.055804999999999993
15760 0.9541206 9.71000667 1.23897357 -0.018691 0.063122 -0.051486
15780 0.89364195 9.74578374 1.21936338 -0.015528 0.068382 -0.037584
15800 0.8006823900000002 9.81733788 1.19630988 -0.019781 0.07902 -0.03015
15820 0.75607632 9.90236115 1.2261028499999997 -0.017787 0.052364 -0.025829
15840 0.82672794 9.905049089999999 1.18418472 -0.017916 0.034211 -0.015124
15860 0.9139977 9.899967509999998 1.22775093 -0.025466 0.026738 -0.004485
15880 0.9455859000000001 9.807155100000001 1.41380739 -0.036235 0.012893 0.0040030000000000005
15900 0.91774512 9.73066653 1.5220313100000002 -0.028791000000000008 0.014967 0.01153
15920 0.87986871 9.74143791 1.51125993 -0.025605000000000003 0.011761 0.011557
15940 0.96788403 9.7115076 1.5310172700000002 -0.025562 0.021348 0.011545
15960 0.9609974100000002 9.88454619 1.6997198400000002 -0.028719 0.027763 0.00831
15980 0.8572664700000001 9.80610543 1.6660323000000001 -0.033986 0.041635000000000005 0.0071870000000000015
16000 0.84933018 9.75731049 1.4834191500000002 -0.043593 0.043786 0.010322
16020 0.91145691 9.69024933 1.2064926599999997 -0.057462 0.043835 0.010225
16040 0.98540469 9.712704420000001 1.06189326 -0.06172 0.047041 0.011259
16060 0.95396364 9.81418887 1.01234295 -0.061734 0.044906 0.01233
16080 0.8586104400000001 9.860295870000002 0.99916812 -0.06283 0.041701 0.015531
16100 0.8147597400000001 9.93185001 0.9500788800000001 -0.064997 0.03213 0.013392
16120 0.8402068800000001 9.810304109999999 0.8972324100000001 -0.06171 0.048111 0.01019
16140 0.94169133 9.69907833 0.9093575700000001 -0.050864 0.07369500000000001 -0.003654
16160 1.0503665100000001 9.7582032 0.9955776600000001 -0.040047 0.091827 -0.018557
16180 1.0880859600000001 9.84278502 0.98510058 -0.032579000000000004 0.08861799999999999 -0.021706
16200 1.1160837000000001 9.84847482 1.0565075700000002 -0.016628999999999998 0.084271 -0.014111000000000004
16220 1.22924205 9.83290635 1.19690829 -0.005219 0.034073 0.008466
16240 1.21637133 9.883947779999998 1.2742993800000002 -0.027309 -0.065195 0.076805
16260 1.0912349700000001 9.86433759 1.2816372600000001 -0.046059 -0.144191 0.134459
16280 1.02222162 9.86732964 1.2581325 -0.059485 -0.206238 0.211357
16300 0.9428881500000001 9.76030254 1.26592164 -0.055265 -0.151124 0.277545
16320 0.91339929 9.73904427 1.23703119 -0.032984 0.024707 0.243293
16340 0.9310671 9.66389967 1.24017039 -0.008497 0.135872 0.12795299999999998
16360 1.00396521 9.688306950000001 1.2880726200000001 0.060296 0.12548 0.003465
16380 1.00635885 9.72677196 1.3251936599999998 0.060578 0.138463 -0.046756
16400 0.97357383 9.74129076 1.2467529000000002 0.034844 0.106607 -0.0501
16420 0.9985697100000002 9.7263207 1.1666738700000001 -0.016696000000000003 0.048137 -0.03543
16440 1.10231046 9.77273181 1.1141315100000002 -0.061801 0.004528 -0.013256
16460 1.19226816 9.775871010000001 1.1066464800000002 -0.06740399999999999 -0.040254000000000005 0.0017170000000000002
16480 1.21038723 9.743841360000001 1.14002991 -0.063213 -0.048825 0.010303
16500 1.17221652 9.696086280000001 1.11847734 -0.055673 -0.023323 0.019937
16520 1.13419296 9.70821144 1.10080953 -0.034293000000000004 -0.012749 0.021141
16540 1.0912349700000001 9.71015382 1.20334365 -0.004335 -0.004289 0.010657
16560 1.0671318 9.752817510000002 1.34330292 0.012687 -0.02455 0.001188
16580 1.0837499400000001 9.72557514 1.40078952 0.001697 -0.070421 0.026808
16600 1.19886048 9.79053696 1.55960361 -0.013497 -0.120466 0.034243
16620 1.36366848 10.070612460000001 1.8829314000000001 -0.013473 -0.119384 0.029969
16640 1.54343673 10.5850881 2.22347574 0.002549 -0.075922 0.06955
16660 1.4792204699999998 10.610986500000001 2.2320104400000003 0.028518 0.003888 0.06856
16680 1.17805347 10.02465261 1.81242693 0.026763 0.05516 0.035368000000000004
16700 0.86669388 9.4917636 1.39165641 -0.015754 0.056511 0.000886
16720 0.14669874000000002 9.067539960000001 0.96399927 -0.029426 0.08219800000000001 -0.017402
16740 -0.12962933999999998 9.3127311 0.82612953 -0.044434 0.055661 -0.028155
16760 0.75846996 9.48233619 1.0901853000000001 -0.064901 0.013116999999999998 -0.027176
16780 1.6808552100000003 9.278003700000001 1.4693418 -0.063122 -0.063598 -0.024929
16800 1.98876168 9.37186578 1.6064561700000002 -0.032816000000000005 -0.175674 0.004268999999999999
16820 1.82859381 9.71015382 1.5058644300000001 0.005788000000000001 -0.16714500000000002 -0.030724
16840 1.4871567600000002 9.83858634 1.39180356 0.022618 -0.183333 0.006802
16860 1.20858219 9.954452250000001 1.3614219900000002 0.065402 -0.1367 0.029474
16880 1.2693649500000002 10.009231289999999 1.41875163 0.080386 -0.117612 0.0381
16900 1.35797868 9.85939335 1.53775674 0.055542 -0.15069000000000002 0.07322000000000001
16920 1.2955576500000001 9.78215922 1.68190488 0.030678 -0.196517 0.099811
16940 1.1966139900000001 9.72183753 1.7655743700000002 0.02199 -0.224209 0.106195
16960 1.3373188200000001 9.70207038 1.83219408 0.030386 -0.26362 0.097758
16980 1.30917393 9.67886973 1.8781441200000002 0.09754 -0.275577 0.099311
17000 1.5928398900000003 9.61136712 1.84281831 0.097516 -0.285147 0.09505
17020 1.4694987600000002 9.819584370000001 1.7944648200000002 0.125379 -0.27134 0.08134
17040 1.10140794 9.93453795 1.9580760000000001 0.14168 -0.220204 0.066433
17060 0.7129711799999999 9.58277097 1.84087593 0.12573399999999998 -0.226463 0.047102
17080 0.59381892 9.67049199 1.66782753 0.121376 -0.258359 0.035362
17100 0.69410655 9.492656310000001 1.29495924 0.107554 -0.222194 0.060855999999999986
17120 1.05994107 9.44371422 1.0877916599999997 0.083103 -0.184896 0.078798
17140 1.46096406 9.79353882 1.0662292800000002 0.090859 -0.147532 0.052098
17160 1.73144538 9.83200383 1.0568018700000001 0.101012 -0.050524 0.026408
17180 1.79476893 9.746235 0.9717786 0.111963 -0.000443 0.013601
17200 1.73084697 9.98124336 1.0159334100000001 0.102136 -0.070636 -0.006673999999999999
17220 2.06091423 9.88634142 1.05665472 0.10431300000000003 -0.08652 -0.032275
17240 1.54179846 9.88813665 1.10575377 0.114399 -0.001243 -0.054747
17260 1.10051523 10.036326509999999 1.36261881 0.08934500000000001 0.08103400000000001 -0.09562
17280 1.08599643 9.950410530000001 1.4974866900000001 0.09291 0.117421 -0.140507
17300 1.23852231 9.64339677 1.70675361 0.068579 0.14845899999999998 -0.155672
17320 1.3995927 9.42604641 1.65990105 0.008652 0.138957 -0.1251
17340 1.6810023600000001 9.64294551 1.60361127 -0.044104 0.081419 -0.07625599999999999
17360 2.0881566 9.67258152 1.59612624 -0.078862 -0.016623 -0.036849
17380 2.15416809 9.62663148 1.94714766 -0.093052 -0.067789 -0.016586
17400 1.6416348300000003 9.67842828 1.92260304 -0.056138 -0.147874 -0.001271
17420 1.2717585900000001 9.652225770000001 1.4413538700000001 -0.022967 -0.288906 0.073917
17440 1.1710197 9.73784745 1.2813331500000003 0.0235 -0.370128 0.098915
17460 1.08329868 9.7664436 1.51305516 0.032708999999999995 -0.370511 0.186574
17480 1.13464422 9.775272600000001 1.59313419 0.036727 -0.389846 0.222946
17500 1.2094847100000001 9.695635020000001 1.75689252 0.098341 -0.45714 0.214917
17520 1.07940411 9.48757473 1.8928100700000001 0.110341 -0.438909 0.17438499999999998
17540 0.93570723 9.64968498 1.48161411 0.078985 -0.502832 0.20309
17560 1.11144357 9.88708698 1.5039220500000001 0.066791 -0.4513180000000001 0.118549
17580 1.0463247900000001 9.6338124 1.9088298000000001 0.077872 -0.321546 0.156916
17600 0.81206199 9.61824393 1.8187151400000001 0.085565 -0.301213 0.12703399999999998
17620 0.73137474 9.76374585 1.12221495 0.095527 -0.265914 0.08219299999999999
17640 0.7424600400000001 9.99681183 0.73077633 0.152818 -0.13706500000000002 0.04504
17660 0.9907903800000001 9.96328125 0.5333402700000001 0.180084 -0.008249 0.041861
17680 1.454823 9.67662324 0.56313324 0.189547 -0.016894 0.064371
17700 1.9782846 9.70806429 0.6500988900000001 0.163846 -0.040232 0.062085
17720 2.4984500400000003 9.83080701 1.00516203 0.152403 0.001448 0.03845
17740 2.64844494 9.58905918 1.09991682 0.12925799999999998 0.040016 0.004056000000000001
17760 2.6259898500000003 9.497453400000001 0.93331359 0.08444 0.017883 -0.016525
17780 2.5981490700000003 9.649233720000002 0.44607051 0.026686 -0.006446 -0.009419
17800 2.72837682 9.71419554 0.33291216 -0.023548 -0.01484 0.001991
17820 2.7184981500000003 9.449247060000001 0.53498835 -0.032014999999999995 0.002225 0.004046
17840 2.6313755400000005 9.29162979 0.6423097500000001 0.00245 0.062873 -0.007541
17860 2.2120961400000003 9.83798793 0.60250077 0.026213 0.116101 -0.019194
17880 1.86676452 10.139910299999999 0.86639958 0.037222000000000005 0.191698 -0.019214
17900 1.4888048400000002 9.74279169 1.20245094 0.00848 0.213074 -0.011964
17920 1.33028505 9.436974750000001 1.31441247 -0.031033 0.208934 -0.007962
17940 1.0210248000000002 9.628132410000001 1.22041305 -0.033119 0.195191 -0.032527999999999994
17960 1.0717719300000002 9.75685923 0.98899515 -0.114037 0.198802 -0.066213
17980 0.70742853 10.0357281 1.0145894400000002 -0.184028 0.234436 -0.1255
18000 0.44532495 10.037974590000001 1.12056687 -0.214569 0.227471 -0.221844
18020 0.47825712 9.98573634 0.88600977 -0.243595 0.119153 -0.28172800000000003
18040 0.668061 9.891285660000001 0.5146326 -0.17793399999999998 0.014513 -0.277931
18060 1.00171872 9.73949553 0.45355554 -0.06389500000000001 0.062818 -0.202421
18080 1.2145761000000002 9.9025083 0.76730877 0.027865 0.163301 -0.10256400000000003
18100 1.3709965499999999 9.97630893 0.7595196300000001 0.085222 0.206375 -0.001806
18120 1.65495681 9.98678601 0.6792836400000001 0.12881900000000002 0.259145 0.083889
18140 1.8390708900000001 10.06911153 0.94947066 0.187636 0.35985900000000004 0.154673
18160 1.80090018 10.06387299 1.20529584 0.214072 0.372289 0.220004
18180 1.66902435 10.020012480000002 1.18193823 0.205374 0.36793 0.251995
18200 1.5552675900000001 9.971217540000001 1.0756665 0.21820100000000006 0.353052 0.231808
18220 1.35827298 9.98499078 0.9111528000000001 0.211987 0.316106 0.152763
18240 1.24196562 9.858049379999999 0.74050785 0.172455 0.198421 0.046884
18260 1.2361286699999998 9.77677353 0.6179122800000001 0.117762 0.092259 0.002841
18280 1.30543632 9.73784745 0.46313991000000004 0.111558 0.142324 0.009143
18300 1.49164974 9.83080701 0.5578947 0.122595 0.238105 0.022984
18320 1.5027252300000002 9.99336852 0.49816161000000003 0.137623 0.293306 0.058269000000000015
18340 1.5138007199999999 9.83664396 0.5953100400000001 0.14931 0.281551 0.057298
18360 1.5871500900000002 9.75372003 0.51148359 0.150339 0.254988 0.039179000000000005
18380 1.5881997600000002 9.822272309999999 0.40999914 0.113238 0.27336900000000003 0.003645
18400 1.6088498100000002 10.0038456 0.8134059600000001 0.084768 0.31408600000000003 -0.030789
18420 1.7613855 9.935440470000001 1.16861625 0.030076 0.221717 -0.060963
18440 1.93712184 9.569154690000001 1.0532114099999998 0.010287 0.080151 -0.07267
18460 2.0619639 9.25570557 0.6930568800000001 0.01088 -0.003033 -0.050127
18480 2.0600117100000004 9.40763304 0.77673618 0.023351 -0.024592 0.002331
18500 2.01480723 9.86553441 1.2060414 0.052247 0.048598 0.05585
18520 1.81378071 10.02794877 1.2051486900000001 0.098554 0.148555 0.060318
18540 1.71019692 10.03527684 0.75158334 0.142463 0.21009 0.085115
18560 1.97918712 9.83724237 0.8918467200000001 0.199016 0.221572 0.09511
18580 2.0101671000000003 9.593405010000001 0.69889383 0.202577 0.275991 0.069428
18600 1.8935654400000002 9.31602726 0.5457695400000001 0.153798 0.302952 0.029528
18620 1.5982255800000003 9.3648222 0.6054928200000002 0.131883 0.342722 -0.04011
18640 1.47039147 9.5871168 0.64290816 0.124592 0.308954 -0.113825
18660 1.4233917600000001 9.787250610000001 0.39832524 0.070043 0.238994 -0.153641
18680 1.36037232 9.93603888 -0.10478061 -0.013335 0.179724 -0.177648
18700 1.26472482 10.13452461 0.10119015 -0.05512 0.127723 -0.190692
18720 1.03180599 10.35307179 0.49382559000000004 -0.068013 0.088429 -0.20996
18740 0.9830012400000001 10.240659 0.76925115 -0.112961 0.031168 -0.236906
18760 1.4346144 9.8936793 0.61642116 -0.169725 -0.014454 -0.234039
18780 2.0588148900000003 9.48712347 0.19908414 -0.184819 -0.052738 -0.2373
18800 2.43723564 9.31348647 0.023504760000000003 -0.16166 -0.122062 -0.23705
18820 2.42136306 9.306295740000001 0.24504399000000002 -0.128923 -0.162794 -0.202586
18840 2.3227235100000003 9.40449384 0.49217751000000004 -0.056433 -0.160977 -0.187127
18860 2.2748212800000003 9.568850580000001 0.47870838000000004 0.000278 -0.104792 -0.167575
18880 2.33349489 9.80640954 0.210915 0.021663 -0.024188 -0.097026
18900 2.36104137 9.91014048 0.30446316 0.016468 0.08736000000000001 -0.01602
18920 1.91961099 9.96328125 0.5298969600000001 -0.0070560000000000015 0.125591 0.033973
18940 1.49614272 9.95055768 0.42092748 -0.031747000000000004 0.091588 0.033844
18960 1.03210029 9.994565340000001 0.37496763 -0.064992 0.006670000000000001 -0.013281
18980 1.02491937 9.857755080000002 0.7536826799999999 -0.066169 -0.066633 -0.062334
19000 1.23268536 9.59848659 0.9455859000000001 -0.079957 -0.062268 -0.076322
19020 1.2331366200000002 9.619892010000001 0.67030749 -0.107566 -0.020677 -0.06375
19040 1.3201022700000002 9.79712928 0.21031659 -0.117034 0.03677 -0.036116
19060 1.81123011 9.81389457 0.3555144 -0.120345 0.046232 -0.001968
19080 2.3128448400000003 9.556578270000001 0.7587740700000001 -0.117326 0.030144 0.022643
19100 2.70711855 9.32530752 0.75906837 -0.104855 -0.02855 0.03776
19120 2.9970629100000004 9.186093810000001 0.27453285000000005 -0.076624 -0.12253 0.072261
19140 3.2527311300000004 9.17412561 -0.03322647 -0.072024 -0.281291 0.076769
19160 3.2277352500000003 9.36257571 -0.03771945 -0.017523 -0.295193 0.042985
19180 2.7580128299999997 9.5788764 0.06765957 -0.010143 -0.029095 0.091834
19200 2.05462602 9.82586277 0.038023560000000005 -0.05685 0.07525599999999999 0.143716
19220 1.26367515 10.067914710000002 -0.1562733 -0.068361 0.07549700000000001 0.093429
19240 0.89244513 10.11716091 -0.41628735 -0.043492 0.110719 0.055102
19260 1.16413308 9.78529842 -0.56163231 -0.029618 0.07035599999999999 0.01359
19280 1.6835529600000003 9.71449965 -0.64321227 -0.00299 0.030968 -0.016084
19300 2.29548114 9.81254079 -0.64440909 0.020433 0.024477 -0.011639
19320 2.718351 9.94621185 -0.36644274000000004 0.035283 0.041324 0.024763
19340 2.52719334 9.82197801 0.1505835 0.101548 0.097433 0.055064
19360 2.060168670000001 9.69862707 0.37587015 0.142334 0.154803 0.05848
19380 1.80794376 9.484876980000001 0.06945480000000001 0.177775 0.193085 0.044791
19400 1.85554188 9.41033079 -0.22902426 0.221766 0.249386 0.046095
19420 1.9567320300000002 9.65477637 -0.39592179 0.221612 0.248189 0.07921
19440 1.99714923 9.82886463 -0.35611281 0.172307 0.162215 0.043725
19460 1.87051194 9.92960352 -0.10269108 0.148754 0.120845 0.020112
19480 1.58595327 9.933792390000002 0.20642202000000004 0.105147 0.144459 0.013368
19500 1.2698064 9.894719160000001 0.30701375999999997 0.07859 0.13935 -0.017789
19520 1.0955709900000001 9.79682517 0.35999757000000004 0.057651 0.196011 -0.050055
19540 1.0547025300000001 9.82751085 0.52076385 0.027115 0.269687 -0.066386
19560 1.22220828 9.88260381 0.48034665000000004 0.00483 0.283664 -0.079378
19580 1.42399017 10.15503732 0.6647648400000001 0.014466 0.294271 -0.07612000000000001
19600 1.47967173 10.4259699 1.05426108 0.051964 0.353697 -0.051365
19620 1.22625 10.154134800000001 1.1280519 0.082941 0.395002 -0.018087
19640 0.92358207 9.624237840000001 1.07102637 0.083984 0.400282 -0.007404000000000002
19660 0.58528422 9.47604798 0.9292718700000001 0.104418 0.420515 -0.02331
19680 0.5204695500000001 9.707308920000001 0.84992859 0.123909 0.459961 -0.047794
19700 0.72913806 9.76284333 0.8357139 0.117402 0.422754 -0.061679
19720 0.9497747700000001 9.633213990000002 0.86116104 0.095787 0.36741 -0.055349
19740 1.02267288 9.711949050000001 0.78690915 0.090342 0.363086 -0.035086
19760 0.8644572 9.926611470000001 0.82478556 0.08920800000000001 0.358786 -0.024406
19780 0.5809383900000001 10.033785720000001 0.66028167 0.096691 0.364078 -0.022224
19800 0.45610614000000005 9.97375833 0.5806440900000001 0.089347 0.384374 -0.029779000000000007
19820 0.6993450900000001 10.12299786 0.6704546400000001 0.054328 0.395273 -0.061016
19840 0.97836111 10.20233133 1.00036494 0.022523 0.408296 -0.093301
19860 1.10395854 10.02749751 1.2427111800000001 -0.011544 0.401052 -0.117031
19880 1.51050456 9.73920123 1.32953949 -0.052305999999999984 0.343704 -0.125788
19900 1.4403042000000001 9.77871591 1.2094847100000001 -0.06195 0.359614 -0.100238
19920 0.95456205 10.009682549999999 1.06608213 -0.05331 0.403179 -0.079937
19940 0.5698629000000001 10.189009350000001 0.89333784 -0.0449 0.405161 -0.049971
19960 0.49621923000000007 10.17044883 0.91459611 -0.053727 0.33066 -0.059551
19980 0.60354063 9.98109621 0.7994855700000001 -0.050929 0.229496 -0.07115199999999999
20000 0.88001586 9.870920100000001 0.5545985400000001 -0.041721 0.130439 -0.082712
20020 1.09212768 9.89292393 0.45759726 -0.036794 0.056849 -0.065491
20040 0.9803133 9.896072940000002 0.4047606000000001 -0.026216000000000003 0.04506 -0.05685700000000001
20060 0.78826293 9.90834525 0.41029344 0.001302 0.039462 -0.01286
20080 0.70742853 10.02106215 0.28245933 0.0076409999999999985 0.025591 -0.012798
20100 0.75846996 10.11042144 0.14669874000000002 0.010832 -0.005197 -0.041578
20120 0.9499219200000001 9.99606627 0.33351057 0.00953 -0.036172 -0.020183
20140 1.08643788 9.94337676 0.53678358 0.0008699999999999999 -0.05429 -0.010607
20160 1.0827002700000001 9.960436350000002 0.49846572000000006 0.013538 -0.07143 0.002323
20180 1.04034069 9.850417199999999 0.42361542 0.024068 -0.080079 0.02484
20200 1.07117352 9.7519248 0.35625996000000004 0.020685 -0.0919 0.053673
20220 1.18478313 9.72992097 0.34428195 0.022594 -0.111206 0.08469
20240 1.26592164 9.78455286 0.22079367 0.041572000000000005 -0.13481600000000002 0.111558
20260 1.41021693 9.90580446 0.14130323999999997 0.048848 -0.170025 0.119132
20280 1.5618501 9.91178856 0.16315992 0.056205999999999985 -0.206223 0.107479
20300 1.6938730800000001 9.94412232 0.33200964 0.045504 -0.24229 0.078609
20320 1.78683264 9.922118489999999 0.21809592 0.012402 -0.279335 0.047446
20340 1.6997198400000002 9.7115076 0.14610033 -0.023847 -0.306773 0.014113
20360 1.47832776 9.46316745 0.25641378000000004 -0.034482 -0.31095 0.002294
20380 1.21861782 9.45972414 0.4596966 -0.07723300000000001 -0.310869 0.019087
20400 1.1573936100000002 9.53472159 0.60354063 -0.128462 -0.296914 0.036871
20420 1.32818571 9.70926111 0.68512059 -0.13810699999999998 -0.304346 0.03895
20440 1.47907332 9.942621390000001 0.7614620100000001 -0.13581 -0.28935500000000003 0.017582
20460 1.5808618800000003 10.057731930000001 0.5611810500000001 -0.115281 -0.25842600000000004 -0.00902
20480 1.4706955800000001 10.02075804 0.18875421000000003 -0.104492 -0.25411300000000003 -0.031383
20500 1.42054686 9.813590460000002 -0.0663156 -0.098067 -0.25305300000000003 -0.035612
20520 1.44389466 9.74219328 -0.13022775 -0.099163 -0.240343 -0.016408000000000002
20540 1.6178357700000001 9.72227898 -0.20896281000000003 -0.092728 -0.2032 0.0135
20560 1.82320812 9.67602483 -0.20642202000000004 -0.067104 -0.182053 0.030743
20580 1.8497049300000001 9.6392079 -0.19250163000000003 -0.052034 -0.157582 0.025476
20600 1.8582396300000001 9.672287220000001 -0.03262806 -0.040135 -0.14156400000000002 0.005242
20620 1.8390708900000001 9.746235 0.14265702 -0.029309 -0.124484 -0.012864
20640 1.73938167 9.835594290000001 0.36793386 -0.04956 -0.129701 -0.022613
20660 1.54658574 9.917625509999999 0.43843833 -0.068691 -0.123204 -0.032369
20680 1.3810321799999998 9.89801532 0.28725642 -0.056830999999999986 -0.09767 -0.034455
20700 1.23927768 9.84503151 0.21840003000000002 -0.044981 -0.078511 -0.040806
20720 1.1306025000000002 9.71120349 0.17064495 -0.024447 -0.025297 -0.046072
20740 1.10619522 9.712253160000001 0.24369021 -0.013543 0.022619 -0.05033
20760 1.09407006 9.89831943 0.33784659 -0.015725 0.01834 -0.04393
20780 1.23717834 10.09500993 0.37482048 -0.033188 -0.035 -0.009801
20800 1.32968664 10.089771390000001 0.5833418400000001 -0.045177 -0.057466 0.024327
20820 1.30917393 10.023004530000001 0.67135716 -0.051727 -0.066063 0.048862
20840 1.09542384 9.849073230000002 0.55295046 -0.06352000000000001 -0.07244 0.055197
20860 0.8182030499999999 9.72542799 0.35176698 -0.089072 -0.070181 0.045401
20880 0.64395783 9.77677353 0.21539817000000003 -0.103764 -0.041265 0.019624000000000003
20900 0.6577310700000001 9.867035340000001 0.28755072000000004 -0.09064 0.001416 -0.009181
20920 0.8081674200000002 9.880053210000002 0.38469915000000005 -0.089358 0.018580000000000003 -0.040172
20940 0.9562101300000001 9.94756563 0.39263544 -0.101002 0.014458000000000004 -0.064817
20960 1.08524106 9.99741024 0.26599815 -0.114794 0.025185 -0.071337
20980 1.1274534900000002 9.98798283 0.22572810000000001 -0.127683 0.02197 -0.055399
21000 1.09781748 9.907746840000001 0.21106215 -0.150221 0.016624 -0.030981
21020 1.02805857 9.868379310000002 0.16705449 -0.165234 0.020852 -0.009727
21040 0.9457330500000001 9.87466752 0.07768538999999999 -0.141821 0.018597 0.0011220000000000002
21060 0.95666139 9.78814332 0.30955455000000004 -0.134405 0.00367 -0.002012
21080 0.8963397000000001 9.78560253 0.43125741 -0.130224 -0.025069 -0.01156
21100 0.9328623300000001 9.79173378 0.34248672 -0.11327 -0.057061 -0.01781
21120 0.95651424 9.7929306 0.28546119000000003 -0.089775 -0.048634 -0.014452
21140 0.9111528000000001 9.835751250000001 0.33410898 -0.057705999999999986 -0.022165 -0.001443
21160 0.95516046 9.90700128 0.44697303 -0.047028 -0.006279 0.012498
21180 1.0662292800000002 10.005493680000002 0.7282355400000001 -0.022414 0.022351 0.024384
21200 1.1544015600000002 10.05129657 1.0309034700000002 0.00853 0.034979 0.036334
21220 1.13912739 10.10862621 1.08898848 5e-06 0.035017 0.034138
21240 1.14661242 10.03588506 0.9430353 -0.00533 0.029731 0.028767
21260 1.2524427 9.99471249 0.55564821 -0.010841 -0.006481999999999999 0.031979
21280 1.3251936599999998 9.947859930000002 0.38140299 -0.038551 -0.015909 0.015774
21300 1.17356049 9.90236115 0.29039562 -0.051109 0.023611 0.000681
21320 1.01743434 9.84248091 0.13682007 -0.055309 0.030051 -0.007902
21340 1.0084483800000001 9.73829871 0.09176274 -0.079924 0.005666 -0.015521
21360 1.07806014 9.68470668 0.2630061000000001 -0.075637 0.005668 -0.019764
21380 1.1557455300000001 9.66704868 0.48858705 -0.055232 0.036485 -0.018592
21400 1.3304322000000002 9.73755315 0.60489441 -0.034919 0.056612 -0.007794
21420 1.5045204600000002 9.77108373 0.7292852099999999 -0.015701 0.07459500000000001 0.007272
21440 1.5328125000000001 9.83245509 0.86819481 0.013076 0.07446799999999999 0.013883
21460 1.45362618 9.85371336 0.83256489 0.041929 0.090325 0.019405
21480 1.29885381 9.86568156 0.7831715400000001 0.047273 0.096681 0.023707
21500 1.1148770700000001 9.92436498 0.7906565700000001 0.039718 0.07328899999999999 0.019412
21520 1.0186311599999998 9.78829047 0.8821152000000001 0.040766 0.060536 0.010889
21540 1.02432096 9.66106458 0.82284318 0.035461 0.066946 0.010844
21560 1.1017120500000002 9.74114361 0.6704546400000001 0.029131 0.08719099999999999 0.015047
21580 1.1762582400000001 9.951754500000002 0.6683553 0.014214 0.087261 0.01067
21600 1.14407163 9.9312516 0.64261386 0.001369 0.06604700000000001 -0.001143
21620 1.2590350200000002 9.82676529 0.6730052400000001 -0.005004 0.067156 -0.006529999999999999
21640 1.2772914300000002 9.796678020000002 0.7632670500000001 -0.010395 0.057574 -0.003351
21660 1.2356774099999999 9.94187583 0.7186511700000001 -0.013687 0.040529 -0.000148
21680 1.27205289 9.90340101 0.7634142 -0.007291 0.045807 0.0063
21700 1.32564492 9.69758721 0.9623511900000001 -0.0008849999999999998 0.052154999999999986 0.011677
21720 1.26367515 9.72078786 0.90995598 -0.004138 0.038326 0.009536
21740 1.18793214 9.84547296 0.82628649 -0.005162 0.039429 0.000982
21760 1.1726579700000002 9.838890450000001 1.0472175000000001 -0.0071709999999999986 0.058645 -0.007603
21780 1.0707222600000001 9.80670384 1.03225725 -0.01672 0.059787 -0.018353
21800 1.0234184400000002 9.81254079 0.9443890800000001 -0.023064 0.066226 -0.024815
21820 1.04362704 9.85340925 0.8286801300000001 -0.041239 0.04928 -0.033466
21840 1.11173787 9.85431177 0.8370578700000001 -0.049917 0.007803 -0.043088
21860 1.16697798 9.86343507 0.86505561 -0.050075 -0.028412 -0.04411
21880 1.13718501 9.86732964 0.76760307 -0.049224 -0.065743 -0.033374
21900 1.22594589 9.887391090000001 0.63407916 -0.046096 -0.066879 -0.018396
21920 1.3019930100000001 9.8444331 0.7533785700000001 -0.028973 -0.041428 -0.004422
21940 1.3019930100000001 9.796226760000001 0.93869928 -0.016104 -0.014888 0.007384
21960 1.26487197 9.78455286 0.8306225100000001 -0.007462999999999998 0.017006 0.015949
21980 1.3488455700000002 9.787250610000001 0.7231441500000001 0.002325 0.063823 0.021299
22000 1.34794305 9.803564640000001 0.81251325 0.006756 0.101088 0.02235
22020 1.2639694500000003 9.80865603 0.84888873 0.001652 0.15224 0.022249
22040 1.16413308 9.79517709 0.92642697 0.004996 0.168271 0.006229
22060 1.1573936100000002 9.863140770000001 0.80427285 0.003881 0.13427999999999998 -0.017237
22080 1.2584366100000002 9.845178660000002 0.88017282 0.006005 0.121532 -0.027888
22100 1.26351819 9.83095416 0.94917636 0.008086 0.111929 -0.025724
22120 1.25349237 9.859246200000001 0.8508311099999999 0.012229 0.09801 -0.011791
22140 1.21577292 9.835751250000001 0.87089256 0.0014789999999999998 0.088426 -0.003308
22160 1.1770038 9.80640954 0.93959199 -0.009228 0.070392 -0.012972999999999998
22180 1.09542384 9.80236782 0.90442314 -0.015624 0.07041900000000001 -0.014086
22200 1.0612948500000001 9.835143030000001 0.7927559100000001 -0.021026 0.059768 -0.009837
22220 1.0930302 9.787093650000001 0.74335275 -0.024289 0.044869 -0.010909
22240 1.1599344 9.78141366 0.69200721 -0.012678 0.018193 -0.009726
22260 1.22041305 9.727821630000001 0.6836294700000001 -0.001091 -0.003201 0.002133
22280 1.28956374 9.67917384 0.62898777 0.002009 -0.014972 0.012852
22300 1.3940500500000002 9.74593089 0.61731387 0.022265 -0.010812 0.020466
22320 1.47667968 9.83245509 0.6846791400000001 0.024317 -0.02999 0.019436
22340 1.38012966 9.881848440000002 0.80187921 0.015696 -0.047013 0.021534
22360 1.14586686 10.08377748 0.8795744100000001 0.011347 -0.058741 0.027928
22380 0.89229798 10.06297047 0.9383951700000001 0.004912 -0.067237 0.026826
22400 0.7771874400000001 9.986187600000001 0.98285409 0.00186 -0.039507 0.021428
22420 0.7801794900000001 9.85909905 1.00681011 0.010458 -0.039482 0.007601
22440 0.7656606900000001 9.82032993 1.0000706400000001 0.004176 -0.027682 -0.007412999999999999
22460 0.90696393 9.84382488 1.0449808200000001 5.3e-05 -0.0073799999999999985 -0.019218
22480 0.9607031100000001 9.78485697 1.06413975 0.005564 0.033076999999999995 -0.018163
22500 0.9969314400000001 9.68515794 1.07327286 0.006731999999999999 0.067115 -0.006448000000000001
22520 1.11787893 9.691593300000001 0.99124164 0.008851000000000001 0.073461 0.003172
22540 1.25169714 9.85415481 0.83227059 0.020663 0.100013 0.012835
22560 1.3403108700000002 9.968068529999998 0.87133401 0.040092 0.154257 0.017174000000000002
22580 1.32803856 9.86658408 0.96144867 0.045628 0.192614 0.010754
22600 1.25918217 9.787250610000001 0.98091171 0.034026999999999995 0.217177 0.0053
22620 1.2189121200000002 9.775566900000001 0.90636552 0.02021 0.22788200000000006 0.004122
22640 1.24975476 9.7348554 0.90756234 0.011469 0.182106 0.00412
22660 1.24002324 9.74279169 0.96563754 0.005905 0.138419 0.011614
22680 1.2957048 9.74129076 0.90711108 0.002623 0.134114 0.025484
22700 1.37458701 9.796678020000002 0.80173206 0.006847 0.129816 0.03086
22720 1.40916726 9.83798793 0.77613777 -0.008089 0.107587 0.008351
22740 1.36171629 9.905206050000002 0.73601487 -0.010352 0.056552 -0.014032
22760 1.3804337700000002 9.964782180000002 0.86355468 -0.015883 0.007589 -0.019349
22780 1.4522822100000001 9.874069109999999 1.00800693 -0.028901 -0.038181 -0.017245
22800 1.55735712 9.744439770000001 1.0190824200000002 -0.035274 -0.02434 -0.009829
22820 1.43581122 9.696988800000002 1.0671318 -0.057639 -0.027410000000000004 -0.021732
22840 1.14586686 9.81239364 1.0086053400000003 -0.077938 -0.057073 -0.045337
22860 0.9243276300000001 9.85400766 0.9630967500000001 -0.080144 -0.08577699999999999 -0.05813400000000001
22880 0.7446967200000001 9.8677809 0.97312257 -0.087751 -0.114521 -0.056014
22900 0.66715848 9.78500412 0.9605559600000001 -0.094119 -0.101737 -0.050733
22920 0.613125 9.78305193 0.92358207 -0.083345 -0.068789 -0.041086
22940 0.61118262 9.909542069999999 0.9457330500000001 -0.083316 -0.050727 -0.029359
22960 0.54471987 9.98423541 1.04946399 -0.067255 -0.009352 -0.000458
22980 0.4864877100000001 10.03123512 1.05620346 -0.057529 0.048019 0.029447000000000008
23000 0.4767561900000001 10.038425850000001 0.85068396 -0.039316 0.074549 0.039154
23020 0.56297628 9.96717582 0.7625116799999999 -0.01152 0.08192999999999999 0.033998
23040 0.6956074800000001 9.897416909999999 0.7231441500000001 0.008727 0.064862 0.022411
23060 0.8773279200000001 9.88079877 0.63587439 0.036532 0.074374 0.017251
23080 1.12790475 9.815689800000001 0.71506071 0.050502 0.098818 0.019454
23100 1.37563668 9.77946147 0.8177517900000001 0.054841 0.12327 0.027999
23120 1.47967173 9.813139200000002 0.7367702399999999 0.03892 0.140374 0.026798
23140 1.42129242 9.88813665 0.70413237 0.01976 0.13835799999999998 0.014916
23160 1.20589425 9.811049670000001 0.76715181 0.000657 0.14594100000000002 -0.000182
23180 1.17595413 9.59893785 0.6932040300000001 -0.015284 0.14711400000000002 -0.013114
23200 1.42712937 9.584723160000001 0.63153837 -0.006696 0.163046 -0.008801
23220 1.81123011 9.609267780000001 0.71970084 -0.004625 0.165105 0.007234
23240 2.04340338 9.71344998 0.96878655 -0.006797 0.169322 0.020032
23260 1.93308012 10.00848573 1.1021535 0.003838 0.166072 0.024383
23280 1.45273347 9.93334113 1.10350728 0.01986 0.178765 0.033025
23300 1.1719124099999998 9.73904427 1.02372255 0.02841 0.203151 0.054416999999999986
23320 1.07296875 9.65057769 0.8946916200000001 0.032652999999999995 0.20842 0.065123
23340 0.97821396 9.6884541 0.73048203 0.046498000000000005 0.203045 0.06522599999999999
23360 0.86056263 9.828707670000002 0.6342263100000001 0.052909000000000005 0.199848 0.059934
23380 0.8012807999999999 9.906844320000001 0.7143151499999999 0.060377 0.190273 0.050384
23400 0.80472411 9.974955150000001 0.8948387700000001 0.047608 0.186104 0.03855
23420 0.8948387700000001 10.07539974 0.9351088200000001 0.03594 0.19151 0.028848
23440 0.96713847 10.03527684 0.9361486800000001 0.016674 0.16924 0.020196
23460 0.9593591400000001 9.90624591 0.95666139 -0.011088 0.143852 -0.000262
23480 0.9276237900000001 9.783208890000001 1.00261143 -0.014236000000000004 0.1333 -0.022703
23500 0.9225324 9.817485029999999 0.97716429 -0.026952 0.138726 -0.036686
23520 0.9654903900000001 9.86508315 0.8608569300000001 -0.029067000000000006 0.145117 -0.034572000000000006
23540 1.0389869100000002 9.85670541 0.8693916300000001 -0.03232 0.148264 -0.019644
23560 1.0591955100000001 9.76972995 1.0506608100000001 -0.042023000000000005 0.138659 -0.006881
23580 0.9473811300000001 9.696684690000001 1.05111207 -0.050711 0.105661 -0.005831
23600 0.8152011900000001 9.68950377 0.9864445500000001 -0.047668 0.07155800000000001 -0.004698
23620 0.81939987 9.71704044 0.9454387500000001 -0.036048 0.054438 0.003951
23640 0.85801203 9.815689800000001 0.9737209800000001 -0.030881 0.024562 0.011503
23660 0.89678115 9.86433759 0.88017282 -0.037355 0.014972 0.01788
23680 1.0377900899999999 9.847121040000001 0.9253773000000001 -0.048148 -0.011627 0.018907
23700 1.0398894300000001 9.87436341 0.89438751 -0.056774 -0.03502 0.015672
23720 1.0298538000000002 10.06896438 0.8405011800000001 -0.064347 -0.065857 0.008181
23740 0.98569899 10.075694040000002 0.8761311 -0.049402 -0.075449 -0.003453
23760 0.93121425 9.97165899 1.02581208 -0.026873 -0.048892000000000005 -0.004398
23780 0.8991846000000001 9.82466595 1.06443405 -0.021457 -0.021252 0.005218
23800 0.8521750800000001 9.75895857 1.0747639800000002 -0.012975 -0.014963 0.023429
23820 0.92267955 9.76224492 1.04886558 -0.009885 -0.02356 0.039485
23840 1.1277576 9.69503661 1.02611619 -0.004627 -0.040623 0.039544
23860 1.34226306 9.708662700000001 1.02836268 0.003927 -0.040636 0.035331
23880 1.4826637800000002 9.910287630000001 1.0434798900000002 0.010276 -0.052376 0.03539
23900 1.4424035400000002 10.01881566 1.16397612 -0.001513 -0.067236 0.032122000000000005
23920 1.21876497 9.83140542 1.2310372800000002 -0.001637 -0.101299 0.025756
23940 1.01968083 9.68171463 1.06323723 -0.005871 -0.104437 0.015048
23960 0.95905503 9.71359713 0.8963397000000001 -0.008947 -0.093705 -0.002079
23980 0.9831582000000001 9.70806429 0.80427285 -0.003498 -0.08831599999999999 -0.022344
24000 1.08599643 9.66734298 0.7771874400000001 -0.005449 -0.061622 -0.036279
24020 1.17325638 9.78005988 0.8077161600000001 -0.021237 -0.01469 -0.037517
24040 1.1918169 9.92511054 0.86669388 -0.033938 0.008786 -0.036568
24060 1.22415066 9.95010642 0.7735871700000001 -0.041392 0.012008 -0.036624
24080 1.3205535300000002 9.90460764 0.66028167 -0.04454 0.027981 -0.032394
24100 1.4368608900000002 9.81074556 0.69784416 -0.037062 0.041757 -0.020609
24120 1.45407744 9.8068608 0.8186445 -0.023226 0.050166 -0.004499
24140 1.41215931 9.82721655 0.94453623 -0.014749000000000003 0.052208 0.010512
24160 1.3790799900000001 9.80041563 1.0524658500000001 0.002182 0.029743 0.019205
24180 1.21053438 9.77003406 1.061442 0.009453 -0.011837 0.021446
24200 1.10425284 9.743841360000001 0.98285409 0.022145 -0.035322000000000006 0.022633
24220 1.08389709 9.79443153 0.9187849800000001 0.025322 -0.03111 0.032263
24240 1.15829613 9.83798793 0.91624419 0.025279 -0.049185 0.02374
24260 1.23523596 9.850417199999999 1.0972190700000002 0.021021 -0.062955 0.007705
24280 1.19870352 9.795029940000001 1.22625 0.020055 -0.054374 -0.0062
24300 1.04916969 9.87735546 1.1530477800000003 0.006339 -0.025542 -0.011673
24320 0.95695569 9.8822997 1.07327286 -0.002076 -0.002063 -0.014967
24340 1.09198053 9.72856719 1.07536239 -0.017988 0.009745 -0.023639
24360 1.3681516500000002 9.46975977 1.08793881 -0.020093 0.008717 -0.03113
24380 1.64732463 9.577836540000002 1.10635218 -0.021126 0.012994 -0.034347
24400 1.7059982400000002 9.949655159999999 1.22670126 -0.009324 0.029989 -0.03215
24420 1.5314685300000002 10.12194819 1.3696525800000003 0.004613 0.053342 -0.023537
24440 1.1876280300000004 10.00324719 1.4742860400000002 0.004646 0.07247 -0.011811
24460 0.88929612 9.67513212 1.3265376300000002 0.006789 0.08308099999999999 -0.003264
24480 0.73826136 9.65013624 1.04782572 0.00889 0.0788 -3.9e-05
24500 0.68033331 9.66944232 0.98540469 0.021587 0.055319000000000014 8e-05
24520 0.7318260000000001 9.73410984 0.9458802000000001 0.017276 0.045747 6.2e-05
24540 0.83676357 9.93948219 0.88510725 0.007669 0.043654000000000005 -0.001071
24560 1.04812002 9.96462522 0.8854113600000001 -0.003057 0.039396 0.007406
24580 1.19735955 9.92900511 0.83346741 -0.006296 0.072264 0.049002
24600 1.2115840500000001 9.92616021 0.79305021 0.00864 0.105103 0.082179
24620 1.19571147 9.864484740000002 0.8448470100000001 0.054458000000000006 0.080489 0.07078
24640 1.14811335 9.843226470000001 0.88361613 0.09065 0.064374 0.07318999999999999
24660 1.20364776 9.819133110000001 0.94917636 0.084373 0.106948 0.088047
24680 1.3509449100000002 9.75176784 0.9608502600000001 0.090952 0.13573 0.077373
24700 1.38776184 9.73246176 1.0330028100000002 0.09024 0.16894 0.031392
24720 1.3078299600000003 9.72467262 1.0524658500000001 0.076567 0.164919 -0.016768
24740 1.34869842 9.644446440000001 1.04228307 0.03284 0.152353 -0.033081
24760 1.3940500500000002 9.6710904 1.0811993400000002 0.010402 0.147097 -0.031094
24780 1.3407621299999999 9.8680752 1.26621594 -0.006797 0.130065 -0.019442
24800 1.15021269 9.94561344 1.41320898 -0.01883 0.086341 0.002963
24820 0.94783239 9.76628664 1.21637133 -0.009511 0.038311000000000005 0.018044
24840 0.8885505600000001 9.74114361 1.0656308700000001 0.005253 0.003092 0.021397
24860 0.8840575800000001 9.84487455 0.9577110600000001 0.011678 0.004152 0.017168
24880 0.88481295 9.894572010000001 0.87941745 0.009477 -0.033035 -0.005233
24900 0.9635480100000001 9.88634142 0.90007731 -0.0075400000000000016 -0.038234 -0.022436
24920 1.0538098200000001 9.871675470000001 0.9348047100000001 -0.006411 -0.026511 -0.02458
24940 1.10410569 9.83918475 0.8948387700000001 -0.022385 -0.019003 -0.023633
24960 1.12341177 9.80610543 0.8678907000000001 -0.031996 -0.029588 -0.032232
24980 1.16861625 9.780962400000002 0.86699799 -0.05009 -0.032669 -0.045173000000000005
25000 1.22070735 9.79038981 0.9172938600000001 -0.067064 -0.030402 -0.064523
25020 1.26875673 9.849073230000002 0.9877983300000001 -0.06475299999999999 -0.002666 -0.076293
25040 1.40483124 9.94187583 0.91954035 -0.071015 0.031432 -0.073175
25060 1.41860448 10.04366439 0.9485779500000001 -0.094538 0.030406 -0.06265599999999999
25080 1.03389552 9.981694619999999 0.8991846000000001 -0.103227 0.004836 -0.054138
25100 0.77298876 10.04890293 0.98584614 -0.108662 -0.014333000000000004 -0.050947000000000006
25120 0.96744258 9.982440180000001 1.21427199 -0.104495 -0.036719 -0.050889
25140 1.070271 9.569154690000001 1.14526845 -0.088703 -0.07621900000000001 -0.043251
25160 0.7607164500000001 9.46975977 1.00561329 -0.054798 -0.110499 -0.02481
25180 0.5194198800000001 9.66061332 0.80427285 -0.022989 -0.134128 -0.004262
25200 0.6403673700000001 9.68905251 0.85951296 0.001467 -0.134286 0.014069
25220 0.9383951700000001 9.87990606 0.8813696400000001 0.007888 -0.12262 0.021577
25240 1.2510987299999998 9.978104160000001 0.9048645900000001 0.001424 -0.143874 0.014081
25260 1.5143991300000001 9.932742720000002 0.8937891 -0.010244 -0.144834 -0.002022
25280 1.70749917 9.79758054 1.01174454 -0.018491 -0.091498 -0.012831
25300 1.71947718 9.65357955 1.01922957 -0.028949000000000006 -0.038223 -0.006562999999999999
25320 1.5682854600000002 9.628573860000001 0.9005285700000001 -0.044899 -0.022205000000000003 -0.002422
25340 1.4383618200000001 9.64189584 0.8610138900000001 -0.051243 -0.021071 -0.014218
25360 1.3816305900000003 9.72542799 0.98988786 -0.043794 -0.031724 -0.020561000000000003
25380 1.3358178900000002 9.85146687 0.95531742 -0.048042 -0.026387 -0.01953
25400 1.3506408 9.911641410000001 1.06368849 -0.054468 -0.033813 -0.021702000000000003
25420 1.23268536 9.907893990000002 1.0856923200000002 -0.053501 -0.060430999999999985 -0.025934
25440 1.05125922 9.907148430000001 1.06758306 -0.059907 -0.056169 -0.020643
25460 0.8815167900000002 9.783954450000001 1.03374837 -0.058879 -0.047719 -0.003555
25480 0.8330161500000001 9.65851398 0.87118686 -0.061147 -0.052075 0.022072
25500 0.9544149000000001 9.72227898 0.74530494 -0.074155 -0.089349 0.030575
25520 1.1123362800000003 9.71031078 0.8238830400000001 -0.070171 -0.13735999999999998 0.045619
25540 1.26052614 9.74503818 0.9005285700000001 -0.05642100000000001 -0.17465 0.035081
25560 1.33372836 9.803417490000001 0.83212344 -0.041825 -0.220628 0.065152
25580 1.32564492 9.910591740000001 0.73976229 -0.016077 -0.164356 0.08982899999999999
25600 1.3084283700000001 9.96358536 0.78721326 -0.006236 -0.097334 0.103699
25620 1.3205535300000002 9.849073230000002 0.80233047 0.005615 -0.105761 0.069609
25640 1.4715882900000001 9.73755315 0.8415508500000001 -0.010321 -0.136414 0.023604
25660 1.51559595 9.70746588 0.90711108 -0.030591000000000007 -0.157563 0.002125
25680 1.3527401400000003 9.83320065 0.95845662 -0.031677 -0.138479 0.025594
25700 1.09811178 9.842932170000001 1.07086941 -0.051001 -0.117298 0.073501
25720 0.9572598 9.71375409 1.18777518 -0.06364 -0.104376 0.049896
25740 0.9349518600000001 9.715696470000001 1.1563439400000002 -0.067888 -0.101161 0.048794
25760 0.98524773 9.84098979 1.03974228 -0.041552 -0.147176 0.07787899999999999
25780 1.07641206 9.91358379 1.05890121 0.001324 -0.125926 0.05465
25800 1.11967416 9.90744273 1.13613534 0.035736000000000004 -0.07169099999999999 0.048411
25820 1.04393115 9.85819653 1.13852898 0.04962 -0.048385 0.068775
25840 1.01234295 9.763893 1.0672789500000002 0.063274 -0.073028 0.092403
25860 0.9741722400000001 9.74204613 1.05395697 0.075851 -0.11253 0.103223
25880 0.87118686 9.824822910000002 1.01145024 0.08960499999999999 -0.133901 0.10762
25900 0.87103971 9.77692068 0.9607031100000001 0.093949 -0.122177 0.102294
25920 0.95830947 9.813139200000002 0.9316655100000001 0.093117 -0.106049 0.065948
25940 1.13988276 9.87990606 0.95396364 0.106169 -0.069798 0.046765
25960 1.2549933 9.86149269 1.05949962 0.094538 -0.04526 0.04772
25980 1.29510639 9.871675470000001 1.07806014 0.08824299999999999 -0.021802 0.047646
26000 1.34226306 9.8617968 1.01743434 0.06807300000000001 -0.009971 0.036808
26020 1.3986901800000002 9.80909748 0.9178922700000001 0.056362 -0.008848 0.032451999999999995
26040 1.62981378 9.87151851 0.9819613800000001 0.037211 0.00612 0.035503
26060 1.7950632300000002 9.998008650000001 1.0666805400000001 0.036264 0.034878 0.037596
26080 1.4672522700000001 9.9460647 1.09437417 0.036278 0.030647000000000008 0.030124
26100 0.85173363 9.79562835 1.1831350500000002 0.041737 0.045593 0.017325
26120 0.6185106900000001 9.617645520000002 1.36501245 0.04834 0.082884 0.009845
26140 0.72703872 9.53022861 1.3594698 0.054952 0.119124 -0.000837
26160 1.10619522 9.58351653 1.2960089099999998 0.07004099999999999 0.147855 -0.00611
26180 1.29510639 9.67378815 1.31741433 0.064707 0.138325 -0.015749000000000003
26200 1.07401842 9.861041430000002 1.23627582 0.060497 0.138391 -0.028597000000000008
26220 1.1051553600000001 9.941424570000002 1.08404424 0.045753 0.155589 -0.054359000000000005
26240 0.9918400500000001 9.9804978 0.93001743 0.024569 0.15049500000000002 -0.094025
26260 0.89648685 9.96208443 0.85936581 0.0066430000000000005 0.146502 -0.14542
26280 1.25947647 9.73246176 0.88376328 -0.020904 0.148891 -0.186207
26300 1.52772111 9.71285157 0.9199916100000001 -0.076342 0.130021 -0.214344
26320 1.4485347899999998 9.862091099999999 1.00695726 -0.13731600000000002 0.090832 -0.217925
26340 1.3039353900000001 9.93393954 1.07895285 -0.164026 0.081342 -0.219167
26360 1.1758069800000002 9.92197134 1.13479137 -0.15979200000000002 0.07599199999999999 -0.216994
26380 1.0809050400000002 9.87032169 1.1280519 -0.151449 0.06306 -0.187009
26400 1.12027257 9.824371650000002 1.08942993 -0.126902 0.087386 -0.164436
26420 1.1343401100000001 9.69907833 1.08255312 -0.07451 0.139295 -0.137431
26440 1.04138055 9.71794296 1.13314329 -0.034974 0.198628 -0.091298
26460 1.0503665100000001 9.72691911 1.18448883 -0.017631 0.279448 -0.070984
26480 1.0469232 9.705366540000002 1.27295541 -0.007862000000000001 0.34004 -0.047492
26500 1.0585971 9.79233219 1.27205289 -0.036494 0.406077 -0.020003
26520 1.15290063 9.938736630000001 1.3257920699999999 -0.058898 0.426314 0.000111
26540 1.21682259 10.05473988 1.24735131 -0.067333 0.469934 0.02136
26560 1.1220678 9.930496230000001 1.3421060999999999 -0.087814 0.453903 0.052216
26580 0.9202859100000002 9.85939335 1.30273857 -0.116075 0.362289 0.076705
26600 0.89438751 9.79727643 1.0961694000000002 -0.143451 0.189873 0.060712
26620 0.9952833600000001 9.79787484 1.0464719400000002 -0.135458 0.064164 0.055587
26640 1.06682769 9.83320065 1.0759608 -0.098348 0.007595 0.050578
26660 1.13852898 9.836045550000001 1.2100831200000002 -0.047162 -0.015947 0.032806
26680 1.2772914300000002 9.68650191 1.19930193 0.001928 -0.02035 0.025677
26700 1.40647932 9.61945056 1.07581365 0.039421 0.029523 0.041898000000000005
26720 1.4985363600000001 9.64593756 0.96144867 0.053334000000000006 0.06877 0.071855
26740 1.53610866 9.58951044 0.9216298800000001 0.058548 0.071828 0.101798
26760 1.6374459600000002 9.57319641 0.83631231 0.058423 0.051558000000000014 0.109301
26780 1.70495838 9.59520024 0.89393625 0.079756 0.065272 0.12438699999999997
26800 1.7263638000000001 9.712106010000001 0.9472339800000001 0.086286 0.114171 0.14466600000000002
26820 1.6271160300000003 9.731716200000001 0.96144867 0.101467 0.165265 0.141502
26840 1.5021268200000002 9.78185511 0.9351088200000001 0.128167 0.180051 0.15021600000000002
26860 1.28702295 9.83065986 0.8783775899999999 0.127139 0.201309 0.163
26880 0.9744763500000001 9.84951468 0.83691072 0.129608 0.287541 0.174657
26900 0.73137474 9.89756406 0.8155053 0.128469 0.293847 0.197074
26920 0.46298295 10.07973576 0.76715181 0.13512000000000002 0.28768 0.135171
26940 0.18291726 10.14574725 0.7568218800000002 0.14587 0.287715 0.117086
26960 0.37661571000000005 10.04830452 0.7520346000000001 0.154496 0.287766 0.09685
26980 0.62075718 10.00564083 0.76775022 0.155635 0.283582 0.076567
27000 0.9632439 10.01147778 0.67913649 0.146052 0.263474 0.051957
27020 1.3308834600000001 10.007436060000002 0.5929164 0.124825 0.259403 0.022972
27040 1.75121253 9.96193728 0.5957612999999999 0.105856 0.290448 0.001435
27060 1.9214062200000002 9.85850064 0.69455781 0.07275 0.27674 -0.005188
27080 2.04924033 9.71000667 0.9198346500000001 0.031051 0.246036 -0.016122
27100 2.01375756 9.55942317 0.88001586 0.007633 0.239798 -0.034437
27120 1.95104223 9.53202384 0.68961357 0.012016 0.260045 -0.039774
27140 1.62921537 9.67123755 0.5590915200000001 -0.00183 0.271786 -0.033476
27160 1.35303444 9.74308599 0.52705206 -0.014847999999999997 0.233443 -0.023904
27180 1.14302196 9.75386718 0.7589212200000001 -0.012934 0.19186 -0.01636
27200 1.1337417 9.844276140000002 0.88929612 -0.019484 0.173713 -0.001427
27220 1.13120091 9.9284067 1.05799869 -0.003611 0.167176 0.021125
27240 1.05500664 9.997106129999999 1.2494506500000002 0.012316 0.16280799999999998 0.03406
27260 0.9544149000000001 10.03467843 1.1713140000000002 0.018731 0.16173800000000002 0.029834
27280 1.00830123 9.99172044 1.09736622 0.043264 0.165892 0.035341000000000004
27300 1.02222162 9.85146687 1.1479662000000002 0.0603 0.170046 0.047205
27320 0.8849601 9.72932256 1.21921623 0.061214 0.159296 0.070726
27340 0.8843616900000001 9.752523210000001 1.4296799699999998 0.072686 0.125068 0.095419
27360 0.7964935200000001 10.021513410000003 1.49554431 0.106619 0.100363 0.117052
27380 0.7006890600000001 10.13542713 1.34375418 0.111786 0.081097 0.135273
27400 0.6792836400000001 9.78829047 1.07491113 0.10624 0.055464 0.156631
27420 0.76490532 9.59175693 1.06518942 0.131673 0.022330000000000003 0.162193
27440 1.2320869500000002 9.577081170000001 1.08688914 0.149824 0.015913 0.15271400000000002
27460 1.34839431 9.7607538 1.27654587 0.127558 0.029908 0.135449
27480 1.29240864 9.840234420000002 1.55735712 0.08918 0.002482 0.101033
27500 1.15380315 9.787093650000001 1.8588380400000002 0.077502 -0.021829 0.06359400000000001
27520 0.97641873 9.63157572 1.7078032800000003 0.045544 -0.040772 0.033485
27540 0.89828208 9.61525188 1.33836849 0.044353 -0.07271 0.029245
27560 0.9530709300000001 9.731863350000001 1.30873248 0.029417 -0.084328 0.017405
27580 1.0910780100000002 9.76508982 1.445994 0.0093 -0.06820599999999999 -0.000916
27600 1.18987452 9.70746588 1.34255736 -0.02274 -0.075551 -0.00113
27620 1.3232512800000003 9.78290478 1.19945889 -0.068749 -0.095669 0.008187999999999999
27640 1.42488288 9.76120506 1.1404811700000002 -0.09011 -0.096677 0.012313
27660 1.5473313000000002 9.644446440000001 1.1051553600000001 -0.102831 -0.08064500000000001 0.010067
27680 1.59313419 9.65836683 1.05276015 -0.108079 -0.059329 0.01214
27700 1.55481633 9.73560096 0.9511187400000001 -0.11438 -0.039058 0.009933
27720 1.4424035400000002 9.73351143 1.04617764 -0.13452999999999998 -0.038881 -0.016913
27740 1.22625 9.88454619 0.9755260200000001 -0.130253 -0.084511 -0.06489500000000001
27760 1.13120091 9.95534496 0.7750881000000001 -0.152604 -0.103484 -0.096005
27780 1.18613691 9.91014048 0.7599708900000002 -0.181271 -0.08946599999999999 -0.113315
27800 1.3016889 9.881397179999999 0.80457696 -0.217491 -0.092476 -0.128519
27820 1.38686913 9.96148602 0.7899110100000001 -0.240054 -0.14558800000000002 -0.146768
27840 1.38447549 9.974503890000001 0.82942569 -0.228356 -0.183859 -0.176548
27860 1.3703981400000003 9.88813665 0.7499450700000001 -0.223902 -0.150817 -0.185105
27880 1.50557013 9.79353882 0.8511254100000001 -0.237704 -0.117818 -0.16708399999999998
27900 1.6272631800000001 9.81718092 0.86221071 -0.253832 -0.118934 -0.140489
27920 1.58430519 9.8854389 0.96848244 -0.245685 -0.186152 -0.121118
27940 1.41770196 9.911043 1.0030626900000001 -0.213015 -0.252407 -0.097304
27960 1.3389669 9.760008240000001 1.08599643 -0.205739 -0.25048200000000004 -0.052391
27980 1.21038723 9.66420378 1.0193767200000001 -0.195243 -0.250673 -0.013861000000000002
28000 1.17550287 9.55942317 0.6970986 -0.15828599999999998 -0.304194 0.018512
28020 1.34869842 9.643691070000001 0.604296 -0.112507 -0.308684 0.035929
28040 1.52592588 9.73051938 0.5905227600000001 -0.081366 -0.258746 0.041424
28060 1.4911984800000002 9.82406754 0.58004568 -0.070626 -0.237499 0.046813
28080 1.46964591 9.84622833 0.12169305 -0.038697 -0.252533 0.049192
28100 1.72306764 9.81434583 -0.07364366999999998 0.005006 -0.245293 0.065511
28120 2.02738365 9.89772102 0.28485297000000004 0.023215 -0.189059 0.106158
28140 1.94520528 9.740093940000001 0.42017211000000004 0.028602 -0.129615 0.15419000000000002
28160 1.7615326500000001 9.819427410000001 0.43783992 0.070104 -0.135159 0.172647
28180 1.73893041 9.831552570000001 0.47346984000000003 0.098948 -0.093847 0.20591
28200 1.8513530100000002 9.50448717 0.81430848 0.196706 -0.092417 0.296322
28220 1.86437088 9.3212658 0.93869928 0.403982 -0.133079 0.428145
28240 1.74836763 9.38443239 0.42272271 0.554107 -0.081884 0.548769
28260 1.75390047 9.4601754 0.2311236 0.696527 0.07511799999999999 0.590155
28280 1.84281831 9.58936329 0.5780934900000001 0.725129 0.193559 0.5164949999999999
28300 1.85943645 9.57169548 0.93121425 0.660673 0.232537 0.415582
28320 1.5819115499999998 9.696537540000001 0.98390376 0.4908 0.26994 0.266933
28340 1.19496591 9.77302611 0.4837899600000001 0.3181 0.315114 0.042411
28360 1.15754076 9.80820477 0.21240612000000003 0.043118 0.221886 -0.114283
28380 1.47862206 9.77512545 0.63273519 -0.134322 0.05138 -0.211444
28400 1.75629411 9.66719583 1.04257737 -0.205706 0.072935 -0.21197
28420 1.83877659 9.759252870000001 1.08105219 -0.232574 0.020865 -0.220637
28440 1.7458170300000002 9.974660850000001 1.00635885 -0.265556 0.014695 -0.247565
28460 1.82665143 9.99126918 0.97627158 -0.296087 0.066094 -0.287368
28480 2.03831199 9.94561344 1.05770439 -0.277437 0.107865 -0.35993
28500 2.14264134 9.865985669999999 1.22325795 -0.276193 0.11969 -0.387711
28520 1.9059849 9.89053029 1.19166975 -0.256616 0.197409 -0.393015
28540 1.69447149 9.847121040000001 1.0627859700000002 -0.259673 0.260147 -0.362138
28560 1.5331166100000002 9.72078786 1.12132224 -0.291794 0.299414 -0.29725100000000004
28580 1.4584134600000003 9.756260820000001 1.24196562 -0.323198 0.277889 -0.21519
28600 1.46859624 9.856254150000002 1.12355892 -0.377236 0.17241800000000002 -0.166294
28620 1.49284656 9.928848150000002 1.08434835 -0.418428 0.009647 -0.184533
28640 1.5067669500000003 9.864936 1.26592164 -0.428442 -0.144532 -0.24743
28660 1.3632172200000001 9.7692885 1.3521417299999998 -0.362393 -0.208508 -0.289616
28680 1.19840922 9.835143030000001 1.33148187 -0.213941 -0.14947 -0.264085
28700 0.96280245 9.98977806 1.1201254200000001 -0.049491 -0.044868 -0.1915
28720 0.7491897000000001 10.146345660000001 1.19496591 0.043068 -0.0008609999999999999 -0.08836000000000001
28740 0.84798621 10.50126165 1.80524601 0.167488 -0.001655 0.00224
28760 1.1906200800000002 10.440488700000001 2.4830385300000004 0.196192 0.027863 0.054746
28780 0.7813763100000001 9.43876998 2.3312484 0.181012 -0.005193 0.076047
28800 0.76535658 8.89330455 1.6518176100000002 0.143528 -0.058241 0.054488
28820 1.0901853000000001 8.86965264 1.51305516 0.09241 -0.079201 0.012497
28840 1.04452956 8.67087261 1.41590673 0.034996 -0.080947 -0.033835000000000004
28860 1.03135473 9.74143791 1.1166821100000002 0.025701 -0.026529 -0.047856
28880 1.33117776 11.016188549999999 1.03689738 -0.005032 0.007714 -0.059865
28900 1.9387699200000001 11.075764679999999 1.37115351 0.003642 0.033272 -0.065179
28920 2.36314071 10.40141547 1.42368606 0.030328 0.026825 -0.074598
28940 2.2170403800000003 9.52005564 1.12790475 0.022941 0.051327 -0.068272
28960 1.81378071 9.078772410000001 1.09796463 0.025964 0.044792 -0.035127
28980 1.4076761400000002 8.97009723 1.1255111100000001 0.013325 0.13835 0.022348
29000 1.1683219500000002 9.17367435 0.8903457900000001 0.063434 0.134962 0.026976
29020 1.29046626 9.349852140000001 0.34638129 0.079576 0.138213 -0.0006889999999999999
29040 1.69043958 9.62962353 0.03742515 0.083973 0.147862 -0.019899
29060 2.15043048 9.96103476 -0.09624591 0.101071 0.124486 -0.04966
29080 2.77972236 10.03692492 0.28620675 0.069984 0.066107 -0.07544
29100 3.0994498800000003 9.73021527 0.9755260200000001 0.050694 0.041694 -0.080884
29120 2.8672864200000006 9.299114820000002 1.1335945500000002 0.015334 0.010912 -0.077887
29140 2.3305028400000003 9.09403677 1.16442738 -0.035 -0.019853 -0.066449
29160 1.8944581500000002 9.11230299 0.82897443 -0.06489199999999999 -0.019765 -0.062385
29180 1.65944979 9.39490947 0.37721412000000004 -0.041167 0.028124 -0.070826
29200 1.6108020000000003 9.864631890000002 0.49607208 0.003049 0.119639 -0.084522
29220 1.74956445 10.19259981 0.5825864700000001 0.02985 0.140881 -0.091839
29240 2.03456457 10.400218650000001 0.6623712000000002 0.043696 0.145055 -0.082134
29260 1.8871300800000002 10.57640625 0.9648919800000001 0.06070800000000001 0.175713 -0.038257
29280 1.6235255700000002 10.34139789 1.01264706 0.080954 0.226549 0.018435
29300 1.37025099 9.95729715 1.0553009400000002 0.106554 0.248737 0.042086
29320 1.2543948900000002 9.577385280000001 1.0554579000000002 0.093666 0.224302 0.036686
29340 1.26711846 9.38353968 1.13239773 0.080729 0.17436 0.016364
29360 1.2778898400000003 9.35764128 1.3623147 0.073074 0.107377 -0.009241
29380 1.2510987299999998 9.477087840000001 1.30184586 0.031183 0.024512 -0.029724
29400 1.1322407700000001 9.687551580000001 1.23777675 -0.008477 -0.029627 -0.04275
29420 1.07191908 9.833504759999999 1.06158915 -0.035288 -0.069976 -0.0525
29440 0.9580053600000001 9.838890450000001 1.15904169 -0.046009 -0.08165599999999999 -0.05256
29460 0.94004325 9.83290635 1.3570761599999999 -0.060941 -0.07523400000000001 -0.047331
29480 0.7731457200000001 9.896524200000002 1.3584299400000002 -0.05886 -0.074227 -0.034499
29500 0.7024842900000001 10.25846415 1.06368849 -0.046057 -0.062601 -0.022674
29520 0.61327215 10.29962691 0.99602892 -0.046086 -0.063687 -0.017332
29540 0.57121668 10.05653511 1.1132388 -0.039704 -0.049934 0.0008550000000000001
29560 0.6330294900000001 9.752523210000001 1.13015124 -0.023644 -0.026596 0.011619
29580 1.1166821100000002 9.412871580000001 1.22879079 -0.012937 -0.020234 0.00955
29600 1.5338621700000001 9.40404258 1.20798378 -0.002278 -0.011791 0.020295
29620 1.75225239 9.60582447 1.26351819 -0.015157 -0.002266 0.046899
29640 1.8058444200000001 9.66989358 1.53266535 -0.016444 -0.022617 0.075758
29660 1.6197781500000001 9.8968185 1.6551039600000002 -0.032768 -0.081202 0.088538
29680 1.1563439400000002 9.85371336 1.39495257 -0.062928 -0.158806 0.074539
29700 0.5945644800000001 9.889333470000002 1.04542227 -0.068123 -0.145932 0.056327
29720 0.27453285000000005 9.86897772 0.71955369 -0.066582 -0.076549 0.019929
29740 0.27692649 9.855351630000001 0.6408186300000001 -0.048095 -0.044471 -0.025916
29760 0.5418749700000001 9.87211692 0.7815234600000001 -0.052319 -0.066699 -0.057964
29780 0.87133401 9.9056475 0.85501998 -0.072906 -0.14224 -0.06335199999999999
29800 1.1499085800000002 10.049501339999999 0.94453623 -0.085948 -0.179544 -0.047372
29820 1.20110697 10.12000581 0.8559225 -0.093349 -0.13914 -0.021838
29840 1.19915478 10.013871420000001 0.8074218599999999 -0.067337 -0.029584 -0.002569
29860 1.21082868 9.75640797 0.8147597400000001 -0.029748 0.041594 0.013626
29880 1.31681592 9.7143525 0.9190890899999999 -0.003951 0.087298 0.016952000000000002
29900 1.4416481700000001 9.6654006 1.03479804 -0.009429 0.047932 0.009487
29920 1.49823225 9.59788818 1.01728719 -0.020304 0.014895 0.022272
29940 1.4491332000000003 9.60462765 0.9729754200000001 -0.025782 0.003115 0.042545
29960 1.28178441 9.73440414 0.8562168 -0.032394 -0.03949 0.046826
29980 1.14945732 9.80969589 0.87747507 -0.051828 -0.113898 0.023285
30000 1.06802451 9.873166590000002 0.8707356 -0.062482 -0.134007 -0.000265
30020 0.94183848 9.88020036 0.91818657 -0.059186 -0.123323 -0.010938
30040 0.84319893 9.78261048 0.87253083 -0.068811 -0.145592 -0.028068
30060 0.80996265 9.82241946 0.8244814500000002 -0.055812 -0.105144 -0.031234
30080 0.75607632 9.964330920000002 0.8577177300000002 -0.035159 -0.019993 -0.031198000000000007
30100 0.6999435 9.99905832 0.91010313 -0.014634 0.048066000000000005 -0.019392
30120 0.7762849200000002 10.017913140000003 0.9985697100000002 0.000383 0.08628200000000001 0.00096
30140 0.8753757300000001 10.01013381 0.9726811200000001 0.017491999999999997 0.120209 0.026674
30160 0.9334607400000001 9.92720988 1.02372255 0.02396 0.142527 0.034168000000000004
30180 0.92387637 9.791439480000001 1.0548594900000001 0.044369 0.166983 0.02787
30200 0.96130152 9.680370660000001 1.0585971 0.057138 0.148871 0.0173
30220 1.15664805 9.67872258 1.0584499500000002 0.046297000000000005 0.108437 0.01514
30240 1.2921143400000001 9.69234867 0.9592021800000001 0.029141000000000007 0.098871 0.024646
30260 1.30438665 9.6423471 0.8928963900000001 0.018405 0.0893 0.029924
30280 1.3180127400000001 9.62064738 1.0946782800000001 0.021577 0.081836 0.028888
30300 1.3129213499999999 9.80236782 1.38746754 0.025892 0.07868 0.015035
30320 1.15589268 9.948762450000002 1.5518242800000004 0.034566 0.090445 -0.004147
30340 0.9413970300000001 9.86942898 1.38806595 0.039016 0.111812 -0.023372
30360 0.6506973 9.96462522 1.04661909 0.029582 0.119422 -0.053357
30380 0.36044883 10.066119480000001 0.93630564 0.013737 0.134473 -0.073784
30400 0.18965673000000005 9.97256151 1.05725313 0.0042840000000000005 0.16859000000000002 -0.072825
