time Ax Ay Az Gx Gy Gz
20 0.0318825 9.85086846 -0.17798283 0.060778 0.066601 0.075115
40 0.058977720000000004 9.87452037 -0.14265702 0.053271000000000006 0.050678 0.067605
60 0.02080701 9.847121040000001 -0.11915226000000001 0.038373 0.042276 0.05042
80 0.01601973 9.88125003 -0.09370512 0.027772 0.042373 0.035391000000000006
100 0.045802890000000006 9.894719160000001 -0.08622009 0.017156 0.043518 0.024633
120 0.03517866 9.91269108 -0.06990606 0.004372999999999999 0.038275 0.014937
140 0.03382488 9.939335040000001 -0.05658408 -0.009492 0.02984 0.005237
160 -0.00673947 9.91568313 -0.01257642 -0.022294 0.021396 -0.0033880000000000004
180 -0.015568470000000001 9.873765 0.01227231 -0.029786 0.008669 -0.010901
200 0.03771945 9.840234420000002 0.029783160000000003 -0.033034 -0.008338 -0.017312
220 0.07199559 9.855057330000001 0.06945480000000001 -0.029906 -0.026451 -0.019403
240 0.07125002999999999 9.86089428 0.09759969 -0.023572 -0.041387 -0.01934
260 0.04041720000000001 9.839783160000001 0.08322804 -0.016137000000000002 -0.047809 -0.018211
280 0.01721655 9.80550702 0.06256818 -0.009765 -0.049978 -0.013891
300 0.03547296 9.82990449 0.07589016 -0.005507 -0.051063 -0.012792
320 0.03248091 9.8535564 0.06196977000000001 -0.004445 -0.051071 -0.011716
340 0.0865242 9.86658408 0.08188407 -0.001215 -0.04363 -0.010635
360 0.10088604 9.84008727 0.04340925 0.000971 -0.03298 -0.011701
380 0.1130112 9.86942898 0.06256818 -1.9e-05 -0.020176 -0.015998
400 0.13262139 9.896524200000002 0.08172711 6.7e-05 -0.006306 -0.021356
420 0.11197134000000002 9.92810259 0.10358379000000001 -0.003062 0.00544 -0.025666
440 0.08023599000000001 9.893973599999999 0.09116433 -0.010443 0.018275 -0.032143
460 0.05852646 9.86014872 0.07574300999999999 -0.018878 0.031126 -0.041832
480 0.01542132 9.839940120000001 0.10298538000000002 -0.029489 0.038641 -0.047257
500 0.02604555 9.88020036 0.12618603 -0.041162 0.044043 -0.055891
520 0.004640130000000001 9.869880240000002 0.12469491 -0.048592 0.045164 -0.063422
540 -0.038621970000000005 9.881397179999999 0.12319398000000001 -0.050711 0.045184 -0.06664199999999999
560 -0.07454619 9.893973599999999 0.13861530000000005 -0.051802 0.040923 -0.065576
580 -0.08562168 9.879758910000001 0.14220576000000001 -0.04862 0.037711 -0.064481
600 -0.11166723 9.872872290000002 0.13546629000000002 -0.043324 0.037659 -0.055898
620 -0.11331531000000002 9.86134554 0.14833701000000002 -0.032694 0.038648 -0.046211
640 -0.08831943 9.83484873 0.10148445 -0.01782 0.036419 -0.034354
660 -0.08532738000000001 9.844727400000002 0.10807677000000002 -0.002927 0.037389 -0.023569
680 -0.09490194 9.85295799 0.10777265999999999 0.011951 0.038347000000000006 -0.00958
700 -0.07320222000000003 9.84053853 0.09759969 0.024701 0.038255 0.0022600000000000003
720 -0.10014048 9.84398184 0.0782838 0.036412 0.036071 0.005549
740 -0.08023599000000001 9.82466595 0.06002739000000001 0.039575 0.027538 0.005582
760 -0.050590170000000004 9.84262806 0.04909905 0.038493 0.021163 0.002378
780 -0.059428980000000006 9.84262806 0.03967164 0.032102 0.019071 -0.001937
800 -0.08053029000000002 9.87256818 0.029783160000000003 0.026811 0.023372 -0.00732
820 -0.08951625 9.86912487 0.024848730000000003 0.021515 0.029791 -0.009502
840 -0.05927202000000001 9.87556023 0.0022464900000000003 0.015205000000000003 0.046871 -0.012773
860 -0.07753824000000002 9.882446850000001 0.01601973 0.009966 0.067133 -0.013903
880 -0.053140770000000004 9.901311480000002 -0.01018278 0.0025800000000000003 0.08526900000000001 -0.013978
900 -0.05747679000000001 9.879758910000001 0.00793629 -0.000549 0.103381 -0.011887
920 -0.07139718 9.89667135 0.0025407900000000002 -0.000487 0.120413 -0.008703
940 -0.07079877000000001 9.880504470000002 -0.0068866199999999995 0.002743 0.129976 -0.005489
960 -0.07320222000000003 9.84248091 -0.0047872800000000005 0.003809 0.134216 -0.001214
980 -0.11152008000000001 9.859697460000001 0.022602240000000003 0.008058 0.13206199999999998 0.000955
1000 -0.15358536 9.850417199999999 0.06496182 0.010167 0.128851 0.003111
1020 -0.21704625 9.867182490000001 0.06331374000000001 0.010124 0.125629 0.009524
1040 -0.28590264 9.85027005 0.09805095000000001 0.013287 0.12134 0.013824
1060 -0.32527017 9.831101310000001 0.09220419 0.018559 0.112778 0.019213
1080 -0.36044883 9.836192700000002 0.11226564 0.020635 0.101048 0.020311000000000003
1100 -0.35521029 9.812246490000001 0.051041430000000006 0.022701 0.086127 0.020344
1120 -0.34997175 9.83200383 0.04730382 0.019443 0.07229400000000001 0.019271
1140 -0.31928607000000003 9.857755080000002 0.04460607 0.015137 0.061665 0.017118
1160 -0.28546119000000003 9.8794548 -0.00045126000000000004 0.006569 0.052116 0.014934
1180 -0.23366439 9.879160500000001 0.02320065 0.000134 0.040437 0.010631
1200 -0.18590931 9.863287920000001 0.00987867 -0.006286 0.030894 0.005258
1220 -0.14385383999999998 9.835594290000001 0.00703377 -0.007353 0.024531 -0.001151
1240 -0.12288987000000001 9.834995880000001 -0.0025407900000000002 -0.009496 0.018164 -0.005431
1260 -0.07125002999999999 9.83754648 -0.01257642 -0.01273 0.008597 -0.007576999999999999
1280 -0.06675705 9.87032169 -0.01915893 -0.014912 -0.0009880000000000002 -0.006512
1300 -0.0489519 9.86478885 -0.00164808 -0.018141 -0.007368 -0.006527
1320 -0.04027005 9.861041430000002 -0.028439190000000003 -0.022452 -0.015879 -0.005478
1340 -0.03771945 9.8242245 -0.02499588 -0.025691 -0.02439 -0.005489
1360 -0.038621970000000005 9.80026848 -0.0113796 -0.02892 -0.031832 -0.006571
1380 -0.046705409999999996 9.817485029999999 -0.025143030000000004 -0.02894 -0.036093 -0.0065650000000000005
1400 -0.04415481 9.839037600000001 -0.018707670000000003 -0.027882 -0.037166000000000005 -0.005488
1420 -0.0580752 9.82616688 -0.01406754 -0.026815 -0.035048 -0.003347
1440 -0.02604555 9.861041430000002 -0.029783160000000003 -0.03004 -0.038241 -0.0012289999999999998
1460 -0.0068866199999999995 9.83634966 -0.025143030000000004 -0.033264 -0.043556 -0.001245
1480 -0.008829 9.82241946 -0.03712104000000001 -0.029007 -0.043579 0.000921
1500 -0.01272357 9.823920390000001 -0.03562992 -0.023653 -0.039337 0.000953
1520 -0.015568470000000001 9.8128449 -0.051796800000000004 -0.018304 -0.034038 0.00312
1540 -0.032932170000000004 9.82197801 -0.08007903000000001 -0.016152 -0.026601 0.006331
1560 -0.036826740000000004 9.834397469999999 -0.06167547 -0.016146999999999998 -0.021292 0.010597
1580 -0.06691401 9.835299990000001 -0.07724394 -0.014003 -0.017047 0.012743
1600 -0.07095573000000001 9.835447140000001 -0.06691401 -0.013988999999999998 -0.01279 0.013806
1620 -0.09116433 9.84503151 -0.07574300999999999 -0.018237 -0.009575 0.012704
1640 -0.09490194 9.846826740000001 -0.07050447000000001 -0.020323 -0.001037 0.010542
1660 -0.10448631000000001 9.84262806 -0.045204480000000005 -0.021352 0.005367 0.00839
1680 -0.14534496 9.84891627 -0.04161402 -0.021308 0.013893 0.007311
1700 -0.15701886 9.882446850000001 -0.02754648 -0.022342 0.021354 0.007294
1720 -0.18427104 9.86658408 -0.01796211 -0.015921 0.029836 0.011601
1740 -0.20986533 9.885291750000002 -0.00509139 -0.009515 0.036184 0.016978999999999998
1760 -0.19205037000000003 9.87047865 0.00973152 -0.000995 0.039325 0.023444
1780 -0.19159911000000002 9.87047865 0.023946210000000002 0.004339 0.044611000000000005 0.028815
1800 -0.19489527 9.879307650000001 0.08232552 0.004335 0.046729 0.032017000000000004
1820 -0.24519114 9.85056435 0.08861373 0.003258 0.044602 0.032012
1840 -0.25521696000000005 9.85011309 0.09445068 0.002191 0.040362 0.027737
1860 -0.24473988000000002 9.867035340000001 0.09729558 0.002186 0.032931 0.021338
1880 -0.21630069000000005 9.85056435 0.12199716 -0.003114 0.031918 0.012756
1900 -0.2314179 9.854910180000001 0.13591755 -0.011611 0.036226 0.008418
1920 -0.22213764000000003 9.867182490000001 0.14369688 -0.017983000000000002 0.039457 0.005165
1940 -0.22139208000000002 9.899359290000001 0.14295132 -0.02116 0.042672 0.003002
1960 -0.2026746 9.90805095 0.13950801 -0.022203 0.04588 0.0008539999999999999
1980 -0.16870257000000002 9.88963758 0.14354973000000004 -0.016835 0.053319000000000005 0.0008820000000000002
2000 -0.14519781 9.835751250000001 0.14445225 -0.012558 0.056495 0.0019760000000000003
2020 -0.13352391000000002 9.833347799999999 0.13636880999999998 -0.012553 0.058622 0.003042
2040 -0.10432935000000002 9.85520448 0.12334113000000002 -0.009352 0.05861 0.003064
2060 -0.12199716 9.835594290000001 0.14954364 -0.009376 0.051162 0.000937
2080 -0.11601306 9.843677730000001 0.14789556 -0.010482 0.043705 0.002007
2100 -0.14220576000000001 9.867035340000001 0.15387966000000003 -0.009439 0.039436 0.003088
2120 -0.16106058000000004 9.823626090000001 0.17662905 -0.007291 0.041563 0.002032
2140 -0.16466085 9.82886463 0.21180771 -0.008362 0.040501 0.002026
2160 -0.16810416000000003 9.83379906 0.23576373 -0.012644 0.035198 -0.000133
2180 -0.18007236000000001 9.8854389 0.22812174000000002 -0.016907 0.034157 -0.002298
2200 -0.18172044 9.88020036 0.22139208000000002 -0.016897 0.034165 -0.004435000000000001
2220 -0.18471249 9.87242103 0.21943989 -0.020079 0.033132 -0.009797
2240 -0.1212516 9.854753220000003 0.22722903 -0.021145 0.031014 -0.011938
2260 -0.11929941000000001 9.87825798 0.21450546 -0.025413 0.027846 -0.015168
2280 -0.08547453 9.86194395 0.25985709 -0.026475 0.027854000000000004 -0.016244
2300 -0.10178856 9.8734707 0.1963962 -0.025399 0.02892 -0.017306000000000002
2320 -0.06256818 9.85670541 0.21854718 -0.016891999999999997 0.026742 -0.012971000000000002
2340 -0.07110288000000001 9.86149269 0.22153923 -0.011573 0.027772 -0.008662000000000001
2360 -0.08576883000000002 9.84113694 0.22228479 -0.0052 0.027724 -0.002208
2380 -0.09968922 9.83065986 0.19968255000000001 -0.000957 0.031932 0.00743
2400 -0.09145863 9.843383430000001 0.20791314000000002 9.6e-05 0.030854000000000006 0.009575
2420 -0.11465928000000002 9.83798793 0.15507648000000004 0.004335 0.024448 0.009613
2440 -0.13232709 9.83484873 0.17917965 0.00112 0.01808 0.006394
2460 -0.10463346000000001 9.84577707 0.15478218000000002 -0.001009 0.014909 0.0021100000000000003
2480 -0.10508471999999999 9.849073230000002 0.14654178 -0.00632 0.018132 -6.7e-05
2500 -0.09984618 9.8387433 0.14983794 -0.009492 0.022413 -0.002231
2520 -0.10747836000000001 9.86194395 0.15822549 -0.010554 0.023482 -0.00224
2540 -0.11645451 9.866731230000001 0.1300806 -0.014802 0.027758 -0.002275
2560 -0.13337676 9.88095573 0.17872839 -0.016921000000000002 0.030961 -0.002294
2580 -0.11001915 9.867476790000001 0.15552774 -0.014778 0.034145 -0.001215
2600 -0.09145863 9.8415882 0.13696722 -0.01583 0.034161000000000004 -0.004427
2620 -0.08712261 9.84891627 0.12633318000000002 -0.016878 0.037365 -0.005507
2640 -0.08277678 9.846669780000001 0.15402681000000001 -0.018997 0.038446 -0.007659999999999998
2660 -0.09265545000000001 9.85176117 0.16734879000000003 -0.019021 0.034181 -0.006586
2680 -0.13142457 9.85595004 0.16046217000000002 -0.018002 0.024586 -0.005497999999999999
2700 -0.13561344 9.824822910000002 0.15732297 -0.01805 0.014994 -0.004418
2720 -0.14550192 9.83948886 0.1764819 -0.017031 0.005399 -0.003331
2740 -0.16495515000000002 9.8245188 0.19803447000000002 -0.018122 7.6e-05 -0.003331
2760 -0.1733427 9.82796211 0.17588349 -0.018127 -0.000989 -0.00333
2780 -0.18441819 9.843677730000001 0.16675038 -0.018122 0.003259 -0.000131
2800 -0.19938825000000002 9.833651910000002 0.18007236000000001 -0.019165 0.00965 0.000922
2820 -0.18891117000000002 9.86283666 0.19803447000000002 -0.019141 0.016038 0.001982
2840 -0.19518957000000003 9.8387433 0.19250163000000003 -0.015907 0.022422 0.000928
2860 -0.15118191 9.84068568 0.16151184 -0.016964 0.025617 0.001985
2880 -0.11840670000000002 9.836045550000001 0.1588239 -0.01695 0.028813 0.001981
2900 -0.11047041 9.848621970000002 0.15522363 -0.013745 0.03305 0.005203
2920 -0.07753824000000002 9.85295799 0.15208443 -0.012678 0.035169 0.007344
2940 -0.08786817 9.86089428 0.17184176999999998 -0.009487 0.034088 0.008436
2960 -0.10104300000000001 9.84412899 0.22527684 -0.010563 0.033022 0.009498
2980 -0.11465928000000002 9.852212430000002 0.23486121000000001 -0.012706 0.028777 0.007352
3000 -0.15328125 9.813590460000002 0.25342173 -0.010573 0.026648 0.005233
3020 -0.16466085 9.840391380000002 0.24788889 -0.009525 0.025566 0.008445999999999999
3040 -0.1790325 9.871675470000001 0.25297047 -0.007391 0.026619 0.009528
3060 -0.2080701 9.850417199999999 0.29024847 -0.006348 0.024472 0.012743
3080 -0.23830452000000002 9.82796211 0.3153915 -0.00743 0.022341 0.013806
3100 -0.21180771 9.85850064 0.31404753 -0.009539 0.024492 0.010584
3120 -0.22648347000000002 9.866731230000001 0.30701375999999997 -0.013807 0.024507 0.010554
3140 -0.23560677000000002 9.851162760000001 0.29054277 -0.015926 0.02771 0.010535
3160 -0.20252745000000003 9.83679111 0.27303192 -0.015907 0.029849 0.008395999999999999
3180 -0.18381978000000002 9.85086846 0.3005784 -0.018046 0.030913 0.010517
3200 -0.20986533 9.8444331 0.29578131 -0.021241 0.03199 0.010493
3220 -0.17303859 9.85520448 0.27857457 -0.02337 0.032002 0.00941
3240 -0.18126918000000003 9.827814960000001 0.30581694000000004 -0.024432 0.030949 0.007267
3260 -0.17858124000000003 9.85415481 0.30177522 -0.021275 0.022411 0.008368
3280 -0.18112203000000002 9.853860509999999 0.31868766000000004 -0.018103 0.017069 0.009466
3300 -0.18471249 9.865387259999999 0.32182686000000005 -0.004234 0.022326 0.014897
3320 -0.17169462000000002 9.835751250000001 0.32722236 0.002148 0.024408000000000003 0.021348
3340 -0.17513793000000002 9.81554265 0.33365772000000005 0.003181 0.021192 0.025632
3360 -0.19968255000000001 9.82975734 0.33380487 0.002076 0.010551 0.023502
3380 -0.21180771 9.83664396 0.3125466 -0.004368 -7.5e-05 0.022402
3400 -0.20118348 9.858049379999999 0.30670965 -0.005445 -0.004323 0.020264
3420 -0.19489527 9.86343507 0.29847906 -0.008636 -0.005365 0.017038
3440 -0.16780005000000003 9.83724237 0.29548701 -0.011822 -0.005340999999999999 0.013811000000000002
3460 -0.15777423000000002 9.857755080000002 0.29249496 -0.014998 -0.003186 0.010582
3480 -0.15193728 9.831101310000001 0.27527841000000003 -0.013898 0.003206 0.009513
3500 -0.15942230999999998 9.836045550000001 0.27767205 -0.012817 0.006398 0.009516
3520 -0.14818986 9.856254150000002 0.29084688000000003 -0.0011 0.005279 0.012804
3540 -0.1240965 9.864190440000002 0.26180928000000003 0.023404 0.006224 0.02152
3560 -0.08816247 9.843226470000001 0.24219909 0.05955700000000001 -0.009924 0.032475
3580 -0.05957613 9.84053853 0.24055101 0.091371 -0.039914 0.045555
3600 -0.05343507 9.83065986 0.28381311 0.097528 -0.082594 0.057403
3620 -0.07199559 9.8213796 0.27168795 0.086711 -0.110275 0.062704
3640 -0.08861373 9.82032993 0.2891988000000001 0.06854600000000001 -0.125091 0.05405
3660 -0.05837931 9.84697389 0.26704782000000005 0.046213 -0.134498 0.028269
3680 -0.07020036 9.860747130000002 0.29862621000000006 0.019671 -0.13641199999999998 -0.002892
3700 -0.07095573000000001 9.83080701 0.347274 -0.010119 -0.14154 -0.026595
3720 -0.09834525 9.833946209999999 0.35147268 -0.041011 -0.14669400000000002 -0.042827
3740 -0.09700128 9.80775351 0.35745678 -0.063429 -0.145568 -0.038713
3760 -0.08562168 9.873765 0.37661571000000005 -0.061276 -0.127521 -0.024834
3780 -0.0782838 10.010585070000001 0.49352148 -0.046259 -0.092488 -0.007682
3800 -0.05792805 10.050551010000001 0.64440909 -0.022658 -0.046832 0.009516
3820 -0.0038945700000000004 9.93364524 0.7511418900000002 0.002023 -0.002227 0.02245
3840 -0.023504760000000003 9.85415481 0.84888873 0.026696 0.036002 0.031119
3860 -0.10747836000000001 9.787397760000001 0.73077633 0.040699 0.06790299999999999 0.033312
3880 -0.19145196 9.752219100000001 0.59621256 0.044000000000000004 0.088141 0.031173000000000006
3900 -0.24189498000000004 9.784248750000001 0.44068482 0.033336000000000005 0.08287699999999999 0.024696
3920 -0.24428862 9.81164808 0.30670965 0.014061 0.055294 0.012846000000000002
3940 -0.22168638000000002 9.851015610000001 0.31165389 -0.009592 0.005347 0.003131
3960 -0.10896948000000001 9.815238540000001 0.320787 -0.040771 -0.05735700000000001 -0.006620999999999999
3980 -0.11705292 9.811343970000001 0.28470582000000005 -0.067682 -0.115832 -0.012075
4000 -0.17423541000000003 9.83918475 0.1963962 -0.07106 -0.15947999999999998 -0.016315
4020 -0.14280417 9.838890450000001 0.17858124000000003 -0.053158 -0.211741 -0.016123
4040 -0.11975067000000002 9.88708698 0.07963758 -0.033195 -0.273623 -0.009495
4060 -0.12573477 9.92001915 0.06481466999999999 -0.031373000000000005 -0.34075 -0.007259999999999998
4080 -0.057633750000000004 9.95295132 0.049246200000000004 -0.035683 -0.35138400000000003 -0.008345
4100 -0.01092834 9.905206050000002 0.08935929000000001 -0.042969 -0.318305 -0.015916
4120 0.05912487 9.79517709 0.03771945 -0.050178 -0.26712 -0.022441
4140 0.10073889000000001 9.75341592 -0.004492980000000001 -0.060559 -0.207411 -0.026863
4160 0.17543223 9.72901845 -0.08098155 -0.07095 -0.149833 -0.031282
4180 0.30237363000000006 9.740545200000001 -0.10193571 -0.082446 -0.094406 -0.029297000000000007
4200 0.37272114 9.756564930000001 -0.09684432000000001 -0.096113 -0.049617 -0.02945
4220 0.42451794000000004 9.75731049 -0.10373094000000001 -0.106557 -0.003756 -0.033854
4240 0.47570652 9.75431844 -0.0928026 -0.111714 0.032494 -0.037142
4260 0.53783325 9.79877736 -0.00748503 -0.106207 0.068703 -0.039286
4280 0.5140341900000001 9.848621970000002 0.13591755 -0.095404 0.100615 -0.037115
4300 0.32586858 9.84113694 0.2342628 -0.08899299999999999 0.111211 -0.028538
4320 0.10762551000000001 9.80790066 0.2956341600000001 -0.087994 0.103721 -0.021044
4340 -0.10777265999999999 9.775566900000001 0.41688576 -0.082745 0.090894 -0.014581
4360 -0.21135645000000003 9.803260530000001 0.40371093 -0.073163 0.089782 -0.011308
4380 -0.33455042999999995 9.820928339999998 0.40026762 -0.065695 0.092939 -0.008056
4400 -0.41418801000000005 9.85190832 0.47990520000000003 -0.058203 0.103544 -0.002676
4420 -0.43215012 9.843383430000001 0.5204695500000001 -0.057083 0.116319 -0.001616
4440 -0.45699885 9.83679111 0.49906413000000005 -0.050596 0.138655 0.001605
4460 -0.40835106000000004 9.83080701 0.45984375 -0.038798 0.15776700000000002 0.007004000000000001
4480 -0.37467332999999997 9.808351920000002 0.44457939 -0.045214 0.158838 0.011231
4500 -0.28785483 9.79697232 0.37676286000000003 -0.057093 0.13647 0.020791
4520 -0.21075804 9.815238540000001 0.38259981000000004 -0.05406 0.102358 0.02406
4540 -0.13037490000000002 9.855351630000001 0.43050204000000003 -0.054194000000000006 0.074652 0.026231
4560 -0.07978473 9.82676529 0.38634723000000004 -0.040459 0.043715 0.025299
4580 -0.07978473 9.879758910000001 0.35671122 -0.015998 0.018097 0.016957
4600 -0.08308088999999999 9.904754790000002 0.36075294 0.005334 0.006347 0.006437999999999999
4620 -0.10403505 9.84487455 0.40730139000000004 0.028858 0.019044 0.007654999999999999
4640 -0.18905832000000003 9.79817895 0.5394813299999999 0.037283 0.003001 0.016280000000000003
4660 -0.24863445 9.771976440000001 0.6544349100000001 0.015797 -0.020398 0.025774
4680 -0.28455867 9.79203789 0.70668297 0.007137 -0.045943 0.027882
4700 -0.28006569000000003 9.83065986 0.7155119700000001 0.009266 -0.05126 0.023631
4720 -0.16630893 9.836045550000001 0.79679763 0.008199 -0.054439 0.020423
4740 -0.07184844 9.87002739 0.7234482600000001 -0.007765 -0.05541 0.010699
4760 -0.04745097 9.991867590000002 0.6885639 -0.026916 -0.061662 -0.007587000000000002
4780 -0.03367773 9.97046217 0.7132654800000001 -0.036412 -0.057291 -0.026886
4800 -0.048353490000000006 9.90924777 0.7394581800000001 -0.042713 -0.043386 -0.035494
4820 -0.10073889000000001 9.94756563 0.74215593 -0.052343 -0.052927 -0.038754
4840 -0.16241436 9.97241436 0.7587740700000001 -0.073733 -0.07412 -0.04849
4860 -0.1733427 9.93319398 0.74844414 -0.092918 -0.086767 -0.06569900000000001
4880 -0.11420802000000001 9.84307932 0.8873537400000001 -0.114226 -0.10788699999999997 -0.093595
4900 -0.0836793 9.75760479 1.0434798900000002 -0.124789 -0.107756 -0.11717
4920 -0.1130112 9.684863640000001 1.0463247900000001 -0.138625 -0.100251 -0.117276
4940 -0.11945637 9.6796251 1.00501488 -0.15880899999999998 -0.056602 -0.092904
4960 -0.15313410000000002 9.75042387 0.9630967500000001 -0.169415 -0.0034590000000000003 -0.053522
4980 -0.23531247000000002 9.80222067 1.00261143 -0.146911 0.03687 -0.035257
5000 -0.31299785999999996 9.8128449 1.04108625 -0.107384 0.056938 -0.02646
5020 -0.33964182000000004 9.779314320000001 0.99902097 -0.075436 0.046165 -0.024087
5040 -0.31718673000000003 9.75491685 0.9425938500000001 -0.065872 0.030182 -0.031477
5060 -0.27872172 9.691593300000001 0.90561996 -0.086095 0.035601 -0.036967
5080 -0.20043792 9.69010218 0.8165549700000001 -0.13181199999999998 0.067732 -0.040532
5100 -0.11884815000000001 9.764795520000002 0.7126670700000001 -0.178557 0.104145 -0.048382
5120 -0.060321690000000004 9.735306660000001 0.58198806 -0.211457 0.122451 -0.06893200000000001
5140 0.05703534 9.66300696 0.38754405000000003 -0.227359 0.119413 -0.094676
5160 0.06945480000000001 9.703571310000001 0.35087427000000004 -0.25505900000000004 0.1153 -0.107683
5180 -0.04011309 9.84143124 0.27123669 -0.291246 0.125052 -0.117563
5200 -0.11241279000000001 9.91896948 0.3094074 -0.31350700000000004 0.154967 -0.119893
5220 -0.16390548000000002 9.91628154 0.29608542000000004 -0.311268 0.181578 -0.116707
5240 -0.16765290000000002 9.80820477 0.34772526 -0.28460100000000005 0.192091 -0.104783
5260 -0.12154590000000001 9.77018121 0.3305087100000001 -0.244146 0.195055 -0.082072
5280 -0.10463346000000001 9.77452704 0.42841251 -0.206811 0.212958 -0.062606
5300 -0.11181438 9.801171 0.5441214600000001 -0.174762 0.236226 -0.048525
5320 -0.09011466 9.84742515 0.7625116799999999 -0.170427 0.24900300000000006 -0.050648
5340 -0.08756406 9.85371336 0.93435345 -0.172619 0.224556 -0.062382000000000014
5360 -0.12214431 9.74488122 1.03510215 -0.170677 0.180877 -0.06338099999999999
5380 -0.18322137000000002 9.636657300000001 1.0496209500000002 -0.158052 0.14035699999999998 -0.064309
5400 -0.23560677000000002 9.57349071 1.0493168400000001 -0.120798 0.133783 -0.051222
5420 -0.27781920000000004 9.592796790000001 1.04752161 -0.074923 0.160148 -0.024229
5440 -0.29159244 9.6192936 1.0240168500000002 -0.029014 0.20458 0.013422
5460 -0.33186249000000007 9.70447383 1.05949962 0.019081 0.24799 0.038271
5480 -0.3617928 9.779010210000001 1.13314329 0.055383 0.264865 0.049186
5500 -0.36748260000000005 9.87436341 1.1772981 0.074567 0.252048 0.04079
5520 -0.37362366 9.958493970000003 1.24107291 0.074563 0.241434 0.03119
5540 -0.38080458 9.97420959 1.3355235900000002 0.075711 0.25211300000000003 0.023707
5560 -0.39832524 9.970315020000001 1.3787856900000002 0.07901699999999999 0.271294 0.019432
5580 -0.41179437 9.85715667 1.4117178600000002 0.081108 0.267004 0.024793
5600 -0.44487369000000004 9.82646118 1.48117266 0.090484 0.231757 0.039859
5620 -0.4568517 9.96193728 1.61828703 0.094493 0.188011 0.05383
5640 -0.56897019 10.05204213 1.80314667 0.094382 0.166693 0.057061
5660 -0.5448670200000001 9.9605835 1.8678141900000003 0.10828 0.16560899999999998 0.049682
5680 -0.6195603599999999 9.95669874 1.8658718100000002 0.13711900000000002 0.172965 0.049874
5700 -0.7719489 9.977800049999999 1.83982626 0.16488599999999998 0.17289300000000002 0.043659
5720 -0.9143018100000001 10.03139208 1.92829284 0.174459 0.162224 0.039467
5740 -0.9313614 9.97165899 2.11525182 0.15305 0.139954 0.032936
5760 -0.8991846000000001 9.907893990000002 2.19309417 0.134918 0.135778 0.027474
5780 -0.9318126600000001 9.91358379 2.3281092 0.118987 0.152873 0.028409
5800 -0.9668441700000001 9.89772102 2.3493674700000002 0.104104 0.175254 0.038959
5820 -0.92238525 9.850417199999999 2.3643375300000002 0.096612 0.184807 0.053849
5840 -0.7969447800000001 9.67872258 2.26449135 0.105099 0.19004 0.069925
5860 -0.70264125 9.56241522 2.16404676 0.109319 0.194226 0.084904
5880 -0.63467757 9.628573860000001 2.14129737 0.112471 0.195234 0.096675
5900 -0.62390619 9.76374585 2.04369768 0.11782 0.204777 0.10311
5920 -0.6247989 9.768385980000001 1.88039061 0.126441 0.2218 0.101012
5940 -0.60250077 9.704022570000001 1.7305526699999998 0.131833 0.22607600000000005 0.092498
5960 -0.5269049100000001 9.61495758 1.5197848200000001 0.128584 0.209069 0.086088
5980 -0.512082 9.46466838 1.4166522899999998 0.130555 0.165415 0.07868
6000 -0.53558676 9.29177694 1.29151593 0.12825799999999998 0.119655 0.069109
6020 -0.5768966700000001 9.20465433 1.18777518 0.126 0.085599 0.062727
6040 -0.56028834 9.2372922 1.14017706 0.115216 0.055826 0.058417
6060 -0.54606384 9.311083020000002 1.0479728700000002 0.099098 0.020767 0.048736
6080 -0.49621923000000007 9.4425174 1.0041123600000001 0.06903 -0.034476 0.036846
6100 -0.48349566000000005 9.5350257 1.0334540700000001 0.037846 -0.104611 0.020695
6120 -0.43888959000000005 9.70087356 1.1150340300000001 0.001271 -0.184328 0.0077230000000000016
6140 -0.4656807 9.763147440000001 1.24466337 -0.024636 -0.263021 -0.004108
6160 -0.54352305 9.735453810000001 1.24136721 -0.045275 -0.357708 -0.016949000000000002
6180 -0.5752584000000001 9.82886463 1.2081407400000002 -0.059605 -0.466291 -0.02332
6200 -0.56582118 9.85445892 1.16861625 -0.065327 -0.557864 -0.028583
6220 -0.45625329000000003 9.78261048 1.16757639 -0.038819 -0.603725 -0.037954
6240 -0.38933928 9.81823059 1.2073853700000001 0.026212 -0.612483 -0.035352
6260 -0.39053610000000005 9.80655669 1.19676114 0.115881 -0.585163 -0.018737
6280 -0.37422207 9.73066653 1.0985630400000002 0.195016 -0.520552 0.005234
6300 -0.34757811 9.65776842 1.0565075700000002 0.234672 -0.445196 0.040666
6320 -0.29189655000000003 9.624983400000001 1.01638467 0.234897 -0.357994 0.077943
6340 -0.21046374 9.628573860000001 0.9798620400000001 0.207657 -0.236499 0.08828
6360 -0.13965516000000006 9.4860738 0.90696393 0.190312 -0.070216 0.078331
6380 -0.02470158 9.36677439 0.7964935200000001 0.18374 0.109916 0.058827
6400 0.14654178 9.29612277 0.6560829899999999 0.16856600000000002 0.266677 0.030746
6420 0.27961443 9.3152817 0.6629696099999999 0.150101 0.407452 0.006936
6440 0.31629402 9.43233462 0.68183424 0.122919 0.52051 -0.004081
6460 0.21495672000000002 9.536369670000001 0.8122091400000001 0.083656 0.571764 -0.000148
6480 0.044007660000000004 9.7490799 0.94199544 0.056936 0.570753 0.00928
6500 -0.08636724000000001 10.468035180000001 1.01668878 0.044928 0.525989 0.025277
6520 -0.17528508000000004 10.84943817 1.04857128 0.04761 0.426845 0.041446
6540 -0.23440995 10.70184672 1.1455725600000002 0.056517 0.282958 0.052375
6560 -0.37048446 10.327026240000002 1.34375418 0.071806 0.129482 0.05802
6580 -0.56851893 10.09874754 1.5964303499999999 0.096912 0.011178 0.050869
6600 -0.93600153 9.868232160000002 1.6512192 0.117952 -0.06661399999999999 0.039365
6620 -1.2623213700000002 9.71000667 1.46530008 0.129529 -0.111357 0.029889
6640 -1.46829213 9.71495091 1.24435926 0.136863 -0.145455 0.025711
6660 -1.5666373800000002 9.69249582 1.0741655700000001 0.133523 -0.174214 0.027861
6680 -1.5238265400000002 9.63486207 0.9542677500000001 0.129189 -0.188052 0.028917
6700 -1.2361286699999998 9.72198468 0.8562168 0.119649 -0.170987 0.032033
6720 -0.7777858500000001 9.85281084 0.79469829 0.109192 -0.119834 0.036168
6740 -0.37916631 9.926013059999999 0.6623712000000002 0.100978 -0.048432 0.036019
6760 -0.01092834 9.926307360000001 0.51657498 0.091741 0.032562 0.03585
6780 0.37751823000000007 9.84278502 0.3441348 0.082541 0.116773 0.030337
6800 0.6798820499999999 9.8734707 0.21420135 0.0744 0.198849 0.024834
6820 0.87103971 9.90834525 0.14474655 0.060828 0.263883 0.023588
6840 0.84724065 9.901605779999999 0.05972328000000001 0.049346 0.3172 0.020234
6860 0.70099317 9.85909905 0.06571719 0.039907 0.356636 0.023323
6880 0.50235048 9.79024266 0.015264360000000001 0.030368 0.380067 0.03284
6900 0.34817652000000004 9.8242245 -0.01241946 0.026115 0.392826 0.042408
6920 0.11945637 9.823027680000001 0.03637548 0.02821 0.388541 0.046701
6940 -0.10164141000000002 9.84951468 0.10523187 0.043041 0.363992 0.045768
6960 -0.30761217 9.84802356 0.22423698 0.057804 0.326651 0.046987
6980 -0.41777847 9.81868185 0.33410898 0.062904 0.27974 0.052424
7000 -0.5204695500000001 9.82751085 0.49531671000000005 0.058378 0.227535 0.0578
7020 -0.6285463200000001 9.82616688 0.58109535 0.051741 0.177482 0.059953999999999986
7040 -0.7146094500000001 9.81045126 0.5836361400000002 0.041924 0.124273 0.054613
7060 -0.7119215100000001 9.833651910000002 0.6045903 0.032154 0.079595 0.047124
7080 -0.67150431 9.82841337 0.5755527000000001 0.017108 0.04772 0.039583
7100 -0.57645522 9.832602240000002 0.49232466 0.010688 0.033932 0.029941
7120 -0.4625415 9.81478728 0.41194152000000006 0.012798 0.017988 0.019294
7140 -0.36508896 9.81239364 0.29833191000000003 0.004205 -0.003253 0.010716
7160 -0.2894931 9.82646118 0.20087937 -0.0033490000000000004 -0.026646 0.00642
7180 -0.20163474 9.81688662 0.12349809 -0.000254 -0.051154000000000005 0.005405
7200 -0.14309847 9.833504759999999 -0.00509139 0.000731 -0.074572 0.000101
7220 -0.00494424 9.82542132 -0.11570895 -0.000388 -0.094774 -0.008427
7240 0.13037490000000002 9.846669780000001 -0.1704978 -0.005814 -0.110752 -0.004172
7260 0.19219751999999998 9.85984461 -0.21495672000000002 -0.021893 -0.119252 0.004273
7280 0.22123512000000004 9.845178660000002 -0.20297871000000003 -0.043269 -0.1277 0.0041340000000000005
7300 0.20986533 9.80162226 -0.17977806 -0.041025 -0.109572 -0.002283
7320 0.14041053 9.740545200000001 -0.14594337000000002 -0.043106 -0.103152 -0.007645999999999998
7340 0.045802890000000006 9.724231170000001 -0.07304525999999999 -0.056057 -0.13931300000000002 -0.010895
7360 -0.06511878 9.740545200000001 -0.036071370000000005 -0.039896 -0.10421500000000003 -0.010827
7380 -0.13651596 9.78335604 0.00793629 -0.029208 -0.110602 -0.021427
7400 -0.14534496 9.77302611 0.09190989000000001 -0.044427 -0.177644 -0.02572
7420 -0.19518957000000003 9.8216739 0.14729715000000002 -0.059607000000000014 -0.234042 -0.02789
7440 -0.18471249 9.802966230000001 0.20507805 -0.069583 -0.313916 -0.024653
7460 -0.18546786 9.799817220000001 0.27003987 -0.051816 -0.381151 -0.009488
7480 -0.12544047 9.81494424 0.27482715 -0.033971 -0.420732 0.016325
7500 -0.025751250000000003 9.823920390000001 0.2881491300000001 -0.011687 -0.434709 0.029317000000000006
7520 0.058977720000000004 9.871675470000001 0.28800198 0.02141 -0.422072 0.03701
7540 0.00074556 9.848621970000002 0.28111536000000004 0.047177 -0.381698 0.041411
7560 -0.01212516 9.85819653 0.24788889 0.060387 -0.284829 0.047789
7580 -0.032186610000000004 9.87047865 0.28874754 0.063168 -0.139965 0.048691000000000005
7600 -0.028439190000000003 9.847572300000001 0.18771435 0.054391 0.030562 0.035592
7620 0.00179523 9.843677730000001 0.16839846000000003 0.040207 0.171336 0.008607
7640 0.13277835000000002 9.8159841 0.30386475 0.025837 0.267381 -0.021527
7660 0.34593003000000005 9.818534699999999 0.11541465 0.005825 0.30587800000000004 -0.040944
7680 0.35236539 9.81299205 -0.08756406 -0.029395 0.301744 -0.042253
7700 0.45221157000000006 9.775272600000001 -0.06002739000000001 -0.062593 0.286895 -0.029647000000000007
7720 0.6020495100000001 9.78245352 -0.09385227000000002 -0.077697 0.263456 -0.015835
7740 0.68662152 9.799218810000001 -0.1155618 -0.074669 0.227217 -0.013631
7760 0.6336279 9.84278502 0.0464013 -0.054619000000000015 0.176022 -0.015562
7780 0.42002496 9.88948062 0.07663572 -0.032493 0.118403 -0.011061
7800 0.09040896000000001 9.94921371 0.17693316 -0.018949 0.06077000000000001 0.004063000000000001
7820 -0.28829628 9.999656730000002 0.38515041 -0.008597 0.005279 0.019161
7840 -0.62644698 10.01492109 0.66057597 -0.007759999999999999 -0.040552 0.024567
7860 -1.0309034700000002 10.018962810000001 0.8792703000000001 -0.003637 -0.079952 0.017169
7880 -1.3070844000000001 10.002952890000001 0.97641873 0.002668 -0.110829 0.007638
7900 -1.35962676 9.84847482 0.9313614 0.004726 -0.143795 -0.008329000000000001
7920 -1.22251239 9.721386270000002 0.8589145499999999 -0.001805 -0.181023 -0.016872
7940 -0.88960023 9.716294880000001 0.75638043 -0.005121 -0.211883 -0.022197
7960 -0.54860463 9.763147440000001 0.6330294900000001 -0.009532 -0.236399 -0.014719
7980 -0.26105391000000006 9.82062423 0.47825712 -0.0031550000000000003 -0.227955 -0.000798
8000 -0.04595004000000001 9.83035575 0.41793543000000005 0.006423000000000001 -0.225888 0.006744
8020 0.08292393 9.85295799 0.32452461 0.02455 -0.220655 0.014341
8040 0.23096664 9.87421626 0.18097488 0.03742 -0.198359 0.02188
8060 0.39472497000000006 9.875864340000001 0.07753824000000002 0.041831 -0.165355 0.022937
8080 0.5001138 9.897416909999999 0.062116920000000006 0.047357 -0.120641 0.025054
8100 0.49007817000000004 9.89038314 0.10283823 0.051802 -0.081241 0.025035
8120 0.44233290000000003 9.85176117 0.21510387 0.047697 -0.045007 0.02496
8140 0.35640711 9.79758054 0.18905832000000003 0.038282 -0.006611 0.02164
8160 0.3008727 9.79473564 0.20851155000000002 0.027873 0.047768 0.018293
8180 0.27707364 9.796678020000002 0.20702043 0.017496 0.110664 0.016004
8200 0.2870994600000001 9.811500930000001 0.24354306000000003 0.007077 0.165034 0.014793
8220 0.31330197000000004 9.858794940000001 0.25102809000000004 0.005121 0.197029 0.007261
8240 0.27572967000000004 9.84547296 0.29278926000000005 0.004116 0.206637 0.0029690000000000003
8260 0.1502892 9.807459210000001 0.31569561 0.00304 0.205572 0.004031
8280 0.06496182 9.83245509 0.35236539 0.0008869999999999998 0.204501 0.007222
8300 0.0142245 9.908649359999998 0.31629402 -0.000209 0.202357 0.01149
8320 -0.08696565000000002 9.936333180000002 0.3589577100000001 -0.003476 0.193821 0.017887
8340 -0.21959685 9.92780829 0.41358960000000006 -0.006749 0.175731 0.015750999999999998
8360 -0.2977335 9.87452037 0.45190746000000004 -0.013208 0.15978699999999998 0.012522
8380 -0.35521029 9.881848440000002 0.43365105000000004 -0.017499 0.149171 0.007164
8400 -0.39158577000000006 9.89772102 0.48873420000000006 -0.018580000000000003 0.14385699999999998 0.005027
8420 -0.46313991000000004 9.90071307 0.50624505 -0.015404 0.138519 0.005056000000000001
8440 -0.5698629000000001 9.850711500000001 0.54860463 -0.005816 0.138473 0.008328
8460 -0.6316855199999999 9.81194238 0.57540555 0.001633 0.13630799999999998 0.010519
8480 -0.5843817000000001 9.79338186 0.57435588 0.01863 0.125574 0.015993
8500 -0.47331288 9.834397469999999 0.51073803 0.034571 0.110609 0.015055
8520 -0.37377081000000006 9.81583695 0.47077209 0.044106 0.095661 0.015141
8540 -0.28575549 9.858951900000001 0.50444982 0.055784 0.081776 0.014172
8560 -0.20372427 9.885291750000002 0.43813422 0.070629 0.066789 0.019636
8580 -0.09894366 9.85146687 0.38948643000000005 0.076872 0.03904 0.027192
8600 -0.0022464900000000003 9.83754648 0.34847082000000007 0.06919299999999999 0.002804 0.037867000000000005
8620 0.07065161999999998 9.8302086 0.29757654 0.055151 -0.032314 0.041019
8640 0.055534410000000006 9.80595828 0.28156662 0.046544 -0.049324 0.039913
8660 -0.00837774 9.818377739999999 0.25956279 0.045496 -0.052486 0.032432
8680 -0.01781496 9.82601973 0.25387299 0.04021 -0.049242 0.024913
8700 -0.038170710000000004 9.861198390000002 0.21584943000000004 0.032804 -0.03855 0.021643
8720 -0.04086846000000001 9.91717425 0.18097488 0.032886 -0.020441 0.02162
8740 0.00434583 9.866731230000001 0.18037647 0.031886000000000005 -0.007645 0.019461000000000003
8760 0.06646275 9.852359580000002 0.11570895 0.027652 -0.003357 0.016221
8780 0.10269108 9.88634142 0.10463346000000001 0.020179 -0.005457 0.015103
8800 0.118701 9.858951900000001 0.13531914 0.012663 -0.018205 0.01293
8820 0.11645451 9.84307932 0.09849240000000001 0.006209 -0.032023 0.010767
8840 0.12154590000000001 9.83769363 0.07050447000000001 -0.002388 -0.050086 0.006456999999999999
8860 0.22168638000000002 9.829610190000002 0.03562992 -0.008856000000000001 -0.07134299999999999 3e-05
8880 0.2989303200000001 9.86239521 0.054936000000000006 -0.009966 -0.086232 -0.0053
8900 0.27123669 9.88364367 0.10852803000000001 -0.011014 -0.086211 -0.00958
8920 0.20118348 9.85745097 0.11525769000000001 -0.0013449999999999998 -0.074514 -0.012733
8940 0.08502327 9.867476790000001 0.16301277 0.004071 -0.054301 -0.010584
8960 -0.021258270000000003 9.84532581 0.21046374 0.006257 -0.035163 -0.003116
8980 -0.1041822 9.849671640000002 0.24578955000000002 0.009549 -0.011751 8.2e-05
9000 -0.16226721000000002 9.82661814 0.24399432 0.010726 0.013807 0.001125
9020 -0.20238030000000004 9.850417199999999 0.27003987 0.012975 0.035122 -0.003159
9040 -0.17258733 9.823027680000001 0.27692649 0.011985 0.047926 -0.007455
9060 -0.10612458 9.80445735 0.23650929 0.010956 0.052208 -0.011741
9080 -0.01392039 9.83065986 0.19054944000000001 0.01199 0.045808 -0.010657
9100 0.018707670000000003 9.84143124 0.15777423000000002 0.004445 0.02879 -0.010688
9120 0.07873506000000001 9.803260530000001 0.10882233000000001 -0.007396 0.006456 -0.009674
9140 0.12663729 9.80476146 0.12649014 -0.008554 -0.014841 -0.010723
9160 0.11316816 9.81119682 0.1619631 -0.004359 -0.030835 -0.010673
9180 0.05194395 9.84353058 0.16765290000000002 0.000913 -0.040458 -0.006351
9200 -0.00509139 9.866731230000001 0.19085355 0.00409 -0.045796 -0.006322
9220 -0.07844076 9.85086846 0.19504242000000002 0.012625 -0.044765 -0.005196
9240 -0.09100737 9.83724237 0.21360294000000002 0.021193 -0.034155 -0.001945
9260 -0.06765957 9.86957613 0.25461855 0.028714 -0.020341 0.000227
9280 -0.09340101 9.91238697 0.27946728 0.035187 -0.003323 0.001318
9300 -0.08756406 9.92960352 0.26989272000000003 0.039527 0.01158 0.000261
9320 -0.07724394 9.91373094 0.28860039000000004 0.038522 0.022249 -0.002964
9340 -0.053140770000000004 9.86553441 0.24488703 0.031073000000000007 0.026536 -0.003022
9360 0.025143030000000004 9.81793629 0.16615197 0.030078 0.040397 -0.005183
9380 0.1212516 9.84353058 0.11331531000000002 0.034413 0.054235000000000005 -0.0062380000000000005
9400 0.17513793000000002 9.85281084 0.10896948000000001 0.03659 0.065937 -0.004102000000000001
9420 0.23605803000000003 9.853860509999999 0.04041720000000001 0.037685 0.073386 -0.003035
9440 0.22917141000000002 9.855351630000001 0.0009025200000000001 0.036647000000000006 0.077659 -0.005185
9460 0.21135645000000003 9.86942898 -0.00808344 0.037743 0.081925 -0.007319
9480 0.13905675 9.89891784 -0.03532581 0.034537 0.07981 -0.008407
9500 0.10313253 9.856254150000002 -0.0028449 0.02916 0.06917999999999999 -0.009499
9520 0.04939335000000001 9.82766781 0.00958437 0.026964 0.055339 -0.009497
9540 -0.008829 9.84008727 0.06735546 0.022649 0.047884 -0.006312
9560 -0.05627997 9.89831943 0.08038314 0.019448 0.051078 -0.003134
9580 -0.10673280000000002 9.8968185 0.0925083 0.017357 0.058551 -0.005295
9600 -0.10912644 9.85909905 0.12603888 0.012076 0.064983 -0.010681
9620 -0.10119015 9.867633750000001 0.11645451 0.00998 0.070329 -0.013907
9640 -0.07708698000000001 9.87361785 0.12484206 0.007871 0.073541 -0.016063
9660 -0.10373094000000001 9.858794940000001 0.11915226000000001 0.004699 0.081005 -0.015026
9680 -0.11735703 9.845629920000002 0.17035065000000002 -0.003788 0.093809 -0.012965
9700 -0.12708855 9.85909905 0.20312586 -0.010117 0.107689 -0.015164
9720 -0.14669874000000002 9.85431177 0.19623924 -0.012203 0.116227 -0.017325999999999998
9740 -0.13995926999999997 9.84577707 0.15732297 -0.015413 0.113046 -0.018412
9760 -0.07663572 9.858353490000002 0.12873663 -0.01438 0.107708 -0.016262000000000002
9780 -0.01182105 9.877953869999999 0.10537902 -0.011251 0.095962 -0.011952
9800 0.01631403 9.863592030000001 0.09415638000000001 -0.009194 0.082093 -0.008715
9820 0.022749390000000005 9.846071370000002 0.10642868999999999 0.00036 0.073529 -0.006501000000000001
9840 -0.00434583 9.864033480000002 0.10208286000000001 0.010975 0.066018 -0.002144
9860 -0.057633750000000004 9.83454462 0.07304525999999999 0.018405 0.05746900000000001 -0.002082
9880 -0.08726976 9.81718092 0.05343507 0.019414 0.043622 -0.003125
9900 -0.11960352 9.82332198 0.0142245 0.020409 0.0287 -0.002031
9920 -0.11137293000000001 9.83664396 -0.00808344 0.01928 0.018038 0.00118
9940 -0.11211849 9.85176117 0.00373761 0.017089 0.007384 0.003315
9960 -0.11884815000000001 9.873765 0.00179523 0.013845 -0.0021920000000000004 0.003304
9980 -0.16794720000000002 9.85550859 0.00942741 0.012716 -0.014975 0.004381
10000 -0.18067077 9.82990449 -0.03697389 0.007295 -0.033071 0.0054340000000000005
10020 -0.16016787000000002 9.79742358 -0.07289811 0.002913 -0.059683000000000014 0.004370000000000001
10040 -0.11391372000000001 9.78589683 -0.12049623000000001 -0.000417 -0.0948 -0.002018
10060 -0.053592030000000006 9.84487455 -0.13726152 0.0005200000000000001 -0.133115 -0.011576
10080 -0.01886463 9.88858791 -0.12393954 0.01217 -0.158697 -0.017871
10100 -0.04041720000000001 9.927052920000001 -0.07439904 0.016336 -0.184265 -0.021014
10120 -0.03562992 9.904754790000002 -0.08382645000000001 0.013006 -0.213016 -0.021001
10140 -0.034727400000000005 9.845178660000002 -0.08517042 0.007581 -0.232177 -0.019946
10160 -0.01197801 9.80940159 -0.06720831000000001 0.016006 -0.25989 -0.023056
10180 0.0038945700000000004 9.83095416 -0.06990606 0.026617 -0.279077 -0.029367
10200 -0.00748503 9.84577707 -0.060772950000000006 0.030855 -0.28442199999999995 -0.028262
10220 -0.018707670000000003 9.890079029999999 -0.02529999 0.026598 -0.275911 -0.021893
10240 -0.02634966 9.90116433 -0.00928026 0.028846 -0.243986 -0.015509
10260 -0.026192700000000003 9.8617968 -0.01616688 0.031143 -0.200347 -0.008072
10280 -0.02095416 9.843226470000001 -0.04250673 0.033492 -0.14923499999999998 -0.004915999999999999
10300 0.00942741 9.835447140000001 -0.06511878 0.030484 -0.105552 -0.003925
10320 0.04266369 9.835299990000001 -0.048353490000000006 0.028542 -0.060812 -0.001859
10340 0.06406911000000001 9.81868185 -0.03382488 0.021299 -0.012841 -0.004108
10360 0.10717425000000001 9.813139200000002 -0.04850064 0.008669 0.017066 -0.01278
10380 0.11601306 9.83858634 -0.08622009 0.004574 0.041637 -0.026727
10400 0.11690577 9.87256818 -0.05703534 -0.007075 0.054487 -0.033234
10420 0.17438256000000002 9.89203122 -0.08382645000000001 -0.011362 0.052363 -0.031125
10440 0.12873663 9.854910180000001 -0.11406087000000001 -0.018993 0.032085 -0.015128999999999997
10460 0.11750418000000001 9.79398027 -0.13621185 -0.023193 0.04383 -0.018378
10480 0.08592579000000002 9.80162226 -0.09550035000000001 -0.027484 0.040641 -0.016267
10500 0.04850064 9.876315600000002 -0.04176117000000001 -0.023255 0.033165 -0.01516
10520 -0.03981879 9.89203122 0.00373761 -0.013682 0.02674 -0.015085
10540 -0.1619631 9.864033480000002 -0.017363700000000003 -0.01051 0.021398 -0.013988
10560 -0.27961443 9.865985669999999 0.00628821 -0.009434 0.020342 -0.017184
10580 -0.33246090000000006 9.85176117 0.03922038 -0.008324 0.027803 -0.019322
10600 -0.37751823000000007 9.84458025 0.07439904 0.001321 0.037357 -0.019267
10620 -0.42466509 9.84307932 0.09460764 0.00245 0.053324 -0.017143000000000002
10640 -0.45580203 9.856107 0.12169305 0.002532 0.070372 -0.018232
10660 -0.43394535 9.84742515 0.12977649 -0.001654 0.083192 -0.023619
10680 -0.46433673000000003 9.79517709 0.07978473 -0.007988 0.096006 -0.025816
10700 -0.32347494000000004 9.80760636 0.06406911000000001 -0.015413 0.104558 -0.026947
10720 -0.33021441000000007 9.822272309999999 0.018109260000000002 -0.020738 0.10883 -0.024853
10740 -0.23531247000000002 9.861198390000002 -0.03233376 -0.035722000000000004 0.104595 -0.018543
10760 -0.17693316 9.88095573 -0.03262806 -0.051739 0.10676 -0.013317
10780 0.022749390000000005 9.884399040000002 -0.026496810000000003 -0.060255 0.115295 -0.009114
10800 -0.12065319 9.86299362 -0.06151851 -0.064451 0.130228 -0.010231
10820 -0.13277835000000002 9.85250673 -0.08831943 -0.057944 0.151519 -0.012349
10840 -0.14414814 9.831258270000001 -0.07079877000000001 -0.041783 0.184495 -0.014415
10860 -0.16974243 9.83754648 -0.0782838 -0.026689 0.22278 -0.011154
10880 -0.19474812000000002 9.87601149 -0.018109260000000002 -0.014814 0.26424200000000003 -0.000442
10900 -0.20747169000000001 9.87466752 -0.01302768 -0.007217 0.307832 0.01451
10920 -0.21943989 9.920617560000002 0.05433759 0.003591 0.350358 0.026282
10940 -0.27632808 9.923766570000002 0.08382645000000001 0.012284 0.392909 0.033765
10960 -0.3125466 9.88125003 0.11166723 0.016705 0.428043 0.034819
10980 -0.31658832000000003 9.82062423 0.12259557 0.022188 0.458926 0.032682
11000 -0.30221667 9.81074556 0.11661147000000001 0.022289 0.477053 0.028386
11020 -0.23591088000000002 9.79443153 0.050590170000000004 0.01594 0.484549 0.02406
11040 -0.18336852 9.80909748 -0.01302768 -0.0032630000000000003 0.477189 0.016457
11060 -0.13217994000000002 9.83829204 -0.036071370000000005 -0.023625 0.451715 0.011007
11080 -0.12649014 9.843383430000001 -0.0782838 -0.03871 0.418744 0.010943
11100 -0.16330707 9.80476146 -0.09205704 -0.05168 0.38787 0.017302
11120 -0.24533829000000001 9.799375770000001 -0.05583852 -0.062454 0.366594 0.01939
11140 -0.31689243 9.78170796 -0.07648857 -0.065712 0.357005 0.022584
11160 -0.37227969 9.841284090000002 -0.04041720000000001 -0.057167 0.35804400000000003 0.021575
11180 -0.42227145000000005 9.90759969 -0.006582510000000001 -0.047561 0.360137 0.022707
11200 -0.47436255000000005 9.94426947 0.06047865000000001 -0.039069 0.349459 0.021712
11220 -0.52795458 9.98738442 0.1070271 -0.029544 0.33132 0.020734
11240 -0.61446897 9.95789556 0.16870257000000002 -0.023296 0.29827 0.021888
11260 -0.65309094 9.89801532 0.23545962 -0.016006 0.258829 0.021989
11280 -0.68392377 9.871822620000001 0.24414147 -0.009787 0.22151 0.025285
11300 -0.6541406099999999 9.86089428 0.29099403 -0.000386 0.18204 0.030742
11320 -0.5858826300000002 9.87122421 0.31359627000000007 0.010096 0.146824 0.03727
11340 -0.46418958 9.858353490000002 0.32946885000000004 0.017429 0.122275 0.042694
11360 -0.37587015 9.843383430000001 0.30012714 0.03338 0.10944 0.041754
11380 -0.30266793 9.83185668 0.29293641 0.04722 0.101939 0.040792
11400 -0.23516532 9.829158930000002 0.25791471 0.049339 0.096614 0.038677
11420 -0.19819143 9.83679111 0.21061089 0.039742 0.090286 0.03114
11440 -0.2314179 9.829158930000002 0.20776599 0.024801 0.077602 0.019302
11460 -0.29084688000000003 9.81987867 0.14459940000000002 0.009827 0.062766 0.012807
11480 -0.33066567 9.827814960000001 0.09040896000000001 -0.005176 0.040477 0.005253
11500 -0.32198382000000003 9.83634966 0.07858791000000001 -0.018041 0.023491 0.00198
11520 -0.25237206 9.847572300000001 0.03382488 -0.020227 0.010719 0.000913
11540 -0.16031502 9.88813665 0.025898400000000002 -0.018117 0.001141 -0.003333
11560 -0.04056435 9.901311480000002 0.00777933 -0.017108 -0.014828 -0.006509999999999999
11580 0.054190440000000006 9.88020036 -0.0022464900000000003 -0.013984 -0.034006 -0.0086
11600 0.10343664 9.85250673 -0.029184750000000002 -0.011951 -0.05214 -0.00429
11620 0.14878826999999997 9.8387433 -0.05988024 -0.008846 -0.068151 0.001094
11640 0.12469491 9.85086846 -0.10088604 -0.001431 -0.075651 0.0054280000000000005
11660 0.06137136000000001 9.914486310000001 -0.10178856 0.0059700000000000005 -0.087408 0.008699
11680 0.006582510000000001 9.90011466 -0.07409493 0.014476 -0.094891 0.0077
11700 -0.0047872800000000005 9.909542069999999 -0.01302768 0.016576 -0.101294 0.008791
11720 -0.00643536 9.87047865 0.03922038 0.013399 -0.098078 0.006629
11740 -0.05627997 9.79218504 0.029488860000000002 0.011285 -0.091688 0.008742
11760 -0.07543890000000002 9.76464837 0.055230299999999996 0.011328 -0.0821 0.00873
11780 -0.04086846000000001 9.813139200000002 0.039367530000000005 0.007113 -0.070368 0.008686
11800 -0.021258270000000003 9.84053853 0.05134554 0.000784 -0.05861 0.004353
11820 0.0031392000000000004 9.80101404 0.02694807 -0.008722 -0.044698 -0.003208
11840 -0.01392039 9.8014653 0.02544714 -0.021438 -0.031845 -0.009723
11860 0.00104967 9.816739470000002 -0.01856052 -0.028848 -0.021158 -0.011925
11880 0.01362609 9.82032993 -0.05703534 -0.034168000000000004 -0.015821 -0.009832
11900 0.03248091 9.84278502 -0.07679268 -0.035245 -0.013704 -0.00557
11920 0.06242103000000001 9.889333470000002 -0.0836793 -0.040584 -0.014750999999999997 -0.005606
11940 0.049246200000000004 9.864631890000002 -0.0663156 -0.048062 -0.020038 -0.008856000000000001
11960 0.03712104000000001 9.86852646 -0.06002739000000001 -0.047014 -0.027486 -0.012044
11980 -0.008681849999999998 9.876609900000002 -0.06466752 -0.049186 -0.038123 -0.014182
12000 -0.07529175 9.86283666 -0.054190440000000006 -0.049258 -0.05198 -0.012028
12020 -0.13517199 9.84218661 -0.02604555 -0.042895 -0.055219 -0.006638
12040 -0.15732297 9.87211692 0.01437165 -0.033312 -0.053148 -0.000165
12060 -0.18920547 9.862091099999999 0.04715667 -0.022649 -0.045762 0.008445999999999999
12080 -0.21240612000000003 9.88199559 0.09939492000000001 -0.008759999999999999 -0.036245 0.013872
12100 -0.23875578 9.88364367 0.12199716 0.0008269999999999999 -0.030986 0.022478
12120 -0.29383893 9.874814670000001 0.14010642 0.010462 -0.019319 0.026803
12140 -0.32093415000000003 9.82930608 0.13067901 0.013745 -0.00015900000000000002 0.02787
12160 -0.31045707000000006 9.80490861 0.12080034 0.01273 0.011562 0.027848
12180 -0.32572143000000003 9.84098979 0.09879651 0.003153 0.013739 0.024574
12200 -0.27333603 9.82841337 0.09939492000000001 -0.009631 0.011679 0.018078
12220 -0.25566822 9.832307940000002 0.1013373 -0.017041 0.017061 0.010541
12240 -0.23456691000000002 9.815238540000001 0.07170129 -0.018017 0.033061 0.006241
12260 -0.21225897000000002 9.801171 0.06182262000000001 -0.014730000000000004 0.053286 0.007306
12280 -0.16765290000000002 9.81 0.02170953 -0.014682 0.068182 0.011561
12300 -0.14579622 9.8478666 0.04146687000000001 -0.014682 0.072426 0.015828000000000002
12320 -0.11406087000000001 9.867476790000001 0.05194395 -0.017883 0.072437 0.015806
12340 -0.12080034 9.862542359999999 0.06586434000000001 -0.017878 0.071381 0.013671
12360 -0.13785993 9.88634142 0.0896634 -0.013606 0.07137 0.012632
12380 -0.17274429 9.910738890000001 0.09056592000000001 -0.012548 0.071358 0.014776
12400 -0.20671632 9.911641410000001 0.09040896000000001 -0.011467 0.075611 0.015846000000000002
12420 -0.22962267000000003 9.889333470000002 0.1158561 -0.010381 0.079868 0.015847999999999998
12440 -0.25162650000000003 9.91403505 0.14579622 -0.009276 0.085204 0.012645
12460 -0.24818319 9.880651620000002 0.1360647 -0.012481 0.080966 0.009423
12480 -0.20761884 9.80909748 0.13981212 -0.010357 0.074584 0.005173
12500 -0.19878984000000002 9.799974180000001 0.14564907000000002 -0.010367 0.069271 0.001975
12520 -0.18471249 9.850711500000001 0.19310004 -0.010386 0.063949 0.000914
12540 -0.17812998000000002 9.856107 0.23096664 -0.011472 0.061814 0.003045
12560 -0.22199049 9.87541308 0.24548544000000003 -0.008281 0.062855 0.006271
12580 -0.24908571000000002 9.84891627 0.26270199 -0.000808 0.067077 0.009522
12600 -0.24818319 9.83963601 0.23650929 0.006645999999999999 0.068099 0.013846
12620 -0.24578955000000002 9.834995880000001 0.23096664 0.009832 0.068075 0.017072999999999998
12640 -0.21539817000000003 9.831258270000001 0.2228832 0.016194999999999998 0.063775 0.021396
12660 -0.20522520000000002 9.87002739 0.26614530000000003 0.023615 0.056279 0.024662
12680 -0.18860706000000002 9.877953869999999 0.28934595 0.031044 0.049853 0.026859
12700 -0.17558919000000003 9.856107 0.29084688000000003 0.036326 0.040238 0.029044
12720 -0.18082773000000002 9.82542132 0.26989272000000003 0.037345 0.030643 0.030132
12740 -0.15522363 9.84083283 0.24608385000000002 0.035182 0.02532 0.031192
12760 -0.12334113000000002 9.85011309 0.26944146 0.03092 0.024278 0.029027
12780 -0.118701 9.8535564 0.26075961000000003 0.030925 0.023221 0.026892000000000003
12800 -0.09864936 9.865387259999999 0.24952716000000003 0.028786000000000006 0.020041 0.024744
12820 -0.09849240000000001 9.835143030000001 0.24488703 0.028748000000000006 0.01258 0.025822
12840 -0.09071307 9.84218661 0.24414147 0.021265 0.005167000000000001 0.021506
12860 -0.08592579000000002 9.84981879 0.27797616 0.015944999999999997 0.004137 0.017197999999999998
12880 -0.07708698000000001 9.858049379999999 0.24743763 0.013831 0.006283 0.015044
12900 -0.09714843000000001 9.875717190000001 0.2633004 0.011712 0.009487 0.015025
12920 -0.09744273000000002 9.867035340000001 0.25461855 0.009626 0.018025 0.012863
12940 -0.11690577 9.877953869999999 0.23545962 0.007511 0.021232 0.011776
12960 -0.12738285000000002 9.860590170000002 0.23725485000000002 0.008588 0.02442 0.012847
12980 -0.12244842 9.865985669999999 0.21166056000000003 0.010697 0.020147 0.013936000000000002
13000 -0.10972485000000001 9.87765957 0.18576216000000004 0.010673 0.016943 0.016076
13020 -0.09684432000000001 9.87675705 0.16301277 0.012812 0.019062 0.017157
13040 -0.07574300999999999 9.860590170000002 0.17229302999999999 0.011745 0.021188 0.019283
13060 -0.06735546 9.88469334 0.17588349 0.008578 0.028656 0.019251
13080 -0.08067743999999999 9.864190440000002 0.16390548000000002 0.005411 0.037185 0.020286
13100 -0.11226564 9.841735350000002 0.13861530000000005 0.003301 0.039335 0.017064
13120 -0.11616021000000001 9.839037600000001 0.12065319 0.002263 0.043609 0.014915
13140 -0.11346246 9.838890450000001 0.14954364 0.000153 0.043637 0.009559
13160 -0.12199716 9.863592030000001 0.14295132 -0.008367 0.044741 0.007362
13180 -0.12649014 9.82841337 0.17408826000000002 -0.016863999999999997 0.049049 0.003024
13200 -0.10882233000000001 9.83080701 0.16989939 -0.020059 0.049064 0.001933
13220 -0.13426947 9.849671640000002 0.13531914 -0.022188 0.048015 -0.000217
13240 -0.12589173 9.85939335 0.11616021000000001 -0.025365 0.05017 -0.0034460000000000003
13260 -0.09789399 9.839783160000001 0.08891784 -0.025341 0.053374 -0.005587
13280 -0.07125002999999999 9.833053500000002 0.10597743000000001 -0.027475 0.052320000000000005 -0.006668
13300 -0.05643693 9.85955031 0.15851979 -0.025375 0.045917 -0.005577
13320 -0.04715667 9.8677809 0.15253569 -0.025384 0.042726 -0.006640999999999999
13340 -0.044007660000000004 9.878709240000001 0.1212516 -0.025399 0.043774 -0.00237
13360 -0.05149269000000001 9.85250673 0.09086022 -0.026446 0.0491 -0.001316
13380 -0.048049379999999996 9.85431177 0.06885639 -0.027499000000000003 0.050177 -0.003461
13400 -0.04281084 9.867633750000001 0.12424365 -0.025399 0.040591 -0.005571
13420 -0.055534410000000006 9.849965939999999 0.08861373 -0.022236 0.032058 -0.005538
13440 -0.08696565000000002 9.83454462 0.10253412 -0.016891999999999997 0.032047000000000006 -0.007637
13460 -0.07873506000000001 9.876609900000002 0.07603731000000002 -0.012601 0.03842 -0.006547
13480 -0.06811083000000001 9.847719450000001 0.060174540000000006 -0.009405 0.041587 -0.002255
13500 -0.05957613 9.849965939999999 0.08935929000000001 -0.004109000000000001 0.037291000000000005 0.00206
13520 -0.032785020000000005 9.82406754 0.08921214 -0.0019760000000000003 0.037283 0.002075
13540 -0.02679111 9.83814489 0.09550035000000001 0.00123 0.037276 0.001029
13560 -0.030685680000000003 9.84802356 0.10628154000000001 -0.000909 0.034096 -0.001118
13580 -0.043114950000000006 9.83814489 0.10104300000000001 -0.004128 0.026664 -0.004336
13600 -0.021552570000000004 9.86014872 0.10537902 -0.007329 0.026675 -0.004358
13620 -0.0009025200000000001 9.846826740000001 0.0779895 -0.008386 0.027748 -0.005435
13640 0.008985960000000001 9.85699971 0.09744273000000002 -0.010506 0.030951 -0.005454
13660 0.01287072 9.877061160000002 0.13022775 -0.014754 0.033105 -0.007623
13680 0.029341710000000003 9.87122421 0.11795544000000001 -0.014725 0.036314 -0.010832
13700 0.022749390000000005 9.84098979 0.10882233000000001 -0.012587 0.037372 -0.010818
13720 0.0170694 9.863140770000001 0.15567489 -0.009381 0.039487 -0.00973
13740 0.019011780000000002 9.87511878 0.19714176 -0.005118999999999999 0.04159 -0.006498
13760 -0.048353490000000006 9.86613282 0.23081949000000002 -0.002985 0.043704 -0.00435
13780 -0.04415481 9.85190832 0.20058507 -0.000842 0.049010000000000005 -0.001137
13800 -0.04295799 9.848170710000002 0.22543380000000002 0.002364 0.050064 -0.001116
13820 -0.04745097 9.83738952 0.21943989 0.004488000000000001 0.050048 0.001035
13840 -0.06646275 9.8677809 0.23950134000000003 0.004488000000000001 0.050048 0.001035
13860 -0.07873506000000001 9.866878380000001 0.21555513 0.003421 0.052174 0.0031620000000000003
13880 -0.04999176 9.862689510000001 0.17438256000000002 0.004488000000000001 0.054291999999999986 0.005303
13900 -0.01691244 9.85939335 0.20342997 0.006626000000000001 0.05535 0.005316
13920 -0.01631403 9.833053500000002 0.20627487000000003 0.007698 0.05429 0.003189
13940 -0.01272357 9.83634966 0.20911977 0.006645999999999999 0.054305999999999986 -2.3e-05
13960 -0.04565574000000001 9.84458025 0.20147778000000002 0.004507 0.053248 -3.7e-05
13980 -0.052993620000000005 9.867633750000001 0.21615354000000003 0.00024900000000000004 0.055394000000000006 -6.9e-05
14000 -0.07229970000000002 9.85550859 0.23291883000000002 -0.002942 0.057535 -9.4e-05
14020 -0.08352234000000001 9.85670541 0.21106215 -0.0029230000000000003 0.058614 -0.0033
14040 -0.08816247 9.85206528 0.22123512000000004 -0.000789 0.05648400000000001 -0.005419
14060 -0.08217837 9.848621970000002 0.2200383 0.002421 0.057542 -0.006466
14080 -0.08248248000000001 9.860747130000002 0.21240612000000003 0.004545 0.058587 -0.003248
14100 -0.08382645000000001 9.88215255 0.20911977 0.006684000000000001 0.062828 -3.4e-05
14120 -0.05283666000000001 9.89636724 0.19474812000000002 0.00988 0.062813 0.001057
14140 -0.07978473 9.88035732 0.20013381 0.013061 0.061724 0.004285
14160 -0.10178856 9.86568156 0.17917965 0.014118 0.056406 0.0010949999999999998
14180 -0.062273880000000004 9.861198390000002 0.20327301 0.014099 0.051084 3.3e-05
14200 -0.08007903000000001 9.8617968 0.20642202000000004 0.015171 0.053207 0.001106
14220 -0.08098155 9.84577707 0.19295289 0.010927 0.056426 -0.001064
14240 -0.11092167 9.83918475 0.20342997 0.007736 0.059629 -2.2e-05
14260 -0.12813822000000002 9.85130991 0.20611791 0.002426 0.063913 -0.001133
14280 -0.12319398000000001 9.871077060000001 0.22483539 0.001383 0.068182 -0.0022140000000000003
14300 -0.13741848 9.867035340000001 0.22423698 0.000302 0.062868 -0.004351
14320 -0.12393954 9.85670541 0.22632651000000004 0.001354 0.05860700000000001 -0.005407
14340 -0.11137293000000001 9.81059841 0.22168638000000002 0.001326 0.053277 -0.004332
14360 -0.12603888 9.82466595 0.22498254 0.0013310000000000002 0.05222 -0.0064670000000000005
14380 -0.11271690000000001 9.847719450000001 0.22408002000000002 0.000259 0.052219000000000015 -0.005406
14400 -0.1070271 9.85984461 0.22872015 -0.0008179999999999999 0.04797 -0.007545
14420 -0.13845833999999996 9.85670541 0.23591088000000002 0.002359 0.045816 -0.004315
14440 -0.13022775 9.85520448 0.23725485000000002 0.005555 0.046862 -0.002158
14460 -0.11884815000000001 9.85176117 0.24758478 0.005555 0.048984 -2.4e-05
14480 -0.12274272000000001 9.85670541 0.25597233 0.00556 0.048988 -0.001092
14500 -0.10148445 9.85266369 0.22797459 0.004488000000000001 0.046865 -0.002165
14520 -0.11226564 9.84398184 0.23545962 0.005536 0.0426 -0.002152
14540 -0.11735703 9.84831786 0.2573163 0.005526 0.042592000000000005 -1.6e-05
14560 -0.10148445 9.85281084 0.24040386000000002 0.006603 0.044719 -1.1e-05
14580 -0.09550035000000001 9.844276140000002 0.25193061 0.007684000000000002 0.050033 0.0021260000000000003
14600 -0.09640287000000002 9.849367529999999 0.24773193000000002 0.008751 0.050029 0.002133
14620 -0.11480643 9.83245509 0.22333446 0.009813 0.050021 0.0032090000000000005
14640 -0.10927359 9.839037600000001 0.19908414 0.006612000000000001 0.048971 0.00212
14660 -0.14250006 9.84278502 0.21240612000000003 0.006603 0.047902 0.003189
14680 -0.1070271 9.85745097 0.17738442000000001 0.009798 0.048947 0.005347
14700 -0.10104300000000001 9.86627997 0.17408826000000002 0.009803 0.050013 0.005345
14720 -0.060772950000000006 9.87496182 0.15866694 0.0076739999999999985 0.051085000000000005 0.005329
14740 -0.07784234999999999 9.86912487 0.15582204 0.0065980000000000006 0.052141 0.008525
14760 -0.09564750000000001 9.871675470000001 0.18067077 0.005545 0.055341 0.008514
14780 -0.12633318000000002 9.86044302 0.18845991 0.007684000000000002 0.056399 0.008527
14800 -0.14998509000000002 9.85999176 0.17543223 0.005536 0.055332000000000006 0.01065
14820 -0.1651023 9.855057330000001 0.15538058999999999 0.010865 0.053188 0.009622
14840 -0.13741848 9.84068568 0.16002072 0.009808 0.0532 0.007478
14860 -0.13531914 9.83814489 0.16495515000000002 0.008722 0.050004 0.008543
14880 -0.15567489 9.8387433 0.16734879000000003 0.008698000000000001 0.044677 0.008549
14900 -0.14490351 9.86478885 0.17408826000000002 0.015061 0.039316 0.011805
14920 -0.15447807000000002 9.855802890000001 0.19908414 0.011817 0.028679000000000007 0.010728
14940 -0.14849397 9.857303820000002 0.16495515000000002 0.014989 0.023337 0.011825
14960 -0.15701886 9.8418825 0.16031502 0.020309 0.019061 0.0108
14980 -0.18217170000000002 9.864936 0.16406244 0.027729000000000004 0.008383 0.010865
15000 -0.19998666 9.843383430000001 0.15792137999999997 0.026624 -0.003319 0.007668
15020 -0.19654335 9.83918475 0.14354973000000004 0.023423 -0.003308 0.007645
15040 -0.17708031000000002 9.847719450000001 0.15492933000000003 0.012788 0.003125 0.006495
15060 -0.15462522000000004 9.85850064 0.15253569 0.001067 0.00424 0.004275
15080 -0.15657741000000003 9.88813665 0.15088761 -0.0074680000000000015 0.00427 0.004215
15100 -0.15897105 9.873313740000002 0.14564907000000002 -0.008511 0.002173 -0.0032670000000000004
15120 -0.16151184 9.8444331 0.14954364 -0.001005 0.007486 -0.006426
15140 -0.1793268 9.85790223 0.14729715000000002 0.003292 0.012802 -0.0074709999999999985
15160 -0.1588239 9.85759812 0.14699304000000002 0.005459 0.022373 -0.005332
15180 -0.13531914 9.87032169 0.14250006 0.00655 0.028757 -0.004264
15200 -0.14010642 9.845178660000002 0.16361118 0.008693000000000001 0.034063 -0.001051
15220 -0.11181438 9.831709530000001 0.17109621 0.011875 0.032974 0.002177
15240 -0.09864936 9.83963601 0.15103476000000002 0.008684 0.032993 1.8e-05
15260 -0.08846658 9.8677809 0.17453952 0.004425999999999999 0.035139 -1.4e-05
15280 -0.08517042 9.846071370000002 0.18831276000000002 0.001244 0.037289 -0.002176
15300 -0.08442486000000002 9.838890450000001 0.19264878 -0.003004 0.041565 -0.002211
15320 -0.07589016 9.860747130000002 0.16361118 -0.006171 0.049033 -0.002242
15340 -0.05972328000000001 9.849367529999999 0.18067077 -0.006138 0.05649 -0.002252
15360 -0.09071307 9.82901178 0.20147778000000002 -0.003989 0.059678 -0.002241
15380 -0.029488860000000002 9.85445892 0.15253569 -0.001841 0.063928 -0.001163
15400 -0.03322647 9.88454619 0.13636880999999998 -0.00398 0.06393099999999999 -0.00011
15420 -0.02245509 9.84622833 0.16466085 -0.0029230000000000003 0.063919 0.002034
15440 -0.05209110000000001 9.82886463 0.17977806 -0.005071 0.060729999999999985 0.002023
15460 -0.08083440000000001 9.819584370000001 0.17035065000000002 -0.008265999999999999 0.059685 -0.000134
15480 -0.11795544000000001 9.863739180000001 0.13651596 -0.007214 0.055424 -0.00119
15500 -0.14429529 9.87211692 0.11496339000000001 -0.010448 0.047978 -0.001203
15520 -0.14669874000000002 9.875265930000001 0.10537902 -0.011549 0.042647 0.000933
15540 -0.13831119 9.86343507 0.11795544000000001 -0.011553 0.041582 0.000934
15560 -0.11750418000000001 9.86149269 0.11106882000000001 -0.008367 0.040497000000000005 0.003094
15580 -0.13367106 9.87032169 0.09564750000000001 -0.007295 0.04262 0.0041670000000000006
15600 -0.14055768000000002 9.85250673 0.09744273000000002 -0.005133 0.046882 0.002041
15620 -0.12484206 9.8415882 0.07589016 -0.007243 0.053277 0.003086
15640 -0.12439080000000001 9.865387259999999 0.04939335000000001 -0.009362 0.057541 0.0041340000000000005
15660 -0.12589173 9.84592422 0.06780672000000001 -0.009343 0.062863 0.005195
15680 -0.15163317 9.840234420000002 0.07603731000000002 -0.010376 0.070323 0.005179
15700 -0.15642045 9.862091099999999 0.08712261 -0.008237999999999999 0.071381 0.005192
15720 -0.16435674 9.8444331 0.07708698000000001 -0.0093 0.073511 0.00625
15740 -0.17722746 9.85999176 0.08622009 -0.011414 0.075658 0.004096
15760 -0.18262296000000003 9.84053853 0.09879651 -0.010347 0.075654 0.004104
15780 -0.16690734 9.84637548 0.07634141999999998 -0.010347 0.073532 0.00197
15800 -0.14744430000000003 9.839940120000001 0.06840513000000001 -0.010362 0.070336 0.001974
15820 -0.12065319 9.82332198 0.07813665 -0.010391 0.063945 0.001982
15840 -0.11780829000000001 9.830502899999999 0.08232552 -0.010424 0.055427 0.000924
15860 -0.1041822 9.82646118 0.08712261 -0.008324 0.049023 0.002015
15880 -0.12993344999999998 9.85130991 0.07229970000000002 -0.008376999999999999 0.039428 0.004164
15900 -0.13232709 9.85715667 0.06137136000000001 -0.0073430000000000014 0.031967 0.004181
15920 -0.14729715000000002 9.84307932 0.07739109000000001 -0.000957 0.027688 0.003163
15940 -0.14610033 9.83948886 0.07559586 0.00011 0.025562 0.001036
15960 -0.13861530000000005 9.82856052 0.10059174 0.002268 0.028759 -0.001089
15980 -0.16151184 9.84592422 0.10508471999999999 0.002263 0.029816 0.001046
16000 -0.17318574 9.85850064 0.12424365 -0.005191 0.031977 -7.7e-05
16020 -0.16930098000000005 9.867633750000001 0.13785993 -0.01051 0.033069 -0.002252
16040 -0.19190322 9.84876912 0.16974243 -0.013701 0.032027999999999994 -0.005478
16060 -0.17528508000000004 9.86867361 0.15297714 -0.014768 0.029909 -0.007619
16080 -0.16270866 9.87691401 0.16361118 -0.013692 0.033097 -0.006547
16100 -0.14414814 9.84143124 0.16870257000000002 -0.011553 0.035216000000000004 -0.0054670000000000005
16120 -0.13816404 9.851162760000001 0.16061913 -0.00731 0.033058 -0.00223
16140 -0.14100894 9.845629920000002 0.1733427 -0.001985 0.033031 -5.600000000000001e-05
16160 -0.13711437 9.843383430000001 0.16466085 0.001196 0.029819 0.001038
16180 -0.11181438 9.86089428 0.16061913 0.000134 0.030888 0.00103
16200 -0.10269108 9.86613282 0.14250006 -0.003076 0.030891 0.003144
16220 -0.08935929000000001 9.83140542 0.14998509000000002 -0.000947 0.027696 0.001026
16240 -0.07380063 9.848621970000002 0.164808 0.000134 0.030888 0.00103
16260 -0.07634141999999998 9.87227388 0.18561501000000002 -0.000913 0.035153 0.001017
16280 -0.07933347 9.85790223 0.15418377 0.001244 0.041533 0.002092
16300 -0.09355797 9.844276140000002 0.19175607 0.001273 0.048986 0.003151
16320 -0.11166723 9.85745097 0.20387142 0.002354 0.052178 0.003154
16340 -0.10642868999999999 9.85281084 0.21659499000000002 0.002364 0.054308 0.003152
16360 -0.12529332 9.846522629999999 0.23246757 0.005579 0.057493 0.00317
16380 -0.14070483 9.844276140000002 0.22872015 0.005579 0.059615 0.005304
16400 -0.14295132 9.847572300000001 0.22363857000000004 0.005608 0.066006 0.005296
16420 -0.13457358 9.85759812 0.18681183 0.005636 0.073459 0.006355
16440 -0.16270866 9.83948886 0.17662905 0.007798999999999999 0.078782 0.005295
16460 -0.15358536 9.87017454 0.20238030000000004 0.007818 0.08304299999999999 0.005289
16480 -0.15792137999999997 9.88125003 0.17214587999999997 0.008904 0.087301 0.005291
16500 -0.15672456 9.88155414 0.1938456 0.009985 0.090493 0.005295
16520 -0.13127742 9.86972328 0.16301277 0.011071 0.09475 0.005297
16540 -0.14025357000000002 9.85654845 0.15522363 0.010019 0.097949 0.005286
16560 -0.14086179000000001 9.8677809 0.16839846000000003 0.007904000000000001 0.101157 0.004198
16580 -0.14250006 9.83934171 0.17992521 0.007904000000000001 0.100096 0.003132
16600 -0.18381978000000002 9.85027005 0.164808 0.005771 0.099042 0.00205
16620 -0.16750575 9.863739180000001 0.18367263 0.00256 0.095862 0.000963
16640 -0.18351567000000002 9.87242103 0.20477394000000002 -0.000659 0.090551 -0.000121
16660 -0.1995354 9.85371336 0.19878984000000002 -0.007089 0.08206000000000001 -0.002291
16680 -0.20447964000000002 9.847719450000001 0.19310004 -0.006032 0.07674299999999999 -0.005482
16700 -0.23201631 9.846826740000001 0.22108797000000002 -0.003918 0.071413 -0.006528
16720 -0.17798283 9.835447140000001 0.23276187000000004 0.001388 0.067125 -0.004349
16740 -0.17872839 9.855057330000001 0.21735036 0.004569 0.064975 -0.002188
16760 -0.18172044 9.859246200000001 0.23321313 0.004565 0.06497 -0.00112
16780 -0.18606627000000003 9.86299362 0.20238030000000004 0.007765 0.064959 -0.001097
16800 -0.19474812000000002 9.83948886 0.23800041000000002 0.008827 0.06389 -0.001088
16820 -0.21106215 9.82032993 0.22976981999999999 0.012004 0.060675 0.001074
16840 -0.20417553000000002 9.848170710000002 0.26389881000000004 0.010918 0.056417 0.001072
16860 -0.16270866 9.877061160000002 0.23471406 0.013037 0.053214 0.001091
16880 -0.18471249 9.85206528 0.25611948 0.013037 0.054275 0.002158
16900 -0.19489527 9.873313740000002 0.2513322 0.010904 0.054283000000000005 0.002143
16920 -0.18531090000000003 9.849671640000002 0.26674371 0.00556 0.050049 -2.5e-05
16940 -0.17274429 9.859697460000001 0.22962267000000003 0.003412 0.04686 -3.6e-05
16960 -0.18831276000000002 9.84008727 0.24009975 0.000192 0.040489 -0.002187
16980 -0.18546786 9.847719450000001 0.22123512000000004 0.001239 0.034102 -0.004308
17000 -0.16121754000000002 9.83829204 0.20058507 0.000153 0.029844 -0.0043100000000000005
17020 -0.15418377 9.844276140000002 0.1733427 -0.000928 0.028774 -0.00218
17040 -0.10343664 9.84233376 0.17109621 -0.000928 0.028774 -0.00218
17060 -0.0981981 9.831552570000001 0.15956946 0.002273 0.031945999999999995 0.001043
17080 -0.10523187 9.84202965 0.15971661 0.003325 0.029808 0.002121
17100 -0.12020193000000001 9.845629920000002 0.13965516000000006 0.007597 0.028736 1.6e-05
17120 -0.13726152 9.85685256 0.15268283999999996 0.008645 0.025532 0.0010960000000000002
17140 -0.13113027000000002 9.842932170000001 0.14309847 0.007573000000000002 0.024471 0.00109
17160 -0.13501503 9.851162760000001 0.13517199 0.006506999999999999 0.025535 0.002149
17180 -0.11900511 9.835299990000001 0.12244842 0.008645 0.025532 0.0010960000000000002
17200 -0.12393954 9.84831786 0.10073889000000001 0.007573000000000002 0.024471 0.00109
17220 -0.12857967 9.858794940000001 0.09655002 0.007578 0.026597000000000003 0.002155
17240 -0.11960352 9.8564013 0.14250006 0.006516 0.025544 1.3e-05
17260 -0.12034908 9.85939335 0.10253412 0.004372999999999999 0.024482 0.001067
17280 -0.14474655 9.85909905 0.12603888 0.001177 0.025558 0.001044
17300 -0.13457358 9.83664396 0.11360961 0.001177 0.023436 -0.00109
17320 -0.15297714 9.8358984 0.08143281000000001 -0.003105 0.022377 0.001018
17340 -0.15657741000000003 9.83664396 0.09100737 -0.002038 0.022374 0.001025
17360 -0.15402681000000001 9.84068568 0.10792962 -0.000985 0.022357 0.004237
17380 -0.15971661 9.82241946 0.10642868999999999 0.00221 0.02022 0.003194
17400 -0.15642045 9.864033480000002 0.09684432000000001 0.00432 0.015947 0.004283
17420 -0.15851979 9.87751242 0.11795544000000001 0.004301 0.012747 0.005355
17440 -0.18980388 9.83738952 0.11391372000000001 0.007515999999999998 0.014871 0.004306
17460 -0.1935513 9.844727400000002 0.13262139 0.008573 0.012736 0.004316
17480 -0.20103633 9.858353490000002 0.14773860000000003 0.004301 0.011686 0.004288
17500 -0.16780005000000003 9.848170710000002 0.11226564 0.001129 0.01915 0.005324000000000001
17520 -0.18741024 9.864936 0.13367106 -0.002019 0.029818 0.004221
17540 -0.17258733 9.846826740000001 0.16630893 -0.004133 0.034086 0.0042
17560 -0.17348985 9.855057330000001 0.14818986 -0.006253 0.038351 0.005248
17580 -0.18695898 9.86089428 0.16002072 -0.003023 0.045792 0.00633
17600 -0.1907064 9.86433759 0.15851979 -0.001918 0.05431 0.006326
17620 -0.17423541000000003 9.878110829999999 0.17394111 -0.004028 0.060705 0.007372
17640 -0.19339434 9.8415882 0.14624748 -0.00509 0.062835 0.00843
17660 -0.20043792 9.83320065 0.14878826999999997 -0.002937 0.062845 0.004172
17680 -0.19714176 9.839783160000001 0.15612615000000002 -0.002951 0.059649 0.004176
17700 -0.19474812000000002 9.823920390000001 0.19369845 -0.00298 0.054318 0.005251
17720 -0.22094082 9.822870720000001 0.14804271000000002 -0.004065999999999999 0.051122 0.006314999999999999
17740 -0.20207619000000002 9.84412899 0.11840670000000002 -0.002994 0.051123 0.005255
17760 -0.1733427 9.869272020000002 0.14160735 -0.001942 0.046862 0.0041990000000000005
17780 -0.18681183 9.858794940000001 0.12618603 -0.004124 0.037278 0.005265
17800 -0.20537235 9.871371360000001 0.12873663 -0.007372 0.025575 0.004189
17820 -0.1966905 9.873313740000002 0.12154590000000001 -0.010616 0.014938 0.003111
17840 -0.21061089 9.84577707 0.14086179000000001 -0.013888 -0.00103 0.003109
17860 -0.22917141000000002 9.86149269 0.15313410000000002 -0.012865 -0.012743 0.000995
17880 -0.22558095000000003 9.84487455 0.14100894 -0.008607 -0.013827 0.002094
17900 -0.22722903 9.84008727 0.1272357 -0.003272 -0.011724 0.004265
17920 -0.24294465 9.816582510000002 0.13037490000000002 0.002081 -0.00642 0.005364
17940 -0.25028253 9.83843919 0.1704978 0.0031620000000000003 -0.003228 0.005367
17960 -0.25776756 9.8617968 0.14280417 0.002105 -3.3e-05 0.006423999999999999
17980 -0.22512969000000002 9.88289811 0.12364524000000002 0.003191 0.005285 0.007493
18000 -0.24519114 9.865985669999999 0.13696722 0.002148 0.0074319999999999985 0.004278
18020 -0.24055101 9.851614020000001 0.13711437 -0.001038 0.0117 0.005319
18040 -0.23261472000000002 9.834995880000001 0.12678444 -0.003153 0.01703 0.006365
18060 -0.19130481000000002 9.836192700000002 0.13157172 -0.0031100000000000004 0.024495 0.004220000000000001
18080 -0.17543223 9.84083283 0.11915226000000001 9.1e-05 0.025545 0.005309
18100 -0.14954364 9.834397469999999 0.11630736000000001 0.001144 0.024468 0.007454
18120 -0.17977806 9.85520448 0.12393954 0.006487000000000001 0.02764 0.008556
18140 -0.17244018 9.86223825 0.11316816 0.007573000000000002 0.031898 0.008558
18160 -0.12558762 9.859697460000001 0.10912644 0.009726 0.037212 0.009634
18180 -0.12065319 9.849073230000002 0.12005478000000001 0.012946 0.040401 0.008584
18200 -0.08921214 9.843383430000001 0.08607293999999999 0.012961000000000002 0.041475 0.006447
18220 -0.08487612 9.80535987 0.10583028000000001 0.010817 0.040413 0.007501000000000002
18240 -0.08397360000000001 9.81987867 0.09669717 0.007617 0.039363 0.006412
18260 -0.08457201 9.8564013 0.12393954 0.005464 0.038293 0.009603
18280 -0.09849240000000001 9.871077060000001 0.12873663 0.005449 0.037219 0.011741
18300 -0.13756563000000002 9.86343507 0.13936086 0.008664 0.041464 0.012826
18320 -0.17753157 9.86089428 0.1619631 0.010788 0.041448 0.014977
18340 -0.17603064 9.83245509 0.18681183 0.017175 0.039291 0.016093
18360 -0.18891117000000002 9.848170710000002 0.14534496 0.018228 0.037153 0.017171000000000002
18380 -0.1995354 9.848621970000002 0.16121754000000002 0.020337 0.03288 0.01826
18400 -0.18666468 9.862689510000001 0.18322137000000002 0.022457 0.031799 0.020412
18420 -0.20312586 9.84876912 0.17109621 0.024619 0.039244 0.021486
18440 -0.22228479 9.85654845 0.15747012000000002 0.026787 0.046693 0.021492
18460 -0.24055101 9.84697389 0.16720164 0.026801 0.053072 0.024688
18480 -0.23560677000000002 9.871077060000001 0.1850166 0.025763 0.059467 0.024673
18500 -0.23636214000000003 9.86163984 0.18427104 0.026839 0.063716 0.026811
18520 -0.21899844000000002 9.879758910000001 0.15163317 0.021505 0.061613 0.02464
18540 -0.22048956 9.85790223 0.17708031000000002 0.016194999999999998 0.063775 0.021396
18560 -0.20402838 9.857755080000002 0.18920547 0.014085 0.065925 0.018174
18580 -0.18875421000000003 9.863739180000001 0.20417553000000002 0.007717 0.069161 0.013852
18600 -0.18621342 9.85281084 0.21075804 0.00135 0.07345700000000001 0.010598
18620 -0.15851979 9.835594290000001 0.19893699 -0.005028 0.076684 0.008412000000000001
18640 -0.15237873000000005 9.84098979 0.19414971 -0.008232999999999999 0.073508 0.006258
18660 -0.14534496 9.83006145 0.17244018 -0.012515 0.069266 0.005165
18680 -0.17767872 9.85011309 0.15777423000000002 -0.017863 0.065027 0.004065
18700 -0.15478218000000002 9.87780672 0.17887554 -0.021088 0.058651 0.002982
18720 -0.16914402 9.87691401 0.16645608 -0.02325 0.050145 0.000842
18740 -0.16660323000000002 9.85460607 0.15088761 -0.024365 0.042679 0.004048
18760 -0.17169462000000002 9.85850064 0.17528508000000004 -0.023337 0.035213999999999995 0.005133
18780 -0.15088761 9.85340925 0.1707921 -0.019093 0.031995 0.007303
18800 -0.15687171 9.85984461 0.14474655 -0.018046 0.028791000000000008 0.008383
18820 -0.20447964000000002 9.861041430000002 0.11750418000000001 -0.015921 0.024531 0.006267
18840 -0.20866851000000003 9.87675705 0.11780829000000001 -0.015941 0.018148 0.004138
18860 -0.20986533 9.86568156 0.08352234000000001 -0.012769 0.011746 0.004169
18880 -0.20761884 9.84068568 0.12244842 -0.009583 0.0096 0.005261999999999999
18900 -0.20716758000000002 9.85955031 0.0953532 -0.008511 0.012783 0.007402
18920 -0.1764819 9.84577707 0.10733121 -0.011688 0.01706 0.006306
18940 -0.17064495 9.848170710000002 0.07784234999999999 -0.013821 0.016006 0.005224
18960 -0.16390548000000002 9.835143030000001 0.05988024 -0.015936000000000002 0.016031 0.000936
18980 -0.15387966000000003 9.831101310000001 0.08622009 -0.013769 0.021358 -0.001192
19000 -0.1417545 9.84053853 0.07543890000000002 -0.010568 0.021347 -0.001169
19020 -0.14893542 9.83080701 0.07634141999999998 -0.010558 0.022416 -0.002239
19040 -0.11496339000000001 9.82257642 0.07005321 -0.010568 0.020286 -0.002236
19060 -0.09744273000000002 9.836045550000001 0.04939335000000001 -0.008449 0.019205 -8.4e-05
19080 -0.07454619 9.83320065 0.03248091 -0.007363 0.02134 -0.002215
19100 -0.06361785 9.83425032 0.05254236000000001 -0.007353 0.025592 -8.4e-05
19120 -0.04745097 9.83934171 0.03382488 -0.009482 0.026665 -0.0001
19140 -0.03847482 9.82511721 0.036071370000000005 -0.005214 0.027711000000000003 0.000996
19160 -0.03307932 9.849965939999999 0.04086846000000001 -0.002004 0.029831 0.001016
19180 -0.030685680000000003 9.86852646 0.030087270000000003 -0.003066 0.031961 0.002074
19200 -0.04505733 9.860295870000002 0.038170710000000004 -0.005186 0.031981 -0.001145
19220 -0.04550859 9.83470158 0.032785020000000005 -0.005157 0.037311 -0.00222
19240 -0.05957613 9.83798793 0.08412075 -0.007267 0.041584 -0.0033090000000000003
19260 -0.08188407 9.847572300000001 0.08831943 -0.004057 0.045826 -0.001155
19280 -0.07484049000000001 9.86223825 0.08322804 -0.001913 0.051132 0.002058
19300 -0.06256818 9.85295799 0.09759969 0.003435 0.054309 0.002091
19320 -0.07499745000000001 9.876609900000002 0.14414814 0.005569 0.055362 0.003173
19340 -0.08816247 9.851015610000001 0.14564907000000002 0.004488000000000001 0.05217 0.003169
19360 -0.10657584 9.83843919 0.16165899 0.001297 0.054312 0.003144
19380 -0.09894366 9.8415882 0.16241436 0.001316 0.058573 0.003139
19400 -0.1038879 9.83918475 0.15208443 0.000244 0.05645 0.002066
19420 -0.10478061 9.8418825 0.18576216000000004 -0.0008269999999999999 0.053267 -7.4e-05
19440 -0.09669717 9.85431177 0.20522520000000002 -0.00509 0.053286 -0.001172
19460 -0.08547453 9.87017454 0.19968255000000001 -0.005085 0.055412 -0.000107
19480 -0.11047041 9.88095573 0.19564083 -0.002956 0.053278999999999986 -0.001157
19500 -0.11451213 9.85460607 0.20941407000000004 0.00024 0.054324 0.001
19520 -0.1240965 9.83095416 0.19938825000000002 0.003435 0.054309 0.002091
19540 -0.11765133000000001 9.85715667 0.17782587000000002 0.00345 0.058566 0.003154
19560 -0.14130323999999997 9.86897772 0.19190322 0.00665 0.057493 0.002109
19580 -0.17169462000000002 9.8617968 0.19219751999999998 0.007703 0.053233 0.0010539999999999998
19600 -0.15223158 9.86732964 0.18471249 0.007693000000000002 0.04898 -0.001077
19620 -0.17258733 9.846826740000001 0.20103633 0.010865 0.0447 0.001087
19640 -0.18531090000000003 9.83934171 0.19444401 0.009794 0.043638 0.001081
19660 -0.17274429 9.86912487 0.21675195 0.008717 0.041511 0.001076
19680 -0.15268283999999996 9.86553441 0.19175607 0.0076409999999999985 0.037262 -0.001063
19700 -0.13561344 9.87002739 0.19863287999999998 0.006579000000000001 0.036209 -0.0032049999999999995
19720 -0.14579622 9.85685256 0.19759302 0.005512 0.036213 -0.003213
19740 -0.13321980000000003 9.870772950000003 0.19848573000000003 0.005512 0.036213 -0.003213
19760 -0.11630736000000001 9.84876912 0.20986533 0.007645 0.037267 -0.002131
19780 -0.1038879 9.85850064 0.19399275000000002 0.006587999999999999 0.040462 -0.001074
19800 -0.11092167 9.8532621 0.18336852 0.006583 0.041519 0.001061
19820 -0.11735703 9.831258270000001 0.17738442000000001 0.007654999999999999 0.040458 -0.001067
19840 -0.11496339000000001 9.849671640000002 0.17004654 0.005521 0.039405 -0.002148
19860 -0.13307265000000001 9.866731230000001 0.16375833 0.006579000000000001 0.036209 -0.0032049999999999995
19880 -0.13217994000000002 9.841284090000002 0.18741024 0.008707 0.034076 -0.004256
19900 -0.1360647 9.84487455 0.14804271000000002 0.0076409999999999985 0.031957 -0.006397
19920 -0.13157172 9.85654845 0.19429686000000002 0.014018 0.024487 -0.008479
19940 -0.12379239 9.84503151 0.14041053 0.025715 0.014863 -0.009453
19960 -0.12139875000000001 9.846669780000001 0.14400099 0.013104 0.067067 6e-06
19980 -0.12618603 9.844276140000002 0.13232709 -0.011419 0.069287 -0.0012369999999999998
20000 -0.10956789 9.85955031 0.17558919000000003 -0.013692 0.033097 -0.006547
20020 -0.09415638000000001 9.843226470000001 0.15402681000000001 0.000211 0.038384 -0.008593
20040 -0.10867518 9.85670541 0.16570071 0.007708 0.044749 -0.008549
20060 -0.10238697000000001 9.86194395 0.15462522000000004 0.004512 0.05007 -0.004306
20080 -0.09475478999999999 9.86433759 0.14923953 0.000259 0.05858500000000001 0.000995
20100 -0.09624591 9.84742515 0.16810416000000003 -0.006118 0.068178 0.005211
20120 -0.10269108 9.835299990000001 0.17198892 -0.007128 0.076721 0.00092
20140 -0.12080034 9.856107 0.17992521 0.002445 0.064991 -0.004339
20160 -0.14280417 9.86044302 0.18710613 0.002393 0.052212 -0.005391
20180 -0.14130323999999997 9.86883057 0.18277011 0.000235 0.047954 -0.004333
20200 -0.14923953 9.87227388 0.15462522000000004 0.00024 0.05008 -0.0032670000000000004
20220 -0.13726152 9.849671640000002 0.15223158 0.002393 0.055395000000000014 -0.002191
20240 -0.15447807000000002 9.83754648 0.13367106 0.00344 0.054313 0.001023
20260 -0.16091343000000002 9.827814960000001 0.14340258 0.003426 0.052178 0.002094
20280 -0.16002072 9.83320065 0.13127742 0.002359 0.048999 -0.001115
20300 -0.16361118 9.83858634 0.14759145 -0.000842 0.047949 -0.002204
20320 -0.14459940000000002 9.84951468 0.1041822 -0.0008460000000000001 0.045823 -0.003269
20340 -0.13651596 9.846522629999999 0.12663729 0.003416 0.044743 -0.0032380000000000004
20360 -0.19444401 9.80595828 0.08547453 0.004488000000000001 0.045804 -0.003232
20380 -0.14864112000000002 9.84053853 0.08891784 0.003421 0.046869 -0.002173
20400 -0.09759969 9.86433759 0.24473988000000002 0.002383 0.052203 -0.003255
20420 -0.24548544000000003 9.903852270000002 0.25282332 0.002388 0.051147000000000005 -0.00539
20440 -0.18456534000000002 9.888283800000002 0.11795544000000001 0.002383 0.052203 -0.003255
20460 -0.14729715000000002 9.877953869999999 0.054484740000000004 -0.000784 0.05861 -0.004353
20480 -0.16136469000000003 9.84891627 0.06930765000000003 -0.001808 0.068201 -0.004372999999999999
20500 -0.14280417 9.803113380000001 0.12618603 -0.0017690000000000004 0.076724 -0.004384000000000001
20520 -0.15897105 9.84278502 0.15373251000000002 -0.002822 0.080984 -0.003328
20540 -0.13307265000000001 9.846522629999999 0.09744273000000002 -0.006037 0.080982 -0.000146
20560 -0.15806852999999998 9.86343507 0.06811083000000001 -0.010319 0.078863 0.000895
20580 -0.14729715000000002 9.862091099999999 0.06706116000000001 -0.012467 0.076735 0.0019510000000000005
20600 -0.14954364 9.850711500000001 0.08292393 -0.010362 0.07245800000000001 0.004108
20620 -0.15822549 9.832307940000002 0.10313253 -0.007185 0.068182 0.005204
20640 -0.16450389 9.84951468 0.13441662000000001 -0.005071 0.064974 0.006291
20660 -0.17887554 9.84113694 0.10358379000000001 -0.00509 0.062835 0.00843
20680 -0.17019369 9.872872290000002 0.10313253 -0.007248 0.062821 0.013756
20700 -0.15806852999999998 9.85550859 0.12319398000000001 -0.007252 0.062817 0.014824
20720 -0.13816404 9.85281084 0.15657741000000003 -0.009391 0.061759 0.01481
20740 -0.16165899 9.838890450000001 0.16675038 -0.007276 0.05749099999999999 0.014831
20760 -0.15701886 9.8358984 0.16002072 -0.006219 0.054295 0.013774000000000002
20780 -0.17244018 9.87017454 0.16106058000000004 -0.006195 0.056439 0.010567
20800 -0.17139051000000002 9.85146687 0.17483382000000003 -0.007243 0.057521 0.007353
20820 -0.1790325 9.85266369 0.15418377 -0.008314 0.05752 0.008414
20840 -0.22168638000000002 9.85460607 0.15282999000000003 -0.008319 0.057516 0.009482
20860 -0.22019526000000003 9.84278502 0.15986376000000002 -0.007276 0.053247 0.010563
20880 -0.27317907 9.85266369 0.14669874000000002 -0.0040950000000000005 0.048974 0.010591
20900 -0.28455867 9.849965939999999 0.13307265000000001 -0.004109000000000001 0.044718 0.009528
20920 -0.28291059 9.85281084 0.11001915 -0.005195 0.04046 0.009526
20940 -0.26824464000000003 9.85266369 0.09789399 -0.006267 0.037277 0.007386
20960 -0.25327458 9.84202965 0.11137293000000001 -0.004157 0.031943 0.007408
20980 -0.23216346000000002 9.82272357 0.10073889000000001 -0.005258 0.028734 0.011677
21000 -0.21989115 9.82975734 0.09160578000000001 -0.002071 0.025527 0.011703
21020 -0.20223315000000003 9.844276140000002 0.08592579000000002 -0.001 0.024466 0.009576
21040 -0.21285737999999998 9.862542359999999 0.08442486000000002 8.6e-05 0.026602 0.007444
21060 -0.1761876 9.85939335 0.06436341000000001 -0.002047 0.025548 0.006362
21080 -0.18935262 9.850417199999999 0.07229970000000002 -0.000981 0.023423 0.004236
21100 -0.18666468 9.857755080000002 0.11855385 8.1e-05 0.022354 0.0042450000000000005
21120 -0.17842428 9.855351630000001 0.10238697000000001 -0.002047 0.024487 0.005295
21140 -0.16091343000000002 9.84622833 0.13711437 -0.004162 0.026634 0.003141
21160 -0.16406244 9.839783160000001 0.12993344999999998 -0.007353 0.026653 0.000983
21180 -0.18576216000000004 9.84891627 0.13771278 -0.006305 0.02345 0.002062
21200 -0.16974243 9.847719450000001 0.17035065000000002 -0.00632 0.020254 0.002066
21220 -0.18351567000000002 9.84113694 0.18905832000000003 -0.005272 0.018111 0.004213000000000001
21240 -0.16226721000000002 9.83934171 0.14878826999999997 -0.0020670000000000003 0.019165 0.004234
21260 -0.1704978 9.84353058 0.16810416000000003 0.0022010000000000003 0.022333 0.007464
21280 -0.15297714 9.86149269 0.16794720000000002 0.005411 0.026575 0.009618000000000002
21300 -0.15462522000000004 9.85999176 0.16211025 0.003272 0.026578 0.010671
21320 -0.13187583 9.86658408 0.15732297 8.1e-05 0.026598 0.008512
21340 -0.12049623000000001 9.84891627 0.14983794 9.6e-05 0.028732 0.007441
21360 -0.14594337000000002 9.823773240000003 0.15792137999999997 -0.0020280000000000003 0.028748000000000006 0.00529
21380 -0.14610033 9.840234420000002 0.17214587999999997 -0.002 0.031957 0.002082
21400 -0.15193728 9.84143124 0.15986376000000002 -0.000909 0.036218 0.001015
21420 -0.1505835 9.84981879 0.16270866 -0.00409 0.041552 0.002055
21440 -0.15926535 9.85206528 0.14010642 -0.006209 0.044755 0.002036
21460 -0.14923953 9.876158640000002 0.16944813 -0.008353 0.042632 0.002023
21480 -0.14624748 9.849367529999999 0.18082773000000002 -0.005162 0.038368 -8.499999999999999e-05
21500 -0.15237873000000005 9.833504759999999 0.17438256000000002 -0.003042 0.036226 0.001001
21520 -0.12244842 9.856254150000002 0.14849397 0.000153 0.037271 0.003158
21540 -0.14594337000000002 9.84098979 0.16375833 0.002292 0.03939 0.004238
21560 -0.1502892 9.863287920000001 0.17738442000000001 0.0012109999999999998 0.037259 0.005302
21580 -0.16466085 9.85431177 0.15717582000000002 0.001201 0.035129 0.005304
21600 -0.14369688 9.834397469999999 0.12618603 -0.000913 0.037275 0.003151
21620 -0.13981212 9.84008727 0.13412232000000002 -0.003038 0.038352 0.002066
21640 -0.12783411 9.856254150000002 0.15926535 -0.005171 0.037299 0.000984
21660 -0.13412232000000002 9.86433759 0.14205861 -0.005143 0.042629 -9.1e-05
21680 -0.13831119 9.87646275 0.15942230999999998 -0.005118999999999999 0.046895 -0.001164
21700 -0.14041053 9.86613282 0.12633318000000002 -0.006205 0.042637 -0.001166
21720 -0.16720164 9.85431177 0.17423541000000003 -0.005157 0.041555 0.002047
21740 -0.15897105 9.858794940000001 0.17603064 -0.006233 0.039429 0.002042
21760 -0.17798283 9.83095416 0.15762708 -0.00731 0.038363 0.003104
21780 -0.20223315000000003 9.836045550000001 0.17827713000000003 -0.005181 0.03729 0.003121
21800 -0.1790325 9.86089428 0.21764466000000002 -0.004118999999999999 0.035160000000000004 0.002063
21820 -0.19025514000000002 9.880504470000002 0.23172201 -0.000923 0.035145 0.003153
21840 -0.20192904000000003 9.852359580000002 0.19714176 0.000153 0.037271 0.003158
21860 -0.19085355 9.85790223 0.21001248 0.001215 0.038324 0.0053
21880 -0.14923953 9.84068568 0.19518957000000003 0.004416 0.040435000000000006 0.007456999999999998
21900 -0.15837263999999998 9.849367529999999 0.17633475 0.007612000000000002 0.038298 0.006412999999999999
21920 -0.16211025 9.876315600000002 0.19534653000000002 0.007612000000000002 0.039359 0.00748
21940 -0.14714019 9.86583852 0.17558919000000003 0.005502 0.044693 0.007459
21960 -0.14849397 9.87301944 0.21450546 0.002321 0.050026 0.008498
21980 -0.13501503 9.86553441 0.19578798 0.000201 0.052167999999999985 0.007412
22000 -0.13217994000000002 9.86388633 0.20776599 0.002325 0.051091 0.008497
22020 -0.15986376000000002 9.849671640000002 0.18067077 0.005526 0.048958 0.006385
22040 -0.15043635 9.864033480000002 0.21300453 0.008731000000000001 0.048951 0.005339
22060 -0.15942230999999998 9.84577707 0.18995103 0.011927 0.049997 0.007497
22080 -0.16301277 9.82511721 0.17678601 0.014056 0.048924 0.007513
22100 -0.17483382000000003 9.847572300000001 0.18142614 0.016176 0.046782 0.008598999999999999
22120 -0.1707921 9.83484873 0.15103476000000002 0.015123 0.04892 0.007520999999999998
22140 -0.16555356 9.864936 0.14983794 0.017262 0.051039 0.008601000000000001
22160 -0.13771278 9.84922038 0.15926535 0.01619 0.047855 0.006461
22180 -0.14070483 9.84262806 0.1417545 0.011903 0.041487 0.004303
22200 -0.14250006 9.828266220000001 0.14773860000000003 0.007606999999999998 0.03405 0.003214
22220 -0.15133887000000001 9.852212430000002 0.14594337000000002 0.002258 0.030872000000000007 0.003181
22240 -0.15342840000000002 9.84802356 0.14070483 -0.005205 0.029842 0.000994
22260 -0.16256151000000002 9.845178660000002 0.12080034 -0.007319 0.030927 -0.002227
22280 -0.15342840000000002 9.84218661 0.16061913 -0.01052 0.026694 -0.006517
22300 -0.15851979 9.864190440000002 0.17394111 -0.014802 0.024575 -0.005476
22320 -0.16016787000000002 9.88469334 0.1790325 -0.012678 0.023498 -0.004392
22340 -0.17258733 9.88409493 0.2083644 -0.005224 0.023459 -0.001135
22360 -0.18231885 9.85281084 0.22048956 0.002215 0.024468 0.006393
22380 -0.18007236000000001 9.871675470000001 0.20821725000000002 0.012889 0.031862 0.012868
22400 -0.182466 9.8564013 0.18262296000000003 0.018237 0.041405 0.019302
22420 -0.15956946 9.835143030000001 0.23845167 0.018233000000000003 0.041401 0.020371
22440 -0.18666468 9.86149269 0.22917141000000002 0.013969999999999998 0.038237 0.016072
22460 -0.15642045 9.88095573 0.24204213000000002 0.012913 0.036127 0.011794
22480 -0.15747012000000002 9.86867361 0.23950134000000003 0.009712 0.035078 0.010705
22500 -0.18576216000000004 9.86942898 0.23306598000000003 0.006520999999999999 0.035097 0.008546
22520 -0.18695898 9.872715330000002 0.23950134000000003 0.002254 0.037234 0.01065
22540 -0.17019369 9.8652303 0.24997842000000003 0.006497 0.035076 0.013887
22560 -0.17348985 9.87301944 0.20492109000000003 0.008621 0.033999 0.014972
22580 -0.17438256000000002 9.849367529999999 0.21824307 0.015008 0.032902999999999995 0.017154
22600 -0.15986376000000002 9.85311495 0.21764466000000002 0.018204 0.032887 0.018245
22620 -0.18576216000000004 9.84487455 0.21914559000000003 0.021409 0.033941000000000006 0.018266
22640 -0.17693316 9.82078119 0.18262296000000003 0.023548 0.034999 0.018279
22660 -0.15328125 9.841284090000002 0.16570071 0.027806 0.033915 0.019379
22680 -0.15342840000000002 9.847572300000001 0.14400099 0.025667 0.031796 0.018298
22700 -0.15178032 9.836948069999998 0.11989782 0.01928 0.031831 0.015049000000000003
22720 -0.16645608 9.82946304 0.12288987000000001 0.014989 0.02652 0.015026
22740 -0.15282999000000003 9.83006145 0.13517199 0.011755 0.019074 0.015013
22760 -0.16270866 9.84412899 0.1070271 0.01386 0.013736000000000002 0.016103
22780 -0.16525926000000002 9.87122421 0.11616021000000001 0.020237 0.009448 0.017221
22800 -0.14610033 9.869272020000002 0.11765133000000001 0.023433 0.008372 0.017245
22820 -0.15672456 9.9056475 0.11197134000000002 0.028738 0.004084 0.019423
22840 -0.14954364 9.8677809 0.12813822000000002 0.031934 0.005129 0.021581
22860 -0.13785993 9.85984461 0.12843252 0.030834 -0.000202 0.023717
22880 -0.13457358 9.85266369 0.15672456 0.028676 -0.007643 0.021575
22900 -0.16165899 9.85595004 0.17573634 0.026557 -0.006561 0.019422
22920 -0.15043635 9.850711500000001 0.17708031000000002 0.025523 -0.004406 0.014071
22940 -0.15806852999999998 9.846669780000001 0.16810416000000003 0.021251 -0.007578 0.011909
22960 -0.15942230999999998 9.838890450000001 0.18231885 0.014831 -0.013938999999999998 0.009735
22980 -0.17394111 9.82751085 0.18007236000000001 0.012706 -0.011801 0.009718
23000 -0.19339434 9.86732964 0.20283156000000002 0.012711 -0.009675 0.010783
23020 -0.18456534000000002 9.87601149 0.20881566000000004 0.011649 -0.008606 0.010775
23040 -0.16660323000000002 9.883947779999998 0.20656917 0.012711 -0.006492 0.013984
23060 -0.17782587000000002 9.88574301 0.21195486000000002 0.014855000000000004 -0.004369 0.013996
23080 -0.1502892 9.874069109999999 0.21794877000000001 0.019122 -0.003323 0.015093
23100 -0.1588239 9.875717190000001 0.21599658 0.021265 -0.003321 0.012971000000000002
23120 -0.15971661 9.87825798 0.19145196 0.020237 0.003082 0.01082
23140 -0.12798126 9.863287920000001 0.17423541000000003 0.019194 0.009473 0.011872
23160 -0.11780829000000001 9.86044302 0.15806852999999998 0.020275 0.015847999999999998 0.015076
23180 -0.12364524000000002 9.851015610000001 0.14505066000000003 0.024557 0.021151 0.017236
23200 -0.10073889000000001 9.837840779999999 0.13501503 0.02881 0.020063 0.019404
23220 -0.09190989000000001 9.84697389 0.11241279000000001 0.030929 0.021103 0.02369
23240 -0.09385227000000002 9.88095573 0.09190989000000001 0.034173 0.03068 0.0237
23260 -0.11256975000000001 9.858794940000001 0.10867518 0.032097 0.04347 0.023669
23280 -0.08562168 9.857755080000002 0.09490194 0.031035000000000007 0.047722 0.026861000000000003
23300 -0.07020036 9.863592030000001 0.08696565000000002 0.027834 0.048794 0.027906
23320 -0.06496182 9.836496810000002 0.08397360000000001 0.026763 0.046672000000000005 0.026833
23340 -0.0836793 9.8415882 0.03412899 0.024634 0.043501 0.022549
23360 -0.09834525 9.84802356 0.08172711 0.026777 0.043502 0.020428
23380 -0.09190989000000001 9.82946304 0.06646275 0.032083 0.040274 0.023673
23400 -0.08696565000000002 9.82152675 0.05912487 0.031035000000000007 0.0456 0.024727
23420 -0.10044459 9.84307932 0.060174540000000006 0.02251 0.047761 0.024665
23440 -0.09190989000000001 9.828109260000002 0.04027005 0.017194 0.049918 0.022489
23460 -0.13277835000000002 9.83185668 0.05627997 0.030073000000000006 0.06691799999999999 0.022557
23480 -0.11675862 9.82497006 0.053739180000000004 0.027983 0.07545199999999999 0.021463
23500 -0.12005478000000001 9.8564013 0.05239521 0.023735 0.086094 0.027829000000000003
23520 -0.12169305 9.852212430000002 0.036071370000000005 0.0033590000000000004 0.076522 0.041586
23540 -0.13711437 9.858049379999999 0.07619427 -0.029858 0.061655 0.058465
23560 -0.13756563000000002 9.876609900000002 0.08232552 -0.053487 0.036133 0.067946
23580 -0.15478218000000002 9.865985669999999 0.10523187 -0.016132 0.027527 0.056468
23600 -0.15118191 9.8535564 0.07648857 0.008544 0.051967999999999986 0.0502
23620 -0.14190165000000002 9.881848440000002 0.10747836000000001 0.023514 0.054067 0.04496
23640 -0.14414814 9.852212430000002 0.06765957 0.034087 0.023176 0.035460000000000005
23660 -0.1070271 9.86194395 0.07724394 0.026504000000000003 -0.012974 0.024771
23680 -0.10597743000000001 9.88993188 0.05643693 0.024428 -0.019282 0.005536
23700 -0.12813822000000002 9.88289811 0.053140770000000004 0.013821 -0.016006 -0.005224
23720 -0.0953532 9.856254150000002 0.06196977000000001 0.009544 -0.023427 -0.010586
23740 -0.06047865000000001 9.866436929999999 0.06436341000000001 0.010649 -0.008542000000000001 -0.004188
23760 -0.048353490000000006 9.86194395 0.027242370000000002 0.006449 0.013813 0.003232
23780 -0.031588200000000004 9.87825798 0.04250673 0.003292 0.025534 0.005331
23800 -0.046705409999999996 9.855057330000001 0.03248091 0.007573000000000002 0.025532 0.002157
23820 -0.04281084 9.85955031 -0.008230590000000001 0.005473 0.030874 -1e-06
23840 -0.06361785 9.87452037 0.02544714 0.011817 0.015946000000000002 -0.002074
23860 -0.03876912000000001 9.852212430000002 0.023347800000000002 0.010693 0.00635 0.001135
23880 -0.030832830000000002 9.85340925 -0.03128409 0.011798 0.01699 0.003265
23900 -0.02754648 9.88603731 -0.0432621 0.016132 0.039316 0.010745
23920 -0.04250673 9.899967509999998 -0.06900354 0.02472 0.060553 0.020391
23940 -0.01182105 9.858951900000001 -0.10028763 0.025787 0.067977 0.027867000000000003
23960 -0.04340925 9.860747130000002 -0.13546629000000002 0.029055 0.078635 0.023603
23980 -0.02754648 9.87990606 -0.03726819 0.024778 0.074398 0.021442
24000 0.04116276 9.79443153 0.01332198 0.018434 0.086142 0.020315
24020 0.13397517 9.8564013 0.07648857 0.011014 0.100004 0.02345
24040 0.09504909 9.83484873 -0.051041430000000006 0.008904 0.101094 0.019161
24060 0.08891784 9.80925444 -0.0981981 0.012153 0.102186 0.009568
24080 0.09355797 9.89772102 -0.15672456 0.001561 0.109719 -0.00013000000000000002
24100 0.12708855 9.851614020000001 -0.036826740000000004 -0.003711 0.11722 -0.006585
24120 0.12768696000000002 9.843677730000001 -0.00373761 -0.003707 0.11298 -0.011921
24140 0.12334113000000002 9.78215922 0.00434583 -0.010137 0.099184 -0.019426
24160 0.13367106 9.7983261 -0.04146687000000001 -0.011227 0.083251 -0.030095
24180 0.06856209 9.84847482 -0.12154590000000001 -0.009098 0.075812 -0.03648
24200 0.06151851 9.826912440000001 -0.10208286000000001 -0.014461000000000003 0.071561 -0.034376
24220 0.10523187 9.817033770000002 -0.05747679000000001 -0.016638 0.068347 -0.027978
24240 0.13472073 9.851015610000001 -0.16825131000000002 -0.020887 0.074745 -0.025879000000000003
24260 0.11032326000000002 9.87646275 -0.16406244 -0.021906 0.080097 -0.031234
24280 0.11541465 9.86149269 -0.09176274 -0.020786 0.079079 -0.044044
24300 0.13307265000000001 9.85715667 -0.19100070000000002 -0.035688 0.070673 -0.06016000000000001
24320 0.12813822000000002 9.877953869999999 -0.14385383999999998 -0.057054 0.063295 -0.061367999999999985
24340 0.12544047 9.85759812 -0.12917808 -0.068857 0.061153999999999986 -0.048629
24360 0.17753157 9.84532581 -0.13950801 -0.076378 0.06856 -0.029463
24380 0.16914402 9.86508315 -0.17394111 -0.082803 0.073867 -0.018833000000000003
24400 0.15956946 9.878856390000001 -0.13711437 -0.081746 0.070671 -0.01989
24420 0.13037490000000002 9.8302086 -0.15851979 -0.072163 0.06425499999999999 -0.021951
24440 0.11360961 9.81554265 -0.22572810000000001 -0.060461 0.057818 -0.020793
24460 0.14789556 9.869272020000002 -0.26944146 -0.047692 0.056682 -0.014293
24480 0.18262296000000003 9.88559586 -0.23067234 -0.039158 0.06089600000000001 -0.009966
24500 0.18381978000000002 9.864631890000002 -0.26284914 -0.039191 0.05874500000000001 -0.004622
24520 0.14669874000000002 9.82721655 -0.20627487000000003 -0.041363 0.05023 -0.004626
24540 0.11525769000000001 9.84487455 -0.14190165000000002 -0.042459 0.044903 -0.003559000000000001
24560 0.1130112 9.848621970000002 -0.20238030000000004 -0.04355 0.040641 -0.002493
24580 0.11601306 9.859697460000001 -0.17887554 -0.041406 0.041704000000000005 -0.003547
24600 0.07005321 9.878110829999999 -0.15522363 -0.040339 0.0417 -0.00354
24620 0.04101561 9.848621970000002 -0.12948219000000002 -0.041402 0.041708 -0.004616
24640 -0.00494424 9.81269775 -0.06660990000000001 -0.040335 0.039582 -0.006742000000000001
24660 -0.00808344 9.821821049999999 -0.0811287 -0.038196 0.038518 -0.008862
24680 -0.01631403 9.84742515 -0.06795387 -0.041421 0.032142000000000004 -0.009945
24700 -0.01542132 9.86223825 -0.05223825 -0.042502 0.026828 -0.012082
24720 -0.00942741 9.828707670000002 -0.01542132 -0.047865 0.019394 -0.013178
24740 -0.0230535 9.8242245 0.0015009300000000001 -0.047879000000000005 0.015137 -0.014241
24760 -0.07229970000000002 9.76135221 -0.00703377 -0.048946 0.015141 -0.014248
24780 -0.13905675 9.74997261 -0.0981981 -0.04577 0.010864 -0.013152
24800 -0.10673280000000002 9.908198100000002 -0.11316816 -0.042593 0.005527000000000001 -0.013123
24820 -0.01257642 10.02225897 -0.05403348 -0.037292 0.000173 -0.010943
24840 0.022906350000000002 9.878856390000001 -0.01975734 -0.030915 -0.001993 -0.007691
24860 0.02080701 9.791292330000001 0.008829 -0.027729000000000004 -0.002017 -0.004464
24880 -0.055230299999999996 9.836045550000001 0.00538569 -0.024514 0.002229 -0.003379
24900 -0.11331531000000002 9.86163984 -0.02664396 -0.02238 0.002222 -0.003364
24920 -0.04699970999999999 9.88858791 -0.05074713 -0.02239 0.001152 -0.002294
24940 -0.04011309 9.8879895 -0.01332198 -0.020256 0.001145 -0.002279
24960 0.00164808 9.86912487 -0.00329616 -0.014912 0.002196 -0.003312
24980 -0.008681849999999998 9.846522629999999 0.0170694 -0.014912 7.4e-05 -0.005445
25000 -0.004492980000000001 9.884399040000002 0.0025407900000000002 -0.014916999999999996 0.00113 -0.00331
25020 -0.01691244 9.865387259999999 -0.0013439700000000003 -0.014888 0.0054 -0.005452
25040 -0.02829204 9.84218661 0.01406754 -0.020184 0.011819 -0.007634
25060 -0.01092834 9.85011309 0.04161402 -0.024428 0.017159999999999998 -0.0076700000000000015
25080 -0.05209110000000001 9.85685256 0.051041430000000006 -0.027633 0.015045 -0.008758
25100 -0.05883057 9.84592422 0.08308088999999999 -0.027638 0.011857 -0.01089
25120 -0.0489519 9.855351630000001 0.10269108 -0.028724 0.008661 -0.009826
25140 -0.040711500000000005 9.823920390000001 0.09805095000000001 -0.027667 0.008648999999999999 -0.007682
25160 -0.029341710000000003 9.81194238 0.11316816 -0.024432 0.016094999999999998 -0.007669
25180 -0.01107549 9.85295799 0.11601306 -0.021203 0.023536 -0.006587999999999999
25200 0.00973152 9.85685256 0.11616021000000001 -0.020117 0.028854 -0.005519
25220 0.0011968200000000001 9.866436929999999 0.12977649 -0.020117 0.028854 -0.005519
25240 -0.01437165 9.843677730000001 0.14729715000000002 -0.020098 0.034176 -0.004457
25260 -0.034276140000000004 9.829158930000002 0.15538058999999999 -0.01794 0.040556 -0.003382
25280 -0.01032993 9.828707670000002 0.1704978 -0.01472 0.045867000000000005 -0.002298
25300 -0.030391380000000003 9.88170129 0.17499078 -0.012558 0.052251 -0.002291
25320 -0.053592030000000006 9.87392196 0.18965673000000005 -0.011462 0.0597 -0.001225
25340 -0.06421626 9.85400766 0.20087937 -0.010367 0.065027 -0.002292
25360 -0.07543890000000002 9.84577707 0.18097488 -0.010367 0.063966 -0.0033590000000000004
25380 -0.07543890000000002 9.86553441 0.20881566000000004 -0.009314 0.063949 -0.000147
25400 -0.08667135 9.88963758 0.24758478 -0.010386 0.062888 -0.000153
25420 -0.07603731000000002 9.870625800000001 0.24100227 -0.011457 0.061826 -0.00015900000000000002
25440 -0.09220419 9.85056435 0.25536411 -0.008265999999999999 0.058624 -0.001201
25460 -0.09160578000000001 9.85699971 0.26569404 -0.006152 0.055416 -0.000114
25480 -0.08517042 9.87990606 0.28006569000000003 -0.004009 0.057539 -0.000102
25500 -0.10612458 9.874069109999999 0.28575549 -0.001875 0.060715 0.003114
25520 -0.10537902 9.82766781 0.27572967000000004 -0.005056000000000001 0.063926 0.002019
25540 -0.08816247 9.850711500000001 0.26719497000000003 -0.006123 0.06286900000000001 0.000945
25560 -0.05912487 9.83035575 0.26061246000000005 -0.005056000000000001 0.05968200000000001 -0.002248
25580 -0.08262963000000001 9.83798793 0.29488860000000006 -0.003999 0.056487 -0.003305
25600 -0.08696565000000002 9.87151851 0.26105391000000006 -0.002913 0.059683000000000014 -0.004370000000000001
25620 -0.07125002999999999 9.87122421 0.26869590000000004 -0.006114 0.061816 -0.002258
25640 -0.09400923 9.871675470000001 0.26360451 -0.006109000000000001 0.06288099999999999 -0.0022600000000000003
25660 -0.10313253 9.88199559 0.27303192 -0.006128 0.059681 -0.001188
25680 -0.11511054 9.867182490000001 0.30446316 -0.006123 0.058625 -0.003323
25700 -0.1417545 9.861198390000002 0.29533986 -0.003985 0.059683000000000014 -0.0033090000000000003
25720 -0.13845833999999996 9.841284090000002 0.30282489 -0.004013 0.055413 -0.001167
25740 -0.18202455 9.8564013 0.31988447999999997 -0.001932 0.04581 0.000996
25760 -0.17708031000000002 9.83484873 0.34772526 -0.00088 0.04261 0.001007
25780 -0.17184176999999998 9.880504470000002 0.32287653 0.002321 0.040477 -0.001104
25800 -0.18980388 9.87466752 0.3239262 0.004469 0.043665 -0.001093
25820 -0.17184176999999998 9.85909905 0.33036156 0.003407 0.045795 -3.5e-05
25840 -0.17603064 9.862542359999999 0.33141123 0.003416 0.044743 -0.0032380000000000004
25860 -0.14849397 9.849671640000002 0.32452461 0.001297 0.045824 -0.005391
25880 -0.13113027000000002 9.85909905 0.31314501 -0.001899 0.0469 -0.005414
25900 -0.12288987000000001 9.83185668 0.3125466 -0.001908 0.045831 -0.004345
25920 -0.13082616000000002 9.84278502 0.34383069000000005 -0.00299 0.0437 -0.003282
25940 -0.14654178 9.869880240000002 0.33889626 -0.001942 0.040496 -0.002202
25960 -0.12678444 9.86283666 0.37512459000000004 0.001239 0.037285000000000006 -0.001107
25980 -0.12573477 9.84637548 0.36583452 0.003383 0.037286 -0.003229
26000 -0.13785993 9.83290635 0.35850645000000003 0.005512 0.037274 -0.002146
26020 -0.14893542 9.839783160000001 0.36090009000000006 0.00445 0.036221 -0.004288
26040 -0.14789556 9.85670541 0.36374499000000005 0.005507 0.035148 -0.003211
26060 -0.14534496 9.86478885 0.34862778 0.005469 0.03087 0.001067
26080 -0.14579622 9.83470158 0.35326791 0.002239 0.024489 0.001052
26100 -0.13682007 9.83080701 0.32827203 0.001168 0.024489 0.002113
26120 -0.12199716 9.847268190000001 0.35341506000000006 -0.003071 0.029834 0.001009
26140 -0.10597743000000001 9.860747130000002 0.34233957000000004 -0.00199 0.034087 0.002079
26160 -0.12529332 9.851162760000001 0.3412899 0.0033159999999999995 0.028738 0.003191
26180 -0.12334113000000002 9.824822910000002 0.32377905 0.006487000000000001 0.025518 0.006422
26200 -0.11137293000000001 9.82886463 0.3005784 0.0075590000000000015 0.027641 0.007495
26220 -0.11346246 9.836496810000002 0.29293641 0.007573000000000002 0.031898 0.008558
26240 -0.13352391000000002 9.83274939 0.29309337 0.016113 0.036116 0.011817
26260 -0.12573477 9.849073230000002 0.30716091 0.01818 0.030744 0.021452
26280 -0.12049623000000001 9.84697389 0.32766381 0.019237 0.032854 0.025730000000000003
26300 -0.13965516000000006 9.877061160000002 0.34488036 0.019304 0.044585 0.02251
26320 -0.15777423000000002 9.85250673 0.35999757000000004 0.021529 0.058451 0.016099000000000002
26340 -0.17678601 9.82646118 0.33605136 0.02161 0.07231699999999999 0.011809
26360 -0.15956946 9.844727400000002 0.30880899 0.018448 0.08085 0.011776
26380 -0.15522363 9.817033770000002 0.33545295 0.017405 0.08830199999999999 0.013895
26400 -0.1502892 9.84218661 0.31120263000000004 0.012085 0.092577 0.014921
26420 -0.12453795000000001 9.84981879 0.31359627000000007 0.008909 0.096854 0.013825
26440 -0.13771278 9.86283666 0.30326634 0.01321 0.100052 0.009578
26460 -0.13905675 9.874069109999999 0.33664977 0.016401 0.095788 0.007469
26480 -0.14759145 9.86972328 0.34458605999999997 0.018472 0.080871 0.006435
26500 -0.16151184 9.84307932 0.32736951 0.015205000000000003 0.06915199999999999 0.009632
26520 -0.14878826999999997 9.82497006 0.34712685000000004 0.015157 0.05956 0.010712
26540 -0.15223158 9.86134554 0.33874911 0.018314 0.051022000000000005 0.011813
26560 -0.17184176999999998 9.85759812 0.35760393 0.018233000000000003 0.036096 0.015036
26580 -0.16884972000000004 9.84218661 0.35640711 0.023533 0.027559 0.014016
26600 -0.17483382000000003 9.851614020000001 0.34159401 0.02461 0.028625 0.012954
26620 -0.19938825000000002 9.83918475 0.34578288 0.023533 0.027559 0.014016
26640 -0.17499078 9.81688662 0.34578288 0.025657 0.028604 0.017234
26660 -0.19264878 9.86912487 0.35625996000000004 0.025662 0.030731 0.0183
26680 -0.18950957999999998 9.867476790000001 0.38364948 0.022466 0.030746 0.017209000000000002
26700 -0.18786150000000001 9.85595004 0.35207109 0.020337 0.028636 0.013992
26720 -0.17244018 9.867182490000001 0.36374499000000005 0.019285 0.028652 0.01078
26740 -0.14295132 9.860747130000002 0.38694564000000004 0.020309 0.022244 0.013999999999999999
26760 -0.16839846000000003 9.86912487 0.38604312 0.022428 0.022224 0.01722
26780 -0.21479976 9.88978473 0.38679849 0.021347 0.02752 0.025751
26800 -0.26480133 9.8851446 0.41045040000000005 0.034111 0.029563 0.03652
26820 -0.26090676 9.832307940000002 0.41568894000000006 0.056544 0.050731 0.051605
26840 -0.29443734 9.81554265 0.36943479 0.081153 0.074051 0.059224
26860 -0.27647523 9.8242245 0.34428195 0.096272 0.111296 0.056077
26880 -0.25626663 9.85595004 0.33904341000000005 0.105032 0.161333 0.056074
26900 -0.23665644 9.85371336 0.36075294 0.101927 0.185833 0.059226
26920 -0.2311236 9.86283666 0.31898196000000006 0.083675 0.158208 0.056998
26940 -0.17678601 9.86478885 0.25372584000000004 0.053549 0.089121 0.044057
26960 -0.11316816 9.83724237 0.21420135 0.020165 -0.001226 0.022575
26980 -0.08726976 9.822272309999999 0.18396693 -0.005737 -0.08522 0.004342
27000 -0.040711500000000005 9.81688662 0.21794877000000001 -0.015507 -0.134141 -0.007414
27020 -0.031588200000000004 9.85340925 0.19774017000000002 -0.015607 -0.16075599999999998 -0.011653
27040 -0.02754648 9.86014872 0.20642202000000004 -0.012459 -0.170363 -0.009483
27060 -0.06047865000000001 9.857755080000002 0.21345579 -0.018841 -0.16183599999999998 -0.005265
27080 -0.08517042 9.85864779 0.24833034 -0.014507 -0.134205 0.007548
27100 -0.11720988 9.853860509999999 0.25088094 0.006807 -0.116263 0.031175
27120 -0.13801689 9.829158930000002 0.20731473 0.035526 -0.117502 0.049537
27140 -0.13801689 9.858353490000002 0.20567646 0.068603 -0.108064 0.058302
27160 -0.13367106 9.857755080000002 0.22543380000000002 0.085783 -0.085745 0.056257000000000015
27180 -0.12034908 9.88035732 0.21166056000000003 0.081583 -0.077182 0.049807
27200 -0.1155618 9.880651620000002 0.24833034 0.06780900000000001 -0.069621 0.035814
27220 -0.12857967 9.87211692 0.23366439 0.056227 -0.048224 0.022887
27240 -0.1158561 9.83379906 0.22572810000000001 0.033914 -0.03215 0.018438
27260 -0.11929941000000001 9.86658408 0.19040229 0.00509 -0.029944 0.024643
27280 -0.13531914 9.87256818 0.19923129 -0.001369 -0.034217000000000004 0.033149
27300 -0.14684589 9.90355797 0.20133063 0.011438 -0.032135000000000004 0.034304
27320 -0.26539974000000005 10.02075804 0.28665801 0.037096 -0.022629 0.032335
27340 -0.32662395 10.08377748 0.38919213 0.051013 -0.015208 0.029218
27360 -0.37541889 9.937686959999999 0.393381 0.059553 -0.015233000000000003 0.028209
27380 -0.35535744 9.803564640000001 0.40026762 0.052061 -0.018411 0.030297
27400 -0.21555513 9.77092677 0.34308513000000007 0.036048 -0.020486 0.030188
27420 0.008829 9.82062423 0.26869590000000004 0.022203 -0.019355 0.025817000000000003
27440 0.19369845 9.80041563 0.20911977 0.011606 -0.017131999999999998 0.011853
27460 0.32931189000000005 9.73036242 0.15462522000000004 -0.007473 -0.009527 -0.008586
27480 0.35521029 9.68291145 0.08143281000000001 -0.039321 0.008762 -0.025923
27500 0.33305931000000005 9.74099646 0.01437165 -0.05841900000000001 0.032264999999999995 -0.026087
27520 0.19324719 9.796530870000002 -0.02245509 -0.06805900000000001 0.038631 -0.011207
27540 0.10164141000000002 9.83320065 -0.050295870000000006 -0.056438 0.035304 0.011311
27560 0.01272357 9.84278502 -0.06122421 -0.018156 0.027632 0.031884
27580 -0.0022464900000000003 9.86852646 -0.1272357 0.031905 0.027385000000000003 0.050394
27600 0.016765290000000002 9.8680752 -0.10583028000000001 0.08099500000000001 0.030409 0.050733
27620 -0.00808344 9.94816404 -0.07619427 0.106715 0.037849 0.032744
27640 0.0038945700000000004 10.01582361 -0.00928026 0.106888 0.065588 0.022027
27660 0.02425032 9.99351567 0.05268951 0.06741799999999999 0.062548 0.017482
27680 -0.00373761 9.888735060000002 0.06316659000000001 0.011827 0.038236 0.018193
27700 -0.03532581 9.80176941 0.06151851 -0.034053 0.021416 0.001871
27720 -0.04909905 9.76568823 -0.019306080000000003 -0.048908 0.021541 -0.016393
27740 -0.0076321800000000006 9.73829871 -0.016461180000000002 -0.064738 0.039787 -0.036823
27760 0.025898400000000002 9.821821049999999 -0.051198389999999996 -0.094404 0.064478 -0.058426
27780 -0.00209934 9.88634142 -0.06675705 -0.110244 0.08165499999999999 -0.077787
27800 -0.09805095000000001 9.93005478 -0.05687838 -0.107034 0.082713 -0.078834
27820 -0.11840670000000002 9.940080600000002 -0.01975734 -0.100954 0.042087 -0.047761
27840 -0.09056592000000001 9.863739180000001 0.07125002999999999 -0.078962 -0.011408 -0.009083
27860 -0.025594290000000002 9.85670541 0.15762708 -0.030093 -0.027678 0.02119
27880 0.05223825 9.81688662 0.15297714 0.041291 -0.02483 0.046254
27900 0.08772102000000001 9.7692885 0.12005478000000001 0.105269 -0.027205 0.052045000000000015
27920 0.11241279000000001 9.77706783 0.11016630000000001 0.142729 -0.00707 0.045871
27940 0.12274272000000001 9.791439480000001 0.040711500000000005 0.155752 0.034460000000000005 0.038432
27960 0.11929941000000001 9.841735350000002 0.01751085 0.13134400000000002 0.06543 0.040358
27980 0.11420802000000001 9.76613949 -0.02529999 0.07374299999999999 0.072006 0.04422
28000 0.05883057 9.693241380000002 -0.11016630000000001 0.006583 0.072288 0.032
28020 0.09131148000000001 9.78814332 -0.13441662000000001 -0.040239 0.077863 0.010301
28040 0.12649014 9.887842350000001 -0.22408002000000002 -0.058236 0.083355 -0.015469
28060 0.10972485000000001 10.04785326 -0.22304016000000004 -0.05705 0.090885 -0.034698
28080 0.07768538999999999 10.20068325 -0.053592030000000006 -0.051634000000000006 0.095183 -0.048553
28100 0.0022464900000000003 10.219999140000002 0.046705409999999996 -0.045175 0.101578 -0.054925
28120 -0.10837107 9.886635720000003 0.11525769000000001 -0.03232 0.117495 -0.050583
28140 -0.06287229000000001 9.67408245 0.14190165000000002 -0.022747 0.126985 -0.034505
28160 -0.00179523 9.62333532 0.17887554 -0.013284 0.110913 -0.019463
28180 0.05194395 9.688002840000001 0.13232709 0.005847 0.107599 -0.0065060000000000005
28200 0.06436341000000001 9.763451550000001 0.11092167 0.011158 0.112864 0.0042060000000000005
28220 0.14070483 9.827069400000001 0.04011309 0.007932999999999999 0.104366 0.00099
28240 0.18576216000000004 9.83843919 0.03907323000000001 -0.002707 0.100184 -0.009761
28260 0.14385383999999998 9.81554265 -0.02425032 -0.015485 0.097067 -0.018392
28280 0.11360961 9.736650630000002 -0.13890960000000002 -0.033675 0.079047 -0.024906
28300 0.18965673000000005 9.720935010000002 -0.19699461000000001 -0.042291 0.062028 -0.023876
28320 0.33006726 9.80820477 -0.15492933000000003 -0.040205 0.05349 -0.021714
28340 0.36913068000000004 9.997106129999999 -0.18471249 -0.02637 0.047046 -0.020541
28360 0.29623257000000003 10.11821058 -0.14729715000000002 -0.011505 0.037381 -0.014015
28380 0.22184334 10.226434500000002 -0.02754648 -0.000851 0.040514 -0.007534999999999998
28400 0.06301944 10.15862778 0.07693983000000001 0.03004 0.043546 0.006562999999999999
28420 -0.09729558 9.95684589 0.14115609 0.079029 0.046481 0.029334
28440 -0.0981981 9.75685923 0.12962933999999998 0.112001 0.044154 0.049864
28460 -0.053140770000000004 9.71794296 0.18291726 0.133286 0.039788 0.05749600000000001
28480 0.025143030000000004 9.7231815 0.21869433000000002 0.133339 0.043018 0.048946
28500 0.03053853 9.756260820000001 0.22512969000000002 0.10362 0.060235 0.031625
28520 0.034874550000000004 9.759556980000001 0.09564750000000001 0.063218 0.067927 0.007831999999999999
28540 0.028439190000000003 9.796530870000002 -0.06615864 0.022749 0.058584 -0.018076
28560 -0.0026977500000000005 9.86867361 -0.10193571 -0.019916 0.038582 -0.040781
28580 -0.0464013 9.920166300000002 -0.07963758 -0.058313 0.018566 -0.063456
28600 -0.06122421 9.8734707 -0.02439747 -0.087037 0.012373 -0.08821799999999999
28620 -0.00344331 9.83065986 -0.048353490000000006 -0.100801 0.022064 -0.102213
28640 0.10807677000000002 9.799522920000001 -0.045204480000000005 -0.100762 0.039074 -0.093689
28660 0.17229302999999999 9.80954874 -0.00913311 -0.085845 0.059164 -0.06904199999999999
28680 0.19085355 9.858794940000001 -0.008829 -0.061413 0.067473 -0.036835
28700 0.21989115 9.982744290000001 0.018109260000000002 -0.027417 0.06298200000000001 -0.008818000000000001
28720 0.22872015 9.92975067 -0.033383430000000006 0.011913 0.046801 0.007501000000000002
28740 0.21764466000000002 9.827814960000001 -0.09205704 0.04166 0.022183 0.010945
28760 0.14669874000000002 9.78036399 -0.14833701000000002 0.053329 -0.003382 0.000377
28780 0.19578798 9.700128000000001 -0.19100070000000002 0.047951 -0.028866000000000006 -0.015650999999999998
28800 0.18741024 9.724829580000002 -0.21854718 0.021241 -0.052149 -0.030763
28820 0.17722746 9.9056475 -0.18486945000000002 -0.0033350000000000003 -0.06376799999999999 -0.034125
28840 0.11884815000000001 9.96971661 -0.13861530000000005 -0.027921 -0.073274 -0.033216
28860 0.09700128 9.89831943 -0.08846658 -0.040761 -0.078569 -0.030094
28880 0.04161402 9.87765957 -0.08172711 -0.046129 -0.090251 -0.03439
28900 0.026496810000000003 9.905206050000002 -0.08756406 -0.045115 -0.107277 -0.039702
28920 0.01586277 9.922118489999999 -0.09220419 -0.040929 -0.130707 -0.044984
28940 -0.0009025200000000001 9.98394111 0.08352234000000001 -0.033547 -0.154152 -0.049175
28960 -0.00703377 9.94113027 0.25851312000000004 -0.026175 -0.175483 -0.049096
28980 -0.05194395 9.86867361 0.36658989000000003 -0.026271 -0.190422 -0.042668
29000 -0.12589173 9.83918475 0.28410741 -0.029544 -0.197902 -0.034136
29020 -0.11406087000000001 9.80610543 0.13741848 -0.031735 -0.20219 -0.0256
29040 -0.05957613 9.724231170000001 0.01482291 -0.030692 -0.206459 -0.024519
29060 0.05927202000000001 9.74488122 -0.025898400000000002 -0.027506 -0.209666 -0.024493
29080 0.11960352 9.75057102 -0.02604555 -0.023329 -0.22886 -0.023371
29100 0.09445068 9.739348380000001 -0.01078119 -0.015972 -0.250204 -0.020087
29120 0.0025407900000000002 9.75491685 -0.02994012 -0.015005 -0.270456 -0.017918
29140 -0.10733121 9.78156081 -0.10822392 -0.016130000000000002 -0.280053 -0.014709
29160 -0.15642045 9.76883724 -0.173637 -0.018206 -0.263018 -0.010472
29180 -0.1240965 9.856107 -0.21120930000000002 -0.024387 -0.221421 -0.018046
29200 -0.03458025 9.963879660000002 -0.20597076000000003 -0.0274 -0.191535 -0.029856
29220 0.09879651 10.074497220000001 -0.15074046 -0.020961 -0.197889 -0.044758
29240 0.11541465 10.07554689 -0.13561344 0.005577 -0.239481 -0.056270000000000014
29260 0.12439080000000001 10.00250163 -0.10896948000000001 0.020359 -0.266195 -0.048655
29280 0.08816247 9.87032169 -0.13426947 0.015867 -0.29821 -0.030485
29300 0.01032993 9.75312162 -0.1041822 0.008154 -0.340841 -0.018734
29320 -0.00299205 9.72303435 -0.10927359 0.000422 -0.3941 -0.013379
29340 -0.03248091 9.759409830000001 -0.12199716 -0.000889 -0.450547 -0.015452
29360 0.01377324 9.795334050000001 -0.11525769000000001 0.0010960000000000002 -0.479333 -0.011129
29380 -0.00703377 9.83290635 -0.09580446000000001 0.00312 -0.498537 -0.005749
29400 -0.023504760000000003 9.85340925 -0.06271533 0.007315 -0.512409 -0.003565
29420 -0.027095220000000003 9.834397469999999 -0.03143124 0.01573 -0.535887 -0.000272
29440 -0.01197801 9.831552570000001 -0.015568470000000001 0.024409 -0.517752 -0.014121000000000003
29460 0.04355640000000001 9.834397469999999 -0.01062423 0.025524 -0.504981 -0.011993
29480 0.0925083 9.82346913 0.03053853 0.010612 -0.490054 -0.002503
29500 0.07304525999999999 9.84113694 0.060321690000000004 0.004364 -0.461248 -0.007923999999999999
