time Ax Ay Az Gx Gy Gz
20 -0.04221243000000001 9.83814489 0.98076456 -0.021776 0.278619 0.139428
40 -0.14235291 9.88903917 1.00396521 -0.043315 0.223343 0.128666
60 -0.34847082000000007 9.891884070000001 0.99468495 -0.023495 0.096612 0.102261
80 -0.54531828 9.800121330000001 1.0623445200000001 -0.046115 0.043448 0.09683
100 0.21510387 10.03333446 1.31501088 -0.052401 0.059488 0.087152
120 0.42421383 9.87780672 1.07266464 -0.051315 0.029793 0.053014
140 0.5569921800000001 9.61390791 0.89543718 -0.046889 0.029919 0.017794
160 0.39712842 9.604480500000001 0.6723970199999999 -0.044597000000000005 0.054455 0.007095999999999998
180 0.33619851000000006 9.60612858 0.84604383 -0.04366 0.042665 0.024209
200 0.70413237 9.859697460000001 0.9503731800000002 -0.021505 0.004169 0.041505
220 1.15364619 10.156979699999999 0.7312275899999999 -0.000139 0.015791 0.046981
240 1.2325382100000002 10.158922080000002 0.5492030400000001 0.02559 0.030667000000000007 0.034323
260 1.0225257300000001 9.92765133 0.31165389 0.031059 0.048805 0.022587
280 1.08883152 9.91628154 0.50595075 0.031006 0.028599 0.014066999999999998
300 1.03853565 10.01926692 0.94528179 0.036082 -0.025761000000000003 0.017377
320 0.7235954100000002 10.0155195 0.70637886 0.031642 -0.05773 0.023796
340 0.38125584000000007 9.893522339999999 0.80113365 0.042018 -0.126992 0.019684
360 0.38036313000000005 9.72662481 1.05125922 0.043993 -0.173825 0.008008
380 0.512082 9.84307932 1.17865188 0.050553 -0.16734000000000002 -0.020797
400 0.5926221000000002 9.80086689 1.0611477 0.07535399999999999 -0.136423 -0.048437
420 0.51059088 9.7692885 1.07327286 0.086147 -0.114068 -0.053731
440 0.33590421000000004 9.971060580000001 1.02147606 0.077723 -0.074683 -0.038886
460 0.31689243 10.00578798 0.97926363 0.06086900000000001 -0.000161 -0.012393
480 0.5667237 9.94771278 1.01668878 0.047426 0.101062 -0.006208
500 0.82239192 9.82556847 0.94004325 0.049107 0.23529 -0.008504000000000001
520 0.92073717 9.75416148 1.07086941 0.048476 0.323745 -0.017168
540 0.61327215 9.77287896 0.8978308200000001 0.074325 0.372679 -0.022391
560 0.2282787 9.74967831 0.58633389 0.08199400000000001 0.413149 -0.026662
580 0.0896634 9.83274939 0.6779396700000001 0.090688 0.441907 -0.033048
600 0.10612458 9.86014872 0.6562399500000001 0.09606 0.444045 -0.039422000000000006
620 0.12498921000000002 9.882446850000001 0.72553779 0.10572 0.454672 -0.041505
640 0.16495515000000002 9.918822330000001 0.80532252 0.100203 0.404662 -0.051093
660 0.13321980000000003 9.98214588 0.91639134 0.101088 0.35993400000000003 -0.055303
680 0.06331374000000001 9.911935710000002 1.08389709 0.105168 0.312008 -0.061622
700 -0.053592030000000006 9.992024550000002 1.00396521 0.079333 0.237623 -0.085208
720 -0.01616688 9.94517199 0.84559257 0.070506 0.144024 -0.113992
740 0.12633318000000002 9.99471249 0.72988362 0.068094 0.084368 -0.111796
760 0.24369021 9.97854561 0.60968169 0.072213 0.057696 -0.105323
780 0.43574058 9.91238697 0.73916388 0.093397 0.0076180000000000015 -0.121135
800 0.58453866 9.7579089 0.6336279 0.11372 0.002289 -0.138077
820 0.79888716 9.7986204 0.73796706 0.126503 -0.014749000000000003 -0.150785
840 0.7641597600000001 9.81209934 0.61446897 0.137201 -0.020065 -0.162454
860 0.6149202300000001 9.93080034 0.70084602 0.143688 -0.015767 -0.177369
880 0.6303415499999999 9.947418480000001 0.6273495000000001 0.16393 -0.042388 -0.19749
900 0.5450141700000001 9.977054490000002 0.42960933 0.180861 -0.08819500000000001 -0.212268
920 0.5550498 10.10054277 0.3990708 0.201026 -0.12019 -0.220632
940 0.82194066 10.08677934 0.42182019000000004 0.21365100000000006 -0.158588 -0.219426
960 1.0671318 9.97825131 0.53693073 0.240097 -0.210871 -0.221311
980 0.93630564 9.898466580000001 0.50774598 0.254937 -0.222679 -0.211578
1000 0.76760307 9.80670384 0.41853384000000005 0.270036 -0.175902 -0.200851
1020 0.6894664200000001 9.77856876 0.49083354000000007 0.307544 -0.142993 -0.204904
1040 0.56402595 9.808351920000002 0.46418958 0.335465 -0.10367 -0.205827
1060 0.5742087300000001 9.879601950000001 0.6509916 0.394372 -0.073963 -0.226818
1080 0.52719921 9.905049089999999 0.6706017900000001 0.471205 -0.09119 -0.247624
1100 0.55608966 9.887842350000001 0.6647648400000001 0.546732 -0.15425 -0.260902
1120 0.604296 9.97165899 0.79469829 0.564797 -0.163927 -0.254355
1140 0.64770525 9.998459910000001 0.88510725 0.578944 -0.085214 -0.237265
1160 0.5568450300000001 9.942474240000003 0.7445495700000001 0.5951960000000001 -0.004412 -0.211618
1180 0.40117014 9.858794940000001 0.7427543400000001 0.614505 0.057153 -0.17310599999999998
1200 0.15253569 9.942621390000001 0.79035246 0.692218 0.046122 -0.145843
1220 -0.14010642 9.88648857 0.68781834 0.834981 0.051813 -0.094647
1240 -0.45235872000000005 9.7519248 0.43424946000000003 0.99457 0.07208200000000001 0.026083
1260 -0.79364862 9.780511140000002 0.30506157000000006 1.140006 0.060318 0.177733
1280 -0.7119215100000001 9.891128700000001 0.29637972 1.200113 0.052052 0.327714
1300 -0.62015877 9.91597743 0.20896281000000003 1.099756 0.16162200000000002 0.452923
1320 -0.51088518 9.85311495 0.24578955000000002 0.8596540000000001 0.262144 0.564349
1340 -0.5742087300000001 9.875717190000001 0.16570071 0.796639 0.443625 0.523084
1360 -0.6822855 9.81119682 0.0865242 0.7410640000000001 0.503038 0.365591
1380 -0.79290306 9.716147730000001 -0.21135645000000003 0.557642 0.5227390000000001 0.127139
1400 -0.89828208 9.592649640000001 -0.6333336 0.391154 0.372607 -0.0127
1420 -0.9229836600000001 9.62064738 -0.9725241600000001 0.224571 0.311514 -0.041559
1440 -0.6911145000000001 9.3386295 -1.23957198 0.090729 0.184229 -0.062627
1460 -0.43604469000000007 9.22605975 -1.71094248 -0.051677 0.078169 -0.056009
1480 -0.52496253 9.090897570000001 -2.19174039 -0.16506600000000002 0.026306 -0.041779
1500 -0.9937824300000001 9.476489429999999 -2.48289138 -0.248459 -0.022367 -0.051913
1520 -1.3060347300000001 10.06342173 -2.53782738 -0.27562 -0.17231 -0.093571
1540 -1.51664562 10.74645279 -2.62404747 -0.260149 -0.339416 -0.142388
1560 -1.49284656 11.04208695 -2.57134815 -0.202926 -0.41105 -0.126941
1580 -1.3151678400000002 10.92099231 -2.41447644 -0.151444 -0.371729 -0.14799600000000002
1600 -0.8089129800000001 10.435397309999999 -2.3164353 -0.115398 -0.219383 -0.182123
1620 -0.28381311 10.249183890000001 -2.85561252 -0.072909 -0.009726 -0.168208
1640 -0.18486945000000002 9.557029530000001 -3.2280393600000004 -0.050939 0.139302 -0.159699
1660 -0.39892365 8.84300868 -3.2986909800000004 -0.043308 0.165946 -0.169294
1680 -0.49756320000000004 8.41789233 -2.8972265400000006 -0.020894 0.152083 -0.185143
1700 -0.5415708599999999 8.292755970000002 -2.56955292 0.018388 0.10509 -0.189082
1720 -0.64426194 8.23452381 -2.36778084 0.054249 0.005924 -0.196181
1740 -0.78436836 8.30966841 -2.48498091 0.041035 -0.088827 -0.199357
1760 -1.0124901 8.559646830000002 -2.6955918000000003 -0.032814 -0.11106 -0.169934
1780 -0.8940932100000001 8.88357303 -2.86249914 -0.09461 -0.05666 -0.134116
1800 -0.47002653 9.65357955 -2.91892626 -0.120129 -0.014054 -0.110848
1820 -0.36568737 10.42642116 -2.9011211100000005 -0.122339 -0.006687 -0.08630399999999999
1840 -0.33844500000000005 10.44692406 -2.8865925000000003 -0.100026 0.01013 -0.048782
1860 -0.5986062000000002 10.030793670000001 -2.8744771500000006 -0.102126 0.04518 -0.021067
1880 -0.8614553400000001 9.92616021 -2.8463322600000005 -0.075378 0.08547300000000001 0.002569
1900 -0.9196875 9.876158640000002 -2.9059083900000005 -0.029517 0.108642 0.029565
1920 -0.91205532 9.61061175 -2.99227563 0.020553 0.084 0.0214
1940 -0.8458868700000001 9.24432597 -3.08179188 0.066069 -0.013031 0.004751
1960 -0.82837602 9.080116380000002 -2.87567397 0.077641 -0.057779 -0.003657
1980 -0.61866765 8.93207367 -2.4050490300000003 0.082861 -0.11095 -0.031326
2000 -0.52211763 8.90033832 -1.9128715200000002 0.094548 -0.148169 -0.057902
2020 -0.65459187 9.02817243 -1.8829314000000001 0.101968 -0.163092 -0.062104
2040 -0.7890084900000001 9.30854223 -2.24817732 0.106317 -0.13757 -0.054629
2060 -0.7893126 9.87825798 -2.68257393 0.108561 -0.107772 -0.04931
2080 -0.6912616500000001 10.07030835 -2.9174351400000003 0.085095 -0.111929 -0.054810000000000005
2100 -0.6212084400000001 10.177639560000001 -2.9633851800000004 0.049855 -0.117141 -0.052913
2120 -0.53723484 9.943072650000001 -2.8256724 0.017748 -0.130912 -0.044574
2140 -0.7650622800000001 9.65866113 -2.63886057 -0.014339 -0.130873 -0.026638
2160 -1.04826717 9.49191075 -2.6229978000000003 -0.032504000000000005 -0.122347 -0.011821
2180 -1.03060917 9.44805024 -2.4081882300000004 -0.045288 -0.109553 -0.0033810000000000003
2200 -0.96144867 9.437121900000001 -2.32660827 -0.06119500000000001 -0.080765 0.003949
2220 -0.9924384600000001 9.54010728 -2.4204703500000004 -0.0686 -0.058402 0.012414
2240 -0.91175121 9.60702129 -2.50968249 -0.077126 -0.042449 0.026221
2260 -0.8340658200000001 9.61106301 -2.44860543 -0.07077699999999999 -0.05843300000000001 0.022013
2280 -0.9954305100000002 9.51721074 -2.2811094900000004 -0.065486 -0.083954 0.006059
2300 -1.0743127199999998 9.54400185 -2.2094082 -0.065457 -0.093477 -0.009951
2320 -1.04018373 9.57827799 -2.2472748 -0.058898 -0.060468 -0.012084
2340 -1.03285566 9.63082035 -2.29802193 -0.049138 -0.024287 -0.010994
2360 -0.9886910400000001 9.596995470000001 -2.35250667 -0.047014 -0.029608 -0.014177
2380 -0.9755260200000001 9.58532157 -2.41732134 -0.05342 -0.030651 -0.014221
2400 -1.0822490100000002 9.588313620000001 -2.4441222600000003 -0.064026 -0.014643000000000003 -0.012179
2420 -1.0827002700000001 9.5151114 -2.3830452 -0.064983 0.013045 -0.009016
2440 -1.0930302 9.4049451 -2.3135904000000003 -0.050936 0.057716 -0.003634000000000001
2460 -1.08150345 9.35135307 -2.2371018300000003 -0.034799000000000004 0.093854 0.002841
2480 -1.1192229 9.47260467 -2.28335598 -0.02093 0.106537 0.015740999999999998
2500 -1.10829456 9.719434080000001 -2.3683792500000003 -0.0070560000000000015 0.121347 0.029705
2520 -1.1473677899999999 9.79562835 -2.38379076 0.013248 0.143587 0.044774
2540 -1.13479137 9.72227898 -2.3564012400000003 0.026122000000000003 0.177558 0.06298
2560 -1.1193700500000001 9.65521782 -2.3755601700000004 0.034753 0.216871 0.08115
2580 -1.2049917300000001 9.58980474 -2.42750412 0.041159 0.235951 0.09933
2600 -1.2029022 9.544904370000001 -2.4328898100000007 0.045417 0.24547600000000006 0.111098
2620 -1.2039420600000001 9.469161360000001 -2.31119676 0.051746 0.232658 0.114363
2640 -1.19556432 9.53906742 -2.21644197 0.049574 0.22096 0.111158
2660 -1.16337771 9.620196120000001 -2.17707444 0.042121 0.22206 0.108968
2680 -1.12880727 9.672287220000001 -2.17018782 0.034662 0.221034 0.10571300000000003
2700 -1.12132224 9.79877736 -2.19264291 0.031462000000000004 0.217862 0.10249
2720 -1.11577959 9.823174830000001 -2.2132929600000004 0.033729 0.238133 0.092866
2740 -1.15545123 9.82257642 -2.2528174499999998 0.038193 0.259513 0.070437
2760 -1.1931706800000002 9.77692068 -2.1833626500000003 0.038289 0.252171 0.041605
2780 -1.21787226 9.699529590000001 -2.04639543 0.029687 0.217128 0.021294
2800 -1.2274468200000002 9.545797080000002 -1.9390642200000001 0.0242 0.17138699999999998 0.009563
2820 -1.2323910599999999 9.42290721 -1.91901258 0.022008 0.140574 -0.008572
2840 -1.21023027 9.42470244 -1.9495413 0.008302 0.148195 -0.03752
2860 -1.1546958600000001 9.449247060000001 -1.98038394 0.0032890000000000003 0.195183 -0.062184
2880 -1.06204041 9.433678590000001 -2.05596999 -0.001839 0.234642 -0.06867999999999999
2900 -1.03180599 9.536516820000001 -2.16853974 -0.012527 0.22193 -0.077284
2920 -0.9907903800000001 9.73739619 -2.2478732100000003 -0.0127 0.164483 -0.096439
2940 -1.0584499500000002 9.832602240000002 -2.3532522300000003 -0.002199 0.09427 -0.129391
2960 -1.14481719 9.768238830000001 -2.3695760700000004 0.029659 0.03461 -0.155798
2980 -1.15021269 9.71644203 -2.45639457 0.06376 0.029151 -0.152348
3000 -0.9993250800000001 9.72153342 -2.5098296400000004 0.079763 0.07259700000000001 -0.108495
3020 -0.7951495500000001 9.760008240000001 -2.59155675 0.092771 0.175653 -0.050852
3040 -0.73796706 9.764942670000002 -2.6147672099999997 0.079305 0.305501 -0.01052
3060 -0.74769858 9.70192323 -2.55503412 0.031569 0.366389 -0.010931
3080 -0.82284318 9.64145439 -2.44546623 -0.015349000000000003 0.354903 -0.028336
3100 -0.7328756700000001 9.55852065 -2.31613119 -0.050761 0.291183 -0.046661
3120 -0.69336099 9.46616931 -2.22122925 -0.095795 0.234906 -0.053313
3140 -0.7096750199999999 9.45613368 -2.25042381 -0.121596 0.197686 -0.047036
3160 -0.82777761 9.36287982 -2.2501197 -0.122941 0.15288 -0.029897000000000007
3180 -0.87627825 9.21199221 -2.37915063 -0.123018 0.16023900000000002 -0.005338
3200 -0.79230465 9.22097817 -2.70233127 -0.107048 0.181374 0.023589
3220 -0.55713933 9.61689996 -3.0181740300000004 -0.092079 0.213181 0.048222
3240 -0.31105548 9.80969589 -3.07370844 -0.06550299999999999 0.187539 0.044167000000000005
3260 -0.29069973 9.964330920000002 -2.9413813500000003 -0.049586 0.156637 0.032568
3280 -0.36673704 9.692642970000001 -2.56356882 -0.026072 0.150227 0.016717
3300 -0.54591669 9.36811836 -2.40265539 0.033562 0.105358 -0.003105
3320 -0.71281422 9.26932185 -2.4441222600000003 0.083479 0.042384 -0.015494999999999997
3340 -0.7442552699999999 9.30644289 -2.68721406 0.090851 0.026357 -0.010081
3360 -0.6719555700000001 9.353295450000001 -2.80771029 0.078015 0.030616 0.001574
3380 -0.6170195700000001 9.69503661 -2.94422625 0.062065 0.058305 0.01745
3400 -0.48559500000000005 9.831258270000001 -2.82237624 0.029079 0.09245 0.032131
3420 -0.46927115999999996 9.831258270000001 -2.4629770800000004 -0.008223000000000001 0.117017 0.047863
3440 -0.47795301 9.64938087 -2.22871428 -0.034852 0.146857 0.067935
3460 -0.53723484 9.4194639 -2.15791551 -0.042286 0.168133 0.081742
3480 -0.7111759500000001 9.36467505 -2.35221237 -0.041301 0.14895899999999998 0.080705
3500 -0.6999435 9.42694893 -2.35310508 -0.030805000000000006 0.099962 0.070159
3520 -0.54816318 9.57798369 -2.26404009 -0.021328 0.056316 0.054258
3540 -0.51837021 9.69219171 -2.38259394 -0.00533 0.042463 0.041569
3560 -0.47450970000000003 9.71509806 -2.4905235600000006 0.015018 0.043521 0.025686
3580 -0.36673704 9.73500255 -2.3287076100000004 0.024662 0.038221 0.010806
3600 -0.39667716000000003 9.66076047 -2.1634483500000004 0.030011000000000006 0.026544 -0.004097
3620 -0.43439661 9.623933730000001 -2.04849477 0.031092 0.020187 -0.013696000000000002
3640 -0.5095412100000001 9.696390390000001 -2.05926615 0.030026 0.017008000000000002 -0.016904
3660 -0.61866765 9.64893942 -2.17707444 0.024648 0.006378 -0.017996
3680 -0.71506071 9.61974486 -2.2472748 0.012874000000000002 -0.004225 -0.020201
3700 -0.8295728400000001 9.635911740000001 -2.26554102 0.003191 -0.020179 -0.018112
3720 -0.8270320499999999 9.518260410000002 -2.2848471000000004 -0.003249 -0.023373 -0.012811
3740 -0.80996265 9.44505819 -2.3384391300000003 -0.009654 -0.012745 -0.001119
3760 -0.8482903200000002 9.48413142 -2.3195745 -0.013917 0.00425 0.014852
3780 -0.93150855 9.60672699 -2.2558095 -0.013922 0.021222 0.03299
3800 -1.0186311599999998 9.71495091 -2.3067037800000003 -0.004344 0.029655 0.046933
3820 -0.960399 9.759409830000001 -2.3875381800000004 0.006296 0.026409 0.050217000000000005
3840 -0.8346642300000001 9.75356307 -2.4598378800000003 0.014807 0.014687 0.043882
3860 -0.74365686 9.751326390000001 -2.4441222600000003 0.017974 -0.00233 0.034312
3880 -0.7068301200000001 9.721239120000002 -2.42301114 0.02226 -0.006572 0.025801
3900 -0.6867686700000001 9.70177608 -2.35490031 0.030805000000000006 -0.0055320000000000005 0.024791
3920 -0.7021899899999999 9.63456777 -2.32915887 0.032977 0.005104 0.026929
3940 -0.64156419 9.568399320000001 -2.31508152 0.039359 -0.002362 0.023779
3960 -0.6011469899999999 9.54864198 -2.29967001 0.042521 -0.014079 0.020611
3980 -0.60698394 9.53876331 -2.3224194000000002 0.056352 -0.027954000000000003 0.015385
4000 -0.67150431 9.51601392 -2.35011303 0.068116 -0.024787 0.012258
4020 -0.7460505000000001 9.53022861 -2.3276579400000004 0.059577 -0.025822 0.0122
4040 -0.7933543200000001 9.46332441 -2.33289648 0.02326 -0.037405 0.009824
4060 -0.79709193 9.43622919 -2.3287076100000004 -0.036451 -0.02019 0.018999
4080 -0.7804737900000001 9.50133816 -2.3683792500000003 -0.026151 -0.084216 0.037313
4100 -0.73347408 9.580073220000001 -2.4667245 0.201616 -0.204327 0.040126
4120 -0.7113231000000001 9.616154400000001 -2.5509924 0.331322 0.275233 0.14724
4140 -0.65683836 9.59998752 -2.5697098800000004 -0.118329 0.313384 0.054319000000000006
4160 -0.6210612900000001 9.55014291 -2.57629239 -0.265332 -0.557721 -0.157099
4180 -0.54666225 9.53861616 -2.57569398 -0.409123 -0.567619 -0.221116
4200 -0.50085936 9.59489613 -2.65113288 -0.411416 -0.13402 -0.227029
4220 -0.46418958 9.680821920000001 -2.69918226 -0.322952 -0.08241699999999999 -0.154906
4240 -0.38036313000000005 9.73380573 -2.69694558 -0.26610900000000004 -0.192583 -0.093479
4260 -0.34398765000000003 9.71868852 -2.74469085 -0.232305 -0.242868 -0.068609
4280 -0.3101529600000001 9.71509806 -2.9990151 -0.198232 -0.270633 -0.08115499999999999
4300 -0.24952716000000003 9.67842828 -2.8497755700000003 -0.15088800000000002 -0.183437 -0.08307200000000001
4320 -0.21840003000000002 9.652225770000001 -2.93001156 -0.100482 -0.109108 -0.06679199999999999
4340 0.12573477 10.06297047 -3.55345668 -0.054544 -0.07526000000000001 -0.046218
4360 0.76865274 10.28795301 -4.225412250000001 0.019988 -0.059738 0.003421
4380 0.14459940000000002 9.38847411 -0.7815234600000001 0.05839 -0.042901 0.021827000000000003
4400 -2.49920541 8.60231052 -1.98442566 0.086243 -0.012126 0.027324
4420 -1.38027681 9.08086194 -3.8926570500000004 0.092798 0.030428 0.035861000000000004
4440 -0.50759883 9.65881809 -1.5766730100000002 0.123593 0.00685 0.044652
4460 0.042065280000000004 10.00130481 -0.25880742 0.15745499999999998 -0.050811 0.049235
4480 -0.04027005 9.89636724 -1.65810582 0.181839 -0.077558 0.056917
4500 -0.5017520700000001 9.796373910000002 -3.1058950500000004 0.206252 -0.08730399999999999 0.07526000000000001
4520 -0.98510058 9.52723656 -2.74499496 0.221011 -0.1151 0.087149
4540 -1.15754076 9.42680178 -2.2492269900000004 0.18812 -0.069199 0.092202
4560 -1.06309008 9.278003700000001 -1.96421706 0.13272 -0.06151 0.082191
4580 -1.02626334 9.38338272 -1.82590587 0.099523 -0.095457 0.075593
4600 -0.8008393500000001 9.77077962 -1.82110878 0.065355 -0.099608 0.07749600000000001
4620 -0.6099857999999999 9.747431820000001 -2.08830375 0.030258 -0.070739 0.081487
4640 -0.76401261 9.56346489 -2.11180851 0.003692 -0.039783 0.088739
4660 -0.73033488 9.55014291 -1.9074858300000002 -0.021908 -0.033324 0.093893
4680 -0.62794791 9.60178275 -1.8844323300000003 -0.034739 -0.043914 0.089544
4700 -0.55728648 9.66929517 -2.0303757 -0.027252 -0.044985 0.084257
4720 -0.61671546 9.76464837 -2.09578878 -0.004771 -0.035446 0.076924
4740 -0.64859796 9.72003249 -2.10881646 0.024092 -0.023824 0.076043
4760 -0.76401261 9.68890536 -2.1459375 0.041286 -0.007858 0.06439199999999999
4780 -0.85188078 9.651774510000001 -2.338733430000001 0.02017 0.018938 0.041777
4800 -0.9379537200000001 9.57559005 -2.0697432300000003 0.010726 0.033966 0.021396
4820 -1.10575377 9.56750661 -2.1395021400000003 0.034422 0.065914 0.003361
4840 -1.1343401100000001 9.526491 -2.28619107 0.05913300000000001 0.080836 -0.019987
4860 -0.9867486599999999 9.60702129 -2.2870935900000005 0.074141 0.070238 -0.046574
4880 -0.8911011600000001 9.69474231 -2.34112707 0.113596 0.039314 -0.072964
4900 -0.8809183800000001 9.639953460000001 -2.38214268 0.168058 0.066756 -0.056596
4920 -0.89514288 9.61854804 -2.36388627 0.245867 0.063237 -0.043229
4940 -0.8852544000000001 9.67498497 -2.40160572 0.263052 0.100415 -0.031406
4960 -0.91639134 9.66090762 -2.50533666 0.201433 0.18362 -0.006306
4980 -0.9855518400000001 9.67317993 -2.60443728 0.107688 0.262586 0.041008
5000 -1.01473659 9.648782460000001 -2.7470844899999998 0.028774 0.29366 0.06391799999999999
5020 -1.1081474100000002 9.64115028 -2.8601055 -0.059824 0.284378 0.06437899999999999
5040 -1.22998761 9.584271900000001 -2.7264344400000002 -0.176236 0.254966 0.061467
5060 -1.24855794 9.5669082 -2.49500673 -0.26592 0.239304 0.059792999999999985
5080 -1.28208852 9.47349738 -2.35819647 -0.298916 0.236305 0.03927
5100 -1.3450981499999999 9.55133973 -2.39711274 -0.305202 0.20566 -0.01735
5120 -1.2873270600000002 9.64968498 -2.49097482 -0.310445 0.165442 -0.078224
5140 -1.17655254 9.83843919 -2.6879596200000004 -0.283735 0.137797 -0.114322
5160 -0.88331202 9.60118434 -2.77792713 -0.249567 0.126032 -0.13222799999999998
5180 -0.83676357 9.715549320000001 -3.00186 -0.208858 0.185456 -0.109587
5200 -0.74679606 9.60986619 -2.90007144 -0.13303900000000002 0.248915 -0.06106900000000001
5220 -0.7114702500000001 9.42934257 -2.70113445 -0.094551 0.260524 -0.067224
5240 -0.59501574 9.21633804 -2.51671626 -0.036907 0.295366 -0.039092
5260 -0.5418749700000001 9.230258430000001 -2.44876239 0.006825 0.341889 0.010292
5280 -0.52974981 9.23968584 -2.3532522300000003 0.050394 0.329911 0.037317
5300 -0.51911577 9.28384065 -2.1335180400000002 0.114315 0.313692 0.042057
5320 -0.45745011 9.3354903 -1.93726899 0.141837 0.259292 0.035910000000000004
5340 -0.68392377 9.430392240000002 -1.8567387 0.116113 0.228506 0.031497000000000004
5360 -0.95980059 9.31542885 -1.83069315 0.071108 0.200901 0.047241000000000005
5380 -1.1945146500000001 9.345810420000001 -1.8029995200000002 0.038752 0.130676 0.054583000000000007
5400 -1.28223567 9.468857250000001 -1.88981802 0.026758 0.074254 0.055639
5420 -1.33822134 9.69713595 -1.99774764 0.019275 0.062596 0.047056
5440 -1.3739886 9.9432198 -1.99519704 0.007534999999999998 0.056267 0.041641
5460 -1.04228307 10.02465261 -2.232756 0.009717 0.059485 0.034175
5480 -0.7893126 10.10503575 -2.50294302 0.018324 0.058458 0.017145
5500 -0.40940073 10.041722009999999 -2.6728424100000003 0.023763 0.062777 -0.0020510000000000003
5520 -0.28695231 9.962977140000001 -2.65098573 0.032346 0.059607000000000014 -0.015874
5540 -0.34892208 9.816582510000002 -2.66745672 0.047258 0.042557 -0.027498
5560 -0.48364281 9.66121173 -2.6945421300000003 0.058879 0.009523 -0.034852
5580 -0.59845905 9.588460770000001 -2.58901596 0.058764 -0.025592 -0.044422
5600 -0.46358136 9.5148171 -2.4141821400000003 0.043794 -0.03618 -0.047718
5620 -0.36359784 9.49625658 -2.3224194000000002 0.017151 -0.028634 -0.046845
5640 -0.33351057 9.51362028 -2.32511715 -0.008425 -0.011543 -0.036364
5660 -0.37661571000000005 9.61945056 -2.3257155600000003 -0.01905 0.013997 -0.020447
5680 -0.52211763 9.552683700000001 -2.2444299 -0.027556 0.042699 0.001889
5700 -0.6381208800000001 9.59400342 -2.2968251100000003 -0.053247 0.052261 0.03054
5720 -0.62898777 9.600585930000001 -2.34202959 -0.076876 0.047958 0.061358
5740 -0.6843750300000001 9.65028339 -2.3659758 -0.077198 -0.002194 0.082785
5760 -0.72419382 9.64653597 -2.38274109 -0.041982 0.009362 0.09263
5780 -0.78601644 9.65073465 -2.44291563 0.021237 0.077289 0.100462
5800 -0.78841008 9.631870020000001 -2.49336846 0.076718 0.104686 0.12752
5820 -0.79859286 9.57932766 -2.5210620900000005 0.009966 0.195515 0.11518699999999997
5840 -0.77987538 9.47485116 -2.51791308 -0.085622 -0.03708 0.02295
5860 -0.70039476 9.430235280000002 -2.4498022500000003 -0.115036 -0.246538 -0.051762
5880 -0.6126737400000001 9.418414230000002 -2.41028757 -0.27720900000000004 -0.247041 -0.051826
5900 -0.53888292 9.40284576 -2.4496551 -0.347684 -0.25746 -0.0491
5920 -0.48364281 9.433080180000001 -2.5450083 -0.245963 -0.133349 -0.0058200000000000005
5940 -0.42377238 9.42709608 -2.6313755400000005 -0.212862 -0.07826699999999999 0.043479
5960 -0.38799531000000004 9.40195305 -2.64304944 -0.262455 -0.163436 0.073152
5980 -0.42047622 9.4197582 -2.7505278000000004 -0.311766 -0.184693 0.10381300000000003
6000 -0.43858548 9.4863681 -2.9274609600000003 -0.374332 -0.07167000000000001 0.132073
6020 -0.37751823000000007 9.615850290000001 -3.22713684 -0.424345 -0.027879 0.146623
6040 -0.36329373000000004 9.76599234 -3.17759634 -0.4330520000000001 -0.065137 0.147678
6060 -0.34892208 9.68546205 -3.0744540000000002 -0.408769 -0.111072 0.158589
6080 -0.40744854 9.44880561 -2.7785255400000004 -0.38957 -0.102655 0.168326
6100 -1.0159334100000001 9.30749256 -2.5727019300000005 -0.366969 -0.08346100000000001 0.14389000000000002
6120 -1.3497480900000003 9.3790467 -3.1871709000000004 -0.345435 -0.072751 0.11091199999999997
6140 -0.84604383 9.3241107 -2.28814326 -0.363189 -0.008686 0.089341
6160 -0.4326013800000001 9.5466996 -1.97215335 -0.377005 -0.026628 0.059358
6180 -0.28216503000000004 9.90655002 -2.2210821000000003 -0.3811 6.6e-05 0.047544
6200 -0.2555210700000001 9.91972485 -2.37106719 -0.373483 0.045795 0.060358
6220 -0.50265459 9.703875420000001 -2.7226870200000004 -0.372522 0.044636 0.082798
6240 -0.8243343 9.58532157 -3.03613614 -0.389774 0.027558 0.106201
6260 -0.6725539800000001 9.52589259 -2.3833395 -0.400558 0.02431 0.12856199999999998
6280 -0.6101329500000001 9.369462330000001 -1.68923295 -0.378043 0.05616 0.136156
6300 -0.7262931600000001 9.44041806 -1.6040625300000002 -0.364145 0.052954 0.126643
6320 -0.64620432 9.65851398 -1.93562091 -0.360949 0.038084 0.112798
6340 -0.53034822 9.879003540000001 -1.8208144800000001 -0.36316 0.033780000000000004 0.125607
6360 -0.77374413 9.74518533 -1.7830950300000001 -0.379307 0.001878 0.12553499999999998
6380 -0.9404945100000001 9.815689800000001 -1.63714185 -0.386813 -0.012985 0.119092
6400 -0.9466355700000001 9.850711500000001 -1.54209276 -0.371743 0.001937 0.104223
6420 -1.06952544 9.87002739 -1.5566115600000001 -0.399443 0.020105 0.11362
6440 -1.07521524 9.78529842 -1.4642504099999998 -0.385617 0.016835 0.12013
6460 -0.83645946 9.9056475 -1.16337771 -0.361146 -0.018324 0.10005
6480 -0.61642116 9.70282575 -1.08105219 -0.35561 0.032765 0.106433
6500 -0.47945394 9.82062423 -1.09063656 -0.326656 0.06038200000000001 0.101258
6520 -0.45594918 9.64938087 -1.12072383 -0.29130100000000003 0.082673 0.090795
6540 -0.35925201 9.79368597 -0.9587607300000001 -0.25918 0.096456 0.079251
6560 -0.34847082000000007 9.66749994 -0.8240400000000001 -0.240996 0.118716 0.0911
6580 -0.36164565000000004 9.97136469 -0.8821152000000001 -0.227179 0.12286500000000003 0.107214
6600 -0.32182686000000005 9.59549454 -0.6483036600000001 -0.206938 0.128074 0.119099
6620 -0.14804271000000002 9.89667135 -0.5224119300000001 -0.20592800000000006 0.114226 0.118056
6640 -0.21840003000000002 9.934842060000001 -0.44217594000000005 -0.199594 0.091863 0.110651
6660 -0.27917298 9.92855385 -0.26884305000000003 -0.209388 0.028065 0.0893
6680 -0.33320646000000004 9.60941493 -0.13142457 -0.202852 0.066359 0.097843
6700 -0.22108797000000002 9.938138219999999 -0.15552774 -0.194246 0.072759 0.088281
6720 -0.21959685 9.89667135 -0.10583028000000001 -0.18042 0.05994 0.085189
6740 -0.29593827000000006 9.77077962 -0.028439190000000003 -0.182673 0.028011 0.079873
6760 -0.14969079000000002 9.98154747 0.11256975000000001 -0.161254 0.042863 0.076799
6780 -0.3008727 9.74248758 0.06945480000000001 -0.145333 0.033185 0.08546799999999999
6800 -0.27228636 9.77661657 0.16375833 -0.124068 0.029864 0.09844
6820 -0.22139208000000002 9.895327380000001 0.24968412 -0.102654 0.052138 0.103902
6840 0.23636214000000003 10.03318731 0.21675195 -0.073892 0.051999 0.113717
6860 0.18800865000000003 9.90355797 0.44143038000000007 -0.05907100000000001 0.031686 0.11918800000000003
6880 0.26315325 9.96866694 0.47660904000000004 -0.041967 0.049693 0.129966
6900 0.18831276000000002 9.95983794 0.43110045 -0.019645 0.037871 0.136547
6920 0.15956946 9.88948062 0.5418749700000001 -0.028481 -0.056797 0.108832
6940 -0.05852646 9.95969079 0.5252568299999999 -0.028064 0.050735 0.123653
6960 0.3094074 9.92570895 0.70697727 -0.034446 0.036982 0.105466
6980 0.22992678000000003 9.893973599999999 0.7743425400000001 -0.038675 0.030665 0.090489
7000 0.21435831 9.86613282 0.6385721400000001 -0.033317 0.026423 0.08091799999999999
7020 0.13321980000000003 9.87466752 0.6215027399999999 -0.023658 0.038112 0.079903
7040 0.22708187999999999 9.94666311 0.7641597600000001 -0.016075 0.065774 0.082057
7060 0.31464594 9.926454510000001 0.6882696 -0.00743 0.089184 0.08101900000000001
7080 0.3526695 9.81643536 0.6227093699999999 -0.00398 0.14138399999999998 0.077771
7100 0.33095997000000005 9.88170129 0.6857288100000001 -0.007022 0.180793 0.081972
7120 0.34473321000000007 9.836045550000001 0.55744344 -0.004745 0.212743 0.081947
7140 0.45056349000000007 9.87227388 0.48394692000000006 0.005986 0.224433 0.079871
7160 0.5194198800000001 9.875717190000001 0.6738979500000001 -0.000554 0.167037 0.053193
7180 0.53183934 9.94621185 0.5334874200000002 0.0008439999999999999 0.24372 0.05630900000000001
7200 0.07304525999999999 10.027644660000002 0.40969503 0.00945 0.274523 0.071285
7220 0.88450884 9.89667135 0.7174543500000001 0.016818 0.246821 0.06603099999999999
7240 0.53049537 9.872715330000002 0.8095212000000002 0.017884999999999998 0.24045100000000005 0.059637
7260 0.51432849 9.895621680000001 0.74799288 0.010417 0.230929 0.049983
7280 0.45774441000000005 9.882446850000001 0.78826293 0.003896 0.202197 0.047838
7300 0.53588106 9.89232552 0.77972823 0.010235 0.178777 0.038298
7320 0.4912749900000001 9.94457358 0.7908037200000001 0.023114 0.196838 0.039433
7340 0.33500169 9.891285660000001 0.73407249 0.026223000000000003 0.17870899999999998 0.041615
7360 0.34652844000000005 9.83843919 0.83241774 0.021999 0.173457 0.026637
7380 0.41433516000000004 9.90176274 0.8704413 0.028414 0.170264 0.020277
7400 0.4340925 9.94381821 0.86355468 0.029934 0.014805 0.001258
7420 0.44981793 9.9056475 0.84888873 0.047397 0.13498800000000002 0.034341
7440 0.5110421400000001 9.886939830000001 0.9096616800000001 0.056793 0.10506300000000003 0.050469
7460 0.36704115 9.85819653 0.8385588 0.061921 0.043323 0.03456
7480 0.6942537000000001 9.817033770000002 0.8918467200000001 0.048057 0.031705000000000004 0.021659
7500 0.6117810300000001 9.823920390000001 0.77972823 0.043813 0.026436 0.010954
7520 0.59815494 9.80490861 0.69664734 0.044789 -0.0022960000000000003 0.002452
7540 0.7276371300000001 9.843677730000001 0.74155752 0.043775 0.006243 -0.0007700000000000001
7560 0.7463448 9.90340101 0.67344669 0.033030000000000004 -0.019252 -0.009359
7580 0.80233047 10.00369845 0.69336099 0.038474 -0.004319 -0.018954
7600 0.72703872 9.78560253 0.6704546400000001 0.049354 0.029784 -0.03174
7620 0.7292852099999999 9.81373761 0.53543961 0.056846 0.037206 -0.029561
7640 0.8231374800000001 9.89816247 0.64141704 0.053559 0.035018 -0.012489
7660 0.8556183900000001 9.849965939999999 0.6712002000000001 0.049186 0.027513 0.003513
7680 0.9292718700000001 9.86194395 0.58962024 0.048177 0.036055 -0.000778
7700 1.01833686 9.74473407 0.58049694 0.051679 0.08617999999999999 -0.017909
7720 1.31381406 9.92256975 0.70293555 0.05387 0.086224 -0.030713
7740 0.97911648 9.82616688 0.65084445 0.051842 0.10224 -0.038225
7760 0.6905160899999999 9.81164808 0.62794791 0.036892 0.090608 -0.04686
7780 0.63707121 9.94412232 0.6963530400000001 0.030371 0.045962 -0.06500800000000001
7800 0.6599775600000001 9.906844320000001 0.58662819 0.025017 0.020499 -0.086377
7820 0.71087184 9.93783411 0.5953100400000001 0.025993 -0.013537 -0.100214
7840 0.6072880500000001 9.890235990000003 0.52480557 0.022706 -0.038006 -0.105547
7860 0.5565409200000001 9.94202298 0.48498678000000006 0.021692 -0.033711 -0.11303699999999997
7880 0.52824888 9.90056592 0.36119439 0.02174 -0.030486000000000006 -0.120518
7900 0.64995174 9.81538569 0.37168128 0.029357 -0.004915999999999999 -0.127975
7920 0.90711108 9.76149936 0.5599842300000001 0.045436 0.00889 -0.13108499999999998
7940 1.0300107600000001 9.78919299 0.57959442 0.059238 -0.014561 -0.139505
7960 0.81535815 9.7929306 0.37048446 0.064611 -0.015606 -0.14908
7980 0.77119353 9.79189074 0.51642783 0.060339 -0.027267000000000003 -0.159777
8000 0.7068301200000001 9.847121040000001 0.39981636000000004 0.061247 -0.073034 -0.17039400000000002
8020 0.82612953 9.938285370000001 0.47122335000000004 0.068552 -0.112462 -0.173497
8040 0.8985861900000001 9.91792962 0.53992278 0.074877 -0.129529 -0.173431
8060 0.84813336 9.867928049999998 0.6560829899999999 0.070504 -0.150828 -0.171298
8080 0.87881904 9.86283666 0.6474011400000002 0.071638 -0.14016199999999998 -0.175577
8100 0.8722365300000001 9.9315459 0.58138965 0.090693 -0.163703 -0.165799
8120 0.80562663 9.896072940000002 0.5923179900000001 0.116695 -0.112511 -0.203071
8140 0.7536826799999999 9.90939492 0.58947309 0.127393 -0.106156 -0.203005
8160 0.5921708400000001 9.88110288 0.47630493 0.127388 -0.108283 -0.20407
8180 0.52001829 9.845629920000002 0.39038895 0.13045 -0.133881 -0.198675
8200 0.58109535 9.86658408 0.4288539600000001 0.14086400000000002 -0.176585 -0.18466
8220 0.6297431400000001 9.873313740000002 0.27901602 0.160355 -0.118041 -0.18994
8240 0.7018858800000001 9.84262806 0.41404086 0.179559 -0.111742 -0.183405
8260 0.8295728400000001 9.84876912 0.49217751000000004 0.198873 -0.090491 -0.186502
8280 0.93869928 9.879307650000001 0.4337982 0.228922 -0.05012 -0.185276
8300 1.02776427 9.96163317 0.50624505 0.244973 -0.043767 -0.189444
8320 0.9963232200000001 9.914486310000001 0.5977036800000001 0.254551 -0.051249 -0.191504
8340 0.80787312 9.88020036 0.57884886 0.274917 -0.028953 -0.190323
8360 0.5092371000000001 9.954903510000001 0.6039918900000002 0.304943 0.011397 -0.183755
8380 0.23770611 10.01971818 0.5544513900000002 0.346684 0.059116 -0.165365
8400 -0.20716758000000002 9.873765 0.34817652000000004 0.385207 0.098341 -0.151259
8420 0.054936000000000006 9.905353200000002 0.53843166 0.4311680000000001 0.119477 -0.148829
8440 -0.06811083000000001 9.852359580000002 0.5643300600000001 0.464217 0.102364 -0.160327
8460 -0.01212516 9.86089428 0.5110421400000001 0.49107 0.151239 -0.151656
8480 0.10956789 9.87242103 0.5063922000000001 0.44532 0.19289 -0.138142
8500 0.06436341000000001 9.914633460000001 0.40849821 0.40921 0.244089 -0.123505
8520 0.17887554 9.887391090000001 0.5194198800000001 0.376185 0.259102 -0.119482
8540 -0.02170953 9.955197810000001 0.42391953000000004 0.33351 0.256068 -0.122981
8560 -0.14309847 9.966273300000001 0.37377081000000006 0.29196 0.245654 -0.146758
8580 -0.26539974000000005 9.94172868 0.30536568000000003 0.263227 0.25006300000000004 -0.15871500000000002
8600 -0.29653668000000005 9.932448420000002 0.23935419000000002 0.2493 0.225657 -0.170532
8620 -0.35176698 9.899212140000001 0.23440995 0.247056 0.210713 -0.160914
8640 -0.46058931000000003 9.93109464 0.18710613 0.265198 0.240361 -0.131983
8660 -0.51882147 9.9315459 0.028586340000000002 0.293873 0.250756 -0.092272
8680 -0.6391705499999999 9.84577707 -0.14998509000000002 0.340681 0.260021 -0.052433000000000014
8700 -0.79484544 9.85909905 -0.29788065 0.374926 0.309863 -0.025552
8720 -0.78915564 9.82646118 -0.45909819 0.384672 0.34072600000000003 -0.026592
8740 -0.896634 9.780511140000002 -0.62420049 0.386079 0.405746 -0.037347000000000005
8760 -0.7099693200000001 9.81538569 -0.45714600000000005 0.359657 0.463355 -0.035469
8780 -0.8930435400000001 9.9170271 -0.54936 0.334802 0.3995 -0.029152
8800 -0.83047536 9.96522363 -0.6050415600000001 0.294849 0.289928 -0.032495
8820 -0.8297199900000001 9.998008650000001 -0.6914088 0.258236 0.22397 -0.023052
8840 -0.83870595 9.871077060000001 -0.7426071900000001 0.212943 0.149426 0.009842
8860 -0.89273943 9.933792390000002 -0.8252368200000001 0.191237 0.104611 0.047135
8880 -0.9026181 9.854910180000001 -0.79589511 0.171822 0.079026 0.068397
8900 -0.86325057 9.80820477 -0.8327218500000001 0.149169 0.036443 0.081112
8920 -0.77613777 9.69249582 -0.97013052 0.106245 -0.015619 0.084083
8940 -0.7439511600000001 9.683666820000001 -1.1229605100000002 0.09205 -0.082703 0.089411
8960 -0.77733459 9.53292636 -1.36037232 0.103872 -0.070997 0.082001
8980 -0.8502327000000002 9.6104646 -1.61589339 0.2164 0.044713 0.085844
9000 -1.0036611 9.501936570000002 -1.7351927999999999 0.347883 0.115572 0.100558
9020 -1.1192229 9.533828880000002 -1.67487111 0.364896 0.062411 0.060153
9040 -1.15589268 9.640404720000001 -1.5500290500000002 0.334932 -0.034117 -0.016845
9060 -0.98405091 9.604029240000001 -1.54807686 0.295181 -0.139266 -0.06078500000000001
9080 -0.74739447 9.815238540000001 -1.74507147 0.229867 -0.196541 -0.066509
9100 -0.5794472700000001 9.8535564 -1.7724609900000001 0.13391199999999998 -0.184479 -0.06933099999999999
9120 -0.38335518 9.69847992 -1.73743929 0.054892 -0.218219 -0.08799900000000001
9140 -0.33126408 9.755515260000001 -1.7648288100000002 0.014107 -0.295748 -0.111686
9160 -0.36419625 9.668843910000001 -1.97739189 -0.016038999999999998 -0.368035 -0.123554
9180 -0.41942655 9.59893785 -2.24877573 -0.040869 -0.4297470000000001 -0.120444
9200 -0.47346984000000003 9.560315880000001 -2.49904845 -0.055991999999999986 -0.4627520000000001 -0.111961
9220 -0.5089428 9.640551870000001 -2.74588767 -0.059226 -0.434124 -0.075701
9240 -0.44936667 9.813139200000002 -2.9999078100000007 -0.061254 -0.423413 -0.088548
9260 -0.43274853 10.03768029 -3.1039428600000005 -0.075989 -0.352094 -0.062036
9280 -0.58213521 9.92690577 -2.79019944 -0.083169 -0.26268800000000003 -0.036564
9300 -0.79919127 9.59489613 -2.18365695 -0.09059 -0.250949 -0.035563
9320 -1.2253474800000002 9.4399668 -1.9709467200000002 -0.112879 -0.209389 -0.019748
9340 -1.19107134 9.497453400000001 -2.1495279600000003 -0.1215 -0.24551 -0.036854000000000005
9360 -0.8020361700000002 9.62409069 -2.45923947 -0.102176 -0.211518 -0.029285
9380 -0.6009998400000001 9.77766624 -2.71146438 -0.058306 -0.189275 -0.035416
9400 -0.604296 9.60687414 -2.68601724 -0.004862 -0.17664000000000002 -0.044673
9420 -0.60578712 9.42948972 -2.45908251 0.037937 -0.15121400000000002 -0.046543
9440 -0.6017454 9.25435179 -2.35190826 0.062542 -0.114105 -0.023986
9460 -0.63467757 9.08176446 -2.2703283 0.059332 -0.092883 -0.000535
9480 -0.7427543400000001 9.0983826 -2.35221237 0.040037 -0.100323 0.012159
9500 -0.79305021 9.26663391 -2.5801869600000003 0.016562 -0.080087 0.033333
9520 -0.79499259 9.56645694 -2.7641538900000002 -0.001494 -0.041755 0.053454
9540 -0.79469829 9.584870310000001 -2.7711876600000003 -0.017447999999999998 -0.015131 0.069332
9560 -0.90621837 9.63486207 -2.7005360400000002 -0.037685 -0.002298 0.074515
9580 -0.8852544000000001 9.52304769 -2.35071144 -0.052621 0.003059 0.07974500000000001
9600 -1.2359815200000002 9.48397446 -2.33200377 -0.049378 0.009452 0.076555
9620 -1.2114270900000004 9.60432354 -2.232756 -0.025753 0.034970999999999995 0.068142
9640 -1.22086431 9.63755982 -2.2073088600000004 6.2e-05 0.065838 0.052259
9660 -1.31741433 9.651774510000001 -2.38648851 0.007726999999999999 0.09145 0.03412
9680 -1.3350723300000003 9.64265121 -2.44321974 0.017482 0.113834 0.022409
9700 -1.37354715 9.64848816 -2.5709067000000005 0.032567 0.136195 0.011803
9720 -1.4112666 9.66360537 -2.6508385800000003 0.052000000000000005 0.17559 0.000138
9740 -1.41380739 9.632174130000001 -2.6714984399999997 0.061928 0.236323 -0.011621
9760 -1.13015124 9.632017170000001 -2.43004491 0.06325399999999999 0.284295 -0.021287
9780 -1.5067669500000003 9.64983213 -2.4772015800000005 0.0517 0.325877 -0.020353
9800 -1.2249060300000003 9.55358622 -2.2870935900000005 0.02511 0.348323 -0.016294
9820 -1.1999003400000001 9.53457444 -2.21165469 -0.007981 0.352666 -0.007984999999999999
9840 -1.2250531800000002 9.47140785 -2.1595635900000003 -0.036825 0.353793 0.001426
9860 -1.27145448 9.52230213 -2.1516273 -0.062526 0.341066 0.009808
9880 -1.3248993599999999 9.63022194 -2.17392543 -0.071137 0.335722 0.021506
9900 -1.3671117899999998 9.72048375 -2.20776012 -0.051886 0.34843 0.02376
9920 -1.43805771 9.759409830000001 -2.27152512 0.001582 0.379123 0.027299
9940 -1.53955197 9.76224492 -2.2113505800000004 0.06047 0.448071 0.050055
9960 -1.5820587000000002 9.7263207 -2.15088174 0.112862 0.488309 0.06532400000000001
9980 -1.56529341 9.671688810000001 -2.05732377 0.166094 0.463621 0.065728
10000 -1.54388799 9.732010500000001 -2.01944736 0.232086 0.426119 0.063032
10020 -1.5405918300000003 9.783650340000001 -2.01331611 0.233225 0.436789 0.057685
10040 -1.5045204600000002 9.71000667 -1.9815807600000002 0.152268 0.446732 0.038947
10060 -1.42698222 9.55133973 -1.8788896800000001 0.026177 0.374845 0.010385
10080 -1.3051322100000002 9.39206457 -1.82979063 -0.064712 0.32192800000000005 0.00234
10100 -1.20020445 9.32530752 -1.7661727800000002 -0.142953 0.245489 0.005096
10120 -1.08134649 9.269773110000001 -1.7597374200000002 -0.193325 0.192409 0.002676
10140 -0.9737209800000001 9.32351229 -1.80194985 -0.207242 0.182866 0.003659
10160 -0.9078664500000001 9.43204032 -1.82291382 -0.213725 0.163718 0.00257
10180 -0.8464852800000001 9.580828590000001 -1.9284399900000002 -0.194603 0.134931 -0.007942
10200 -0.81430848 9.82676529 -2.12303115 -0.1478 0.081593 -0.029979
10220 -0.8119148400000001 10.11611124 -2.2688273700000003 -0.073273 0.026024 -0.050752
10240 -0.79005816 10.032588900000002 -2.2403881800000005 0.000379 0.028984 -0.055582000000000006
10260 -0.8994789 9.70746588 -2.2040127000000003 0.043015 0.025617 -0.049939
10280 -1.03389552 9.52634385 -2.3424808500000003 0.040896 0.03837 -0.040356
10300 -1.0759608 9.477244800000001 -2.57584113 0.02175 0.076684 -0.014901
10320 -1.0955709900000001 9.3645279 -2.6583236100000005 0.020299 0.013748 0.0076019999999999985
10340 -1.0084483800000001 9.182954610000001 -2.40774678 0.16838699999999998 -0.019845 0.021498
10360 -0.88795215 9.15436827 -2.2722706800000005 0.267818 0.32153200000000004 0.079439
10380 -0.6980011199999999 9.35958366 -2.36508309 -0.031313 0.42502 0.03342
10400 -0.51283737 9.53966583 -2.4149277000000002 -0.1506 -0.201218 -0.1653
10420 -0.46493514 9.63471492 -2.57509557 -0.065249 -0.512279 -0.239081
10440 -0.45849978 9.743390100000001 -2.70023193 -0.173239 -0.289412 -0.201665
10460 -0.4300605900000001 9.78904584 -2.7536768100000004 -0.21828000000000006 -0.014771 -0.112601
10480 -0.39203703 9.86972328 -2.8692288 -0.151039 0.057167 -0.045994
10500 -0.46762308 9.864033480000002 -2.90396601 -0.10018 0.0004440000000000001 -0.024201
10520 -0.63258804 9.8068608 -2.88704376 -0.127052 -0.051631 -0.0318
10540 -0.7442552699999999 9.735306660000001 -2.83121505 -0.129157 -0.057964 -0.044625
10560 -0.75638043 9.590256 -2.7644481900000004 -0.089679 -0.058097 -0.045417
10580 -0.72598905 9.47304612 -2.86219503 -0.044794 -0.028478 -0.032323000000000005
10600 -0.6460571700000001 9.521703720000001 -2.99886795 -0.013831 -0.009466 -0.018244
10620 -0.5622307200000001 9.542353770000002 -2.6309242800000003 0.007434 -0.011727 -0.0042060000000000005
10640 -0.33470739 9.81373761 -2.99856384 0.017051 0.003106 0.007593000000000002
10660 0.06316659000000001 10.130934150000002 -3.35781585 0.019165 0.004143 0.012947
10680 0.38155995000000004 9.67767291 -2.32062417 0.01274 0.006266 0.020377000000000003
10700 -0.7804737900000001 8.82384975 -0.6723970199999999 0.003042 -0.010762 0.024604
10720 -1.91392119 8.90947143 -2.3659758 0.004061 -0.021418 0.024625
10740 -1.0075556700000001 9.69338853 -3.11382153 0.021275 0.011541 0.025771
10760 -0.36599148000000004 9.840234420000002 -1.7486619300000001 0.037455 0.062571 0.037569
10780 -0.11047041 9.79353882 -1.31112612 0.05662 0.06247000000000001 0.046249
10800 -0.3505701600000001 9.68156748 -1.9336785300000001 0.051324 0.06888899999999999 0.044067
10820 -0.6968043 9.78275763 -2.7116115300000003 0.055534 0.050785 0.038779
10840 -0.96788403 9.568399320000001 -2.47256145 0.073585 0.029425 0.036796
10860 -1.09647351 9.352854 -2.20566078 0.067241 0.045414 0.039936
10880 -1.04512797 9.44700057 -2.0975840100000003 0.043852 0.065727 0.041883
10900 -0.84604383 9.616605660000001 -2.1095620200000003 0.023706 0.097739 0.045974
10920 -0.6860231099999999 9.752817510000002 -2.0181033900000003 -0.005023 0.111701 0.042551
10940 -0.66282246 9.740545200000001 -2.13411645 -0.020935 0.122448 0.032812
10960 -0.7577244000000001 9.67647609 -2.04429609 -0.02415 0.10547 0.018924
10980 -0.8015849100000001 9.60956208 -2.042206560000001 -0.024245 0.067189 0.001881
11000 -0.75742029 9.609120630000001 -2.08201554 -0.015821 0.026743 -0.014032
11020 -0.78481962 9.708358590000001 -2.14323975 0.003282 -0.013732 -0.032006
11040 -0.80218332 9.75087513 -2.10851235 0.020232 -0.055277 -0.04679
11060 -0.87881904 9.67154166 -1.9746941400000002 0.029666 -0.094717 -0.04881
11080 -0.8421492600000001 9.60702129 -1.9411635600000001 0.045487 -0.125704 -0.039045
11100 -0.8749342800000001 9.636814260000001 -2.19862701 0.058117 -0.147122 -0.021838
11120 -0.89678115 9.593405010000001 -2.23679772 0.048481 -0.13226400000000002 0.000508
11140 -0.9304686900000001 9.55358622 -2.15461935 0.017629 -0.098127 0.015204
11160 -0.96788403 9.61376076 -2.20745601 -0.009009 -0.081028 0.02461
11180 -0.88166394 9.60268527 -2.2091040900000003 -0.03038 -0.086289 0.026604000000000003
11200 -0.8361651600000001 9.52214517 -2.00283903 -0.040054 -0.110722 0.018022
11220 -0.9654903900000001 9.61555599 -1.96017534 -0.035782 -0.11816 0.009515
11240 -1.1337417 9.707917140000001 -2.0279820600000003 -0.025046 -0.102222 0.010638
11260 -1.20274524 9.71644203 -2.13531327 -0.020678 -0.079867 0.01064
11280 -1.13852898 9.68740443 -2.1752792100000002 -0.016309999999999998 -0.051145 0.017043
11300 -1.00471077 9.72213183 -2.24817732 -0.00333 0.000957 0.029886000000000006
11320 -0.8066763 9.77437008 -2.19398688 0.005377000000000001 0.052009000000000014 0.0427
11340 -0.6406714800000001 9.71644203 -2.1125540700000003 -0.026686 0.040399 0.043559
11360 -0.50999247 9.660162060000001 -2.10118428 -0.043669 0.06706000000000001 0.050884
11380 -0.42945237 9.602234010000002 -2.14189578 -0.029172000000000007 0.21611 0.060408
11400 -0.37795968 9.55342926 -2.23455123 -0.040272 0.102237 0.042317
11420 -0.38694564000000004 9.55538145 -2.32406748 -0.003644 0.15441400000000002 0.0158
11440 -0.43274853 9.545345820000001 -2.3643375300000002 0.01875 0.133107 -0.003244
11460 -0.5298969600000001 9.47949129 -2.30535981 0.029505 0.14269600000000002 -0.012795
11480 -0.65309094 9.43862283 -2.21389137 0.032854 0.172525 -0.016015
11500 -0.7518874500000001 9.49116519 -2.18470662 0.020138 0.184317 -0.023596
11520 -0.8502327000000002 9.57154833 -2.23455123 0.012675 0.189653 -0.019382
11540 -0.9229836600000001 9.743841360000001 -2.34083277 -0.00118 0.200324 -0.012015
11560 -0.91055439 9.76240188 -2.430192060000001 -0.010901 0.175848 -0.009915
11580 -0.97357383 9.69773436 -2.5304895000000003 -0.024718 0.185492 -0.012161
11600 -1.00201302 9.59579865 -2.5158137400000005 -0.023694 0.180145 -0.007873999999999999
11620 -1.04273433 9.544453110000001 -2.4831856800000005 -0.025722 0.205711 -0.005784
11640 -1.2073853700000001 9.52603974 -2.31344325 -0.011997 0.182192 0.002887
11660 -1.3558793400000002 9.5034375 -2.2528174499999998 0.031902999999999994 0.218254 0.004215999999999999
11680 -1.3102235999999998 9.57723813 -2.41148439 -0.027278 0.084325 -0.018458
11700 -1.34061498 9.80760636 -2.31134391 -0.031292 0.13125 -0.028161
11720 -1.3986901800000002 9.933792390000002 -1.9519447500000002 0.07175 0.295902 -0.000946
11740 -1.3239968400000002 9.71779581 -2.47405257 0.07460599999999999 0.219191 -0.000828
11760 -1.25050032 9.533671920000002 -2.01930021 0.005852 0.101237 -0.013976
11780 -1.14496434 9.49789485 -2.0969856 0.016597 0.12673199999999998 -0.005388
11800 -1.2359815200000002 9.50793048 -2.01241359 -0.002664 0.102345 -0.017241
11820 -1.3187583 9.60432354 -1.96137216 -0.018657 0.097104 -0.024824
11840 -1.01922957 9.55119258 -2.09803527 -0.031555 0.073722 -0.02702
11860 -0.96758973 9.596691360000001 -2.04340338 -0.032694 0.056685 -0.028075
11880 -1.10155509 9.649233720000002 -2.08860786 -0.018839 0.050258 -0.031174
11900 -1.0473744600000001 9.62228565 -2.14115022 0.000211 0.016103 -0.030998
11920 -0.98988786 9.65342259 -2.1371085 0.008684 -0.01263 -0.045857
11940 -0.9135464400000001 9.7231815 -2.14668306 0.022519 -0.026501 -0.052152
11960 -0.9322639200000001 9.69802866 -2.05792218 0.029839 -0.060611 -0.053125
11980 -0.89454447 9.73560096 -2.16913815 0.032881 -0.070312 -0.027454000000000003
12000 -0.9529139700000001 9.6972831 -2.01525849 0.017613999999999998 -0.12678699999999998 -0.010397
12020 -0.80802027 9.968225490000002 -2.58048126 0.008046 -0.118236 -0.009406
12040 -0.7226928900000001 9.62034327 -2.30086683 0.029469 -0.08428200000000001 0.005655
12060 -1.0027683900000002 9.833946209999999 -1.7305526699999998 0.039186 -0.044956 0.019559
12080 -0.9800091900000001 9.518260410000002 -2.0993890500000005 0.033727 -0.067329 0.024891
12100 -0.8402068800000001 9.55612701 -2.5134201000000003 0.039898 -0.101508 0.042069
12120 -0.76011804 9.54655245 -2.2617936 0.061389 -0.061128 0.048577
12140 -0.6905160899999999 9.49445154 -2.31808338 0.008873 -0.079195 0.083485
12160 -0.67270113 9.58277097 -2.25775188 -0.000781 -0.087697 0.086633
12180 -0.6598304100000001 9.646094520000002 -2.38034745 -0.097499 -0.256683 0.072287
12200 -0.5557953599999998 9.63546048 -2.4441222600000003 -0.113468 -0.26720700000000003 0.054029
12220 -0.5203224 9.65447226 -2.4370786800000004 0.004896 -0.289953 0.045271
12240 -0.43274853 9.699529590000001 -2.4498022500000003 0.026463 -0.245261 0.038955
12260 -0.39412656000000007 9.656571600000001 -2.4671659500000005 0.01625 -0.142963 0.039821
12280 -0.35910486 9.67827132 -2.47211019 -0.003699 -0.074702 0.036389
12300 -0.46762308 9.64474074 -2.49246594 -0.008898999999999999 -0.050161 0.030981
12320 -0.52840584 9.51242346 -2.4025082400000004 -0.024792 -0.03197 0.024437
12340 -0.57569985 9.505831140000002 -2.4827344200000003 -0.03004 -0.018082 0.019041
12360 -0.6152243399999999 9.54684675 -2.351457 -0.016046 0.01275 0.022304
12380 -0.48559500000000005 9.53831205 -2.33454456 -0.011659 0.038305 0.021234
12400 -0.48034665000000004 9.4920579 -2.31508152 -0.004076 0.058541 0.01592
12420 -0.48873420000000006 9.49475565 -2.40654996 0.003488 0.07345399999999999 0.009544
12440 -0.6019023600000001 9.549544500000001 -2.42360955 0.009995 0.095806 0.008493
12460 -0.6692578200000001 9.59984037 -2.2679346600000003 0.021879 0.128788 0.008534
12480 -0.9225324 9.516759480000001 -2.3243617800000003 0.031629000000000004 0.162839 0.009626
12500 -1.0506608100000001 9.47679354 -2.18755152 0.035978 0.180934 0.009633
12520 -1.19286657 9.66106458 -2.5753898700000004 0.040246 0.18198 0.01073
12540 -1.0591955100000001 9.7291656 -2.34188244 0.036944 0.157498 0.008602
12560 -0.97641873 9.72018945 -2.34083277 0.014301 0.102191 0.006378
12580 -1.1332904400000001 9.747726120000001 -2.11809672 -0.0029230000000000003 0.071346 0.009502
12600 -1.08599643 9.72691911 -1.9540342800000001 -0.007243 0.059643 0.009487
12620 -1.2633710399999998 9.62064738 -1.9297839600000002 0.007741 0.070243 0.009578
12640 -1.2760946100000001 9.51106968 -2.03591835 0.024873 0.08509299999999999 0.010747
12660 -1.2433194000000003 9.46720917 -2.03276934 0.037647 0.081839 0.014044999999999998
12680 -1.2332837700000001 9.49805181 -2.0570196600000004 0.045062 0.073278 0.017312
12700 -1.1856856500000001 9.55059417 -2.06825211 0.046076 0.066862 0.022669
12720 -1.1951130600000002 9.57408912 -2.07603144 0.04388 0.06257 0.032273
12740 -1.21113279 9.63546048 -2.0796219000000002 0.038508 0.06361499999999999 0.041848
12760 -1.18104552 9.72003249 -2.09473911 0.035254 0.060397 0.050375
12780 -1.1681748 9.74264454 -2.1442894200000007 0.025581 0.054000000000000006 0.05993
12800 -1.1150340300000001 9.764795520000002 -2.13411645 0.015888 0.042282 0.068423
12820 -1.08942993 9.70521939 -2.15431524 0.015782 0.0337 0.083388
12840 -1.03659327 9.6944382 -2.16913815 0.018983 0.035811 0.08554400000000001
12860 -0.9813629700000001 9.668245500000001 -2.1514801500000003 0.022184 0.032617 0.082366
12880 -0.9922913100000001 9.63007479 -2.16105471 0.015778 0.035818 0.08659
12900 -0.9547190100000001 9.61540884 -2.1670388099999998 0.00188 0.035841000000000005 0.092903
12920 -0.9404945100000001 9.592051230000001 -2.22811587 -0.018362 0.047608 0.098087
12940 -0.87373746 9.61076871 -2.17452384 -0.037599 0.050829 0.108631
12960 -0.80113365 9.647732790000001 -2.13935499 -0.057892999999999986 0.056183 0.119164
12980 -0.7725473100000001 9.68126337 -2.10357792 -0.081398 0.046686 0.116876
13000 -0.74679606 9.699529590000001 -2.14743843 -0.11127 0.037242 0.107065
13020 -0.77599062 9.74803023 -2.20821138 -0.120833 0.037309 0.098453
13040 -0.7683486300000001 9.7231815 -2.1999709800000002 -0.087622 0.035195 0.065573
13060 -0.7837699500000002 9.65806272 -2.20177602 -0.03746 -0.010586 0.015775
13080 -0.7750881000000001 9.62064738 -2.2080544200000003 -0.0074870000000000015 -0.028638 -0.024585
13100 -0.8156524500000002 9.55957032 -2.18186172 0.02029 -0.040372000000000005 -0.044672
13120 -0.8436501900000001 9.488614590000001 -2.20790727 0.037412 -0.053117 -0.069105
13140 -0.8214894 9.36661743 -2.24234037 0.042698 -0.075459 -0.08079
13160 -0.79170624 9.314526330000001 -2.32361622 0.036321 -0.057378 -0.068039
13180 -0.82837602 9.4453623 -2.3833395 0.009861 0.017172999999999997 -0.040546
13200 -0.77403843 9.59444487 -2.48797296 -0.02315 0.059784 -0.011989
13220 -0.70084602 9.661506030000002 -2.58272775 -0.051257 0.001197 0.011391
13240 -0.67643874 9.700579260000001 -2.6450016300000003 -0.003666 -0.07997699999999999 0.023578
13260 -0.6598304100000001 9.7348554 -2.59365609 0.065045 0.050671 0.059141999999999986
13280 -0.6712002000000001 9.764795520000002 -2.6018866800000002 -0.058944 0.22585300000000005 0.047369
13300 -0.5718150900000001 9.69519357 -2.6258427 -0.181949 0.073216 -0.036616
13320 -0.49352148 9.65148021 -2.6479936800000003 -0.142511 -0.256817 -0.121375
13340 -0.42796125 9.57439323 -2.52599652 -0.131603 -0.239665 -0.157641
13360 -0.41568894000000006 9.46825884 -2.45115603 -0.127129 -0.177958 -0.141665
13380 -0.38410074000000005 9.361683000000001 -2.40280254 -0.177118 -0.129902 -0.128189
13400 -0.52810173 9.604176390000001 -2.4370786800000004 -0.187423 -0.038294 -0.117696
13420 -0.6620769 9.62543466 -2.45235285 -0.165042 -0.032027999999999994 -0.105798
13440 -0.6598304100000001 9.70686747 -2.5313822100000003 -0.150174 -0.028957 -0.087538
13460 -0.67329954 9.69488946 -2.58377742 -0.15545 0.0008210000000000001 -0.070521
13480 -0.6963530400000001 9.67348404 -2.62778508 -0.131979 0.009227 -0.061822
13500 -0.5701670100000001 9.68575635 -2.6210456100000004 -0.114972 0.001685 -0.055285
13520 -0.38275677 9.66195729 -2.41642863 -0.088176 0.046265 -0.038063
13540 -0.38364948 9.633665250000002 -2.2763124 -0.046482 0.08333099999999999 -0.019659
13560 -0.4128440400000001 9.61735122 -2.43752994 0.00368 0.100149 -0.006512
13580 -0.34772526 9.79038981 -2.79513387 0.034561 0.094685 0.001188
13600 -0.11286405000000001 9.91867518 -3.0680186400000005 0.047364 0.104189 0.01088
13620 -0.09265545000000001 9.65327544 -2.28515121 0.062367 0.133905 0.025901
13640 -0.6939594 9.21902598 -1.09886715 0.079408 0.14018599999999998 0.038831
13660 -1.3703981400000003 9.24552279 -1.71558261 0.091105 0.150721 0.058127
13680 -1.2156257700000002 9.831709530000001 -2.8327061700000007 0.098559 0.171902 0.082721
13700 -0.8753757300000001 9.97181595 -2.38783248 0.125202 0.187698 0.10532
13720 -0.6511485600000001 9.6796251 -1.96481547 0.17223 0.225807 0.124827
13740 -0.6454587600000001 9.61450632 -1.4272863300000003 0.18287 0.226805 0.132378
13760 -0.89768367 9.61151427 -1.52487621 0.173206 0.203441 0.122726
13780 -0.97342668 9.62917227 -1.93607217 0.158159 0.160955 0.104516
13800 -0.9249260400000001 9.58755825 -1.98891864 0.15704 0.140753 0.095988
13820 -0.92836935 9.64997928 -1.8914661000000002 0.173062 0.143897 0.095028
13840 -0.97027767 9.696988800000002 -1.8911718000000002 0.204068 0.162947 0.099493
13860 -0.8628091200000001 9.73755315 -1.82739699 0.196624 0.182092 0.113303
13880 -0.7442552699999999 9.736199370000001 -1.68578964 0.192045 0.127719 0.128296
13900 -0.74739447 9.768385980000001 -1.7807013900000002 0.1876 0.092563 0.132583
13920 -0.7776288900000001 9.76988691 -1.92229893 0.184361 0.070259 0.118702
13940 -0.76296294 9.747578970000001 -1.94790303 0.164167 0.057666 0.088667
13960 -0.75562506 9.712704420000001 -1.8567387 0.116322 0.052674 0.046679000000000005
13980 -0.7667103599999999 9.6799194 -1.7063023499999999 0.053511 0.040281 0.003527
14000 -0.77478399 9.67662324 -1.73279916 -0.006181 0.014011 -0.035312
14020 -0.77104638 9.66420378 -1.8372756600000002 -0.066939 -0.013315 -0.075226
14040 -0.79469829 9.63441081 -1.82620017 -0.138328 -0.029961 -0.113091
14060 -0.85037985 9.67647609 -2.0210954400000003 -0.220361 -0.034876 -0.144636
14080 -0.8126604000000001 9.696684690000001 -2.0073222 -0.302423 -0.02178 -0.151636
14100 -0.77059512 9.66030921 -2.02334193 -0.351537 0.003821 -0.117828
14120 -0.7605693 9.65507067 -2.00777346 -0.345323 0.018487 -0.061188
14140 -0.75652758 9.695635020000001 -2.0041830000000003 -0.288933 0.022397 -0.022343
14160 -0.6479995499999999 9.73979964 -2.0534292 -0.170415 0.06663 0.001929
14180 -0.55354887 9.84951468 -2.20955535 -0.028475 0.07997 0.006108
14200 -0.44217594000000005 9.951754500000002 -2.34906336 0.083503 0.028612 -0.034705
14220 -0.43394535 9.791135370000001 -2.39786811 0.167473 -0.051535 -0.044698
14240 -0.5965068599999999 9.824371650000002 -2.49186753 0.211913 -0.14751 -0.058151
14260 -0.5468094 9.70521939 -2.55084525 0.20233 -0.123056 -0.037953
14280 -0.45056349000000007 9.54191232 -2.61266787 0.159737 -0.07296699999999999 -0.006268
14300 -0.4391838900000001 9.39086775 -2.48603058 0.087133 -0.064277 0.014578
14320 -0.48034665000000004 9.26064 -2.30356458 0.009132 -0.070477 0.034337
14340 -0.5194198800000001 9.151817670000002 -2.14983207 -0.055971000000000014 -0.055417 0.054159000000000006
14360 -0.55040967 9.086855850000001 -2.16659736 -0.098703 -0.048953 0.073081
14380 -0.5674692600000001 9.08535492 -2.1435438600000003 -0.113648 -0.040421 0.083647
14400 -0.60623838 9.1214361 -2.0895005700000002 -0.114624 -0.0223 0.081481
14420 -0.6253973100000001 9.206459370000001 -1.9740957300000002 -0.102759 -0.009494 0.065524
14440 -0.6698562300000002 9.38593332 -1.9785887100000001 -0.08456 -0.016929 0.044296
14460 -0.6468027300000001 9.909993329999999 -2.13486201 -0.052516 -0.032921 0.019972
14480 -0.44921952000000004 10.33451127 -2.49366276 -0.020496 -0.048936 0.0009880000000000002
14500 -0.40206285 10.59137631 -2.84393862 -1e-05 -0.009558 -0.007465
14520 -0.49262877000000005 10.545416460000002 -2.91488454 0.021457 0.015947 -0.010553
14540 -0.64455624 10.150240230000001 -2.8542685500000005 0.026911 0.044682 -0.008415
14560 -0.99168309 9.661506030000002 -2.93688837 0.031294 0.07235499999999999 -0.006283
14580 -0.7982887500000001 9.42649767 -2.9653373700000003 0.034533 0.08511 -0.002004
14600 -0.83990277 9.381587490000001 -2.85561252 0.027036 0.091477 0.010754
14620 -0.65713266 9.37575054 -2.50923123 0.009909 0.090424 0.022386
14640 -0.57256065 9.44460693 -2.21149773 -0.000813 0.08511 0.028727
14660 -0.54561258 9.47215341 -1.9923521400000002 -0.002975 0.084031 0.034055
14680 -0.5878250100000001 9.48172797 -1.83967911 -0.000822 0.088284 0.034064
14700 -0.5418749700000001 9.379341 -1.7943176699999999 0.006679000000000001 0.091471 0.02984
14720 -0.5644772100000001 9.402698610000002 -1.9785887100000001 0.020587 0.09464 0.024592
14740 -0.5923179900000001 9.55583271 -2.18501073 0.03449 0.096743 0.019345
14760 -0.69845238 9.751169430000001 -2.34817065 0.046206 0.089258 0.016232
14780 -0.8610138900000001 9.849965939999999 -2.44531908 0.054688 0.07220499999999999 0.010972
14800 -1.01758149 9.84307932 -2.45040066 0.052516 0.059447 0.0067
14820 -1.1530477800000003 9.80490861 -2.34052866 0.042905 0.056289 0.005569
14840 -1.25963343 9.689346810000002 -2.18874834 0.022634 0.060603 0.009694
14860 -1.1247655500000002 9.564956010000001 -2.12677857 -0.003018 0.057467 0.016996999999999998
14880 -1.0578515400000001 9.57918051 -2.20027509 -0.026571 0.048989 0.026457
14900 -0.91758816 9.59400342 -2.22811587 -0.044847000000000005 0.030892000000000006 0.039171
14920 -0.81175788 9.635911740000001 -2.19652767 -0.066289 0.024506 0.056121
14940 -0.78541803 9.66899106 -2.18111616 -0.078082 0.02874 0.073125
14960 -0.6330294900000001 9.65057769 -2.13321393 -0.08240700000000001 0.037192 0.094448
14980 -0.5626819800000001 9.57408912 -2.03396616 -0.082474 0.041376 0.113671
15000 -0.558189 9.48233619 -2.01451293 -0.075049 0.050861 0.132938
15020 -0.5686660799999999 9.48368016 -2.09429766 -0.06547599999999999 0.060351 0.149016
15040 -0.59306355 9.552536550000001 -2.20281588 -0.050545 0.073027 0.162991
15060 -0.6114769200000002 9.64564326 -2.31523848 -0.049521 0.071923 0.171546
15080 -0.59141547 9.692790120000002 -2.40744267 -0.076303 0.049638 0.173524
15100 -0.55938582 9.696086280000001 -2.3920213500000003 -0.087121 0.017713 0.174557
15120 -0.5644772100000001 9.73021527 -2.38349646 -0.081992 -0.018563 0.184253
15140 -0.5547456900000001 9.69773436 -2.433193920000001 -0.047714 0.016454 0.188721
15160 -0.49667049 9.65148021 -2.45025351 0.032335 0.029997000000000006 0.195672
15180 -0.5192727300000001 9.57483468 -2.39935923 -0.020481 0.131448 0.17915
15200 -0.49083354000000007 9.48368016 -2.32990443 -0.122675 0.090627 0.086621
15220 -0.5070004200000001 9.492813270000001 -2.29548114 -0.119141 -0.194389 -0.035834
15240 -0.48199473000000004 9.442664550000002 -2.2987674900000004 -0.107007 -0.162246 -0.092407
15260 -0.51253326 9.421857540000001 -2.3354470800000002 -0.229332 -0.07343 -0.085897
15280 -0.47002653 9.44835435 -2.32017291 -0.281685 -0.110451 -0.106512
15300 -0.44786574 9.44880561 -2.30909742 -0.31243200000000004 -0.078342 -0.11745
15320 -0.45250587000000003 9.461225070000001 -2.35475316 -0.371091 -0.061144 -0.10506300000000003
15340 -0.46029501 9.552830850000001 -2.42795538 -0.434386 -0.099431 -0.065932
15360 -0.45116190000000006 9.62722989 -2.4656748299999998 -0.467588 -0.093065 -0.030921
15380 -0.46463103000000006 9.66599901 -2.5409665800000005 -0.515731 -0.085589 0.006121
15400 -0.45909819 9.61076871 -2.5727019300000005 -0.5403789999999999 -0.094089 0.021983000000000003
15420 -0.44906256 9.584723160000001 -2.54486115 -0.535275 -0.131448 0.035954
15440 -0.48184758000000005 9.5555286 -2.5565350500000004 -0.53662 -0.168826 0.060561
15460 -0.5177718 9.57903336 -2.6271866700000004 -0.546058 -0.127269 0.06578300000000001
15480 -0.48529089000000003 9.552987810000001 -2.70173286 -0.524783 -0.140131 0.067017
15500 -0.32856633 9.71928693 -2.94243102 -0.506786 -0.168965 0.069316
15520 -0.2573163 9.89308089 -2.78151759 -0.489706 -0.164772 0.07156599999999999
15540 -0.23860863000000002 9.693094230000002 -2.7256790700000004 -0.483185 -0.13498 0.074778
15560 -0.66028167 9.43472826 -1.80658998 -0.464967 -0.11269 0.07915
15580 -1.4563239300000002 9.4746942 -2.1197448 -0.452414 -0.154335 0.093178
15600 -1.52786826 9.6827643 -3.1261036500000006 -0.446998 -0.12775599999999998 0.101727
15620 -0.85951296 9.73066653 -2.1547665 -0.390263 -0.08428200000000001 0.103136
15640 -0.74005659 9.918223919999999 -2.0251371600000003 -0.37982 -0.133326 0.10434
15660 -0.71536482 9.84802356 -1.9249966800000002 -0.36063 -0.128101 0.11301300000000003
15680 -0.83212344 9.73650348 -1.71049122 -0.338221 -0.118626 0.121703
15700 -0.6611743800000001 9.760155390000001 -1.84042467 -0.338169 -0.104786 0.123822
15720 -0.37347651000000004 9.799974180000001 -2.0258827200000002 -0.338054 -0.084524 0.118456
15740 -0.34892208 9.878709240000001 -1.7052526800000003 -0.32096 -0.086685 0.111101
15760 -0.30806343 9.80057259 -1.3985430300000004 -0.31977300000000003 -0.065362 0.105741
15780 -0.35506314 9.77287896 -1.22280669 -0.306889 -0.052602 0.100473
15800 -0.34503732000000004 9.75341592 -1.1443659300000002 -0.290858 -0.048389 0.098443
15820 -0.20252745000000003 9.90939492 -1.0699767 -0.287638 -0.048383 0.094193
15840 -0.35042301000000003 9.9315459 -1.0593426599999998 -0.275778 -0.020727 0.09424
15860 -0.38574882000000005 9.88289811 -0.9939295800000001 -0.261861 -0.006940000000000001 0.097524
15880 -0.5029587000000001 9.77661657 -0.9113097600000001 -0.239404 0.007883 0.100867
15900 -0.47691315 9.72572229 -0.74485368 -0.207388 0.010963 0.102155
15920 -0.40655583 9.862091099999999 -0.40220999999999996 -0.172148 0.009808 0.093857
15940 -0.40026762 9.736954740000002 -0.53558676 -0.14648599999999998 0.034173 0.105755
15960 -0.30506157000000006 9.850417199999999 -0.51568227 -0.114485 0.045728 0.118783
15980 -0.20687328 9.85864779 -0.20642202000000004 -0.08997100000000001 0.059414 0.138164
16000 -0.329616 9.780815250000002 -0.15897105 -0.082594 0.054002 0.153178
16020 -0.29503575000000004 9.927955440000002 -0.28231218 -0.067725 0.024182 0.13836500000000002
16040 -0.25282332 9.87301944 -0.18666468 -0.065371 0.07954299999999999 0.14472000000000002
16060 -0.21929274 9.87496182 0.03128409 -0.07699099999999999 0.086052 0.125402
16080 -0.32841918 9.78515127 0.19774017000000002 -0.07798200000000001 0.082941 0.105103
16100 -0.31988447999999997 9.90490194 0.16466085 -0.091731 0.106438 0.101772
16120 -0.23620518 10.034236980000001 0.21989115 -0.091697 0.1192 0.107097
16140 -0.25776756 10.07884305 0.46358136 -0.077771 0.129813 0.105044
16160 -0.26061246000000005 9.9025083 0.43349409 -0.06705900000000001 0.138302 0.10404
16180 -0.23007393000000004 9.87601149 0.43454376000000006 -0.067232 0.070244 0.07421599999999999
16200 -0.18636057 9.88574301 0.58528422 -0.055954 0.211861 0.080523
16220 -0.14100894 9.855351630000001 0.64650843 -0.060015 0.262988 0.08577
16240 -0.09100737 9.869272020000002 0.64770525 -0.050543 0.224643 0.076271
16260 -0.02410317 9.938138219999999 0.55429443 -0.050471 0.233195 0.06878300000000001
16280 0.02365191 9.950704830000001 0.6009998400000001 -0.054666999999999986 0.246006 0.06553300000000001
16300 0.06960195000000002 9.935891730000002 0.56072979 -0.054844 0.17688299999999998 0.035710000000000006
16320 0.17408826000000002 9.964330920000002 0.58318488 -0.052471 0.246054 0.051661
16340 0.27303192 9.80895033 0.6855718500000001 -0.050375 0.227975 0.042085
16360 0.4128440400000001 9.851015610000001 0.6500988900000001 -0.038755 0.21297800000000006 0.052867
16380 0.37960776 9.90340101 0.75413394 -0.024972 0.202243 0.061523
16400 0.40071888000000006 9.90071307 0.72718587 -0.014452 0.163877 0.056305
16420 0.5408253000000001 10.10713509 0.66715848 -0.006940999999999999 0.171316 0.054211
16440 0.27707364 9.96447807 0.79110783 -0.007998 0.171329 0.052067
16460 0.24174783000000002 9.92436498 0.8390100600000001 -0.015538 0.14688800000000002 0.0435
16480 0.37841094 9.931398750000001 0.97612443 -0.011266 0.13945 0.034994
16500 0.43484787 9.81119682 0.9110056500000001 -0.010347 0.089447 0.017973
16520 0.36209691 9.77632227 0.83676357 -0.009118 0.14476 0.037139
16540 0.38155995000000004 9.9340965 0.7438040100000001 0.002575 0.134071 0.036166
16560 0.30311919 9.926758620000001 0.83107377 0.010038 0.13404100000000002 0.037286
16580 0.30491442 9.84068568 0.9563572800000001 0.010052 0.13087 0.030881
16600 0.49143195 9.86852646 0.9113097600000001 0.009029 0.13834000000000002 0.028728
16620 0.39084021 9.978398460000001 0.74155752 0.01642 0.126574 0.034136
16640 0.44293130999999997 9.942778350000001 0.85277349 0.014195 0.111647 0.03948
16660 0.56507562 9.862689510000001 1.00889964 0.014118 0.089297 0.034167
16680 0.23785326 9.91478061 0.80187921 0.015166 0.078667 0.027779
16700 0.8273263500000001 10.039318560000002 0.9843550200000001 0.009808 0.072298 0.026681
16720 0.6460571700000001 9.89772102 1.0036611 0.016281 0.08931499999999999 0.027773000000000003
16740 0.7461976499999999 9.90236115 1.01489355 0.022658 0.074418 0.018223
16760 0.7319731500000001 9.799071660000001 0.94214259 0.021678 0.084047 0.008589
16780 0.4742154 9.759409830000001 0.89124831 0.021726 0.090456 0.004309
16800 0.36314658000000005 9.83948886 0.94319226 0.029227 0.097887 0.004352
16820 0.41045040000000005 9.87196977 1.00770282 0.034547 0.098916 0.00866
16840 0.39802113000000006 9.91956789 0.9479795400000001 0.042068 0.105303 0.003364
16860 0.4252635 9.82646118 1.0177384500000002 0.047431 0.106371 -0.001941
16880 0.33978897 9.80162226 1.04617764 0.045278 0.103178 -0.000884
16900 0.7611677099999999 9.76090095 1.06638624 0.054856 0.102062 0.003457
16920 0.52615935 9.84353058 0.9936352800000001 0.065419 0.08389400000000001 0.008895
16940 0.5468094 9.951008940000001 0.8940932100000001 0.071806 0.078554 0.006809999999999999
16960 0.53618517 9.8677809 0.94947066 0.075002 0.071112 0.000433
16980 0.49411989 9.883496520000001 0.98839674 0.08141699999999999 0.06898 -0.004861
17000 0.55309761 9.81434583 0.9229836600000001 0.08029800000000001 0.0509 -0.011255
17020 0.64261386 9.80940159 0.96340086 0.082441 0.054084 -0.010176
17040 0.6373753200000001 9.8822997 0.95666139 0.082383 0.04024 -0.011227
17060 0.5945644800000001 9.820928339999998 0.9159498899999999 0.08343099999999999 0.032792 -0.014413999999999996
17080 0.56567403 9.87496182 0.90621837 0.089861 0.032795 -0.020779
17100 0.54471987 9.91178856 0.9744763500000001 0.092067 0.042401 -0.027185
17120 0.46313991000000004 9.92181438 0.8702941500000001 0.09211 0.044561 -0.034664999999999994
17140 0.39996351 9.84412899 0.83421297 0.086857 0.054201 -0.04326
17160 0.44786574 9.87196977 1.00456362 0.08697200000000001 0.078707 -0.044359
17180 0.5294457 9.89322804 0.97791966 0.093349 0.073358 -0.044307
17200 0.6212084400000001 9.97734879 1.00201302 0.096574 0.077612 -0.045358
17220 0.5870794500000001 9.93498921 0.94498749 0.100889 0.082945 -0.050676
17240 0.58947309 9.863739180000001 0.97507476 0.113735 0.08718200000000001 -0.055933
17260 0.58932594 9.827069400000001 1.01069487 0.119198 0.107438 -0.064467
17280 0.6273495000000001 9.870625800000001 1.01877831 0.126777 0.127669 -0.068712
17300 0.6679138500000001 9.900860220000002 0.93150855 0.135292 0.118073 -0.073982
17320 0.6542877600000001 9.866731230000001 0.93555027 0.14485599999999998 0.11163900000000003 -0.07177
17340 0.57854475 9.836496810000002 0.91175121 0.167245 0.10305999999999997 -0.07694400000000001
17360 0.55833615 9.84547296 0.9229836600000001 0.176718 0.063654 -0.08751
17380 0.5846858100000001 9.949508009999999 0.86699799 0.17890899999999998 0.067942 -0.096046
17400 0.57450303 9.86897772 0.85576554 0.183129 0.051969000000000015 -0.101337
17420 0.64710684 9.839783160000001 0.83975562 0.180928 0.032819 -0.1056
17440 0.59141547 9.86014872 0.79574796 0.192668 0.028538 -0.110854
17460 0.58394025 9.832307940000002 0.8735805000000001 0.193673 0.015747 -0.10976199999999997
17480 0.53408583 9.89801532 0.76490532 0.205408 0.021011 -0.104346
17500 0.50908995 9.948016890000002 0.8009865 0.218249 0.026306 -0.107468
17520 0.47316573 9.888283800000002 0.74155752 0.223554 0.016712 -0.110623
17540 0.48723327000000005 9.82721655 0.8572664700000001 0.23119 0.048666 -0.115952
17560 0.5330459700000001 9.946967220000001 0.78601644 0.252623 0.067774 -0.117963
17580 0.53543961 9.861198390000002 0.79154928 0.263369 0.074171 -0.128578
17600 0.49038228 9.925561799999999 0.7925989500000001 0.27951 0.101825 -0.131706
17620 0.46807434000000003 9.91223982 0.66267531 0.28160100000000005 0.086925 -0.13701300000000002
17640 0.49951539 9.93678444 0.77044797 0.298719 0.087969 -0.146509
17660 0.45415395000000003 9.90879651 0.65803518 0.313712 0.092212 -0.15495499999999998
17680 0.51148359 9.93693159 0.53843166 0.337064 0.082474 -0.137688
17700 0.5234616000000001 9.948311190000002 0.53393868 0.364783 0.08766499999999999 -0.127887
17720 0.68392377 9.98394111 0.56402595 0.395784 0.119443 -0.109552
17740 0.67449636 9.91747836 0.53020107 0.40097 0.110804 -0.084935
17760 0.57435588 9.88260381 0.39263544 0.408577 0.125756 -0.100925
17780 0.56627244 9.86972328 0.57749508 0.406635 0.168374 -0.100993
17800 0.59845905 9.91283823 0.39263544 0.436478 0.149146 -0.113578
17820 0.56851893 9.96074046 0.38469915000000005 0.4578350000000001 0.173491 -0.093164
17840 0.47077209 9.920617560000002 0.46613196000000007 0.464682 0.294819 -0.070839
17860 0.46089342000000005 9.906697170000001 0.3715243200000001 0.485077 0.345787 -0.047261
17880 0.40057173 9.89337519 0.38560167000000006 0.5052180000000001 0.346663 -0.017211
17900 0.20761884 9.891727110000001 0.33275520000000003 0.497376 0.277391 -0.003291
17920 0.16570071 9.93603888 0.30790647 0.450079 0.221007 0.018884
17940 0.19190322 9.94381821 0.28845324000000006 0.446032 0.243499 -0.007879
17960 0.06406911000000001 9.91298538 0.23081949000000002 0.422825 0.288377 -0.021985
17980 -0.01152675 9.897416909999999 0.26869590000000004 0.389258 0.185137 -0.015678
18000 -0.05209110000000001 9.91208286 0.25716915 0.37811 0.070159 -0.024154
18020 -0.09849240000000001 9.91717425 0.12109464000000002 0.343769 0.014928 -0.035006
18040 -0.01092834 9.84278502 0.13321980000000003 0.275581 0.005698 -0.06538
18060 0.0378666 9.8415882 0.10059174 0.241245 -0.054834 -0.082634
18080 0.09968922 9.83410317 -0.06586434000000001 0.235709 -0.115472 -0.098618
18100 0.05239521 9.836045550000001 -0.22393287 0.232288 -0.170829 -0.104981
18120 0.00074556 9.907746840000001 -0.2809682100000001 0.284301 -0.214747 -0.08960599999999999
18140 -0.155979 10.023907050000002 -0.33425613 0.30661900000000003 -0.256281 -0.11183
18160 -0.24100227 9.84847482 -0.39323385000000005 0.372664 -0.304347 -0.136944
18180 -0.3617928 9.78110955 -0.36583452 0.498894 -0.159127 -0.065746
18200 -0.38634723000000004 9.824822910000002 -0.5897772000000001 0.5965050000000001 0.016068 -0.006536
18220 -0.39173292000000004 9.86194395 -0.8523320400000001 0.711051 -0.235332 -0.106895
18240 -0.43454376000000006 9.689346810000002 -0.8556183900000001 0.641342 -0.24825300000000006 -0.278281
18260 -0.40117014 9.55762794 -1.25334522 0.378762 -0.059765 -0.300653
18280 -0.38484630000000003 9.71839422 -1.5464385900000002 0.155908 0.058893 -0.210494
18300 -0.25641378000000004 9.54804357 -1.6061618700000002 -0.057842999999999985 0.07521699999999999 -0.111596
18320 -0.11690577 9.75805605 -1.8016555500000002 -0.255467 0.089474 -0.042492
18340 0.03503151 9.57588435 -1.70974566 -0.4137270000000001 0.031346 -0.02109
18360 0.005542650000000001 9.6392079 -1.738332 -0.489867 -0.05574 -0.02151
18380 0.04819653 9.69294708 -2.0477394 -0.458211 -0.144227 -0.031858
18400 0.05283666000000001 9.84143124 -1.96287309 -0.419102 -0.236996 -0.043216
18420 0.07050447000000001 9.79443153 -2.41238691 -0.324908 -0.442774 -0.079682
18440 0.13501503 9.77018121 -2.50818156 -0.183375 -0.557117 -0.11273
18460 0.10328949000000001 9.779167170000001 -2.4007032 -0.035338 -0.394578 -0.128996
18480 -0.04041720000000001 9.75372003 -2.27646936 0.092491 -0.162948 -0.08994400000000001
18500 -0.23351724 9.971511840000002 -2.38558599 0.176353 0.021951 -0.047935000000000005
18520 -0.16061913 10.44558009 -2.8291157100000004 0.177096 0.204043 -0.031071
18540 -0.24504399000000002 10.598861340000001 -3.4643916900000002 0.116693 0.28101 -0.045479
18560 -0.47691315 10.293495660000001 -3.7124277300000004 0.070899 0.30564600000000003 -0.039421
18580 -0.65653425 9.80236782 -3.2828282100000004 0.015374 0.293065 -0.041929
18600 -0.6723970199999999 9.3127311 -3.04062912 -0.044504 0.261325 -0.044443
18620 -1.0565075700000002 9.11020365 -2.90980296 -0.103234 0.267849 -0.026702
18640 -1.17640539 8.729546220000001 -2.04699384 -0.162849 0.32971100000000003 0.005918
18660 -0.39203703 8.734039200000002 -1.6066131300000002 -0.193606 0.402129 0.037657
18680 0.20073222000000002 8.73612873 -1.84296546 -0.21265100000000006 0.446899 0.04708
18700 0.15672456 8.91980136 -1.76288643 -0.230457 0.4896970000000001 0.015923
18720 -0.29024847 9.039100770000001 -1.6992685800000003 -0.205823 0.4515 -0.043677
18740 -0.65204127 8.86261887 -1.9290384000000003 -0.1269 0.385421 -0.10393
18760 -1.07387127 8.884024290000001 -2.29398021 -0.040762 0.284076 -0.14272200000000002
18780 -1.3921076700000001 9.0004788 -2.5797357 0.001467 0.17318599999999998 -0.15403599999999998
18800 -1.2816372600000001 9.25570557 -2.7306233100000004 0.021421 0.10493 -0.151672
18820 -1.57337685 9.968225490000002 -3.06727308 0.036323 0.114397 -0.134489
18840 -1.54658574 10.426715460000002 -3.33581202 0.04617 0.20901 -0.093949
18860 -1.39075389 10.47356802 -3.3057247500000004 0.033626 0.319629 -0.040767000000000005
18880 -1.1424235500000002 10.263555540000002 -3.3323687100000003 0.018752 0.377031 0.002853
18900 -1.12056687 9.895023270000001 -3.28491774 0.023780000000000003 0.335361 0.029647000000000007
18920 -1.4889519900000001 9.646094520000002 -2.9124909 0.041341 0.231869 0.054471000000000006
18940 -1.8764960400000001 9.56361204 -2.52360288 0.046211 0.14019 0.066373
18960 -1.72560843 9.452690370000001 -2.2956282900000002 0.057596 0.063446 0.067619
18980 -1.5886510200000001 9.57648276 -2.12108877 0.075589 0.025059 0.061385
19000 -1.5702376500000002 9.68216589 -2.2122531 0.086325 0.02402 0.045438
19020 -1.50167556 9.76060665 -2.2561038 0.077977 0.052863 0.032524000000000004
19040 -1.37862873 9.73440414 -2.0417553 0.060873 0.042283 0.029213
19060 -1.11308184 9.53921457 -1.91227311 0.047956 0.004029 0.016353
19080 -0.72973647 9.27291231 -2.02049703 0.02969 -0.037401 0.00346
19100 -0.46508229 9.24717087 -2.08126998 -0.001259 -0.041546 0.001113
19120 -0.44008641 9.409428270000001 -2.09878083 -0.038489 -0.016914 0.0008210000000000001
19140 -0.4827501 9.56196396 -2.30311332 -0.065045 0.004501 -0.003665
19160 -0.67704696 9.60642288 -2.48827707 -0.073494 0.016279 -0.011216
19180 -0.81131643 9.64249425 -2.57629239 -0.076632 0.026955 -0.014457
19200 -0.8059209300000001 9.646094520000002 -2.58886881 -0.081957 0.019556 -0.024098
19220 -0.7200049500000001 9.6395022 -2.5126745400000003 -0.083052 0.002558 -0.034767
19240 -0.55489284 9.56196396 -2.51492103 -0.07877999999999999 -0.0006360000000000001 -0.039005
19260 -0.35535744 9.60238116 -2.45474649 -0.07344099999999999 -0.00065 -0.040036
19280 -0.24384717000000003 9.60807096 -2.38409487 -0.063873 -0.011324 -0.043161
19300 -0.24968412 9.65148021 -2.39457195 -0.047937 -0.028415 -0.045164
19320 -0.2920437 9.79847325 -2.49920541 -0.02881 -0.047649 -0.047142
19340 -0.23576373 9.71105634 -2.43259551 -0.010803 -0.074352 -0.044846
19360 -0.38664153 9.668098350000001 -2.29637385 -0.000278 -0.095737 -0.034062
19380 -0.67884219 9.78245352 -2.25970407 0.016738999999999997 -0.090539 -0.016859
19400 -0.6987466800000001 9.60462765 -2.40055605 0.029532 -0.075738 0.000303
19420 -0.6529437900000001 9.61720407 -2.4861777300000005 0.045592 -0.047096 0.016402
19440 -0.64156419 9.60118434 -2.37211686 0.06172 -0.012028 0.023947
19460 -0.75787155 9.49984704 -2.2269190500000002 0.083124 0.008116 0.029412
19480 -0.9217868400000001 9.41123331 -2.09025594 0.099189 0.029336 0.036975
19500 -0.94408497 9.4279986 -2.0181033900000003 0.10886300000000003 0.046342 0.038089
19520 -0.88914897 9.46466838 -2.01406167 0.102543 0.05916900000000001 0.032687
19540 -0.8984292300000001 9.50253498 -2.09310084 0.07914 0.061433 0.019702
19560 -0.8824193100000001 9.54295218 -2.15387379 0.045048000000000005 0.05947300000000001 0.006648
19580 -0.83825469 9.56944899 -2.21973813 0.010942 0.058561 -0.002135
19600 -0.8641530900000001 9.612858240000001 -2.21644197 -0.022078 0.06615 -0.006648
19620 -0.88166394 9.65881809 -2.21285151 -0.065714 0.08443400000000001 -0.012318
19640 -0.93091014 9.66285981 -2.24802036 -0.110441 0.101639 -0.01372
19660 -0.85801203 9.67453371 -2.2508652600000003 -0.134916 0.110268 -0.019243
19680 -0.7442552699999999 9.7143525 -2.2459308300000003 -0.162544 0.13062200000000002 -0.023735
19700 -0.70293555 9.74159487 -2.2010206500000002 -0.18392 0.132785 -0.013205
19720 -0.6980011199999999 9.743537250000001 -2.14997922 -0.174452 0.1199 0.003969
19740 -0.68033331 9.708358590000001 -2.2222789200000004 -0.118889 0.135698 0.001132
19760 -0.65878074 9.68905251 -2.2829047200000003 -0.052629 0.142996 -0.016574000000000002
19780 -0.6379737300000001 9.71509806 -2.2986203400000003 0.014579 0.125781 -0.032106
19800 -0.69096735 9.78634809 -2.270034 0.07317 0.101096 -0.037006
19820 -0.7845155100000001 9.81434583 -2.2350024900000003 0.107214 0.084976 -0.031407
19840 -0.9018725400000001 9.784101600000001 -2.1977343 0.117829 0.085953 -0.018515
19860 -1.0011203100000001 9.71704044 -2.1604563000000003 0.10818 0.087005 -0.006833
19880 -1.07910981 9.672140070000001 -2.20821138 0.083517 0.084858 0.018634
19900 -1.1373321599999997 9.61555599 -2.2549069800000003 0.051387 0.07637100000000001 0.037649
19920 -1.12192065 9.62677863 -2.31089265 0.016046 0.06152100000000001 0.052376
19940 -1.10231046 9.564357600000001 -2.31808338 -0.018185 0.050949 0.061765
19960 -1.0464719400000002 9.55897191 -2.20850568 -0.040622000000000005 0.044631 0.062684
19980 -0.97088589 9.529188750000001 -2.1225897000000002 -0.045913 0.048932 0.057301
20000 -0.90442314 9.409428270000001 -2.0688505200000002 -0.040478 0.058552 0.044508
20020 -0.9518741100000001 9.33174288 -2.0390575500000003 -0.020146 0.052171 0.024362
20040 -1.02027924 9.21229632 -1.98412155 0.005425 0.025526 0.005346
20060 -1.07251749 9.22456863 -1.9700540100000001 0.022476 0.008473999999999999 -0.007331
20080 -1.1335945500000002 9.373955310000001 -2.0408527800000003 0.035288 0.003132 -0.014713
20100 -1.13239773 9.53427033 -2.11630149 0.036379 0.007393999999999999 -0.015778999999999998
20120 -0.92896776 9.746235 -2.14698717 0.03425 0.012711 -0.011527
20140 -0.7173072 9.8213796 -2.30161239 0.026777 0.016977000000000003 -0.006244
20160 -0.7381142100000001 9.91432935 -2.3137375500000004 0.017123 0.014841 0.003305
20180 -0.8297199900000001 9.870625800000001 -2.3951703600000003 0.006363000000000001 0.004188 0.012858
20200 -0.8083145700000001 9.84876912 -2.42855379 -0.00334 -0.007539 0.023487
20220 -0.83361456 9.861198390000002 -2.54290896 -0.00554 -0.015019 0.030959
20240 -0.80787312 9.8478666 -2.6438048100000007 -0.005579 -0.021419 0.033103
20260 -0.8253839700000001 9.76764042 -2.55503412 0.001856 -0.027841 0.034232
20280 -0.7628157900000001 9.64938087 -2.40145857 0.009324 -0.024684 0.037485
20300 -0.65713266 9.53591841 -2.241585 0.01684 -0.011935 0.039657
20320 -0.62510301 9.47574387 -2.11494771 0.019026 -0.004469 0.03539
20340 -0.73003077 9.44745183 -2.0686935600000007 0.021169 -0.005529 0.032202
20360 -0.7981416 9.445803750000001 -2.10118428 0.021169 -0.0076510000000000015 0.030068
20380 -0.8352626400000002 9.48263049 -2.15431524 0.01795 -0.016145 0.025783
20400 -0.8253839700000001 9.55897191 -2.24578368 0.016868 -0.018276 0.026847000000000003
20420 -0.9202859100000002 9.58891203 -2.29967001 0.019012 -0.016153 0.026859
20440 -0.97013052 9.63456777 -2.38364361 0.017983000000000002 -0.009749 0.024707
20460 -0.9803133 9.699833700000001 -2.4267487500000002 0.016936 -0.007606 0.022561
20480 -0.9457330500000001 9.69354549 -2.4608777400000004 0.013745 -0.01183 0.016134
20500 -0.93210696 9.68247 -2.42480637 0.007391 -0.009643 0.007542
20520 -0.8765725499999999 9.65806272 -2.4189694200000003 0.004267 -1.5e-05 3e-05
20540 -0.7608636000000001 9.637108560000001 -2.43379233 0.009688 0.015958 -0.003157
20560 -0.7429014899999999 9.63441081 -2.41402518 0.014027 0.032983 -0.002081
20580 -0.7165616400000001 9.592649640000001 -2.37151845 0.007689 0.050037 0.001058
20600 -0.69949224 9.55583271 -2.36314071 0.004526 0.06493600000000001 0.007426
20620 -0.6867686700000001 9.56645694 -2.3352901200000002 0.006665000000000001 0.06705499999999999 0.008506
20640 -0.67599729 9.564661710000001 -2.32301781 0.016262000000000002 0.068078 0.010709
20660 -0.7071342300000001 9.580524480000001 -2.31433596 0.023773 0.080823 0.013949
20680 -0.6982954200000001 9.56645694 -2.338733430000001 0.029174 0.099962 0.018235
20700 -0.7457463900000001 9.59968341 -2.3324452200000003 0.028146 0.111671 0.021418
20720 -0.7777858500000001 9.66645027 -2.32691238 0.026012 0.1138 0.023537
20740 -0.85741362 9.64758564 -2.27556684 0.018554 0.114896 0.022415
20760 -0.89828208 9.66674457 -2.2387401000000002 0.008957 0.118117 0.02448
20780 -0.8821152000000001 9.628426710000001 -2.2189827600000003 -0.002736 0.13305 0.029721
20800 -0.8777791800000001 9.68665887 -2.25820314 -0.005946 0.13941900000000002 0.038236
20820 -0.8372050200000001 9.74188917 -2.25251334 -0.007137 0.131885 0.058533
20840 -0.8081674200000002 9.71449965 -2.2065633 0.006478 0.10508499999999997 0.088573
20860 -0.8451413100000001 9.6306732 -2.12123592 0.030695 0.05696900000000001 0.112305
20880 -0.90561996 9.5728923 -2.04474735 0.06867999999999999 -0.023116 0.12655999999999998
20900 -1.03060917 9.581427000000001 -2.0303757 0.100484 -0.059480999999999985 0.135374
20920 -1.06548372 9.628279560000001 -2.06540721 0.12904000000000002 -0.13089 0.119642
20940 -1.070271 9.67154166 -2.0917470600000008 0.11619000000000003 -0.16059600000000002 0.100362
20960 -1.0086053400000003 9.67453371 -2.114055 0.054389 -0.180471 0.062568
20980 -0.9532180800000001 9.639649350000001 -2.114055 -0.021488 -0.236554 0.034336
21000 -0.8866081800000001 9.57303945 -2.11090599 -0.082534 -0.294906 0.027575
21020 -0.85412727 9.5296302 -2.11300533 -0.095519 -0.332158 0.030737
21040 -0.8163980100000001 9.57019455 -2.15971074 -0.085051 -0.363143 0.044737
21060 -0.77284161 9.649086570000001 -2.18515788 -0.093438 -0.31948000000000004 0.055304
21080 -0.7280883900000001 9.644446440000001 -2.20341429 -0.084788 -0.290761 0.058533
21100 -0.72598905 9.60597162 -2.1999709800000002 -0.055858000000000005 -0.26634800000000003 0.055499
21120 -0.7535355300000001 9.64669293 -2.22661494 -0.022876 -0.303679 0.038685
21140 -0.7580285100000002 9.652372920000001 -2.27661651 0.004804999999999999 -0.331413 0.023959
21160 -0.72419382 9.6076197 -2.38364361 0.025056 -0.358026 0.001702
21180 -0.6276438 9.54146106 -2.39606307 0.06448200000000001 -0.392159 -0.021480000000000003
21200 -0.50355711 9.48158082 -2.3574509100000003 0.093187 -0.413569 -0.020184
21220 -0.49636638 9.402247350000001 -2.3406856200000004 0.075132 -0.363566 0.011673
21240 -0.42406668000000003 9.31617441 -2.3423337 0.039122 -0.268776 0.047619
21260 -0.33440328 9.20481129 -2.4430725900000003 0.035571 -0.340163 0.054095
21280 -0.19429686000000002 9.33324381 -2.65143699 0.193448 -0.308902 0.091478
21300 0.008985960000000001 9.89696565 -2.95500744 0.07078200000000001 0.205917 0.12521300000000002
21320 0.16241436 10.30786731 -3.1181673600000006 -0.139306 -0.170882 -0.036005
21340 0.12139875000000001 9.883496520000001 -3.0659291100000003 -0.098625 -0.7552949999999999 -0.177046
21360 -0.20178189000000002 9.56675124 -2.89602972 -0.00337 -0.465811 -0.191707
21380 -0.32916474 9.36722565 -2.59964019 -0.044063 -0.217638 -0.147444
21400 -0.43035489 9.32066739 -2.4816847500000003 -0.06254 -0.225304 -0.079197
21420 -0.35640711 9.29312091 -2.4941140200000005 -0.040418 -0.270196 -0.060825
21440 -0.3097017 9.34072884 -2.55773187 0.008008 -0.120392 -0.002994
21460 -0.36793386 9.822870720000001 -2.65368348 0.016821 -0.028928 0.02686
21480 -0.37242684 9.87361785 -2.45639457 -0.008712000000000001 -0.000128 0.039464
21500 -0.55713933 9.819133110000001 -2.3605901100000004 -0.039431 0.051104 0.04132
21520 -0.67434921 9.69115185 -2.4908178600000004 -0.032958 0.037353 0.011472
21540 -0.73766295 9.61704711 -2.5911153000000002 -0.037518 -0.073236 -0.034351
21560 -0.9060614100000001 9.55043721 -2.6206041600000005 -0.028069 -0.133883 -0.060913
21580 -0.8658011700000001 9.5555286 -2.4358818600000003 -0.026854000000000003 -0.10723 -0.067348
21600 -0.8282288700000001 9.57109707 -2.30371173 -0.013706 -0.026332 -0.063087
21620 -0.7455992400000001 9.584723160000001 -2.23964262 -0.010228 0.069395 -0.029002
21640 -0.5987533500000001 9.59040315 -2.2508652600000003 0.008971 0.033249 -0.064073
21660 -0.55010556 9.72303435 -2.48947389 0.056066 0.044892 -0.08619199999999999
21680 -0.5634275400000002 9.76419711 -2.3095486800000007 0.10321500000000003 0.068254 -0.108325
21700 -0.5116405499999999 9.94561344 -2.6719398900000004 0.121725 0.147037 -0.11257
21720 -0.057633750000000004 10.13497587 -2.84647941 0.113674 0.25571900000000003 -0.111697
21740 -0.44382402 9.3645279 -0.66896352 0.099026 0.32923600000000003 -0.10228
21760 -2.2252709700000004 8.8789329 -0.5468094 0.074502 0.371775 -0.062981
21780 -2.6499360600000004 9.25240941 -3.1985505 0.07675599999999999 0.411131 -0.050197000000000006
21800 -1.60630902 9.65702286 -2.85456285 0.063819 0.416362 -0.015043
21820 -0.80218332 9.780962400000002 -1.69671798 0.090256 0.395901 0.017215
21840 -0.66701133 9.684108270000001 -1.7179762500000002 0.11688 0.404253 0.036618
21860 -1.5331166100000002 9.779314320000001 -2.3763057300000003 0.100762 0.377682 0.035471
21880 -1.12969998 9.792783450000002 -2.6158070700000002 0.023914 0.353517 0.017874
21900 -1.0847898 9.826912440000001 -2.67329367 -0.025243 0.318603 0.000484
21920 -1.1677235400000001 9.78230637 -2.7411003900000006 -0.042217000000000005 0.359066 0.019541
21940 -1.0686229200000001 9.6047748 -2.3623853400000003 -0.072089 0.38039 0.04067
21960 -1.21936338 9.565407270000001 -2.07543303 -0.128829 0.360254 0.0638
21980 -1.3621675500000001 9.63141876 -2.18260728 -0.175953 0.346463 0.090194
22000 -1.33103061 9.675730530000001 -2.47315986 -0.165242 0.371929 0.10626
22020 -1.2489993900000003 9.62333532 -2.29502988 -0.112764 0.420731 0.110837
22040 -1.22579874 9.56944899 -2.15088174 -0.097593 0.452718 0.090605
22060 -0.45520362000000003 9.43248177 -1.8507546000000001 -0.121179 0.394342 0.0574
22080 -1.68938991 9.61809678 -2.20671045 -0.10433900000000003 0.276307 -0.009629
22100 -1.59612624 9.61300539 -2.0272365 -0.05819600000000001 0.306093 -0.039255
22120 -1.7019565200000002 9.55179099 -2.31208947 -0.023855 0.350715 -0.039072
22140 -1.61334279 9.569154690000001 -2.28020697 -0.007058 0.289935 -0.038877
22160 -1.5555618900000003 9.63770697 -2.2722706800000005 0.001227 0.240878 -0.032347
22180 -1.47203955 9.63291969 -2.18560914 0.002184 0.225922 -0.022707
22200 -1.3668076800000002 9.54205947 -2.1465359100000003 0.008408 0.198156 -0.010877
22220 -1.1186244900000002 9.53966583 -2.241585 0.013512 0.15549200000000002 -0.002241
22240 -0.9172938600000001 9.50493843 -2.0538804600000002 0.016391 0.088352 0.002138
22260 -0.91145691 9.43936839 -2.2671891000000004 0.011831 0.033996 0.012858
22280 -0.9210314700000001 9.41571648 -2.5765965 -0.009631 0.016984 0.023412
22300 -1.0946782800000001 9.43158906 -2.6232921 -0.016084 0.013777 0.031917
22320 -1.07506809 9.362281410000001 -2.52120924 -0.022438 0.021269 0.028658
22340 -0.9909375300000001 9.4080843 -2.69709273 -0.013879 0.012772 0.014842
22360 -0.65129571 9.54010728 -2.6918541900000004 -0.004239 0.011712 0.005296
22380 -0.53917722 9.64294551 -2.5086328200000003 0.004306 0.007445999999999999 -0.001048
22400 -0.621954 9.57678687 -2.41987194 0.011577 -0.038378 -0.003075
22420 -0.82912158 9.52694226 -2.53198062 0.005162 -0.041551 -0.003115
22440 -0.8523320400000001 9.67408245 -2.63287647 -0.011966 -0.046848 0.004249
22460 -0.8169964200000002 10.098600390000001 -2.78331282 -0.02694 -0.056379 0.003089
22480 -0.9216298800000001 9.82332198 -2.6179064100000002 -0.030054 -0.029766 0.01051
22500 -1.17296208 9.44805024 -2.4623786700000005 -0.031126 -0.021278 0.020106
22520 -1.25050032 9.17711766 -2.46268278 -0.032202 -0.017039 0.026502
22540 -1.03225725 9.29776104 -2.35984455 -0.026815 -0.008523000000000001 0.023324
22560 -0.68078457 9.62079453 -2.0375664300000005 -0.014989 0.0053100000000000005 0.016980000000000002
22580 -0.5462109900000001 9.74668626 -2.29502988 -0.012788 0.015972999999999998 0.012709
22600 -0.47017368 9.7664436 -2.562372 -0.0031620000000000003 0.020204 0.011702
22620 -0.33095997000000005 9.66704868 -2.59291053 0.00742 -0.007495999999999998 0.003266
22640 -0.24653511000000003 9.608963670000001 -2.4191165700000004 0.007545 0.014896 -0.0021030000000000003
22660 -0.24009975 9.51690663 -2.30101398 -0.001918 0.0437 -0.004342
22680 -0.29264211 9.49819896 -2.26344168 -0.014682 0.051206 -0.005509
22700 -0.31718673000000003 9.54115695 -2.33260218 -0.021054 0.059742 -0.003428
22720 -0.29189655000000003 9.54220662 -2.375256060000001 -0.017868000000000002 0.059717999999999986 -0.000201
22740 -0.38574882000000005 9.5640633 -2.27107386 -0.019968 0.073549 0.006176
22760 -0.48304440000000004 9.672287220000001 -2.37780666 -0.014524 0.10333599999999997 0.011517
22780 -0.52331445 9.665253450000002 -2.4876786600000003 -0.004821 0.128856 0.014756
22800 -0.62374923 9.61854804 -2.5700041800000006 -0.002716 0.122457 0.014779
22820 -0.6027950700000001 9.56990025 -2.4801936300000005 -0.000602 0.116066 0.012666
22840 -0.5089428 9.57604131 -2.3611885200000002 0.003694 0.118199 0.00842
22860 -0.5177718 9.57423627 -2.35954044 0.005833 0.11183 0.000966
22880 -0.60968169 9.60642288 -2.23036236 0.004723 0.098002 -0.003297
22900 -0.69664734 9.62887797 -2.35774521 0.00146 0.084165 -0.003302
22920 -0.72389952 9.672287220000001 -2.4650764200000004 -0.0007070000000000001 0.08202100000000001 0.002026
22940 -0.6589278900000001 9.667794240000001 -2.38050441 0.00145 0.093705 0.008436
22960 -0.7207505100000001 9.66315411 -2.3593932900000008 -0.010242 0.11076099999999997 0.01581
22980 -0.8176046400000001 9.67288563 -2.32720668 -0.001784 0.101114 0.023359
23000 -0.8647515000000001 9.660162060000001 -2.26898433 -0.00065 0.120268 0.027615
23020 -0.89962605 9.652372920000001 -2.3140416600000004 -0.0059310000000000005 0.134126 0.029697
23040 -0.9122024700000001 9.64354392 -2.36418057 0.012186 0.122375 0.022361
23060 -0.86384898 9.63845253 -2.45923947 0.026046 0.108525 0.010725
23080 -0.8373619800000001 9.596995470000001 -2.51896275 0.016472999999999998 0.091608 -0.012821
23100 -0.83256489 9.533377620000001 -2.2330601100000003 0.000532 0.075804 -0.042822000000000006
23120 -0.9093575700000001 9.498493260000002 -2.08846071 -0.032531 0.065318 -0.055858000000000005
23140 -0.9190890899999999 9.51391458 -2.1791639700000003 -0.05826 0.037711 -0.056003
23160 -0.9171467100000001 9.57019455 -2.22437826 -0.071101 0.036661 -0.048614
23180 -0.88795215 9.5959458 -2.30385888 -0.070001 0.049419 -0.043281
23200 -0.87986871 9.637412670000002 -2.33454456 -0.04653 0.061008000000000014 -0.031382
23220 -0.84798621 9.67498497 -2.38558599 -0.03501 0.018335 -0.025905
23240 -0.79799445 9.693094230000002 -2.4055002900000004 -0.027662 -0.003018 -0.020486
23260 -0.75278016 9.625287510000001 -2.43752994 -0.013668 0.033119 -0.011888
23280 -0.7306291800000001 9.59998752 -2.336791050000001 0.002364 0.043698 -0.007517
23300 -0.7231441500000001 9.6392079 -2.28005982 0.009678 0.011706 -0.005289
23320 -0.70907661 9.632017170000001 -2.270034 0.014869 -0.011783 0.003324
23340 -0.7186511700000001 9.615850290000001 -2.26344168 0.008516 0.006319 0.010734
23360 -0.69515622 9.65447226 -2.30835186 -0.008477 0.026606 0.013794
23380 -0.64440909 9.620196120000001 -2.31344325 -0.011707 0.020226 0.013779
23400 -0.6899176800000001 9.57049866 -2.36747673 -0.013807 0.016019 0.002019
23420 -0.70892946 9.5293359 -2.37750255 -0.013807 0.00647 -0.0075819999999999985
23440 -0.6448603500000001 9.62708274 -2.45744424 -0.013668 0.032058 -0.012955
23460 -0.64710684 9.632321280000001 -2.38783248 -0.009381 0.027816000000000004 -0.021466
23480 -0.72105462 9.664498080000001 -2.44771272 0.003373 0.009691 -0.028831
23500 -0.6536893500000001 9.7231815 -2.5824334500000004 -0.003052 0.006509 -0.026735
23520 -0.61462593 9.68530509 -2.5101337500000005 -0.009448 0.017146 -0.01718
23540 -0.80861868 9.561365550000001 -2.17572066 -0.001985 0.025604 -0.007523999999999999
23560 -0.88121268 9.49535406 -2.25071811 0.001148 0.020228 0.002119
23580 -0.7719489 9.521703720000001 -2.28140379 0.005454 0.03404 0.007471999999999999
23600 -0.7059276 9.56600568 -2.30999994 0.001244 0.050021 0.010627
23620 -0.53932437 9.600281820000001 -2.33798787 -0.001995 0.044693 0.013816
23640 -0.5074418700000001 9.66315411 -2.3281092 9.1e-05 0.03085 0.010643
23660 -0.53498835 9.668539800000001 -2.26239201 0.002143 0.008489 0.006412999999999999
23680 -0.6074352000000001 9.68606046 -2.41942068 0.015926 -0.016038999999999998 0.0012
23700 -0.5980077900000002 9.6887484 -2.48753151 0.021241 -0.020319 0.001243
23720 -0.48469248000000004 9.60103719 -2.45953377 0.010597 -0.00965 0.006495999999999999
23740 -0.48334851000000006 9.556431120000001 -2.31703371 -0.00432 -0.004275999999999999 0.007453
23760 -0.5206167 9.5612184 -2.3743633500000003 -0.010764 -0.011719 0.009554
23780 -0.54247338 9.55777509 -2.3306499900000004 -0.007502 -0.005309 0.002091
23800 -0.5457695400000001 9.54639549 -2.26074393 -0.002052 0.015995 -0.002171
23820 -0.6257014200000001 9.621392940000002 -2.1891996000000002 0.000153 0.026661 -0.007511
23840 -0.6725539800000001 9.66554775 -2.28544551 -0.005099 0.041607 -0.010771
23860 -0.68796549 9.64309266 -2.38469328 -0.013619999999999998 0.041649 -0.014035
23880 -0.7087725 9.55493019 -2.30730219 -0.011549 0.022488 -0.019337
23900 -0.60803361 9.5987907 -2.25116937 -0.001942 0.019276 -0.023539
23920 -0.65323809 9.72707607 -2.24682354 0.009817 0.020317 -0.027731
23940 -0.68063742 9.77048532 -2.35804932 0.012989 0.014975 -0.026634
23960 -0.6277909500000002 9.70551369 -2.29038975 0.010836 0.013905 -0.023443
23980 -0.6081807600000001 9.55777509 -2.18784582 0.009746 0.022375 -0.009575
24000 -0.5382845100000001 9.5612184 -2.19728304 0.006534999999999999 0.037232 0.007475
24020 -0.6222581100000001 9.617645520000002 -2.22751746 0.003354 0.054236 0.02025
24040 -0.69006483 9.67647609 -2.27661651 0.000144 0.059544000000000014 0.027698
24060 -0.6936552900000001 9.63471492 -2.25550539 -0.000966 0.054204 0.03197
24080 -0.69515622 9.6392079 -2.22856713 -0.003105 0.053147 0.031957
24100 -0.72988362 9.69010218 -2.31837768 -0.003167 0.04142 0.034108
24120 -0.7665534 9.67034484 -2.3107455000000003 -0.0074870000000000015 0.028656 0.033026
24140 -0.75742029 9.67288563 -2.4149277000000002 -0.009626 0.025476 0.030879000000000007
24160 -0.70773264 9.62677863 -2.3466697200000004 -0.012822 0.019126 0.023387
24180 -0.7253906400000001 9.584114940000001 -2.29008564 -0.00964 0.006365 0.01488
24200 -0.76550373 9.57827799 -2.2324617 0.000961 -0.013891 0.009639
24220 -0.7888613400000001 9.546101190000002 -2.257310430000001 0.01263 -0.027784 0.010806
24240 -0.8716381200000001 9.57513879 -2.22976395 0.016873 -0.02782 0.016177
24260 -0.9349518600000001 9.59728977 -2.1927900600000005 0.0094 -0.024616 0.020393
24280 -0.9211884300000001 9.62902512 -2.17228716 -0.000134 -0.008607 0.021375
24300 -0.8972324100000001 9.61555599 -2.2448811600000003 -0.0075400000000000016 0.010572 0.026639
24320 -0.85068396 9.63022194 -2.30385888 -0.013874 0.026569 0.027643
24340 -0.78586929 9.602234010000002 -2.36373912 -0.017022 0.041481 0.030806
24360 -0.6815301300000001 9.58860792 -2.37541302 -0.019098 0.055333000000000014 0.031842
24380 -0.6283893599999999 9.584566200000001 -2.31464007 -0.023313 0.062822 0.02753
24400 -0.6394746600000001 9.63561744 -2.28020697 -0.025413 0.059676 0.016838
24420 -0.6962058900000001 9.644142330000001 -2.2878391500000004 -0.017945 0.051162 0.008355
24440 -0.74485368 9.60297957 -2.30610537 -0.009376 0.047979 -0.002263
24460 -0.8189486100000001 9.57947481 -2.3640334200000006 -0.0007700000000000001 0.054379 -0.011826
24480 -0.87718077 9.589657590000002 -2.38154427 0.004622 0.061839 -0.017138999999999998
24500 -0.8665467300000002 9.61136712 -2.38843089 0.005723 0.06717000000000001 -0.019274
24520 -0.8553240900000001 9.62677863 -2.3755601700000004 0.004651 0.067169 -0.018213
24540 -0.83241774 9.62168724 -2.38843089 0.001431 0.06398 -0.017164
24560 -0.81056106 9.64593756 -2.37675699 -0.000731 0.059717999999999986 -0.015037
24580 -0.76715181 9.66345822 -2.38244679 0.002436 0.054372 -0.012871
24600 -0.7244979300000001 9.648782460000001 -2.37646269 0.004507 0.047943 -0.005371
24620 -0.7506906300000001 9.63261558 -2.32885476 0.0033880000000000004 0.042595 0.001037
24640 -0.7595196300000001 9.608522220000001 -2.34980892 0.000144 0.038324 0.006361
24660 -0.76386546 9.57872925 -2.34427608 -0.003076 0.04044 0.012745
24680 -0.7459033500000001 9.565260120000001 -2.3456200500000004 -0.004133 0.045757 0.015936000000000002
24700 -0.76176612 9.57543309 -2.30101398 -0.0052 0.047883 0.018062
24720 -0.8596601100000001 9.59579865 -2.2841015400000004 -0.005186 0.054262 0.021259
24740 -0.91444896 9.600585930000001 -2.27766618 0.000144 0.056361 0.024498
24760 -0.97387794 9.659710800000001 -2.2734675 0.004425999999999999 0.059542 0.024524
24780 -0.9487251000000001 9.69429105 -2.29967001 0.007669 0.062752 0.018133
24800 -0.9530709300000001 9.70596495 -2.32961013 0.006689 0.077687 0.013834
24820 -0.90890631 9.67018788 -2.29412736 0.0035700000000000007 0.08731900000000001 0.005254
24840 -0.94962762 9.61809678 -2.24937414 0.00677 0.088369 0.006343
24860 -0.95695569 9.58202541 -2.21733468 0.00998 0.08518300000000001 0.001029
24880 -0.9334607400000001 9.564808860000001 -2.23814169 0.014243 0.084103 0.00106
24900 -0.8494871400000001 9.552987810000001 -2.2667378400000002 0.016444 0.096887 -0.001078
24920 -0.8388531 9.57319641 -2.2656881700000002 0.016482 0.106471 -2.1e-05
24940 -0.83540979 9.61345665 -2.26838592 0.015463 0.116066 -0.001109
24960 -0.7908037200000001 9.6136038 -2.24338023 0.013382 0.125669 -0.003272
24980 -0.7575772500000001 9.65387385 -2.24308593 0.013378 0.123543 -0.004338
25000 -0.69859953 9.71674614 -2.2870935900000005 0.017634999999999998 0.12352 -0.002172
25020 -0.6842278800000001 9.73874997 -2.294872920000001 0.019764 0.126691 0.002112
25040 -0.68183424 9.71509806 -2.29891464 0.018736000000000003 0.1384 0.005295
25060 -0.69859953 9.71674614 -2.28604392 0.017693 0.145852 0.007414
25080 -0.71101899 9.67273848 -2.2722706800000005 0.016602000000000002 0.146895 0.013815
25100 -0.7240466700000001 9.59115852 -2.27646936 0.015502000000000004 0.146869 0.021285
25120 -0.74545209 9.53996013 -2.23634646 0.015478 0.14897 0.028759
25140 -0.75727314 9.55358622 -2.2324617 0.016535 0.153202 0.035171
25160 -0.79305021 9.57154833 -2.24877573 0.016521 0.159555 0.044776
25180 -0.7782273000000001 9.60133149 -2.27437002 0.017616 0.17018699999999998 0.049043
25200 -0.76850559 9.58382064 -2.2897913400000003 0.032634 0.178695 0.039523
25220 -0.77523525 9.617949630000002 -2.3110398 0.068099 0.210632 0.014093
25240 -0.7819747200000001 9.70507224 -2.31523848 0.125815 0.204158 -0.015406
25260 -0.8295728400000001 9.739348380000001 -2.31433596 0.171681 0.179587 -0.037487
25280 -0.86370183 9.72587925 -2.2968251100000003 0.21957 0.144299 -0.045653
25300 -0.8598072600000001 9.70252164 -2.2791573 0.257876 0.143014 -0.024019
25320 -0.7927559100000001 9.646094520000002 -2.28515121 0.272989 0.180255 -0.026098000000000003
25340 -0.7879588200000001 9.640699020000001 -2.27616525 0.257384 0.237959 -0.057259
25360 -0.8135629200000001 9.64160154 -2.2387401000000002 0.192522 0.269147 -0.07484400000000001
25380 -0.84843747 9.64504485 -2.20551363 0.1028 0.255573 -0.065839
25400 -0.85382316 9.65073465 -2.1794680800000004 0.022397 0.200336 -0.035352
25420 -0.9098088300000001 9.612858240000001 -2.17901682 -0.047223 0.169566 -0.005888
25440 -0.90306936 9.5321808 -2.17976238 -0.129472 0.188862 0.035173
25460 -0.81430848 9.55777509 -2.2350024900000003 -0.20740100000000006 0.183786 0.039976
25480 -0.7396151400000001 9.61704711 -2.2589487 -0.281086 0.160638 0.032014
25500 -0.75982374 9.68247 -2.2561038 -0.323631 0.182122 0.024212
25520 -0.8196941700000001 9.68142033 -2.2508652600000003 -0.375845 0.178116 0.005692
25540 -0.77403843 9.64174869 -2.2489228800000003 -0.396163 0.137826 -0.024308
25560 -0.7318260000000001 9.61689996 -2.26958274 -0.412224 0.111306 -0.038273
25580 -0.74081196 9.57678687 -2.32122258 -0.433331 0.146598 -0.054489
25600 -0.73796706 9.59924196 -2.3186817900000003 -0.437133 0.263737 -0.040779
25620 -0.7777858500000001 9.66554775 -2.34172548 -0.462613 0.346695 0.014484
25640 -0.7899110100000001 9.70072641 -2.32660827 -0.445028 0.282481 0.07344099999999999
25660 -0.82059669 9.70971237 -2.31823053 -0.287943 0.16555999999999998 0.138782
25680 -0.9110056500000001 9.6511761 -2.3221251 -0.021805 0.293448 0.160773
25700 -0.95816232 9.45583938 -2.3147872200000004 0.128495 0.477315 0.137018
25720 -0.9253773000000001 9.38578617 -2.46043629 0.22259 0.48354 0.097075
25740 -0.8207438400000001 9.497453400000001 -2.67449049 0.201975 -0.228411 -0.064526
25760 -0.64770525 9.65821968 -2.9526138000000004 0.081592 -0.281947 -0.158234
25780 -0.46448388 9.66570471 -3.01802688 -0.066719 -0.057681 -0.16917100000000002
25800 -0.42616602000000003 9.656414640000001 -3.01937085 -0.168658 0.053447 -0.16575299999999998
25820 -0.5498112600000001 9.71449965 -2.7732870000000003 -0.227623 0.083104 -0.072199
25840 -0.5761511099999999 9.57049866 -2.5725547800000004 -0.333674 0.059748 -0.000271
25860 -0.5944173300000001 9.36601902 -2.54964843 -0.332226 -0.066067 0.026606
25880 -0.4281084 9.318420900000001 -2.85246351 -0.290652 -0.067303 0.033307
25900 -0.33231375 9.414676620000002 -3.1242986100000003 -0.304367 -0.031044 0.035302
25920 -0.29488860000000006 9.267075360000002 -3.09705624 -0.289518 -0.042844 0.042898
25940 -0.20417553000000002 9.08460936 -2.5872207300000003 -0.274936 -0.113238 0.051636
25960 -0.33126408 8.96500584 -2.0787291900000002 -0.250552 -0.158022 0.041181
25980 -0.34593003000000005 8.9480934 -1.8738081000000002 -0.231075 -0.105857 0.032705
26000 -0.45610614000000005 9.08071479 -2.104029180000001 -0.22232 -0.049458 0.040171
26020 -0.6911145000000001 9.14971833 -2.4658219800000003 -0.227721 -0.049499 0.055089
26040 -1.02267288 9.24746517 -2.58886881 -0.209747 -0.059256 0.081932
26060 -1.18942326 9.33608871 -2.43872676 -0.199237 -0.075349 0.101254
26080 -0.95575887 9.337736790000001 -2.22168051 -0.16959000000000002 -0.109606 0.117528
26100 -0.6932040300000001 9.70701462 -2.23949547 -0.151568 -0.132053 0.120888
26120 -0.54097245 10.53374256 -2.2878391500000004 -0.145091 -0.11397 0.121978
26140 -0.01002582 10.81860534 -3.36515373 -0.151166 -0.040449 0.12291
26160 0.43874244 10.61936424 -3.6438754500000003 -0.156404 -0.021247 0.120712
26180 0.3529638 10.437045390000002 -3.38985531 -0.168125 -0.027559 0.111024
26200 -0.31584275999999994 9.60297957 -2.2924792800000002 -0.177698 -0.031744 0.100281
26220 -1.32894108 9.10376829 -2.90201382 -0.193625 -0.017827000000000003 0.096947
26240 -2.4424741800000005 9.25735365 -3.8484924300000003 -0.20115 -0.032706 0.094777
26260 -1.39629654 9.5065767 -1.6564577400000002 -0.226836 -0.053909000000000006 0.09142
26280 -0.6491963700000001 9.82346913 -0.6198644700000001 -0.248169 -0.055952 0.08806900000000001
26300 -0.29264211 9.77991273 -0.8716381200000001 -0.267435 -0.06336699999999999 0.094353
26320 0.18995103 9.537115230000001 -1.2760946100000001 -0.284586 -0.083539 0.092123
26340 -0.12708855 9.65357955 -2.0014852500000004 -0.285528 -0.061144 0.086746
26360 -0.44592336000000005 9.787692060000001 -2.4340866300000004 -0.284337 -0.049365 0.070716
26380 -0.48005235 9.70431687 -2.21569641 -0.281016 -0.041843 0.051502
26400 -0.4288539600000001 9.735306660000001 -1.8021068100000002 -0.2756 -0.030118 0.045115
26420 -0.36374499000000005 9.749227050000002 -1.7193202200000002 -0.279853 -0.024786 0.047215
26440 -0.44338257000000003 9.69818562 -1.79656416 -0.286279 -0.024784 0.052511
26460 -0.55953297 9.620490420000001 -1.72141956 -0.288427 -0.021607 0.058902
26480 -0.48409407000000004 9.75895857 -1.5937326 -0.282054 -0.025899 0.061088
26500 -0.43843833 9.699833700000001 -1.6013745900000003 -0.283116 -0.028013 0.057878999999999986
26520 -0.33919056000000003 9.711949050000001 -1.70704791 -0.27778200000000003 -0.033336000000000005 0.052582
26540 -0.22304016000000004 9.66929517 -1.5453889200000002 -0.261741 -0.025931 0.051616
26560 -0.13771278 9.721239120000002 -1.4284831500000004 -0.251077 -0.032339 0.046358
26580 -0.19923129 9.693094230000002 -1.3492968300000001 -0.251144 -0.047252 0.046376
26600 -0.35760393 9.68860125 -1.36456119 -0.24691 -0.048358 0.052817
26620 -0.44457939 9.63725571 -1.33702452 -0.23087800000000006 -0.035657 0.059322
26640 -0.41688576 9.727370370000001 -1.23298947 -0.226515 -0.015427 0.058258
26660 -0.4340925 9.90265545 -1.29900096 -0.1987 -0.001663 0.05523
26680 -0.37377081000000006 9.881397179999999 -1.2379239 -0.189031 0.0164 0.058479
26700 -0.31134978 9.803260530000001 -1.12056687 -0.183678 0.030192 0.06811299999999999
26720 -0.32347494000000004 9.838890450000001 -1.13464422 -0.18042 0.054635 0.079855
26740 -0.25566822 9.85176117 -1.2775955399999999 -0.184673 0.055723 0.077687
26760 -0.22872015 9.88380063 -1.19630988 -0.171698 0.090845 0.074528
26780 -0.23815737 10.0354338 -0.9548661600000001 -0.170535 0.114269 0.07664299999999999
26800 -0.2555210700000001 9.914633460000001 -0.84888873 -0.17055399999999998 0.111069 0.07771499999999999
26820 -0.28845324000000006 9.864484740000002 -0.8137100700000001 -0.179027 0.119642 0.07230299999999999
26840 -0.37960776 9.961780319999999 -0.79709193 -0.189715 0.107991 0.06476599999999999
26860 -0.38096154000000004 9.95340258 -0.7006890600000001 -0.184419 0.097328 0.06268
26880 -0.35760393 10.042016310000001 -0.63139122 -0.178046 0.096219 0.068067
26900 -0.20447964000000002 9.95714019 -0.6423097500000001 -0.17497 0.068511 0.068124
26920 -0.13950801 9.943523910000001 -0.56313324 -0.176037 0.069576 0.06918400000000001
26940 -0.15642045 9.872872290000002 -0.3873969 -0.173841 0.08872200000000001 0.074516
26960 -0.17468667000000002 9.870772950000003 -0.38933928 -0.181218 0.107927 0.073371
26980 -0.15866694 9.743988510000001 -0.37227969 -0.189758 0.102648 0.06904600000000001
27000 -0.12319398000000001 9.860295870000002 -0.34488036 -0.183361 0.099438 0.066958
27020 -0.1155618 9.95400099 -0.29907747 -0.177845 0.149449 0.076546
27040 -0.06526593 9.863592030000001 -0.27108954 -0.168267 0.148333 0.080888
27060 -0.09655002 9.98499078 -0.15837263999999998 -0.142682 0.14928699999999998 0.086406
27080 -0.03637548 9.96014205 -0.1070271 -0.129884 0.147116 0.08542999999999999
27100 0.0085347 9.910287630000001 -0.0205029 -0.121244 0.180071 0.095062
27120 -0.1761876 9.90894366 0.11975067000000002 -0.111623 0.198092 0.108993
27140 -0.30206952000000004 9.823773240000003 0.11391372000000001 -0.09982 0.211903 0.10799
27160 -0.33590421000000004 9.69488946 0.18157329000000003 -0.0966 0.211909 0.103739
27180 -0.23591088000000002 9.80191656 0.07858791000000001 -0.10736500000000003 0.16623800000000002 0.079154
27200 -0.19235448000000002 9.914633460000001 0.10552617 -0.108139 0.239711 0.0876
27220 -0.07574300999999999 9.94666311 0.07229970000000002 -0.115545 0.233427 0.06726
27240 -0.13262139 10.046656440000001 0.01721655 -0.106962 0.242988 0.06623899999999999
27260 -0.11226564 9.95055768 0.15837263999999998 -0.100724 0.186588 0.046059
27280 -0.01571562 9.96762708 0.20372427 -0.09193 0.27273000000000003 0.074852
27300 -0.12903093000000002 9.84547296 0.27003987 -0.095217 0.25781 0.079121
27320 -0.17154747 9.81194238 0.29818476 -0.089974 0.233307 0.074916
27340 -0.16031502 9.82975734 0.31434183000000004 -0.094179 0.250354 0.07807
27360 -0.03562992 9.908198100000002 0.29952873 -0.096337 0.235486 0.06846000000000001
27380 0.08772102000000001 10.020915 0.36583452 -0.095634 0.134363 0.048298
27400 -0.03637548 9.84307932 0.34607718 -0.086855 0.193967 0.053624
27420 -0.00329616 9.91912644 0.51956703 -0.090084 0.183342 0.049342
27440 0.00434583 9.95115609 0.52870014 -0.09761 0.170585 0.049306
27460 -0.08891784 9.87466752 0.5252568299999999 -0.084898 0.149239 0.048354
27480 -0.16466085 9.915830280000002 0.61192818 -0.074311 0.126848 0.044184
27500 -0.17094906 9.891285660000001 0.72718587 -0.065815 0.118297 0.044254
27520 0.11525769000000001 10.0673163 0.8129547 -0.061571 0.110833 0.042157
27540 0.050148719999999994 9.899516250000001 0.81430848 -0.058428 0.092734 0.036861
27560 0.03412899 9.76584519 0.8132588100000001 -0.056342 0.081013 0.035822
27580 -0.03382488 9.763893 0.9122024700000001 -0.055285 0.074635 0.031565
27600 -0.14325543000000002 9.90460764 0.82927854 -0.053161 0.071436 0.030516
27620 0.25028253 9.907148430000001 0.8542744200000001 -0.047884 0.05863400000000001 0.030569
27640 0.18007236000000001 9.839783160000001 0.93210696 -0.049903 0.07678099999999999 0.023054
27660 0.18621342 9.73560096 0.85068396 -0.04875 0.072609 -0.000434
27680 -0.0145188 9.934390800000001 0.80247762 -0.045535 0.063062 -0.013218
27700 0.5695686 10.07030835 0.9391505400000001 -0.043492 0.045998 -0.009977
27720 0.34607718 9.99695898 0.96219423 -0.045703 0.035327 -0.003569
27740 0.35506314 10.04306598 0.91954035 -0.042521 0.037421 0.00286
27760 0.40012047 9.997714349999999 0.93465756 -0.045736 0.032114 0.000708
27780 0.14414814 9.96193728 0.9711801900000001 -0.042497 0.03532 -0.004615
27800 0.58992435 9.76568823 1.0178856 -0.035005 0.03001 -0.015238
27820 0.45071064 9.836192700000002 1.06204041 -0.034976 0.037463 -0.014179
27840 0.53663643 9.787692060000001 1.12266621 -0.030776 0.034205 -0.002395
27860 0.5252568299999999 9.77347737 1.1076961500000004 -0.022347 0.017105000000000002 0.0040950000000000005
27880 0.4713705 9.80581113 1.0415375100000002 -0.024504 0.016031 0.008354
27900 0.6039918900000002 9.74308599 1.0336012199999998 -0.024476 0.0203 0.006212
27920 0.56402595 9.688002840000001 1.25184429 -0.022299 0.021392 -0.00232
27940 0.5824393200000001 9.727517520000001 1.0777560300000004 -0.021237 0.019262 -0.003378
27960 0.59411322 9.81643536 1.09662066 -0.018137 0.003246 0.003074
27980 0.6523453800000001 9.863739180000001 1.03570056 -0.009712 -0.014918 0.009565
28000 0.6460571700000001 9.89157996 1.05589935 -0.014075 -0.029843 0.015962999999999998
28020 0.56253483 9.835447140000001 1.15320474 -0.013119 -0.052226 0.018135
28040 0.5408253000000001 9.80222067 1.1027519099999998 -0.00678 -0.061852 0.022465
28060 0.51972399 9.87017454 1.24151436 -0.007812999999999999 -0.058636 0.01818
28080 0.52645365 9.755064 1.2602318400000003 -0.004574 -0.054369000000000015 0.013925
28100 0.48918546 9.67333689 1.25693568 -0.003412 -0.038372 0.008570999999999999
28120 0.52615935 9.732010500000001 1.25154999 0.005104 -0.051151 0.000101
28140 0.5140341900000001 9.78290478 1.24840098 0.004128 -0.034091 -0.003132
28160 0.4596966 9.89308089 1.2265541100000001 -0.002196 -0.015962999999999998 -0.002131
28180 0.44083197 9.932448420000002 1.1268550800000001 -0.001163 -0.028729 -0.007449
28200 0.59830209 9.91747836 1.2057471000000002 -0.002225 -0.028721 -0.008525
28220 0.6506973 9.87227388 1.1710197 -0.001139 -0.018097 -0.002121
28240 0.63153837 9.7983261 1.30947804 0.000995 -0.019166 -0.003173
28260 0.5824393200000001 9.76254903 1.2916630800000002 0.0074150000000000015 -0.011744 6.7e-05
28280 0.5070004200000001 9.876609900000002 1.24256403 0.008477 -0.008569 0.004343
28300 0.4543011 9.864033480000002 1.21397769 0.006368 -0.001113 0.006455
28320 0.45759726 9.818534699999999 1.24226973 0.012759 -0.006449 0.003302
28340 0.5661252900000001 9.890677440000001 1.3109691599999997 0.004224 -0.010663 -0.001025
28360 0.5694116400000001 9.74803023 1.32698889 0.004239 -0.005345 0.001105
28380 0.51537816 9.69713595 1.37474397 0.008401 -0.02243 0.007565
28400 0.49112784 9.79443153 1.4567751899999999 0.015835 -0.025669 0.011894
28420 0.40430934 9.81254079 1.3265376300000002 0.014864 -0.00436 0.01186
28440 0.40296537000000004 9.80041563 1.36037232 0.021289 -0.007543999999999999 0.003363
28460 0.51837021 9.80610543 1.3841713800000002 0.013855 -0.006427 -0.0031
28480 0.58079124 9.76568823 1.28836692 0.007449 -0.003226 0.001124
28500 0.5945644800000001 9.70641621 1.28223567 0.01485 -0.010739 0.008662999999999999
28520 0.62420049 9.75087513 1.30109049 0.02338 -0.005468 0.015125
28540 0.58677534 9.77601816 1.2629197800000003 0.024591 0.023303 0.011892
28560 0.53603802 9.767787570000001 1.34166465 0.033212 0.028655 -0.001941
28580 0.41059755000000003 9.847572300000001 1.3666605300000003 0.032226 0.036158 -0.01264
28600 0.36568737 9.76883724 1.36456119 0.025907 0.05429 -0.012707
28620 0.3441348 9.77377167 1.39091085 0.024845 0.068091 8.6e-05
28640 0.21899844000000002 9.80535987 1.2019996800000001 0.035446 0.060567 0.007648
28660 0.3153915 9.803260530000001 1.4114137500000001 0.041881 0.066941 0.006616
28680 0.3583593 9.85595004 1.3675532400000001 0.045096 0.066942 0.0034340000000000004
28700 0.38395359 9.85206528 1.18807929 0.046167 0.068004 0.00344
28720 0.4656807 9.869880240000002 1.2958519500000003 0.051459000000000005 0.056276 0.001356
28740 0.49112784 9.89667135 1.32175035 0.055726 0.05732200000000001 0.002452
28760 0.35475903000000003 9.8652303 1.2638223 0.059979 0.051989 0.000352
28780 0.3555144 9.80909748 1.29316401 0.057812 0.038174 -0.006054
28800 0.38096154000000004 9.7724277 1.3548296699999998 0.056774 0.042447000000000006 -0.008204000000000001
28820 0.39952206 9.7519248 1.3578217199999998 0.057807 0.033925 -0.009254
28840 0.36508896 9.77092677 1.2826869300000001 0.056692 0.025399 -0.007114
28860 0.35776089000000005 9.75491685 1.30873248 0.062036 0.034937 0.000389
28880 0.44097912 9.7692885 1.3051322100000002 0.06741799999999999 0.036022000000000005 -0.009189
28900 0.48693897 9.847121040000001 1.1707155900000001 0.065357 0.038216 -0.023093
28920 0.45011223 9.87151851 1.281186 0.06327100000000001 0.040388 -0.031656000000000004
28940 0.44113608000000004 9.855057330000001 1.3796784000000002 0.065414 0.039328 -0.034845
28960 0.35790804000000004 9.828109260000002 1.22594589 0.06327100000000001 0.038266 -0.03379
28980 0.38723994000000006 9.76284333 1.39045959 0.063252 0.032944 -0.034852
29000 0.52406001 9.78290478 1.4169564000000001 0.075035 0.040372000000000005 -0.037984
29020 0.50160492 9.7894971 1.3181598900000002 0.08250299999999999 0.030797 -0.047533
29040 0.44547210000000004 9.779314320000001 1.35992106 0.078327 0.041503 -0.05719
29060 0.33650262000000003 9.847121040000001 1.3709965499999999 0.08050399999999999 0.044717 -0.063588
29080 0.31419467999999995 9.861198390000002 1.21367358 0.084747 0.035132 -0.067819
29100 0.31718673000000003 9.82946304 1.2428681400000001 0.087976 0.041512 -0.06780499999999999
29120 0.41553198 9.83829204 1.3178557800000001 0.094426 0.045777 -0.074175
29140 0.50370426 9.85699971 1.3130685 0.097612 0.035143 -0.081616
29160 0.51283737 9.84458025 1.1816439300000001 0.091306 0.044799 -0.093423
29180 0.41777847 9.77646942 1.22579874 0.094502 0.037357 -0.099801
29200 0.46029501 9.81643536 1.2283493400000003 0.095569 0.033109 -0.104061
29220 0.4770603 9.833946209999999 1.19900763 0.106142 0.003278 -0.112494
29240 0.5086386900000001 9.830502899999999 1.15095825 0.109295 -0.015874 -0.120994
29260 0.56148516 9.783807300000001 1.23462774 0.111371 -0.036091000000000005 -0.128431
29280 0.5783976000000002 9.80476146 1.23462774 0.117662 -0.07546900000000001 -0.143291
29300 0.5095412100000001 9.86014872 1.1075490000000001 0.12612 -0.101031 -0.151745
29320 0.58947309 9.77333022 1.1249127 0.134573 -0.130841 -0.163399
29340 0.67150431 9.82332198 1.2213057600000001 0.13978800000000002 -0.160674 -0.16652899999999998
29360 0.6342263100000001 9.84262806 1.11847734 0.138668 -0.175572 -0.169722
29380 0.66956193 9.90265545 1.11083535 0.148069 -0.218224 -0.167465
29400 0.57779919 9.8564013 1.1183203800000001 0.15565199999999998 -0.197989 -0.172779
29420 0.4827501 9.79024266 1.07521524 0.167445 -0.192674 -0.180181
29440 0.53888292 9.891884070000001 1.0844955 0.189762 -0.211927 -0.180001
29460 0.55070397 9.84577707 1.10619522 0.20587600000000006 -0.200214 -0.192722
29480 0.58798197 9.824371650000002 1.0737143100000002 0.222845 -0.225827 -0.195775
29500 0.6081807600000001 9.77706783 1.08494676 0.239963 -0.214173 -0.194602
29520 0.59845905 9.84847482 1.1126403900000001 0.261357 -0.199342 -0.192335
29540 0.5290042500000001 9.90040896 1.0343467800000004 0.270911 -0.21109 -0.193322
29560 0.49771035 9.839783160000001 1.0298538000000002 0.286866 -0.226042 -0.197464
29580 0.57315906 9.845629920000002 1.08629073 0.301836 -0.213333 -0.192035
29600 0.5998030200000001 9.84922038 1.0557522 0.32102 -0.209173 -0.18336
29620 0.6122224800000001 9.88260381 1.03075632 0.342276 -0.217808 -0.173587
29640 0.6009998400000001 9.86044302 1.02446811 0.356236 -0.192311 -0.168181
29660 0.53857881 9.820025820000001 0.9318126600000001 0.367857 -0.214735 -0.164866
29680 0.60009732 9.86883057 1.02013209 0.389285 -0.196692 -0.166876
29700 0.5936619599999999 9.8444331 0.9806076 0.430988 -0.176593 -0.167679
29720 0.62615268 9.81928026 1.01099898 0.453277 -0.199055 -0.16429000000000002
29740 0.67434921 9.883202220000001 0.9617527800000001 0.469213 -0.202353 -0.152424
29760 0.67284828 9.820182780000001 0.9243276300000001 0.490584 -0.175873 -0.13308
29780 0.75413394 9.862689510000001 1.00889964 0.5044770000000001 -0.162107 -0.124455
29800 0.7502393700000001 9.840391380000002 0.8539703100000001 0.523834 -0.123842 -0.120096
29820 0.6855718500000001 9.84353058 0.9454387500000001 0.538976 -0.07596599999999999 -0.117915
