time Ax Ay Az Gx Gy Gz
20 -1.5182937 9.73739619 -0.40640868 0.002278 0.035133 0.003176
40 -1.47967173 9.72677196 -0.42227145000000005 0.0033590000000000004 0.036204 0.001045
60 -1.46694816 9.708662700000001 -0.42481224000000006 0.002297 0.036212 -3e-05
80 -1.48131981 9.7171974 -0.39278259 -0.001961 0.038357 -6.3e-05
100 -1.4738347800000002 9.73066653 -0.37496763 -0.006224 0.039437 -9.4e-05
120 -1.4894032499999998 9.71763885 -0.37467332999999997 -0.005152 0.040499 -8.8e-05
140 -1.47818061 9.76090095 -0.36434340000000004 -0.001952 0.043671 0.003135
160 -1.5069141000000001 9.74099646 -0.38424789000000004 0.004454 0.046835 0.005312
180 -1.5160472100000002 9.763294590000001 -0.38275677 0.005531 0.047901 0.00425
200 -1.52443476 9.74547963 -0.41045040000000005 0.004459 0.045779 0.003177
220 -1.51200549 9.7263207 -0.39772683000000003 0.001263 0.044733 0.00102
240 -1.5157431 9.72512388 -0.39787398 -0.00299 0.047944 0.000986
260 -1.50916059 9.72153342 -0.37362366 -0.007256999999999999 0.04902 0.002023
280 -1.49823225 9.7465293 -0.3962259 -0.005118999999999999 0.051139 0.0031030000000000003
300 -1.5004787400000001 9.75880161 -0.4047606000000001 -0.001913 0.052193 0.003124
320 -1.51320231 9.75716334 -0.39682431 0.000211 0.050055 0.0031420000000000003
340 -1.50197967 9.74204613 -0.4252635 0.000192 0.044733 0.0020800000000000003
360 -1.51021026 9.748922940000002 -0.44233290000000003 -0.001942 0.043679 0.000999
380 -1.50631569 9.752219100000001 -0.43050204000000003 -0.003009 0.044744 0.002058
400 -1.50093 9.71419554 -0.39637305000000006 -0.005157 0.042616 0.003114
420 -1.4934449699999999 9.71285157 -0.37123002000000005 -0.006224 0.041559 0.00204
440 -1.4937392700000003 9.736797780000002 -0.39756987000000005 -0.003014 0.042618 0.000993
460 -1.5039220500000001 9.73470825 -0.43185582000000006 0.000197 0.042615 -0.001121
480 -1.49988033 9.749227050000002 -0.41882814000000007 0.001244 0.03835 -0.001109
500 -1.49583861 9.752523210000001 -0.4221243 -0.003023 0.036243 -0.003272
520 -1.49583861 9.73470825 -0.43813422 -0.001961 0.038357 -6.3e-05
540 -1.4900016600000001 9.739642680000001 -0.39697146000000005 0.001215 0.035141000000000006 0.0021
560 -1.5193433699999999 9.747883080000001 -0.38620008 -0.000918 0.033027 -4.9e-05
580 -1.4864112000000003 9.72707607 -0.38500326000000007 -0.00199 0.030904 -0.0011220000000000002
600 -1.5021268200000002 9.73949553 -0.41718006 -0.003071 0.028773000000000007 -5.8e-05
620 -1.4862640500000002 9.75027672 -0.4090966200000001 0.0033060000000000003 0.027669 0.004261
640 -1.4956914600000002 9.7695828 -0.38859372000000003 0.01396 0.025497 0.005406
660 -1.50631569 9.768533130000002 -0.38155995000000004 0.019295 0.024417 0.004376
680 -1.50466761 9.70447383 -0.39936510000000003 0.016104 0.024437 0.002218
700 -1.50961185 9.736199370000001 -0.41628735 0.00544 0.024478 0.001075
720 -1.4801229900000001 9.731559240000001 -0.4309533 0.000115 0.026627 0.001035
740 -1.47772935 9.73560096 -0.42241860000000003 -0.000933 0.030892000000000006 0.001022
760 -1.47293226 9.77108373 -0.39158577000000006 0.0012109999999999998 0.031954 -3.2e-05
780 -1.4994290700000001 9.76883724 -0.39188987999999997 0.0044210000000000005 0.035135 0.0010539999999999998
800 -1.48595994 9.783807300000001 -0.41882814000000007 0.004425999999999999 0.035139 -1.4e-05
820 -1.4952402 9.75401433 -0.43783992 0.0033490000000000004 0.035134 0.002115
840 -1.4925424500000002 9.705366540000002 -0.41389371 0.005483 0.036188 0.003197
860 -1.5070612500000002 9.73515951 -0.38185425 0.004416 0.03513 0.002122
880 -1.50347079 9.744439770000001 -0.36494181 0.002278 0.036194 0.004242
900 -1.52891793 9.70266879 -0.35535744 -0.0019760000000000003 0.038344 0.0031420000000000003
920 -1.50631569 9.72287739 -0.39323385000000005 -0.0040950000000000005 0.041547 0.003123
940 -1.49733954 9.736650630000002 -0.40954788000000003 -0.001952 0.041549 0.001001
960 -1.5470370000000002 9.75162069 -0.40581027000000003 0.001259 0.044729000000000005 0.002088
980 -1.5123096 9.7724277 -0.40849821 0.004469 0.045787 0.001041
1000 -1.5057172800000003 9.75446559 -0.38904498 0.003392 0.045782 0.00317
1020 -1.5060213900000003 9.73784745 -0.41703291000000003 0.001259 0.044729000000000005 0.002088
1040 -1.50078285 9.70312005 -0.40012047 0.000177 0.043659 0.004218
1060 -1.5170968800000002 9.723927060000001 -0.37721412000000004 0.002306 0.041525 0.003168
1080 -1.52532747 9.728115930000001 -0.40146444000000003 0.00123 0.039398 0.003163
1100 -1.5383551500000001 9.73066653 -0.37137717000000003 -0.003023 0.041548 0.002062
1120 -1.53730548 9.76972995 -0.39457782 -0.0008849999999999998 0.044728 0.004209
1140 -1.52443476 9.77273181 -0.40550616000000006 0.002321 0.045782 0.004229999999999999
1160 -1.5220313100000002 9.75671208 -0.39847239000000007 0.004454 0.044713 0.0031780000000000003
1180 -1.5178424400000001 9.75312162 -0.38993769 -0.000904 0.040467 0.004215
1200 -1.5058644300000001 9.721082160000002 -0.40266126 -0.0030280000000000003 0.041544 0.00313
1220 -1.51918641 9.73724904 -0.41553198 -0.003023 0.042609 0.003129
1240 -1.5190392600000002 9.77797035 -0.41583609000000005 -0.006214 0.042629 0.00097
1260 -1.49733954 9.715392360000001 -0.38723994000000006 -0.003033 0.040478 0.003132
1280 -1.51485039 9.715696470000001 -0.4167288 -0.0019760000000000003 0.036222 0.001008
1300 -1.54015038 9.763893 -0.41299119 -0.005147 0.045808 0.004178
1320 -1.5081109199999998 9.764491410000002 -0.41643450000000004 -0.001956 0.044727 0.00527
1340 -1.49224815 9.75685923 -0.40430934 0.002282 0.03726 0.004241
1360 -1.4864112000000003 9.736954740000002 -0.40325967 0.00334 0.035125 0.004251
1380 -1.54359369 9.71839422 -0.41553198 -0.000923 0.036206 0.004220000000000001
1400 -1.5087093300000003 9.72064071 -0.39667716000000003 -0.00198 0.03834 0.00421
1420 -1.50347079 9.733207320000002 -0.41658165 -0.006219 0.043685 0.003105
1440 -1.5214329000000002 9.759556980000001 -0.39816828 -0.005171 0.040482 0.004185
1460 -1.52891793 9.736199370000001 -0.41598324 -0.000909 0.03834 0.003149
1480 -1.49628987 9.76284333 -0.40864536 -0.000904 0.041528 0.005282
1500 -1.49404338 9.74803023 -0.4326013800000001 0.000177 0.042598 0.003151
1520 -1.49928192 9.75087513 -0.41179437 0.001235 0.039403 0.002095
1540 -1.54044468 9.7203366 -0.41014629 0.002287 0.034081 -2.8000000000000006e-05
1560 -1.5025780800000001 9.72467262 -0.39847239000000007 0.001191 0.027693 -2.7e-05
1580 -1.49868351 9.733207320000002 -0.39892365 0.002225 0.020233 -1e-05
1600 -1.48236948 9.7493742 -0.40340682000000005 0.003258 0.013833000000000002 0.001073
1620 -1.5064628400000002 9.7377003 -0.42062337 0.004291 0.008494 0.0032240000000000003
1640 -1.5178424400000001 9.736797780000002 -0.43289568 0.001086 0.006379 0.002136
1660 -1.5123096 9.76044969 -0.40789980000000003 3.4e-05 0.01064 0.003191
1680 -1.5170968800000002 9.76898439 -0.43589754000000003 0.003296 0.025538 0.004263
1700 -1.49449464 9.73336428 -0.43769277 0.005493 0.038318 0.003194
1720 -1.4892561 9.73724904 -0.40940073 0.011946 0.046831 2.3e-05
1740 -1.4844590100000001 9.71524521 -0.39053610000000005 0.013041999999999998 0.054279 0.00109
1760 -1.44524844 9.74547963 -0.37991187 0.008813 0.06387799999999999 0.002116
1780 -1.4341631400000003 9.752219100000001 -0.39502908 0.000297 0.071351 0.005252000000000001
1800 -1.4133561300000002 9.74129076 -0.40117014 -0.00287 0.080941 0.007354
1820 -1.4618567700000002 9.759409830000001 -0.4300605900000001 -0.000722 0.085191 0.008431999999999999
1840 -1.53670707 9.72871434 -0.40400523 -0.001745 0.09266 0.006278
1860 -1.58071473 9.73215765 -0.41449212 -0.004936 0.093741 0.005187
1880 -1.61005644 9.75057102 -0.38259981000000004 -0.006051 0.08415299999999999 0.006259000000000001
1900 -1.6109491500000002 9.74593089 -0.40356378000000004 -0.004965 0.08416599999999999 0.001994
1920 -1.5962832 9.75207195 -0.40565331 -0.006051 0.078848 0.000925
1940 -1.57577049 9.72377991 -0.38410074000000005 -0.003913000000000001 0.07884400000000001 -0.000128
1960 -1.5795179099999999 9.69938244 -0.3529638 0.001393 0.07561699999999999 0.003117
1980 -1.57577049 9.715696470000001 -0.36224406000000003 0.003488 0.06921000000000001 0.005277
2000 -1.5343134299999999 9.71359713 -0.34982460000000004 0.001311 0.060691 0.006340999999999999
2020 -1.5224825700000002 9.75312162 -0.35311095000000003 0.004483 0.052166 0.004237
2040 -1.4862640500000002 9.747578970000001 -0.37841094 0.005521 0.045771 0.004253
2060 -1.51006311 9.699529590000001 -0.38589597 0.004435000000000001 0.039391 0.002117
2080 -1.5238265400000002 9.6887484 -0.37676286000000003 0.00443 0.038326 0.002118
2100 -1.48595994 9.74803023 -0.41478642000000004 0.001249 0.040476 -4.3e-05
2120 -1.4711370300000002 9.76733631 -0.44233290000000003 0.001239 0.038346 -4e-05
2140 -1.4668010100000002 9.77377167 -0.43874244 -0.000909 0.034096 -0.001118
2160 -1.4599143900000002 9.755368110000001 -0.42705873000000005 0.002258 0.027689 -2e-05
2180 -1.46964591 9.732010500000001 -0.42466509 0.002258 0.026628 -0.001087
2200 -1.45362618 9.72497673 -0.44532495 0.005449 0.026609 0.001072
2220 -1.45213506 9.771525180000001 -0.42466509 0.004378 0.024486 -1e-06
2240 -1.47577716 9.74982546 -0.43484787 0.00543 0.019165 -0.002123
2260 -1.5094647 9.72542799 -0.39847239000000007 0.002234 0.018119 -0.00428
2280 -1.4846159700000001 9.72168057 -0.40430934 0.0033060000000000003 0.019181 -0.004274
2300 -1.4901488100000002 9.71794296 -0.39682431 0.0075590000000000015 0.018092 -0.002107
2320 -1.47877902 9.71763885 -0.40625172 0.01076 0.018081 -0.002084
2340 -1.4911984800000002 9.755515260000001 -0.40356378000000004 0.011827 0.017016 -0.003144
2360 -1.51454628 9.746235 -0.41748417 0.008602 0.013822999999999998 -0.001026
2380 -1.4906000700000002 9.74593089 -0.41179437 0.004339 0.012781 -0.003191
2400 -1.45213506 9.74279169 -0.41164722000000004 0.004349 0.015972999999999998 -0.002127
2420 -1.4879023200000001 9.735757920000001 -0.45745011 0.009702 0.020215 -0.002095
2440 -1.49778099 9.740093940000001 -0.44023356 0.012913 0.023395 -0.001008
2460 -1.4907472200000003 9.74862864 -0.43574058 0.017175 0.025498 0.002224
2480 -1.48969755 9.752523210000001 -0.40820391000000006 0.017169999999999998 0.025494 0.003292
2500 -1.48191822 9.73904427 -0.41822973 0.009722 0.025537 -0.001033
2520 -1.51559595 9.731863350000001 -0.43245423 -0.004133 0.02772 -0.0022010000000000003
2540 -1.52278668 9.73829871 -0.43020774 -0.013706 0.035206 -0.001209
2560 -1.5275739600000002 9.737101890000002 -0.40625172 -0.012596 0.042668 -0.003347
2580 -1.5343134299999999 9.77317326 -0.38679849 -0.008319 0.046906 -0.001186
2600 -1.5458401800000001 9.73560096 -0.40086603 0.002354 0.047934 -0.001113
2620 -1.52802522 9.73066653 -0.41628735 0.006622 0.04898 -1.7e-05
2640 -1.5057172800000003 9.73380573 -0.44398098 0.004483 0.048983 0.001037
2660 -1.52577873 9.74099646 -0.4625415 0.0044740000000000005 0.048974 0.003173
2680 -1.5658918200000003 9.71809011 -0.41194152000000006 0.004454 0.046835 0.005312
2700 -1.5135064200000001 9.721386270000002 -0.38080458 0.009784 0.04363 0.003217
2720 -1.54792971 9.68156748 -0.35625996000000004 0.010856 0.042569 0.001089
2740 -1.5826571100000002 9.68216589 -0.38424789000000004 0.014027 0.038288 0.003254
2760 -1.5464385900000002 9.740241090000001 -0.38215836 0.01086 0.045756 0.003222
2780 -1.53984627 9.78455286 -0.46029501 0.010889 0.051087 0.002147
2800 -1.57308255 9.735757920000001 -0.44981793 0.006631000000000001 0.053232 0.002115
2820 -1.52218827 9.75640797 -0.42975648 0.009827 0.051095 0.001071
2840 -1.5206873400000003 9.73800441 -0.40610457000000005 0.015171 0.053207 0.001106
2860 -1.5462816300000002 9.755662410000001 -0.42136893000000003 0.009841 0.058535 0.005335
2880 -1.53924786 9.74293884 -0.43424946000000003 0.006626000000000001 0.056411 0.006383
2900 -1.5429952800000002 9.74488122 -0.43693740000000003 0.009803 0.050013 0.005345
2920 -1.52697555 9.77048532 -0.41583609000000005 0.0034020000000000005 0.048974 0.004234
2940 -1.55541474 9.712106010000001 -0.42571475999999997 0.001283 0.052177 0.004215
2960 -1.56904083 9.721239120000002 -0.41373675 0.003407 0.052161 0.006365999999999999
2980 -1.5633510300000002 9.70746588 -0.41208867000000005 0.007654999999999999 0.046824 0.005335
3000 -1.56784401 9.73351143 -0.42841251 0.008722 0.046821 0.005342
3020 -1.5489793800000002 9.74547963 -0.40086603 0.005516 0.045766 0.005321
3040 -1.51021026 9.74817738 -0.41913225000000004 0.006583 0.046824 0.0063950000000000005
3060 -1.51035741 9.7231815 -0.46912401000000004 0.00977 0.043617 0.006422
3080 -1.53655011 9.70641621 -0.47930679000000004 0.004416 0.040435000000000006 0.007456999999999998
3100 -1.5126039000000002 9.724829580000002 -0.41658165 0.00015800000000000002 0.042581 0.007423999999999998
3120 -1.54209276 9.75072798 -0.41553198 -0.001966 0.040475 0.003139
3140 -1.5117111900000002 9.743988510000001 -0.41404086 -0.001956 0.043666 0.004203
3160 -1.53011475 9.70072641 -0.46194309 0.00122 0.040451 0.006365999999999999
3180 -1.56529341 9.72647766 -0.46702467 0.0033590000000000004 0.04257 0.007445999999999999
3200 -1.5364029600000002 9.74638215 -0.43874244 0.003368 0.045761 0.008511
3220 -1.53341091 9.72901845 -0.44188164 0.004425999999999999 0.043627 0.008520999999999999
3240 -1.55376666 9.74967831 -0.43319979 -0.000918 0.040454 0.0074189999999999985
3260 -1.54194561 9.72961686 -0.44577621000000006 -0.007315 0.040481 0.006306
3280 -1.5064628400000002 9.71031078 -0.44726733 -0.014783 0.042629 0.008388
3300 -1.5521185800000001 9.72691911 -0.46673037000000006 -0.016916 0.042636 0.008373
3320 -1.5383551500000001 9.680370660000001 -0.45370269 -0.013716 0.040503 0.006261999999999999
3340 -1.5310172700000002 9.791586630000001 -0.43035489 -0.007324 0.039411 0.0073760000000000015
3360 -1.5383551500000001 9.75895857 -0.43349409 -0.000928 0.038323 0.007422
3380 -1.5313115700000002 9.70701462 -0.46134468 0.004411 0.03937 0.007458
3400 -1.55481633 9.708358590000001 -0.47646189000000005 0.005478 0.041488 0.009599
3420 -1.52158986 9.711801900000001 -0.49322718000000004 -0.00198 0.043645 0.009544
3440 -1.51918641 9.736797780000002 -0.46986957000000007 -0.0062380000000000005 0.044729000000000005 0.008445000000000001
3460 -1.5214329000000002 9.72078786 -0.44113608000000004 -0.012649 0.042621 0.008403
3480 -1.51290801 9.73365858 -0.43200297000000004 -0.013701 0.04476 0.007324
3500 -1.5522755400000001 9.715392360000001 -0.43874244 -0.014754 0.045837 0.005179
3520 -1.55840679 9.77287896 -0.46508229 -0.013706 0.042633 0.006259000000000001
3540 -1.51918641 9.76972995 -0.45460521000000004 -0.009439 0.04368 0.007356
3560 -1.54314243 9.76464837 -0.45445806 -0.004104 0.045783 0.009527
3580 -1.5268284 9.74877579 -0.47751156 -0.00409 0.048979 0.009523
3600 -1.53341091 9.73920123 -0.47691315 -0.005162 0.048978 0.010583
3620 -1.52607303 9.712557270000001 -0.47570652 -0.009444 0.045797 0.010558
3640 -1.51694973 9.712106010000001 -0.4713705 -0.01584 0.045824 0.009445
3660 -1.5236793900000003 9.7234758 -0.4326013800000001 -0.021165 0.045851 0.007271
3680 -1.51155423 9.72542799 -0.44607051 -0.021155 0.046921 0.006201
3700 -1.52726985 9.73215765 -0.46089342000000005 -0.022217 0.045868 0.004059
3720 -1.5344605800000002 9.755966520000001 -0.46358136 -0.017974 0.041587 0.005162
3740 -1.5299676 9.74099646 -0.44398098 -0.012635 0.040512 0.003064
3760 -1.5232281300000001 9.743537250000001 -0.4397823 -0.004085 0.042617 0.002053
3780 -1.50961185 9.751169430000001 -0.44712018000000003 -0.0008990000000000002 0.040471 0.003147
3800 -1.5021268200000002 9.739348380000001 -0.45580203 0.000173 0.041533 0.003153
3820 -1.5094647 9.72153342 -0.4252635 0.00015800000000000002 0.038337 0.003157
3840 -1.49823225 9.724378320000001 -0.43229727000000007 0.002273 0.035129 0.004244
3860 -1.50526602 9.731716200000001 -0.41179437 0.007593000000000002 0.032976 0.005352
3880 -1.5081109199999998 9.73410984 -0.41553198 0.018261000000000003 0.031878 0.00436
3900 -1.4864112000000003 9.727968780000001 -0.42781410000000003 0.02783 0.026509 0.00657
3920 -1.48865769 9.75836016 -0.42975648 0.04378 0.02004 0.012031
3940 -1.51694973 9.75326877 -0.44382402 0.053372 0.016815 0.011033
3960 -1.50781662 9.81090252 -0.41493357000000003 0.046995 0.021103 0.009915
3980 -1.4584134600000003 9.807459210000001 -0.41059755000000003 0.028872 0.02224 0.0076510000000000015
4000 -1.4754828599999998 9.75042387 -0.42317397000000007 0.008616 0.023385 0.005371
4020 -1.46829213 9.735453810000001 -0.40236696 -0.005248 0.024498 0.005273
4040 -1.4602086900000002 9.75027672 -0.43289568 -0.010558 0.026660000000000003 0.002029
4060 -1.46829213 9.7781175 -0.44637462000000006 -0.007324 0.033045 0.000975
4080 -1.46170962 9.779010210000001 -0.42391953000000004 -0.001966 0.037292 -6.2e-05
4100 -1.45542141 9.86343507 -0.42541065000000006 0.00016299999999999998 0.03728 0.001022
4120 -1.48191822 9.7954812 -0.46373832000000004 0.001215 0.035141000000000006 0.0021
4140 -1.47967173 9.7607538 -0.44008641 0.000144 0.035141000000000006 0.003161
4160 -1.4569223400000002 9.728115930000001 -0.43574058 0.0012109999999999998 0.036198 0.004235
4180 -1.4742860400000002 9.71120349 -0.41194152000000006 0.0044210000000000005 0.039379 0.005322
4200 -1.49628987 9.68291145 -0.37781253 0.007617 0.038302 0.005345
4220 -1.50826788 9.69833277 -0.35671122 0.005497 0.038322 0.0021260000000000003
4240 -1.52472906 9.67482801 -0.34069149000000004 0.002311 0.043651 0.004233
4260 -1.5124567500000001 9.695487870000001 -0.39816828 0.004469 0.047909 0.003174
4280 -1.52413065 9.752366250000001 -0.40700709 0.006606999999999999 0.048967 0.003188
4300 -1.52577873 9.75296466 -0.43140456000000005 0.009808 0.050017 0.004277
4320 -1.50766947 9.763893 -0.38679849 0.01088 0.048956 0.00215
4340 -1.48057425 9.737101890000002 -0.41478642000000004 0.011932 0.04894 0.005362
4360 -1.46739942 9.74293884 -0.42616602000000003 0.016199 0.048925 0.005392
4380 -1.46829213 9.744439770000001 -0.42736284 0.019395 0.047848 0.005415
4400 -1.47203955 9.763147440000001 -0.42182019000000004 0.019386 0.045718 0.005418
4420 -1.49778099 9.724074210000001 -0.4281084 0.016204 0.048929 0.004323
4440 -1.50901344 9.728420040000001 -0.42032907 0.01729 0.053187 0.004326
4460 -1.5340093200000002 9.73246176 -0.42361542 0.017286000000000003 0.054242999999999986 0.006461
4480 -1.5349118400000004 9.764942670000002 -0.42691158 0.014071 0.049998 0.005375
4500 -1.51963767 9.76254903 -0.42077052000000004 0.007665000000000002 0.047894 0.004265
4520 -1.5167927700000001 9.74638215 -0.40700709 0.0023350000000000003 0.047917 0.00316
4540 -1.51021026 9.7288713 -0.43829118000000006 -0.001952 0.047915 0.007403
4560 -1.4937392700000003 9.74099646 -0.45221157000000006 0.000192 0.047916 0.005281
4580 -1.50482457 9.779010210000001 -0.45266283000000007 0.006587999999999999 0.046828 0.005327
4600 -1.4894032499999998 9.764942670000002 -0.42765714000000005 0.012989 0.047867 0.006439
4620 -1.4852143800000002 9.75745764 -0.40835106000000004 0.013004 0.050001 0.005368
4640 -1.52802522 9.74264454 -0.44637462000000006 0.005531 0.050023000000000005 0.006384
4660 -1.5209914500000001 9.71375409 -0.4366431 -0.003018 0.046857 0.006328
4680 -1.49419053 9.7171974 -0.46403262 -0.007291 0.044746 0.005233
4700 -1.48117266 9.70821144 -0.44981793 -0.005138 0.049 0.005242
4720 -1.4837134500000002 9.73470825 -0.47032083 -0.003004 0.048992 0.005257
4740 -1.5027252300000002 9.72227898 -0.42421383 -0.000866 0.051111 0.006338
4760 -1.47533571 9.68291145 -0.4309533 0.00233 0.050034 0.006361
4780 -1.48057425 9.7664436 -0.47601063 0.003397 0.050031 0.006369
4800 -1.4911984800000002 9.75072798 -0.49846572000000006 0.000187 0.047911 0.0063490000000000005
4820 -1.49823225 9.743841360000001 -0.49756320000000004 -0.004085 0.046861 0.006321
4840 -1.49614272 9.739348380000001 -0.46747593000000004 -0.012615 0.047956 0.00626
4860 -1.50362775 9.724525470000001 -0.46732878 -0.015806 0.049037 0.005168
4880 -1.48161411 9.69802866 -0.47211606000000006 -0.018988 0.052248 0.004072999999999999
4900 -1.47952458 9.740241090000001 -0.48723327000000005 -0.017931 0.051175 0.00515
4920 -1.49404338 9.719434080000001 -0.48753738 -0.014730000000000004 0.051164 0.005173
4940 -1.49538735 9.767189160000001 -0.48768453 -0.006205 0.049003 0.005235
4960 -1.51425198 9.740241090000001 -0.49502241 -0.006224 0.045803 0.006307
4980 -1.49973318 9.7490799 -0.5072947200000001 -0.006214 0.045812 0.004171
5000 -1.5004787400000001 9.7348554 -0.51642783 -0.006224 0.044742 0.00524
5020 -1.48431186 9.70686747 -0.49516956 -0.010506 0.041561 0.005214
5040 -1.4898545100000002 9.72243594 -0.49756320000000004 -0.013697 0.041581 0.003056
5060 -1.49478894 9.71674614 -0.49098069000000005 -0.009429 0.042627 0.004152
5080 -1.49583861 9.72542799 -0.48005235 -0.001971 0.041531 0.005274
5100 -1.4865583500000001 9.71390124 -0.48155328000000003 0.005478 0.038305 0.006399
5120 -1.49134563 9.73829871 -0.4827501 0.007587999999999998 0.031911 0.005353
5140 -1.4907472200000003 9.771230880000001 -0.49277592000000003 0.006502 0.029775 0.007484999999999999
5160 -1.47098988 9.74324295 -0.5170262400000001 -0.000976 0.028732 0.008502
5180 -1.4618567700000002 9.72003249 -0.51552531 -0.00952 0.024509 0.006311
5200 -1.4925424500000002 9.75700638 -0.50370426 -0.008444 0.024514 0.004182
5220 -1.4718924000000002 9.78605379 -0.47870838000000004 -0.004172 0.025564 0.004211
5240 -1.44584685 9.75162069 -0.47795301 0.002239 0.026611000000000003 0.003186
5260 -1.45257651 9.74204613 -0.44502084000000003 0.001158 0.02448 0.00425
5280 -1.48969755 9.755211150000001 -0.46089342000000005 9.6e-05 0.025549 0.004241
5300 -1.4810157 9.751473540000001 -0.51523101 -0.002043 0.024491 0.004227000000000001
5320 -1.45542141 9.75895857 -0.49277592000000003 -0.005243 0.024503 0.004205
5340 -1.45092843 9.763598700000001 -0.48962690999999997 -0.005243 0.023442 0.003138
5360 -1.43820486 9.73949553 -0.48094506000000004 -0.005248 0.022376 0.003139
5380 -1.45946313 9.73440414 -0.45130905 -0.003114 0.02343 0.004221
5400 -1.4567751899999999 9.72617355 -0.44921952000000004 -0.000971 0.024492 0.003166
5420 -1.4632105499999999 9.755064 -0.43619184 0.003296 0.023416 0.002129
5440 -1.4711370300000002 9.75296466 -0.44173449000000004 0.005425 0.023404 0.003213
5460 -1.48236948 9.74683341 -0.44921952000000004 0.0033060000000000003 0.025547 0.002127
5480 -1.4907472200000003 9.73739619 -0.45819567 -0.000957 0.026627 0.002096
5500 -1.46395611 9.74488122 -0.47466666 -0.002019 0.027696 0.0020870000000000003
5520 -1.4747373 9.721239120000002 -0.45085779000000004 0.001187 0.029811 0.003175
5540 -1.46395611 9.73081368 -0.44322561 0.004397 0.03193 0.003194
5560 -1.4572166400000002 9.73410984 -0.42406668000000003 0.009741 0.035102999999999995 0.004296
5580 -1.46036565 9.75027672 -0.42481224000000006 0.0065450000000000005 0.035119 0.0032049999999999995
5600 -1.47967173 9.751473540000001 -0.43215012 0.002268 0.033003 0.0031780000000000003
5620 -1.4974866900000001 9.765246780000002 -0.43140456000000005 -0.004118999999999999 0.035160000000000004 0.002063
5640 -1.49134563 9.743684400000001 -0.44577621000000006 -0.0040950000000000005 0.039425 0.000989
5660 -1.4846159700000001 9.73800441 -0.42930522000000004 0.000182 0.04048 -5.1e-05
5680 -1.4865583500000001 9.7234758 -0.41418801000000005 0.0012779999999999998 0.044746 -0.0021850000000000003
5700 -1.48206537 9.740545200000001 -0.41733702000000006 0.002345 0.046864 -4.4e-05
5720 -1.47877902 9.73979964 -0.41358960000000006 0.000206 0.048989 0.003143
5740 -1.46096406 9.76195062 -0.42002496 0.002325 0.044725 0.002095
5760 -1.4742860400000002 9.760155390000001 -0.43289568 0.001249 0.042598 0.002091
5780 -1.4888048400000002 9.73739619 -0.42361542 0.005497 0.041505 0.005326
5800 -1.49150259 9.73755315 -0.43140456000000005 0.005512 0.042579 0.003189
5820 -1.4681449800000002 9.719738190000001 -0.41748417 0.006573999999999999 0.042571 0.004264
5840 -1.48595994 9.70641621 -0.40430934 0.006573999999999999 0.040449 0.002131
5860 -1.51215264 9.736797780000002 -0.40041477000000003 0.002321 0.042599 0.00103
5880 -1.50167556 9.780815250000002 -0.38005902 0.001263 0.044733 0.00102
5900 -1.4792204699999998 9.77048532 -0.40849821 -0.0008699999999999999 0.044741 0.001005
5920 -1.47877902 9.74458692 -0.43050204000000003 -0.000875 0.044736 0.002073
5940 -1.4888048400000002 9.744439770000001 -0.45370269 0.001259 0.044729000000000005 0.002088
5960 -1.49538735 9.73066653 -0.45176031000000005 0.0033880000000000004 0.044717 0.003171
5980 -1.4602086900000002 9.74458692 -0.43843833 0.007659999999999998 0.044706 0.002133
6000 -1.4668010100000002 9.787544910000001 -0.41643450000000004 0.010851 0.044687 0.004291
6020 -1.46395611 9.77482134 -0.42721569 0.010875 0.052135 0.006418000000000001
6040 -1.47443319 9.752817510000002 -0.44322561 0.008779 0.060665 0.006393
6060 -1.4804172899999999 9.743684400000001 -0.41703291000000003 0.009885 0.06918300000000001 0.00639
6080 -1.50856218 9.747431820000001 -0.42945237 0.009928 0.075587 0.003177
6100 -1.4910513300000003 9.73590507 -0.42421383 0.007823 0.081986 0.003154
6120 -1.5067669500000003 9.74099646 -0.40071888000000006 0.002503 0.086262 0.00418
6140 -1.49674113 9.731559240000001 -0.44322561 0.006703 0.07345499999999999 0.006362
6160 -1.48086855 9.764795520000002 -0.42437079 0.003493 0.07345800000000001 0.008476000000000001
6180 -1.47098988 9.747431820000001 -0.44083197 0.008751 0.054273 0.006401
6200 -1.4862640500000002 9.76464837 -0.45071064 0.011942 0.046826 0.001092
6220 -1.4864112000000003 9.749227050000002 -0.44083197 0.004454 0.042591 0.001045
6240 -1.5328125000000001 9.76404996 -0.46822149 0.0075689999999999985 0.021283 -0.001043
6260 -1.51125993 9.73425699 -0.44697303 0.008568000000000001 0.007427 5e-05
6280 -1.55107872 9.755966520000001 -0.44217594000000005 0.003201 0.004233 0.00429
6300 -1.5721800300000002 9.716294880000001 -0.46313991000000004 1.4e-05 0.009562 0.006397
6320 -1.55780838 9.72528084 -0.40835106000000004 0.006406 0.00847 0.007511
6340 -1.4923952999999999 9.72677196 -0.42930522000000004 0.014916999999999996 0.003114 0.007578
6360 -1.4807214000000002 9.73724904 -0.43963515000000003 0.009621 0.009533 0.005396
6380 -1.47233385 9.77392863 -0.4340925 0.008549 0.005288 0.002189
6400 -1.46859624 9.72691911 -0.45206442 0.00433 0.014895 0.001079
6420 -1.4531749200000001 9.709113960000002 -0.43470072 0.003282 0.017037 -0.001067
6440 -1.40258475 9.77257485 -0.4192794 0.002182 0.010645 2e-06
6460 -1.36066662 9.75326877 -0.46882971 0.003215 0.006368 0.003219
6480 -1.3894099199999999 9.7263207 -0.46134468 0.00854 0.00634 0.005393
6500 -1.41575958 9.755515260000001 -0.49980969000000003 0.006401 0.003161 0.0032450000000000005
6520 -1.40019111 9.76419711 -0.5298969600000001 0.006377000000000001 -0.004288 0.001118
6540 -1.43626248 9.7667379 -0.5551969500000001 0.011683 -0.011759 9.7e-05
6560 -1.45048698 9.76764042 -0.49038228 0.014903 -0.005386999999999999 0.002247
6580 -1.4519781 9.712557270000001 -0.48723327000000005 0.010731 0.021238 0.007525
6600 -1.4745803400000002 9.73081368 -0.48199473000000004 0.001215 0.037263 0.004234
6620 -1.4861070900000002 9.735306660000001 -0.47481381 -0.004065999999999999 0.045817 0.000981
6640 -1.5135064200000001 9.712557270000001 -0.47691315 -0.008338 0.044767 0.000953
6660 -1.4599143900000002 9.743684400000001 -0.50355711 -0.013663 0.045855 -0.000154
6680 -1.4651529300000001 9.75716334 -0.47450970000000003 -0.007291 0.039441 -0.000101
6700 -1.49419053 9.77452704 -0.46642626 -0.005176 0.036233 0.000986
6720 -1.50466761 9.73425699 -0.44338257000000003 0.001235 0.039403 0.002095
6740 -1.51290801 9.71031078 -0.46044216 0.001268 0.045798 0.001018
6760 -1.51095582 9.75207195 -0.49382559000000004 -0.00299 0.051127 0.004186
6780 -1.5190392600000002 9.76090095 -0.5051953800000001 -0.004037 0.054331 0.003107
6800 -1.52503317 9.75745764 -0.47481381 -0.010415 0.058618 0.001989
6820 -1.5494306400000002 9.69099489 -0.46433673000000003 -0.01361 0.057573 -0.000169
6840 -1.58669883 9.72901845 -0.50355711 -0.011491 0.053308 -0.001217
6860 -1.4883535800000003 9.707613030000001 -0.393381 -0.005109000000000001 0.051147000000000005 0.000967
6880 -1.52652429 9.67886973 -0.49935843 -0.001918 0.051127 0.0031260000000000003
6900 -1.50721821 9.73036242 -0.4504163400000001 0.00023 0.054316 0.003137
6920 -1.5010771500000002 9.728115930000001 -0.48603645 0.002369 0.055374 0.00315
6940 -1.4784749099999999 9.75865446 -0.48753738 0.00024 0.054324 0.001
6960 -1.4910513300000003 9.743537250000001 -0.50160492 -0.001904 0.052201 0.0009880000000000002
6980 -1.50631569 9.75102228 -0.4776587100000001 -0.002975 0.05114 0.000982
7000 -1.52592588 9.74069235 -0.48873420000000006 0.001283 0.048994 0.001014
7020 -1.5057172800000003 9.73889712 -0.47930679000000004 0.005545 0.047914 0.001046
7040 -1.5058644300000001 9.71928693 -0.45909819 0.009803 0.042586 -0.002123
7060 -1.5143991300000001 9.736650630000002 -0.45849978 0.01297 0.035118 -0.002091
7080 -1.51334946 9.755368110000001 -0.49007817000000004 0.012980000000000002 0.03937 4e-05
7100 -1.5135064200000001 9.783807300000001 -0.47391129 0.011898 0.040422 0.004304
7120 -1.4976338400000002 9.74638215 -0.48079791 0.011884 0.038287 0.005375
7140 -1.4931408600000002 9.7582032 -0.44577621000000006 0.0065450000000000005 0.03618 0.004272
7160 -1.5001844400000002 9.768238830000001 -0.47450970000000003 0.005459 0.032983 0.005337
7180 -1.49823225 9.7519248 -0.47810997000000005 0.004392 0.03617 0.00853
7200 -1.48027014 9.731412090000001 -0.45310428 0.005454 0.037223 0.010673
7220 -1.46964591 9.72528084 -0.46058931000000003 0.006520999999999999 0.034036000000000004 0.007479
7240 -1.50766947 9.7493742 -0.48034665000000004 0.007626000000000002 0.038311000000000005 0.0032090000000000005
7260 -1.48117266 9.78934014 -0.4625415 0.005521 0.039405 -0.002148
7280 -1.4688905399999999 9.747431820000001 -0.46927115999999996 0.0076409999999999985 0.034079000000000005 -0.004263
7300 -1.4368608900000002 9.755809560000001 -0.49366863 0.011889 0.029803 -0.004228
7320 -1.4711370300000002 9.803417490000001 -0.47256732 0.012913 0.025517 0.001126
7340 -1.46994021 9.73844586 -0.48529089000000003 0.009678 0.025499 0.008581
7360 -1.44764208 9.69847992 -0.47660904000000004 0.007520999999999998 0.024424 0.01284
7380 -1.42399017 9.724074210000001 -0.46897686000000005 0.005386999999999999 0.024431 0.012825
7400 -1.4684490900000002 9.749227050000002 -0.4573029600000001 0.001153 0.02872 0.009585
7420 -1.4852143800000002 9.731863350000001 -0.45130905 0.000129 0.035128 0.006365
7440 -1.53775674 9.739946790000001 -0.47436255000000005 0.00016299999999999998 0.041524 0.005289
7460 -1.56080043 9.75386718 -0.45610614000000005 0.002306 0.044708 0.006368
7480 -1.53790389 9.73380573 -0.46134468 0.005497 0.042566 0.006393
7500 -1.53984627 9.71883567 -0.42032907 0.003373 0.044704 0.006376
7520 -1.50526602 9.75850731 -0.39682431 0.002297 0.046822 0.010638
7540 -1.46440737 9.77751909 -0.43020774 0.00123 0.046825 0.010631
7560 -1.43327043 9.74188917 -0.44816985000000004 -0.006233 0.047917 0.010577
7580 -1.41815322 9.72946971 -0.4625415 -0.012639 0.046874 0.010534
7600 -1.44180513 9.71479395 -0.45221157000000006 -0.020079 0.05223 0.009407
7620 -1.4834191500000002 9.691897410000001 -0.42361542 -0.030723 0.061838 0.013593
7640 -1.50886629 9.71000667 -0.40670298000000005 -0.034972 0.069297 0.016758000000000002
7660 -1.51185834 9.740093940000001 -0.43125741 -0.026441000000000003 0.06714099999999999 0.015753
7680 -1.55316825 9.743988510000001 -0.44233290000000003 -0.014696 0.063925 0.010498
7700 -1.5477825600000001 9.731559240000001 -0.4625415 -0.006161 0.061774 0.008424
7720 -1.56349818 9.71299872 -0.48094506000000004 0.006631000000000001 0.06065900000000001 0.009583
7740 -1.55376666 9.72617355 -0.49995684000000007 0.02162 0.070203 0.007539
7760 -1.5173911800000002 9.74234043 -0.5011536600000001 0.022697 0.065964 0.001142
7780 -1.5212857499999999 9.74129076 -0.51791895 0.019477 0.063836 0.003259
7800 -1.5167927700000001 9.73904427 -0.4827501 0.020596 0.07555 0.003252
7820 -1.50062589 9.70596495 -0.5032530000000001 0.020673 0.08304500000000001 -0.006371
7840 -1.5124567500000001 9.70282575 -0.44862111000000005 0.012153 0.07990499999999999 -0.012836000000000002
7860 -1.52518032 9.68546205 -0.46957527000000004 0.00146 0.074616 -0.012904
7880 -1.5561603 9.715696470000001 -0.47496096000000004 -0.000674 0.074623 -0.012919
7900 -1.58056758 9.7582032 -0.44487369000000004 0.003522 0.066057 -0.005401
7920 -1.5911918100000002 9.76508982 -0.45400680000000004 0.001273 0.053229999999999986 0.007418000000000002
7940 -1.56424374 9.77482134 -0.47450970000000003 0.001196 0.047856 0.019175
7960 -1.5172440300000003 9.76240188 -0.5260023900000002 0.005425 0.045685 0.025617
7980 -1.5359517 9.791135370000001 -0.49262877000000005 0.011788 0.038202 0.026739
8000 -1.5482338199999999 9.787093650000001 -0.45849978 0.017099 0.032857 0.026783
8020 -1.5521185800000001 9.747883080000001 -0.5116405499999999 0.01497 0.029686 0.022499
8040 -1.49658417 9.700128000000001 -0.51313167 0.010712 0.027587 0.018199
8060 -1.5073653599999999 9.74219328 -0.5043026700000002 0.010721 0.025474 0.013929
8080 -1.5437408400000001 9.747578970000001 -0.49591512000000004 0.017123 0.025451 0.013974
8100 -1.5242778 9.73739619 -0.51432849 0.019266 0.027574 0.013986000000000002
8120 -1.46694816 9.73844586 -0.5313978900000002 0.01285 0.021218 0.010745
8140 -1.4292287099999998 9.7986204 -0.58453866 -0.001038 0.013822 0.007453
8160 -1.4060280600000001 9.85311495 -0.57645522 -0.012754 0.012819 0.002031
8180 -1.35333855 9.74503818 -0.56373165 -0.015965 0.008578 -0.000123
8200 -1.33447392 9.76539393 -0.5245112700000001 -0.015969 0.006451999999999999 -0.001188
8220 -1.34794305 9.755662410000001 -0.55324476 -0.012764 0.007506 -0.001167
8240 -1.35812583 9.7664436 -0.55864026 -0.00742 0.010679 -6.6e-05
8260 -1.40347746 9.75895857 -0.5462109900000001 -0.002086 0.012782 0.002105
8280 -1.4275806300000002 9.73860282 -0.50444982 4.8e-05 0.014897 0.004254
8300 -1.44209943 9.760155390000001 -0.48768453 0.003225 0.011681 0.006417
8320 -1.4229405000000002 9.76254903 -0.45011223 -0.001043 0.009574 0.004253
8340 -1.36561086 9.71075223 -0.46074627 -0.005301 0.009597 0.0020870000000000003
8360 -1.35198477 9.68291145 -0.47691315 -0.011654 0.01709 -0.001172
8380 -1.3793841 9.67767291 -0.5049010799999999 -0.016964 0.022434 -0.001215
8400 -1.37489112 9.69054363 -0.46313991000000004 -0.015883 0.024566 -0.002279
8420 -1.40572395 9.721239120000002 -0.4685256 -0.011611 0.024555 -0.003317
8440 -1.3967478000000002 9.7203366 -0.4573029600000001 -0.002 0.02453 -0.005386999999999999
8460 -1.4153083200000003 9.71644203 -0.46388547 0.007593000000000002 0.028732 0.001084
8480 -1.4223420900000001 9.75700638 -0.4776587100000001 0.015050999999999997 0.028697000000000007 0.003273
8500 -1.4202427499999999 9.784405710000001 -0.49891698 0.021452 0.029736 0.004385
8520 -1.39629654 9.76688505 -0.5185173599999999 0.019319 0.031865 0.006503
8540 -1.4289246 9.74638215 -0.5267577600000001 0.012946 0.038279 0.006451
8560 -1.44973161 9.7582032 -0.51432849 0.00655 0.037245 0.0042710000000000005
8580 -1.48117266 9.71763885 -0.46478799 0.000177 0.038354 -0.001116
8600 -1.48505742 9.708358590000001 -0.46627911 0.000177 0.038354 -0.001116
8620 -1.47937743 9.746235 -0.45250587000000003 -0.0008699999999999999 0.04368 -6.2e-05
8640 -1.49329782 9.72976401 -0.4742154 -0.002985 0.051131 0.003118
8660 -1.52158986 9.72183753 -0.4742154 0.000206 0.053233 0.007411
8680 -1.51485039 9.756564930000001 -0.47211606000000006 0.005512 0.046823 0.007456
8700 -1.4745803400000002 9.77871591 -0.50504823 0.005512 0.045762 0.006389
8720 -1.47877902 9.77333022 -0.5126804100000001 0.002306 0.043647000000000005 0.005301
8740 -1.5060213900000003 9.823027680000001 -0.51582942 0.002311 0.045773 0.006367
8760 -1.49164974 9.81164808 -0.47570652 0.002349 0.053234 0.005289
8780 -1.48131981 9.744135660000001 -0.45415395000000003 -0.0008320000000000001 0.059629 0.007395
8800 -1.49793795 9.712557270000001 -0.47346984000000003 0.000235 0.057503 0.005268999999999999
8820 -1.5224825700000002 9.699676740000001 -0.49172625000000003 0.002345 0.053229999999999986 0.006357
8840 -1.50482457 9.70252164 -0.48259314000000003 0.001263 0.048977 0.005287
8860 -1.50766947 9.74563659 -0.46762308 0.000187 0.04685 0.005282
8880 -1.48131981 9.731863350000001 -0.44921952000000004 0.002306 0.044708 0.006368
8900 -1.49823225 9.72946971 -0.43693740000000003 0.001254 0.048969 0.007423999999999998
8920 -1.49164974 9.71375409 -0.4918734 0.002311 0.048956 0.009567
8940 -1.46036565 9.75057102 -0.5167221300000001 0.002311 0.047895 0.008501
8960 -1.45302777 9.73590507 -0.5011536600000001 0.003383 0.050018 0.009574
8980 -1.46739942 9.72871434 -0.49172625000000003 0.002306 0.047891 0.009569
9000 -1.4555685600000001 9.76568823 -0.46972242000000003 0.001268 0.051103 0.006353
9020 -1.46036565 9.7377003 -0.47481381 0.000206 0.048989 0.003143
9040 -1.4672522700000001 9.74503818 -0.49576797 0.002325 0.045786 0.0031620000000000003
9060 -1.4712939900000002 9.74308599 -0.49621923000000007 0.00445 0.04577 0.005314
9080 -1.48027014 9.72617355 -0.49636638 0.004445 0.042583 0.003181
9100 -1.4491332000000003 9.73979964 -0.50340015 -0.001961 0.040479 0.002071
9120 -1.4343200999999999 9.74188917 -0.47914983 -0.006229 0.040494 0.002041
9140 -1.43267202 9.73979964 -0.49756320000000004 -0.005157 0.042616 0.003114
9160 -1.4266879200000002 9.74832453 -0.5032530000000001 -0.001971 0.039409 0.00314
9180 -1.43896023 9.72572229 -0.5246584200000001 0.005459 0.031922000000000006 0.00427
9200 -1.45601982 9.75776175 -0.5060979 0.011846 0.028704 0.004319
9220 -1.46141532 9.74204613 -0.48873420000000006 0.010784 0.031895 0.006444
9240 -1.47832776 9.7029729 -0.44771859 0.005459 0.034044 0.006404000000000001
9260 -1.45811916 9.74488122 -0.4568517 0.000134 0.033010000000000005 0.003163
9280 -1.49224815 9.731412090000001 -0.47601063 -0.004143 0.030895 0.003136
9300 -1.49868351 9.740545200000001 -0.50145777 -0.003086 0.030883 0.00528
9320 -1.48730391 9.74324295 -0.48155328000000003 0.00012 0.028754 0.0021
9340 -1.4461411500000003 9.72961686 -0.48304440000000004 0.003311 0.025551 0.001059
9360 -1.4465924099999998 9.73260891 -0.48349566000000005 0.004378 0.022364 -0.002135
9380 -1.4461411500000003 9.77257485 -0.5029587000000001 0.0033159999999999995 0.022372 -0.00321
9400 -1.42817904 9.755809560000001 -0.47510811000000003 0.003301 0.022359 -6e-06
9420 -1.4516838 9.775419750000001 -0.49891698 0.009683 0.019137 0.001111
9440 -1.43850897 9.72287739 -0.5167221300000001 0.012855000000000002 0.016978 0.005409000000000001
9460 -1.4060280600000001 9.727674480000001 -0.5285529900000001 0.01285 0.014852 0.004344
9480 -1.4518309500000002 9.71883567 -0.54247338 0.008592 0.013813999999999998 0.001111
9500 -1.46694816 9.772133400000001 -0.52795458 0.0075299999999999985 0.013822 3.5e-05
9520 -1.4341631400000003 9.76599234 -0.48498678000000006 0.010741 0.017003 0.001121
9540 -1.3684557600000002 9.75356307 -0.47885553000000003 0.011822 0.020195 0.001125
9560 -1.4166522899999998 9.74578374 -0.49667049 0.010745 0.02019 0.003254
9580 -1.44465003 9.728420040000001 -0.5313978900000002 0.0075590000000000015 0.021275 0.001094
9600 -1.45242936 9.76149936 -0.5352826500000001 0.002239 0.02555 0.002119
9620 -1.42518699 9.763294590000001 -0.54936 0.00011 0.026623 0.0021030000000000003
9640 -1.4257854 9.75072798 -0.5149269000000001 0.001177 0.026619 0.002111
9660 -1.41186501 9.7781175 -0.49292307 0.0033159999999999995 0.027677 0.002124
9680 -1.408716 9.77871591 -0.52510968 0.003325 0.028747 0.0010550000000000002
9700 -1.38895866 9.7547697 -0.5343899400000001 0.003344 0.033008 0.001049
9720 -1.42368606 9.73021527 -0.5352826500000001 -0.000904 0.035162 -0.00112
9740 -1.4167994400000001 9.75461274 -0.5007122100000001 -0.005167000000000001 0.036242 -0.001151
9760 -1.4413538700000001 9.7579089 -0.47810997000000005 -0.001971 0.038348 0.002074
9780 -1.4711370300000002 9.74428281 -0.47751156 0.004445 0.040461 0.001047
9800 -1.46216088 9.74143791 -0.48574215000000004 0.009774 0.04256 0.004287
9820 -1.47832776 9.70926111 -0.5225590800000001 0.009779 0.042564 0.003218
9840 -1.4715882900000001 9.69878403 -0.5298969600000001 0.00444 0.041518 0.003182
9860 -1.48117266 9.736650630000002 -0.49966254000000004 -0.004079999999999999 0.043682 0.002052
9880 -1.4775822 9.73800441 -0.46778004 -0.006205 0.04582 0.002034
9900 -1.45213506 9.74143791 -0.47106639 0.000211 0.048994 0.002075
9920 -1.46455452 9.73979964 -0.48229884 0.006612000000000001 0.050032 0.003187
9940 -1.47667968 9.736797780000002 -0.51762465 0.007684000000000002 0.050033 0.0021260000000000003
9960 -1.4876080200000001 9.72691911 -0.5300441100000001 0.003412 0.050043 0.003164
9980 -1.5003315900000003 9.73904427 -0.49576797 -0.001942 0.046862 0.0041990000000000005
10000 -1.5194905200000002 9.7408395 -0.47122335000000004 0.000182 0.043663 0.00315
10020 -1.4921010000000001 9.715990770000001 -0.49457115 -0.004076 0.042625 -8.3e-05
10040 -1.49703543 9.771829290000001 -0.48723327000000005 -0.004065999999999999 0.043695 -0.001153
10060 -1.47398193 9.77617512 -0.5161237200000001 -0.005123 0.049012 0.002038
10080 -1.4919440400000001 9.73126494 -0.52121511 -0.007243 0.052216 0.002019
10100 -1.47967173 9.72691911 -0.48634056000000003 -0.007286 0.043689 0.003098
10120 -1.4838605999999999 9.71299872 -0.48708612000000007 -0.007305 0.038367 0.002036
10140 -1.49554431 9.72377991 -0.4801995 -0.010506 0.037317 0.000947
10160 -1.4871567600000002 9.77766624 -0.47151765 -0.014763 0.039463 0.000915
10180 -1.48595994 9.76809168 -0.48783168000000005 -0.016897 0.03947 0.0009
10200 -1.4991347700000002 9.74069235 -0.5043026700000002 -0.019017 0.040551 -0.001253
10220 -1.46470167 9.740398050000001 -0.4918734 -0.016897 0.036287 -0.002301
10240 -1.45901187 9.708358590000001 -0.50535234 -0.010506 0.035195 -0.001187
10260 -1.48775517 9.73260891 -0.49786731 -0.004104 0.035173 -0.001142
10280 -1.4769739800000001 9.755966520000001 -0.47077209 0.003368 0.037273 -2.4e-05
10300 -1.4245885800000002 9.73246176 -0.47810997000000005 0.004411 0.033004 0.001057
10320 -1.46290644 9.74428281 -0.48334851000000006 -0.000952 0.023448 -0.002173
10340 -1.4835663000000001 9.72003249 -0.5290042500000001 -0.006344 0.010684 -0.002194
10360 -1.47877902 9.70926111 -0.5298969600000001 -0.009587 4.6e-05 -0.003272
10380 -1.4492901599999999 9.7146468 -0.51523101 -0.004301 -0.006381 0.001046
10400 -1.43611533 9.73829871 -0.49966254000000004 -3.4e-05 -0.004274 0.00321
10420 -1.4379105600000002 9.72976401 -0.49487526 0.004263 0.0021030000000000003 0.003232
10440 -1.4528806200000002 9.739946790000001 -0.48483963 0.004311 0.011694 0.002152
10460 -1.4751787500000002 9.76044969 -0.50190903 0.001182 0.023441 -0.002158
10480 -1.4672522700000001 9.71794296 -0.5116405499999999 0.0033350000000000003 0.026633 -0.003216
10500 -1.47009717 9.76090095 -0.50250744 0.007635999999999999 0.035136 -0.002128
10520 -1.4668010100000002 9.74877579 -0.48065076 0.008754999999999999 0.047911 -0.001068
10540 -1.4471908199999999 9.76120506 -0.51537816 0.002397 0.058582 -5.8e-05
10560 -1.46290644 9.75207195 -0.54307179 -0.006109000000000001 0.068187 0.003075
10580 -1.4492901599999999 9.73860282 -0.5343899400000001 -0.009285 0.074585 0.004111999999999999
10600 -1.4156026200000003 9.723927060000001 -0.50250744 -0.009266 0.077785 0.00304
10620 -1.3840242299999999 9.77018121 -0.49232466 -0.005004 0.076705 0.003071
10640 -1.3822290000000002 9.78305193 -0.46912401000000004 0.000336 0.077752 0.003107
10660 -1.3841713800000002 9.74862864 -0.50774598 0.007798999999999999 0.07666 0.003161
10680 -1.4579720100000002 9.731412090000001 -0.5613282000000002 0.004593 0.07348400000000001 0.001006
10700 -1.4919440400000001 9.76164651 -0.5480062200000001 0.002445 0.070296 0.000995
10720 -1.5602020200000002 9.72018945 -0.50100651 0.003488 0.064966 0.001009
10740 -1.6061618700000002 9.771230880000001 -0.42437079 0.001335 0.05859 -0.001134
10760 -1.58939658 9.76988691 -0.42781410000000003 -0.0008179999999999999 0.057519000000000015 0.002057
10780 -1.57172877 9.75057102 -0.48319155 0.001335 0.059651 -6.7e-05
10800 -1.5533154000000002 9.727370370000001 -0.48170043 0.001302 0.055377 0.003143
10820 -1.55481633 9.707613030000001 -0.45475236 -0.000851 0.04688 -0.001134
10840 -1.51305516 9.72243594 -0.43439661 -0.00619 0.04265 -0.004371
10860 -1.5181465500000002 9.70507224 -0.42601887000000005 -0.006233 0.033063 -0.004359
10880 -1.5028723800000001 9.74069235 -0.43454376000000006 -0.006248 0.030928 -0.003288
10900 -1.50856218 9.78620094 -0.43934085000000006 -0.002 0.028774 -0.001119
10920 -1.49150259 9.76613949 -0.47914983 0.005445 0.025543 0.001074
10940 -1.4964370200000001 9.752523210000001 -0.4767561900000001 0.007578 0.023414 -0.001045
10960 -1.4862640500000002 9.72647766 -0.48065076 0.00543 0.018104 -0.00319
10980 -1.45033002 9.73470825 -0.4713705 8.6e-05 0.01387 -0.005358
11000 -1.4406083100000002 9.755064 -0.48783168000000005 8.1e-05 0.012804 -0.005357
11020 -1.42518699 9.77601816 -0.46522944000000005 0.002225 0.015989 -0.004278
11040 -1.42518699 9.768238830000001 -0.47151765 0.004372999999999999 0.019177 -0.004267
11060 -1.48282074 9.744439770000001 -0.46358136 0.005435 0.019169 -0.003191
11080 -1.46395611 9.700275150000001 -0.48304440000000004 0.00543 0.018104 -0.00319
11100 -1.47084273 9.74293884 -0.49337432999999997 0.007564 0.018096 -0.003175
11120 -1.4542245900000002 9.73755315 -0.47510811000000003 0.01076 0.019142 -0.001018
11140 -1.44764208 9.75760479 -0.47046798 0.011841 0.021273 -0.002081
11160 -1.4642504099999998 9.75895857 -0.42556761000000004 0.00864 0.023406 3e-05
11180 -1.44509148 9.74952135 -0.46149183000000005 0.00544 0.022356 -0.001059
11200 -1.42413732 9.75102228 -0.48902850000000003 0.001187 0.026628 -2.6e-05
11220 -1.4295230100000003 9.76195062 -0.49337432999999997 -0.000918 0.031966 -0.001116
11240 -1.4605127999999998 9.7547697 -0.47450970000000003 -0.001971 0.035164999999999995 -0.001127
11260 -1.47398193 9.72691911 -0.44802270000000005 -0.003038 0.034108 -0.0022010000000000003
11280 -1.4702443200000002 9.72647766 -0.43753581 -0.006224 0.038376 -0.001161
11300 -1.48131981 9.75011976 -0.46448388 -0.003009 0.042622 -7.6e-05
11320 -1.5057172800000003 9.75326877 -0.48079791 0.000216 0.045815 -0.002194
11340 -1.5045204600000002 9.74099646 -0.49007817000000004 0.0033880000000000004 0.043656 0.002104
11360 -1.50886629 9.71854137 -0.47287143000000004 0.005526 0.042592000000000005 -1.6e-05
11380 -1.5028723800000001 9.73860282 -0.47106639 0.0023350000000000003 0.043673 -0.001108
11400 -1.50526602 9.77632227 -0.48918546 -0.001923 0.046879 -7.4e-05
11420 -1.5126039000000002 9.747127710000001 -0.46957527000000004 -0.004047 0.047956 -0.001158
11440 -1.5058644300000001 9.724378320000001 -0.45535077 -0.002956 0.050096 -0.004358
11460 -1.5160472100000002 9.71854137 -0.47945394 0.002364 0.050064 -0.001116
11480 -1.50916059 9.7231815 -0.4713705 0.005574 0.052184 -0.0010960000000000002
11500 -1.5126039000000002 9.73036242 -0.4776587100000001 0.005564 0.052175 0.00104
11520 -1.5320669400000002 9.70926111 -0.48034665000000004 0.003421 0.048991 -3.9e-05
11540 -1.5423968700000001 9.72528084 -0.46762308 0.000201 0.044741 -5.600000000000001e-05
11560 -1.53655011 9.71689329 -0.47541222 -0.005143 0.04369 0.000976
11580 -1.54074879 9.74248758 -0.47450970000000003 -0.010486 0.0437 0.003075
11600 -1.5370013700000003 9.78455286 -0.46478799 -0.010491 0.040513 0.000943
11620 -1.5358045500000002 9.7490799 -0.50370426 -0.007291 0.039441 -0.000101
11640 -1.5491265300000001 9.736199370000001 -0.49846572000000006 -0.005157 0.038372 -0.001153
11660 -1.5302717100000003 9.728420040000001 -0.49516956 -0.004085 0.038373 -0.0022140000000000003
11680 -1.52413065 9.711654750000001 -0.48334851000000006 -0.0008990000000000002 0.036227 -0.001121
11700 -1.5429952800000002 9.72677196 -0.46718163 0.00123 0.036215 -3.8e-05
11720 -1.54403514 9.764795520000002 -0.44891541000000007 0.001215 0.03408 0.001033
11740 -1.5263771400000001 9.787544910000001 -0.46912401000000004 -0.003062 0.031965 0.001006
11760 -1.51215264 9.735757920000001 -0.48005235 -0.006272 0.028785 -8.1e-05
11780 -1.52338509 9.71899263 -0.49576797 -0.005205 0.029842 0.000994
11800 -1.54388799 9.723632760000001 -0.5150740500000001 -0.003071 0.030895 0.002075
11820 -1.51305516 9.70447383 -0.51568227 -0.002 0.029835000000000007 -5.2e-05
11840 -1.4931408600000002 9.71704044 -0.49966254000000004 -0.000923 0.030901 -0.001114
11860 -1.49404338 9.708809850000002 -0.48603645 0.001206 0.03195 0.001036
11880 -1.48865769 9.7260264 -0.50504823 -0.000928 0.031957 0.001021
11900 -1.51080867 9.76434426 -0.51013962 -0.000937 0.030888 0.00209
11920 -1.5441921 9.74503818 -0.47615778 0.000129 0.030884 0.002098
11940 -1.5370013700000003 9.74698056 -0.44757144 -0.002 0.031957 0.002082
11960 -1.53984627 9.735453810000001 -0.44382402 -0.002 0.031957 0.002082
11980 -1.5193433699999999 9.74728467 -0.48289725 -0.002004 0.02877 -5.1e-05
12000 -1.51365357 9.72542799 -0.48498678000000006 0.004406 0.031938999999999995 0.001058
12020 -1.51394787 9.699980850000001 -0.48229884 0.00655 0.034062 0.00107
12040 -1.53341091 9.70971237 -0.46747593000000004 0.005469 0.031931 0.002134
12060 -1.5256315800000002 9.74159487 -0.46867275 0.005464 0.030866 0.002135
12080 -1.54179846 9.731716200000001 -0.45235872000000005 0.001191 0.029815 0.002107
12100 -1.5179895900000002 9.755064 -0.43934085000000006 0.002258 0.031933 0.004248
12120 -1.5471841500000003 9.7519248 -0.4601478600000001 0.0076019999999999985 0.032984 0.003216
12140 -1.5521185800000001 9.75341592 -0.46897686000000005 0.0065450000000000005 0.034058 0.002139
12160 -1.53190998 9.71988534 -0.4363389900000001 0.001215 0.03408 0.001033
12180 -1.5313115700000002 9.71105634 -0.45489951000000006 -0.0019760000000000003 0.037283 0.002075
12200 -1.5268284 9.740241090000001 -0.45475236 0.00015800000000000002 0.035154000000000005 -4.4e-05
12220 -1.5310172700000002 9.739642680000001 -0.48170043 -0.000928 0.031957 0.001021
12240 -1.51918641 9.743988510000001 -0.45475236 0.000129 0.028762 -3.6e-05
12260 -1.5482338199999999 9.740241090000001 -0.44906256 0.00334 0.030881 -1.6e-05
12280 -1.5506274600000003 9.74308599 -0.46058931000000003 0.002263 0.032999 0.004246
12300 -1.54104309 9.75011976 -0.46313991000000004 0.004397 0.035113 0.0063950000000000005
12320 -1.54852812 9.73500255 -0.4656807 0.006520999999999999 0.031914 0.005346
12340 -1.5488322300000001 9.73425699 -0.44966097000000005 0.004392 0.030865 0.003196
12360 -1.5070612500000002 9.728115930000001 -0.44382402 0.002254 0.027685 0.001048
12380 -1.5350589900000002 9.69878403 -0.45654759 0.00012 0.028754 0.0021
12400 -1.54688004 9.74234043 -0.45056349000000007 -0.000942 0.031945 0.004225
12420 -1.5359517 9.7465293 -0.43125741 0.001196 0.033002 0.004239
12440 -1.5347548800000002 9.764942670000002 -0.44771859 0.004386999999999999 0.031922000000000006 0.005331
12460 -1.5386494500000003 9.7146468 -0.4366431 0.007578 0.030841000000000007 0.006423000000000001
12480 -1.5639494400000002 9.70117767 -0.46149183000000005 0.007587999999999998 0.034033 0.0074870000000000015
12500 -1.56380229 9.716294880000001 -0.45146601000000003 0.0033590000000000004 0.040448000000000005 0.005313
12520 -1.52218827 9.708662700000001 -0.47032083 0.001263 0.051099 0.007421
12540 -1.5350589900000002 9.740545200000001 -0.47960109000000006 0.000254 0.062825 0.006331
12560 -1.50930774 9.73904427 -0.45849978 0.000278 0.068151 0.006324000000000001
12580 -1.52532747 9.73275606 -0.43903674000000004 -0.000789 0.068155 0.006316
12600 -1.53790389 9.74563659 -0.44577621000000006 -0.0008029999999999999 0.06602000000000001 0.007387
12620 -1.5323612400000002 9.72871434 -0.47570652 -0.001875 0.064959 0.007381
12640 -1.5328125000000001 9.716294880000001 -0.47211606000000006 -0.002975 0.058567 0.00845
12660 -1.54343673 9.752219100000001 -0.46658322 -0.004085 0.047922 0.007388
12680 -1.54403514 9.7143525 -0.44637462000000006 -0.006261999999999999 0.035159 0.004184
12700 -1.55795553 9.72946971 -0.46882971 -0.005243 0.02132 0.001004
12720 -1.5429952800000002 9.74219328 -0.45206442 -0.008477 0.00963 -0.003276
12740 -1.52667144 9.727370370000001 -0.47510811000000003 -0.013836 7.8e-05 -0.007573999999999998
12760 -1.5275739600000002 9.71644203 -0.47930679000000004 -0.01385 -0.004178 -0.008637
12780 -1.56813831 9.74982546 -0.47990520000000003 -0.016003 -0.0063100000000000005 -0.006513
12800 -1.57188573 9.7263207 -0.46118772 -0.009611 -0.006340999999999999 -0.004332
12820 -1.60361127 9.72946971 -0.43769277 -0.001086 -0.00744 -0.003203
12840 -1.59028929 9.712106010000001 -0.45385965 0.002139 -0.002125 -0.003187
12860 -1.6211319300000002 9.69474231 -0.45310428 0.004296 0.002133 -0.004246
12880 -1.5780169800000001 9.71794296 -0.46104057 0.005363000000000001 0.002129 -0.004238
12900 -1.54359369 9.72018945 -0.45475236 0.004291 0.002128 -0.003177
12920 -1.5197848200000001 9.72961686 -0.46118772 0.004296 0.006377000000000001 2.2e-05
12940 -1.49973318 9.708809850000002 -0.46089342000000005 0.002186 0.012771 0.001067
12960 -1.49284656 9.73396269 -0.46582785000000004 0.002167 0.011693 0.004273
12980 -1.4630535900000003 9.73066653 -0.48438837 0.003239 0.012755 0.004279
13000 -1.4566182300000001 9.7490799 -0.4656807 0.00433 0.015956 0.002146
13020 -1.46141532 9.7519248 -0.48364281 0.001163 0.020241 -0.001086
13040 -1.4534790300000002 9.73815156 -0.47586348000000006 -0.003086 0.024517 -0.001121
13060 -1.4636520000000002 9.73635633 -0.48693897 -0.0052 0.027724 -0.002208
13080 -1.50930774 9.75700638 -0.47870838000000004 -0.005186 0.031981 -0.001145
13100 -1.50497172 9.74428281 -0.44862111000000005 -0.005171 0.035177 -0.001149
13120 -1.49733954 9.76568823 -0.49487526 -0.003023 0.038365 -0.001139
13140 -1.5500290500000002 9.73800441 -0.47914983 0.001254 0.041542 -4.4e-05
13160 -1.5575140800000002 9.72662481 -0.47990520000000003 0.001259 0.041546 -0.001113
13180 -1.56619593 9.739642680000001 -0.45460521000000004 0.002316 0.039412 -0.001103
13200 -1.53250839 9.731559240000001 -0.45475236 0.003378 0.039404 -2.7e-05
13220 -1.5263771400000001 9.76988691 -0.44621766 0.005526 0.044714 0.002118
13240 -1.54343673 9.76090095 -0.43484787 0.003412 0.051104 0.004231
13260 -1.5494306400000002 9.71644203 -0.42676443000000003 0.000206 0.048989 0.003143
13280 -1.5343134299999999 9.71823726 -0.43185582000000006 0.0023350000000000003 0.045795 0.001026
13300 -1.57457367 9.71375409 -0.45864693000000006 0.0065980000000000006 0.043653 -1e-05
13320 -1.57203288 9.71495091 -0.43365105000000004 0.0076739999999999985 0.04578 -5e-06
13340 -1.5751720800000002 9.715696470000001 -0.41688576 0.005516 0.042583 0.00212
13360 -1.57397526 9.71883567 -0.44322561 -0.000875 0.042614 -6.1e-05
13380 -1.5817644000000004 9.71375409 -0.42062337 -0.004071 0.04263 -0.001151
13400 -1.59702876 9.71868852 -0.41733702000000006 -0.006224 0.038376 -0.001161
13420 -1.5817644000000004 9.74279169 -0.43439661 -0.007295 0.036254 -0.002234
13440 -1.57203288 9.75745764 -0.45190746000000004 -0.005176 0.035172 -8.1e-05
13460 -1.5606532800000001 9.73590507 -0.44427528000000005 0.0012109999999999998 0.033015 0.001034
13480 -1.57846824 9.74728467 -0.45445806 0.007612000000000002 0.032993 0.001079
13500 -1.56844242 9.751473540000001 -0.41853384000000005 0.0033350000000000003 0.030877 0.001052
13520 -1.5751720800000002 9.73874997 -0.4326013800000001 -0.00199 0.030904 -0.0011220000000000002
13540 -1.58056758 9.707917140000001 -0.42796125 -0.0073430000000000014 0.027723 -8.7e-05
13560 -1.57143447 9.73006812 -0.430659 -0.0073430000000000014 0.026662 -0.001154
13580 -1.57232718 9.73036242 -0.43125741 -0.000961 0.02344 -3.7e-05
13600 -1.5825099599999999 9.755966520000001 -0.42361542 0.004368 0.023417 0.001069
13620 -1.5849035999999999 9.75386718 -0.41329530000000003 0.00543 0.02447 0.003211
13640 -1.56813831 9.71299872 -0.4363389900000001 0.005425 0.025526 0.005346
13660 -1.5488322300000001 9.69743025 -0.42541065000000006 0.003287 0.023408 0.004266
13680 -1.5766730100000002 9.69579198 -0.41239278 0.002215 0.021285 0.003193
13700 -1.5644007 9.71330283 -0.42346827 0.001163 0.024485 0.003181
13720 -1.5467328900000001 9.7058178 -0.43544628 0.001168 0.026611000000000003 0.004247
13740 -1.5663430800000002 9.71689329 -0.45295713 -0.000952 0.028753 0.003161
13760 -1.5666373800000002 9.77797035 -0.44547210000000004 -0.000942 0.030884 0.003159
13780 -1.5669414900000003 9.76508982 -0.41029344 -0.000937 0.033010000000000005 0.004224
13800 -1.55421792 9.7607538 -0.42586191 0.000129 0.031945 0.003165
13820 -1.5533154000000002 9.708957000000002 -0.4192794 0.00333 0.032995 0.004254
13840 -1.5590052 9.68905251 -0.43080615000000005 0.000129 0.033006 0.004231
13860 -1.58879817 9.7146468 -0.42556761000000004 0.002268 0.035125 0.005312
13880 -1.5621542100000003 9.75776175 -0.43289568 0.00334 0.036187 0.005318
13900 -1.5492736800000002 9.759851280000001 -0.44487369000000004 0.005469 0.035114 0.005334
13920 -1.5329596500000002 9.74129076 -0.4252635 0.004397 0.034052 0.005328
13940 -1.58401089 9.72617355 -0.41493357000000003 0.003344 0.03513 0.003183
13960 -1.59972651 9.723632760000001 -0.42227145000000005 0.001225 0.038333 0.003164
13980 -1.5756233400000001 9.72287739 -0.39397941000000003 0.00015800000000000002 0.039398 0.004224
14000 -1.5675399000000003 9.7260264 -0.40490775 -0.000913 0.038336 0.004217
14020 -1.5820587000000002 9.71988534 -0.39832524 0.002292 0.040451 0.005305
14040 -1.5852077100000002 9.70821144 -0.39352815 0.006569 0.043628 0.006399
14060 -1.59133896 9.715843620000001 -0.41104881000000004 0.007635999999999999 0.044685 0.007474
14080 -1.57277844 9.71883567 -0.43050204000000003 0.0076209999999999984 0.040428 0.006411
14100 -1.5947822700000003 9.73724904 -0.42332112000000005 0.002292 0.040451 0.005305
14120 -1.6072115399999998 9.7345611 -0.40086603 -0.001971 0.041531 0.005274
14140 -1.5816074400000002 9.74188917 -0.42241860000000003 0.000153 0.040454 0.006359
14160 -1.5849035999999999 9.752523210000001 -0.41493357000000003 0.00444 0.04364 0.005316
14180 -1.5760746 9.73889712 -0.42796125 0.0076409999999999985 0.044689 0.006405
14200 -1.5672456000000001 9.73096083 -0.41882814000000007 0.002311 0.045773 0.006367
14220 -1.5621542100000003 9.699529590000001 -0.40595742000000007 0.002302 0.043643 0.006369
14240 -1.5929870400000001 9.728272890000001 -0.40101318 0.00123 0.040459 0.004229999999999999
14260 -1.58700294 9.72168057 -0.44293130999999997 -0.000913 0.040458 0.006351
14280 -1.55945646 9.715990770000001 -0.41613039 0.0012109999999999998 0.039381 0.007436
14300 -1.5881997600000002 9.715549320000001 -0.40849821 0.001206 0.040438 0.009571
14320 -1.59433101 9.74143791 -0.4176313200000001 0.006534999999999999 0.042537 0.01281
14340 -1.60420968 9.75386718 -0.4176313200000001 0.0076019999999999985 0.040411 0.010684
14360 -1.57876254 9.74129076 -0.42197715 0.004406 0.037244 0.006392
14380 -1.55945646 9.727968780000001 -0.42796125 0.002258 0.032994 0.005315
14400 -1.5934383 9.71120349 -0.44367687000000006 0.003325 0.036174 0.008523000000000001
14420 -1.57308255 9.71674614 -0.42451794000000004 0.00334 0.03937 0.008519
14440 -1.55691567 9.71479395 -0.4221243 0.00333 0.040422 0.011722
14460 -1.5928398900000003 9.76374585 -0.41268708000000004 0.002268 0.04043 0.010646
14480 -1.58760135 9.78185511 -0.39667716000000003 0.004406 0.039366000000000005 0.008526
14500 -1.5881997600000002 9.75716334 -0.41853384000000005 0.008664 0.035098000000000004 0.006425
14520 -1.5763689 9.70806429 -0.43334694 0.006520999999999999 0.032975 0.006412999999999999
14540 -1.58669883 9.70072641 -0.45759726 0.005464 0.036171 0.007469
14560 -1.59028929 9.70266879 -0.43454376000000006 0.00333 0.0383 0.009588
14580 -1.5602020200000002 9.71105634 -0.39278259 0.00333 0.0383 0.009588
14600 -1.53071316 9.731716200000001 -0.40625172 0.004397 0.038296 0.009596
14620 -1.54463355 9.743988510000001 -0.40206285 0.002263 0.035121 0.006379999999999999
14640 -1.5590052 9.75042387 -0.44083197 -0.000928 0.034079000000000005 0.0031550000000000003
14660 -1.5908877000000001 9.724074210000001 -0.45670455000000004 -0.004124 0.035156 0.003131
14680 -1.5657446700000002 9.70641621 -0.41777847 -0.003052 0.037278 0.004204
14700 -1.57008069 9.71359713 -0.42092748 0.00122 0.038329 0.004232
14720 -1.5619972500000001 9.736954740000002 -0.43035489 0.003344 0.036191 0.00425
14740 -1.5657446700000002 9.74114361 -0.43200297000000004 0.0044210000000000005 0.038318 0.004255
14760 -1.55376666 9.71015382 -0.4391838900000001 0.003344 0.036191 0.00425
14780 -1.54209276 9.716294880000001 -0.43649595 0.0012109999999999998 0.036198 0.004235
14800 -1.56259566 9.736199370000001 -0.45250587000000003 -0.00199 0.036209 0.004213000000000001
14820 -1.5612516900000002 9.73126494 -0.46163898000000003 0.000129 0.034067 0.005298
14840 -1.5606532800000001 9.744135660000001 -0.44757144 0.005473 0.032996 0.002132
14860 -1.54613448 9.7345611 -0.44442243000000003 0.002282 0.033016000000000004 -2.6e-05
14880 -1.5477825600000001 9.72048375 -0.44352972000000007 -0.003038 0.035169 -0.001135
14900 -1.53250839 9.72213183 -0.44097912 -0.003042 0.036226 0.001001
14920 -1.53924786 9.73739619 -0.45580203 -0.003047 0.036222 0.002069
14940 -1.55032335 9.71404839 -0.45445806 -0.001995 0.033022 0.0020800000000000003
14960 -1.5519714300000003 9.724231170000001 -0.43514217000000005 -0.000942 0.028762 0.001025
14980 -1.5476354099999998 9.73081368 -0.43948800000000005 0.00333 0.030873 0.00212
15000 -1.55316825 9.74473407 -0.44023356 0.00333 0.031934 0.003187
15020 -1.53250839 9.736199370000001 -0.4252635 0.004411 0.031943 -1e-05
15040 -1.53895356 9.727370370000001 -0.44382402 0.004397 0.028747 -6e-06
15060 -1.52472906 9.743988510000001 -0.43843833 0.0033200000000000005 0.025559 -0.001078
15080 -1.53730548 9.73815156 -0.44083197 0.005435 0.023413 0.001076
15100 -1.52023608 9.73560096 -0.45116190000000006 0.009688 0.021263 0.002177
15120 -1.5037749000000002 9.70940826 -0.44322561 0.013932 0.020166 0.006481000000000001
15140 -1.52158986 9.721386270000002 -0.44382402 0.017113 0.015894 0.006508
15160 -1.5236793900000003 9.752219100000001 -0.43783992 0.020304 0.012691 0.0054670000000000005
15180 -1.5470370000000002 9.75386718 -0.448317 0.014989 0.014849 0.00329
15200 -1.5385023 9.73739619 -0.4176313200000001 0.010741 0.01382 -0.002079
15220 -1.5399934199999998 9.71509806 -0.47077209 0.008612 0.01277 -0.004229
15240 -1.5167927700000001 9.684863640000001 -0.44577621000000006 0.008597 0.011697 -0.002091
15260 -1.50526602 9.71060508 -0.44802270000000005 0.012841 0.010599 0.002213
15280 -1.49688828 9.73650348 -0.44427528000000005 0.011755 0.009525 0.005411
15300 -1.52023608 9.76374585 -0.43604469000000007 0.009616 0.006345 0.003264
15320 -1.5402975300000001 9.743390100000001 -0.42781410000000003 0.001076 0.002127 5e-06
15340 -1.5483809699999997 9.727517520000001 -0.45625329000000003 -0.004248 0.003215 -0.001102
15360 -1.5224825700000002 9.74593089 -0.4451778 -0.006387 0.00534 0.002085
15380 -1.5304188600000002 9.72287739 -0.44442243000000003 -0.004253 0.006394 0.003167
15400 -1.53326376 9.7345611 -0.45280998 -0.00742 0.01174 0.001001
15420 -1.5362558099999999 9.775272600000001 -0.42990363000000004 -0.012706 0.020289 -0.001183
15440 -1.55376666 9.76659075 -0.44652177000000004 -0.016969 0.02243 -0.000147
15460 -1.54852812 9.74848149 -0.45594918 -0.015921 0.016043 -0.002268
15480 -1.56544056 9.71928693 -0.45745011 -0.008497 0.008551999999999999 -7e-05
15500 -1.5660389700000001 9.719434080000001 -0.46972242000000003 0.00321 0.005302 0.00322
15520 -1.58894532 9.74324295 -0.44726733 0.012822 0.008459999999999999 0.004352
15540 -1.5771242700000003 9.70162893 -0.43080615000000005 0.011759 0.011651 0.006476999999999999
15560 -1.5688838700000003 9.74458692 -0.45475236 -0.001024 0.014896 0.005315
15580 -1.5590052 9.77422293 -0.45445806 -0.009563 0.0128 0.00419
15600 -1.54747845 9.71823726 -0.45385965 -0.012769 0.009624 0.0020350000000000004
15620 -1.52458191 9.70312005 -0.45280998 -0.009583 0.006417 0.002061
15640 -1.53715833 9.68515794 -0.44652177000000004 -0.004229 0.007476000000000002 -0.001107
15660 -1.55675871 9.6972831 -0.41313834 0.005372999999999999 0.009564 0.001093
15680 -1.55840679 9.73051938 -0.41404086 0.007492 0.010605 0.005379999999999999
15700 -1.5660389700000001 9.72048375 -0.41149026 0.006411 0.008473999999999999 0.006443000000000001
15720 -1.55675871 9.711654750000001 -0.41433516000000004 0.011726 0.002072 0.004352
15740 -1.58939658 9.68979807 -0.4047606000000001 0.013863999999999998 0.002069 0.0032990000000000003
15760 -1.5646950000000002 9.70177608 -0.42017211000000004 0.012798 0.002073 0.003291
15780 -1.5679911599999998 9.7291656 -0.41299119 0.008549 0.005288 0.002189
15800 -1.5423968700000001 9.69938244 -0.44502084000000003 0.002134 0.002115 0.002149
15820 -1.52846667 9.79233219 -0.44906256 -0.001052 0.004261 0.0010550000000000002
15840 -1.54463355 9.7812567 -0.46778004 0.002153 0.005315 0.001076
15860 -1.52667144 9.772280550000001 -0.43858548 0.004291 0.006372 0.00109
15880 -1.5304188600000002 9.7263207 -0.41164722000000004 0.009621 0.005289 0.001129
15900 -1.5676870500000002 9.68575635 -0.40041477000000003 0.010688 0.007406999999999999 0.0032700000000000003
15920 -1.5829612199999998 9.74817738 -0.41463927 0.012817 0.005273 0.002219
15940 -1.56873672 9.724231170000001 -0.41628735 0.009611 0.004219 0.002198
15960 -1.5370013700000003 9.72303435 -0.41957370000000005 0.003201 0.003172 0.003223
15980 -1.54688004 9.72617355 -0.40595742000000007 0.001076 0.004249 0.002139
16000 -1.55407077 9.77751909 -0.41868099000000003 5e-06 0.003187 0.002132
16020 -1.5672456000000001 9.76254903 -0.42136893000000003 0.001086 0.005318 0.001069
16040 -1.56784401 9.73979964 -0.4122456300000001 -0.0021100000000000003 0.0063950000000000005 0.001045
16060 -1.5506274600000003 9.76254903 -0.41718006 -0.005296 0.00748 -0.001115
16080 -1.55885805 9.73111779 -0.43080615000000005 -0.006377000000000001 0.0053490000000000005 -5.1e-05
16100 -1.56933513 9.73920123 -0.42960933 -0.008497 0.005369 -0.003271
16120 -1.5590052 9.716147730000001 -0.40550616000000006 -0.004229 0.005354 -0.0032409999999999995
16140 -1.57397526 9.70132482 -0.4197306600000001 0.003215 2e-06 -0.003182
16160 -1.57577049 9.73380573 -0.40849821 0.01174 -0.001098 -0.002053
16180 -1.5703848 9.74848149 -0.43050204000000003 0.018146 -5.5e-05 -0.00201
16200 -1.57741857 9.739642680000001 -0.42571475999999997 0.019232 0.004202 -0.002007
16220 -1.57442652 9.76508982 -0.45161316 0.010712 0.006367 -0.003138
16240 -1.5597605700000001 9.73605222 -0.45445806 0.002167 0.0032049999999999995 -0.004262
16260 -1.56619593 9.70282575 -0.43319979 0.0021620000000000003 1.8e-05 -0.006394
16280 -1.53161568 9.719738190000001 -0.4316988600000001 0.009635 0.002118 -0.005277
16300 -1.5458401800000001 9.693094230000002 -0.39847239000000007 0.01497 0.006344 -0.000972
16320 -1.5491265300000001 9.75745764 -0.43140456000000005 0.017093999999999998 0.006328 0.00118
16340 -1.56873672 9.72992097 -0.41449212 0.016017 0.005261999999999999 0.002242
16360 -1.55361951 9.71299872 -0.41179437 0.01706 -6.8e-05 0.002256
16380 -1.56080043 9.70312005 -0.42901092 0.019199 0.003112 0.004403
16400 -1.57472082 9.71644203 -0.41897529 0.023485 0.006297 0.003361
16420 -1.5703848 9.71375409 -0.40445649000000006 0.024552 0.007354 0.004435000000000001
16440 -1.5732297000000002 9.73081368 -0.41913225000000004 0.018161 0.009507 0.004388
16460 -1.5935854500000002 9.771230880000001 -0.40954788000000003 0.010707 0.012729 0.004331000000000001
16480 -1.5619972500000001 9.791586630000001 -0.43289568 0.006459 0.017005000000000003 0.004296
16500 -1.5651462600000001 9.7897914 -0.45011223 0.0022010000000000003 0.020211 0.005331
16520 -1.5688838700000003 9.75372003 -0.42646032 0.002206 0.019155 0.003196
16540 -1.5672456000000001 9.73365858 -0.42002496 -0.002057 0.021296 0.004231
16560 -1.5955278300000002 9.74593089 -0.40280841 -0.003105 0.02556 0.004218
16580 -1.61409816 9.731559240000001 -0.39203703 -0.004143 0.031956 0.004203
16600 -1.58879817 9.724829580000002 -0.40595742000000007 -0.00199 0.038331 0.006346
16620 -1.57457367 9.715392360000001 -0.43574058 -0.001971 0.042592000000000005 0.006340999999999999
16640 -1.5926927400000002 9.74234043 -0.41568894000000006 -0.00409 0.043674 0.004188
16660 -1.5926927400000002 9.73036242 -0.43454376000000006 -0.006209 0.044755 0.002036
16680 -1.6188854400000001 9.731863350000001 -0.41643450000000004 -0.008353 0.044754 0.004157
16700 -1.62965682 9.73066653 -0.40176855 -0.010491 0.042635 0.003077
16720 -1.63654344 9.752817510000002 -0.43349409 -0.011563 0.042635 0.004137
16740 -1.64792304 9.747127710000001 -0.41837688 -0.010486 0.046883 0.006276
16760 -1.656909 9.70162893 -0.40416219000000003 -0.012606 0.050087 0.006257
16780 -1.66708197 9.72018945 -0.39637305000000006 -0.014725 0.050107 0.003038
16800 -1.6774119 9.69488946 -0.40400523 -0.017935 0.047987 0.003018
16820 -1.6685829000000003 9.67513212 -0.42361542 -0.022198 0.046946 0.0008529999999999999
16840 -1.6837001100000002 9.68860125 -0.42047622 -0.018993 0.044817 -0.002327
16860 -1.6706724300000002 9.71075223 -0.41045040000000005 -0.010467 0.043717 -0.001197
16880 -1.66902435 9.70252164 -0.40789980000000003 -0.011534 0.045843 0.000929
16900 -1.67023098 9.73440414 -0.42661728 -0.006195 0.047951 0.002032
16920 -1.64822715 9.73979964 -0.39847239000000007 0.002311 0.04259 0.003166
16940 -1.6560064800000003 9.708809850000002 -0.42092748 0.008679000000000001 0.036172 0.004287
16960 -1.63445391 9.711350640000001 -0.43619184 0.011855 0.031896 0.005383
16980 -1.6175316599999998 9.704022570000001 -0.44936667 0.003311 0.029795 0.005326
17000 -1.6293625200000001 9.724231170000001 -0.44023356 -0.002043 0.025552 0.005294
17020 -1.6007663699999999 9.73470825 -0.43215012 -0.007372 0.023453 0.002055
17040 -1.58849406 9.71120349 -0.43709436 -0.008425 0.02347 -0.001157
17060 -1.5789195000000003 9.7288713 -0.39412656000000007 -0.003081 0.025582 -0.001123
17080 -1.59179022 9.71809011 -0.41658165 0.002258 0.026628 -0.001087
17100 -1.58535486 9.69503661 -0.42705873000000005 0.005469 0.028748000000000006 -0.001067
17120 -1.58564916 9.743537250000001 -0.41045040000000005 0.005473 0.028752 -0.002135
17140 -1.5919373700000001 9.69294708 -0.4047606000000001 0.005469 0.029809 0.0
17160 -1.59748002 9.684265230000001 -0.38874087000000007 0.001201 0.028763 -0.001097
17180 -1.5937326 9.78141366 -0.40655583 0.0033200000000000005 0.025559 -0.001078
17200 -1.5617029500000001 9.78335604 -0.37900935 0.004392 0.027682 -5e-06
17220 -1.55466918 9.73260891 -0.38364948 0.009736 0.031916 0.002164
17240 -1.57008069 9.73979964 -0.3873969 0.012937 0.034026999999999995 0.00432
17260 -1.57397526 9.771525180000001 -0.40894947000000004 0.015069999999999997 0.032958 0.003268
17280 -1.5760746 9.73231461 -0.46044216 0.014003 0.03084 0.001127
17300 -1.5555618900000003 9.74533248 -0.4090966200000001 0.00975 0.03299 2.6e-05
17320 -1.5370013700000003 9.708957000000002 -0.41777847 0.002278 0.030889 -0.001092
17340 -1.55436507 9.71479395 -0.36135135 -0.0041140000000000005 0.033042 -0.001139
17360 -1.5513730200000002 9.69579198 -0.36628578000000006 -0.005167000000000001 0.038364 0.000983
17380 -1.5877485 9.727674480000001 -0.37048446 -0.004071 0.043691 -8.4e-05
17400 -1.5920845200000002 9.75341592 -0.3924882900000001 -0.003004 0.045809 0.002057
17420 -1.5976271700000002 9.74279169 -0.38259981000000004 0.001263 0.044733 0.00102
17440 -1.6139412000000002 9.724231170000001 -0.38888802 -0.0008849999999999998 0.042606 0.002076
17460 -1.61768862 9.73051938 -0.41853384000000005 -0.003018 0.042613 0.002061
17480 -1.6184341800000002 9.70955541 -0.39832524 0.000192 0.045794 0.003147
17500 -1.58879817 9.740241090000001 -0.39936510000000003 0.005531 0.04684 0.003183
17520 -1.5712873200000002 9.71839422 -0.39892365 0.0065980000000000006 0.045775 0.002124
17540 -1.60032492 9.71689329 -0.41703291000000003 -0.0008560000000000001 0.048997000000000006 0.002068
17560 -1.61558928 9.77302611 -0.39847239000000007 -0.007252 0.052207 0.004155
17580 -1.6272631800000001 9.756564930000001 -0.39667716000000003 -0.010439 0.054353 0.003062
17600 -1.6244182800000002 9.71344998 -0.42451794000000004 -0.006166 0.054342 0.002024
17620 -1.6287641099999999 9.74473407 -0.42002496 0.00023 0.052194 0.001003
17640 -1.6259192100000002 9.70955541 -0.40430934 0.0012779999999999998 0.051112 0.004215999999999999
17660 -1.6428316500000002 9.74473407 -0.37991187 0.001273 0.052169000000000014 0.006351
17680 -1.6238198700000002 9.69204456 -0.36374499000000005 -0.00088 0.048976 0.0074090000000000015
17700 -1.62262305 9.68979807 -0.34114275 -0.001971 0.044714 0.008475
17720 -1.67082939 9.74174202 -0.37751823000000007 0.00122 0.041512 0.007432999999999999
17740 -1.63220742 9.715843620000001 -0.3912816600000001 0.006569 0.043628 0.006399
17760 -1.6334042400000002 9.71854137 -0.38664153 0.005512 0.044701 0.005322
17780 -1.62921537 9.69847992 -0.41344245 0.000177 0.043659 0.004218
17800 -1.62217179 9.68216589 -0.40400523 -0.0040950000000000005 0.042608 0.00419
17820 -1.61304849 9.740093940000001 -0.40670298000000005 -0.006229 0.043677 0.005242
17840 -1.6214262300000002 9.76568823 -0.39816828 -0.005162 0.044734 0.006316
17860 -1.6093010700000001 9.76269618 -0.38828961 0.000187 0.045789 0.004215999999999999
17880 -1.5865516800000001 9.711801900000001 -0.39712842 0.004445 0.045766 0.006382
17900 -1.6338555000000001 9.70222734 -0.35671122 0.008707 0.045747 0.00748
17920 -1.63804437 9.70072641 -0.38948643000000005 0.005516 0.045766 0.005321
17940 -1.6411835700000001 9.70162893 -0.38904498 0.001235 0.043647000000000005 0.006362
17960 -1.6220246400000002 9.723927060000001 -0.39323385000000005 -0.003018 0.045796 0.005261
17980 -1.5983727300000001 9.72497673 -0.41868099000000003 -0.008343000000000001 0.047945 0.005221
18000 -1.59748002 9.7465293 -0.42092748 -0.008334000000000001 0.049015 0.004152
18020 -1.59702876 9.74143791 -0.40071888000000006 -0.006195 0.051134 0.005232
18040 -1.61259723 9.755662410000001 -0.37661571000000005 -0.004076 0.050053 0.007384999999999998
18060 -1.60870266 9.72992097 -0.38904498 -0.0008699999999999999 0.050046 0.006339
18080 -1.60810425 9.751169430000001 -0.41344245 0.002321 0.047904 0.006364
18100 -1.5962832 9.73410984 -0.43155171000000003 0.001249 0.04472 0.004224
18120 -1.61604054 9.715549320000001 -0.39203703 0.000173 0.044716000000000006 0.006353
18140 -1.6247223900000003 9.71390124 -0.37736127 0.00444 0.044701 0.006383
18160 -1.62921537 9.71404839 -0.37616445 0.007654999999999999 0.048946 0.0074680000000000015
18180 -1.601973 9.7171974 -0.38844657000000005 0.008731000000000001 0.050012 0.006406
18200 -1.61693325 9.71479395 -0.38469915000000005 0.004464 0.048966 0.0053100000000000005
18220 -1.63070649 9.752817510000002 -0.3844048500000001 0.001254 0.05003 0.008490000000000001
18240 -1.62262305 9.755966520000001 -0.40595742000000007 0.000177 0.047903 0.008486
18260 -1.60735869 9.731863350000001 -0.41029344 0.003378 0.047892 0.008508
18280 -1.6022673 9.70626906 -0.40565331 0.005507 0.045758 0.007456999999999998
18300 -1.6245752400000002 9.727674480000001 -0.36898353 0.005502 0.045754 0.008526
18320 -1.6136469 9.69847992 -0.36613863 0.002302 0.045765 0.008503
18340 -1.5991281 9.712557270000001 -0.37182843 0.0033350000000000003 0.039365 0.009587
18360 -1.6220246400000002 9.74428281 -0.36644274000000004 0.004372999999999999 0.03297 0.009602
18380 -1.5962832 9.73260891 -0.40266126 0.008621 0.028694 0.009637
18400 -1.5998736599999999 9.72168057 -0.40835106000000004 0.013936000000000002 0.025475 0.010747
18420 -1.6163348400000004 9.748922940000002 -0.41598324 0.015013 0.026541 0.009685
18440 -1.6284600000000002 9.76419711 -0.38664153 0.011831 0.030813 0.009657
18460 -1.6070545800000002 9.75446559 -0.38020617 0.00543 0.030836 0.009612
18480 -1.59104466 9.72497673 -0.39607875000000003 0.0033060000000000003 0.031913 0.008528
18500 -1.58760135 9.71704044 -0.38364948 0.0076019999999999985 0.038289 0.00855
18520 -1.60420968 9.74324295 -0.40581027000000003 0.010822 0.0436 0.009634
18540 -1.59807843 9.735453810000001 -0.3817071 0.009765 0.047856 0.011757
18560 -1.5790666500000001 9.73800441 -0.3793134600000001 0.005507 0.050002 0.011725
18580 -1.5982255800000003 9.72856719 -0.38020617 0.001239 0.048956 0.010628
18600 -1.61199882 9.70551369 -0.38904498 -0.001942 0.051106 0.008467
18620 -1.61948385 9.71734455 -0.41164722000000004 0.004459 0.053206 0.010645
18640 -1.6070545800000002 9.75011976 -0.39233133000000003 0.006593000000000001 0.053198 0.01066
18660 -1.57531923 9.73380573 -0.38964339 0.005531 0.055328 0.011718
18680 -1.57816413 9.73275606 -0.39607875000000003 0.008722 0.053187 0.011743
18700 -1.5715816200000001 9.75760479 -0.40445649000000006 0.005516 0.053193 0.012789
18720 -1.5527169900000002 9.74174202 -0.42796125 0.006593000000000001 0.054259 0.011727
18740 -1.5322140900000003 9.77317326 -0.41194152000000006 0.008722 0.053187 0.011743
18760 -1.5587109000000001 9.75401433 -0.42047622 0.01086 0.055304999999999986 0.012824
18780 -1.5646950000000002 9.728272890000001 -0.41658165 0.009784 0.05424 0.013886
18800 -1.58834691 9.71390124 -0.40012047 0.0065980000000000006 0.056386 0.012792
18820 -1.6259192100000002 9.699980850000001 -0.38065743 0.004497999999999999 0.061728 0.010635
18840 -1.6251736500000002 9.724525470000001 -0.37063161000000006 0.001307 0.06387000000000001 0.01061
18860 -1.6489727100000002 9.73380573 -0.36568737 0.001326 0.066009 0.00847
18880 -1.6293625200000001 9.73874997 -0.39653001 -0.0029230000000000003 0.067102 0.005235
18900 -1.6181398800000002 9.73365858 -0.39562748999999997 -0.010371 0.071389 0.005177
18920 -1.61005644 9.73440414 -0.40311252 -0.012496 0.07671 0.00836
18940 -1.58939658 9.723328650000001 -0.39412656000000007 -0.010371 0.07669400000000001 0.010511
18960 -1.6015217400000001 9.73874997 -0.38649438 -0.005032 0.07561799999999999 0.008414
18980 -1.5926927400000002 9.755966520000001 -0.39802113000000006 -0.000755 0.076673 0.007373999999999999
19000 -1.55706282 9.73231461 -0.39742272 0.000326 0.081987 0.009511
19020 -1.58834691 9.744135660000001 -0.42107463000000006 -0.001793 0.086251 0.010559
19040 -1.57531923 9.712106010000001 -0.43813422 -0.0018170000000000005 0.081986 0.011633
19060 -1.56139884 9.72168057 -0.41538483 0.001369 0.07559600000000001 0.008458
19080 -1.56649023 9.748922940000002 -0.39996351 0.00245 0.07560499999999999 0.005261
19100 -1.5864045300000003 9.76284333 -0.42421383 -0.007123 0.078847 0.001986
19120 -1.5670886400000001 9.724829580000002 -0.42556761000000004 -0.016691 0.084216 -0.000225
19140 -1.56933513 9.73246176 -0.42466509 -0.016686000000000003 0.085281 -0.000226
19160 -1.6018160399999999 9.72557514 -0.41509053000000007 -0.009209 0.087385 -0.000176
19180 -1.56380229 9.70491528 -0.42975648 0.003598 0.088406 -8.8e-05
19200 -1.58146029 9.720935010000002 -0.39816828 0.01 0.087322 -0.00111
19220 -1.5597605700000001 9.740545200000001 -0.37377081000000006 0.011052 0.08518400000000001 -3.2e-05
19240 -1.5444864 9.724231170000001 -0.43963515000000003 0.007852 0.086256 0.001013
19260 -1.54852812 9.70821144 -0.41194152000000006 0.002517 0.088397 0.003109
19280 -1.5393950100000002 9.70626906 -0.43155171000000003 0.001455 0.090527 0.0041670000000000006
19300 -1.5501762000000001 9.705670650000002 -0.44951382000000006 0.003613 0.095846 0.004175
19320 -1.53011475 9.7288713 -0.46238454000000007 0.001527 0.104384 0.002013
19340 -1.50826788 9.768238830000001 -0.46957527000000004 -0.003759 0.112933 -0.000171
19360 -1.53071316 9.7610481 -0.46104057 -0.010127 0.121473 0.000842
19380 -1.5175481400000002 9.73979964 -0.45206442 -0.013275 0.132141 -0.000262
19400 -1.5147032400000002 9.74114361 -0.46134468 -0.015350999999999997 0.14281 -0.002427
19420 -1.5010771500000002 9.73949553 -0.46867275 -0.008878 0.15876600000000002 -0.002402
19440 -1.5212857499999999 9.724231170000001 -0.46957527000000004 0.0007570000000000001 0.170434 0.001923
19460 -1.50886629 9.699529590000001 -0.43783992 -0.001362 0.175759 0.004038
19480 -1.53011475 9.70222734 -0.42197715 -0.0077680000000000015 0.175777 0.005062
19500 -1.54463355 9.73500255 -0.41208867000000005 -0.01526 0.172599 0.00715
19520 -1.5619972500000001 9.76195062 -0.44367687000000006 -0.015265 0.173656 0.009285
19540 -1.5482338199999999 9.747726120000001 -0.46268865000000003 -0.009921 0.18001199999999998 0.013587
19560 -1.53819819 9.78021684 -0.49921128000000003 -0.004582 0.179997 0.012556
19580 -1.5340093200000002 9.779010210000001 -0.5049010799999999 -0.004558 0.183202 0.010416
19600 -1.54613448 9.78230637 -0.47211606000000006 -0.013078 0.183244 0.007151
19620 -1.53610866 9.73111779 -0.43963515000000003 -0.016269 0.185386 0.007126
19640 -1.573524 9.731559240000001 -0.4300605900000001 -0.012016 0.184297 0.009294
19660 -1.57397526 9.691897410000001 -0.45475236 -0.004553 0.183206 0.009347
19680 -1.60271856 9.71899263 -0.46986957000000007 -0.005639 0.182131 0.012546
19700 -1.6139412000000002 9.739348380000001 -0.45939249000000004 -0.010992 0.17788900000000002 0.012514
19720 -1.6534656900000002 9.763294590000001 -0.43529913000000003 -0.014231 0.1715 0.014636
19740 -1.6741157400000002 9.72183753 -0.42541065000000006 -0.016423 0.161907 0.017838
19760 -1.68938991 9.67348404 -0.42646032 -0.01006 0.152302 0.016826
19780 -1.6423803900000002 9.73470825 -0.47570652 -0.000492 0.144812 0.016903
19800 -1.6488255600000001 9.77797035 -0.5167221300000001 0.004824 0.142654 0.019079
19820 -1.62037656 9.736954740000002 -0.51343578 0.005886 0.140524 0.018021
19840 -1.5959790900000002 9.69294708 -0.47256732 -0.0005110000000000001 0.14055 0.016908000000000003
19860 -1.5871500900000002 9.74234043 -0.46942812 -0.003735 0.133113 0.014758000000000004
19880 -1.56739275 9.73096083 -0.43948800000000005 -0.002726 0.119265 0.013715
19900 -1.52846667 9.73351143 -0.46508229 0.0025510000000000003 0.107525 0.014835
19920 -1.51006311 9.73949553 -0.46718163 0.008904 0.097911 0.01596
19940 -1.4931408600000002 9.71704044 -0.4601478600000001 0.010995 0.089377 0.017054
19960 -1.5138007199999999 9.756113670000001 -0.45535077 0.012023 0.07979 0.016005000000000002
19980 -1.59612624 9.752219100000001 -0.42841251 0.005564 0.069151 0.01811
20000 -1.56784401 9.699833700000001 -0.45310428 0.002325 0.059578999999999986 0.017031
20020 -1.5275739600000002 9.70162893 -0.46658322 0.00443 0.052119000000000006 0.015987
20040 -1.4976338400000002 9.708957000000002 -0.49636638 0.001201 0.048922 0.019174
20060 -1.4564710800000003 9.73291302 -0.49980969000000003 0.001177 0.042534 0.018113
20080 -1.4599143900000002 9.7377003 -0.47346984000000003 8.1e-05 0.031902999999999994 0.013847
20100 -1.4432962500000002 9.76599234 -0.45759726 -0.00632 0.02662 0.008468
20120 -1.43521281 9.759851280000001 -0.47526507 -0.014864 0.02558 0.009477
20140 -1.45257651 9.7695828 -0.51223896 -0.015965 0.016005000000000002 0.007345999999999998
20160 -1.42473573 9.736797780000002 -0.5285529900000001 -0.005301 0.01172 0.004221
20180 -1.4226462000000002 9.755515260000001 -0.53288901 0.007478 0.006348 0.0043170000000000005
20200 -1.4611112100000003 9.75057102 -0.50684346 0.014931 0.004188 0.00544
20220 -1.4314752 9.740398050000001 -0.48034665000000004 0.013863999999999998 0.005252000000000001 0.006499
20240 -1.4584134600000003 9.74668626 -0.47122335000000004 0.0074680000000000015 0.00634 0.006453
20260 -1.4582663100000002 9.759409830000001 -0.47630493 0.008525 0.0042060000000000005 0.006462999999999999
20280 -1.4468867100000002 9.73920123 -0.51418134 0.009592 0.004202 0.006470999999999999
20300 -1.42593255 9.73470825 -0.52076385 0.012793 0.005252000000000001 0.007559999999999998
20320 -1.3892627700000002 9.76180347 -0.52510968 0.015993 0.005241 0.007582999999999999
20340 -1.37788317 9.75416148 -0.49681764000000006 0.012802 0.006321 0.006490999999999999
20360 -1.37249748 9.70806429 -0.46029501 0.007473 0.005283 0.004318
20380 -1.38627072 9.72901845 -0.49786731 0.003215 0.008490000000000001 0.005353
20400 -1.38027681 9.719591040000001 -0.47900268000000007 0.002153 0.009559 0.005344
20420 -1.40452713 9.71015382 -0.53094663 0.010697 0.011659 0.005401
20440 -1.3967478000000002 9.77452704 -0.50444982 0.021361 0.011618 0.006544
20460 -1.38911562 9.723328650000001 -0.47077209 0.028824 0.011587 0.007664
20480 -1.41755481 9.67303278 -0.44742429 0.028815 0.009457 0.007667
20500 -1.4198013 9.716147730000001 -0.42765714000000005 0.019213 0.00949 0.0076
20520 -1.38851721 9.73365858 -0.47271447000000005 0.009616 0.010589 0.007531
20540 -1.4130618300000002 9.7582032 -0.51762465 0.002148 0.010615 0.007479
20560 -1.42129242 9.78500412 -0.5465151 0.004277 0.009543 0.007495
20580 -1.38491694 9.78455286 -0.55564821 0.01495 0.00951 0.006502
20600 -1.36186344 9.764795520000002 -0.5490558900000001 0.024543 0.010529 0.009772
20620 -1.40617521 9.74503818 -0.51059088 0.022409 0.008414 0.007623
20640 -1.3927060800000002 9.78529842 -0.47810997000000005 0.010673 0.007393999999999999 0.006474
20660 -1.38701628 9.7812567 -0.48798864 -0.004272 0.004255 0.005306
20680 -1.36366848 9.74143791 -0.5258552400000001 -0.010673 0.004277 0.005261
20700 -1.4275806300000002 9.74143791 -0.56567403 -0.008549 0.001078 0.004212
20720 -1.4305726800000003 9.72662481 -0.5701670100000001 0.001038 -0.002151 0.004283
20740 -1.42159653 9.755211150000001 -0.54127656 0.007458 -3.5e-05 0.002189
20760 -1.43820486 9.752523210000001 -0.52092081 0.009578 -5.5e-05 0.005408
20780 -1.41755481 9.752670360000002 -0.51762465 0.005301 -0.004292 0.003247
20800 -1.4383618200000001 9.77632227 -0.5364892800000001 0.006358 -0.007488 0.00219
20820 -1.42712937 9.815091390000003 -0.5762982600000002 0.0042 -0.013868 0.001115
20840 -1.41875163 9.78545538 -0.61327215 0.006305 -0.020267 0.001138
20860 -1.4030360100000001 9.73904427 -0.6283893599999999 0.006281 -0.026654 7.8e-05
20880 -1.40916726 9.72542799 -0.58992435 0.004104 -0.036234 7.5e-05
20900 -1.4319264600000001 9.71779581 -0.5812425 0.00831 -0.046914 0.003323
20920 -1.4331232800000002 9.73275606 -0.53183934 0.006133 -0.056494 0.0033200000000000005
20940 -1.4582663100000002 9.779010210000001 -0.5382845100000001 0.005013 -0.068208 0.003327
20960 -1.46440737 9.78110955 -0.55624662 0.009276 -0.073533 -0.000909
20980 -1.4584134600000003 9.72227898 -0.56687085 0.010352 -0.07565 -0.005172
21000 -1.4564710800000003 9.73590507 -0.6033934800000001 0.011419 -0.077775 -0.0072980000000000015
21020 -1.41215931 9.71120349 -0.58737375 0.0093 -0.074572 -0.0073170000000000015
21040 -1.4094713700000001 9.71809011 -0.5333402700000001 0.008246999999999999 -0.070312 -0.006261999999999999
21060 -1.4105210400000001 9.69922548 -0.52106796 0.007161 -0.071386 -0.003063
21080 -1.3959924300000002 9.7263207 -0.52092081 0.010376 -0.071384 -0.0062450000000000006
21100 -1.39764051 9.74547963 -0.54606384 0.014634 -0.071408 -0.004079
21120 -1.4103640800000001 9.76404996 -0.56297628 0.016787 -0.066093 -0.003003
21140 -1.3843185300000003 9.779010210000001 -0.55204794 0.012534 -0.06288300000000001 -0.003037
21160 -1.40183919 9.74159487 -0.53888292 0.001856 -0.063915 -0.002042
21180 -1.4226462000000002 9.70671051 -0.48783168000000005 -0.001335 -0.062834 -0.003133
21200 -1.4172507000000003 9.736650630000002 -0.47376414 -0.0013310000000000002 -0.061769 -0.003135
21220 -1.3739886 9.72722322 -0.48514374000000005 0.0008320000000000001 -0.055385 -0.003128
21240 -1.35393696 9.73739619 -0.5285529900000001 0.001932 -0.04581 -0.000996
21260 -1.3573802700000002 9.747883080000001 -0.56043549 -0.00122 -0.035146 -0.001032
21280 -1.34420544 9.7866522 -0.56641959 -0.003296 -0.026599 -0.00533
21300 -1.3455494099999998 9.75880161 -0.55085112 -0.007545 -0.024445 -0.007499
21320 -1.34645193 9.708358590000001 -0.53783325 -0.006468000000000001 -0.023379 -0.008561
21340 -1.3657580100000002 9.7664436 -0.54292464 -0.003253 -0.019134 -0.007476000000000002
21360 -1.39045959 9.77512545 -0.55849311 -0.001091 -0.011689 -0.006402
21380 -1.4027319 9.78649524 -0.54037404 0.001062 -0.008496 -0.007459
21400 -1.43072964 9.77077962 -0.53049537 0.001067 -0.006370000000000001 -0.006394
21420 -1.4555685600000001 9.7345611 -0.51628068 -0.001062 -0.003175 -0.004275999999999999
21440 -1.4668010100000002 9.73051938 -0.50160492 -0.006396 -0.006339 -0.007514
21460 -1.4712939900000002 9.73515951 -0.5017520700000001 -0.006401 -0.010588 -0.010713
21480 -1.46709531 9.7490799 -0.52121511 0.001057 -0.012744 -0.010659
21500 -1.43896023 9.74698056 -0.52076385 0.013874 -0.009593 -0.010573
21520 -1.46201373 9.73365858 -0.5198711400000001 0.021342 -0.008558 -0.009454
21540 -1.44405162 9.707308920000001 -0.53917722 0.02239 -0.012823 -0.009441
21560 -1.4732363700000002 9.720935010000002 -0.5322906000000001 0.021299 -0.016024 -0.007308
21580 -1.4735404799999998 9.74803023 -0.5405211900000001 0.022361 -0.012849 -0.003032
21600 -1.48177107 9.74159487 -0.5177718 0.021294 -0.008601000000000001 0.001228
21620 -1.4807214000000002 9.75685923 -0.52870014 0.02238 -0.002222 0.003364
21640 -1.5302717100000003 9.756260820000001 -0.5273561700000001 0.019189 -8e-05 0.003339
21660 -1.5405918300000003 9.73800441 -0.5536960200000001 0.013888 0.005274 0.001158
21680 -1.5566115600000001 9.72243594 -0.54561258 0.010736 0.013815 -0.001011
21700 -1.5655975200000003 9.735306660000001 -0.54067815 0.009688 0.020202 0.00111
21720 -1.5350589900000002 9.755211150000001 -0.51327882 0.010745 0.02019 0.003254
21740 -1.5188921100000001 9.73006812 -0.51073803 0.0043630000000000006 0.023412 0.002137
21760 -1.52458191 9.740545200000001 -0.48603645 -0.004143 0.028773000000000007 0.001002
21780 -1.5111029699999998 9.73215765 -0.51088518 -0.010515 0.033065 -0.001184
21800 -1.5164984700000002 9.75461274 -0.51418134 -0.011573 0.037321 0.00094
21820 -1.5157431 9.72377991 -0.49487526 -0.012644 0.03732 0.002
21840 -1.53924786 9.75416148 -0.46927115999999996 -0.011577 0.038378 0.003075
21860 -1.5486752700000002 9.77797035 -0.48005235 -0.008376999999999999 0.039428 0.004164
21880 -1.54015038 9.79218504 -0.48753738 -0.00942 0.041575 0.000949
21900 -1.5208344900000001 9.791586630000001 -0.50999247 -0.007262 0.046893 0.000957
21920 -1.5275739600000002 9.77377167 -0.51762465 -0.005118999999999999 0.050078 0.002037
21940 -1.5447905100000001 9.76240188 -0.52376571 -0.005133 0.050065 0.005241
21960 -1.54747845 9.76180347 -0.4918734 0.000197 0.051103 0.007412999999999999
21980 -1.5582596400000002 9.73215765 -0.45953963999999997 0.001273 0.054291 0.008485
22000 -1.5816074400000002 9.70656336 -0.44681607 -0.005123 0.053256 0.006305
22020 -1.58610042 9.715549320000001 -0.45295713 -0.01151 0.05223 0.001989
22040 -1.59568479 9.73590507 -0.44742429 -0.017902 0.052261 -0.000192
22060 -1.601973 9.661810140000002 -0.4340925 -0.020026 0.053338 -0.001276
22080 -1.6235255700000002 9.72871434 -0.44233290000000003 -0.014672 0.060764 0.001956
22100 -1.6377402600000002 9.78290478 -0.41568894000000006 -0.006157 0.058595 0.004155
22120 -1.5938895600000003 9.70656336 -0.40131729000000005 0.003435 0.057492 0.005291
22140 -1.5880428 9.687551580000001 -0.4047606000000001 0.013013 0.053193 0.006431999999999999
22160 -1.58146029 9.66913821 -0.44472654 0.017276 0.051052 0.005396
22180 -1.5736809600000001 9.67078629 -0.48993102000000005 0.016194999999999998 0.048921 0.00646
22200 -1.5519714300000003 9.69907833 -0.4773546 0.010851 0.045748 0.005358
22220 -1.5413472000000001 9.715990770000001 -0.45385965 0.004425999999999999 0.039383 0.004253
22240 -1.56050613 9.72722322 -0.45146601000000003 0.00016299999999999998 0.039402 0.0031550000000000003
22260 -1.5380510399999998 9.74877579 -0.4326013800000001 -0.001966 0.041536 0.0042060000000000005
22280 -1.54089594 9.73231461 -0.45190746000000004 0.000173 0.042594 0.004220000000000001
22300 -1.5362558099999999 9.74997261 -0.47182176000000003 0.006564 0.041502 0.005334
22320 -1.5340093200000002 9.76120506 -0.44621766 0.010812 0.037226 0.005369
22340 -1.54568322 9.73590507 -0.44038071 0.013994 0.032953 0.005397
22360 -1.51559595 9.736954740000002 -0.47032083 0.009726 0.031907 0.0043
22380 -1.50856218 9.71854137 -0.45594918 0.004382 0.030856 0.005332
22400 -1.51619436 9.696988800000002 -0.48469248000000004 0.001182 0.029807 0.004243
22420 -1.53326376 9.71375409 -0.47346984000000003 0.000101 0.027676 0.005306
22440 -1.52518032 9.7029729 -0.44143038000000007 0.000115 0.029810000000000007 0.004235
22460 -1.49733954 9.71734455 -0.44307846000000006 0.001196 0.031941000000000004 0.003172
22480 -1.5229338300000004 9.79024266 -0.45535077 0.004397 0.032991 0.004261
22500 -1.5214329000000002 9.78829047 -0.45864693000000006 0.002258 0.031933 0.004248
22520 -1.51334946 9.73784745 -0.47795301 0.00012 0.029815 0.003167
22540 -1.5141048300000002 9.77437008 -0.48723327000000005 -0.002019 0.030879000000000007 0.005287
22560 -1.5143991300000001 9.76584519 -0.48708612000000007 -0.000952 0.031936 0.006362
22580 -1.49449464 9.73844586 -0.46223739 -0.000961 0.032989 0.009565
22600 -1.5064628400000002 9.74862864 -0.46223739 -0.0041670000000000006 0.031934 0.009544
22620 -1.51050456 9.71689329 -0.44757144 -0.010549 0.033035 0.006293
22640 -1.5037749000000002 9.712106010000001 -0.44293130999999997 -0.015864 0.035193 0.004117
22660 -1.5075125100000002 9.70462098 -0.46582785000000004 -0.019055 0.036273 0.003025
22680 -1.51021026 9.719738190000001 -0.4776587100000001 -0.01584 0.039458 0.003043
22700 -1.53775674 9.764942670000002 -0.47646189000000005 -0.006248 0.038355 0.00418
22720 -1.5308701200000001 9.76209777 -0.48110202 0.005478 0.039366000000000005 0.007465
22740 -1.49628987 9.73515951 -0.48483963 0.01508 0.039333 0.007532
22760 -1.5067669500000003 9.73036242 -0.49172625000000003 0.019347 0.04144 0.009696
22780 -1.5299676 9.703875420000001 -0.49083354000000007 0.014003 0.040389 0.010728
22800 -1.51918641 9.728115930000001 -0.50145777 0.007606999999999998 0.039355 0.008548
22820 -1.5124567500000001 9.71000667 -0.46358136 0.002258 0.038299 0.010649
22840 -1.49554431 9.7607538 -0.4773546 -0.00199 0.042575 0.010614
22860 -1.5423968700000001 9.732010500000001 -0.5043026700000002 -0.006233 0.044734 0.007377
22880 -1.5482338199999999 9.719591040000001 -0.48783168000000005 -0.005152 0.045804 0.005246
22900 -1.5651462600000001 9.715549320000001 -0.5117877000000001 -0.004079999999999999 0.046865 0.005253
22920 -1.5464385900000002 9.703875420000001 -0.49516956 -0.003014 0.048984 0.007393999999999999
22940 -1.52951634 9.72691911 -0.48424122 0.001249 0.048964 0.008492
22960 -1.5135064200000001 9.756113670000001 -0.47930679000000004 0.002297 0.045761 0.009571
22980 -1.52218827 9.743684400000001 -0.5063922000000001 0.0033590000000000004 0.044692 0.00958
23000 -1.5157431 9.71479395 -0.47406825 0.000153 0.043637 0.009559
23020 -1.52607303 9.70686747 -0.49292307 -0.005167000000000001 0.04473 0.007384
23040 -1.52023608 9.70416972 -0.4568517 -0.00731 0.043668 0.008439
23060 -1.53250839 9.71734455 -0.46942812 -0.009434 0.045806 0.008421
23080 -1.555866 9.7465293 -0.45984375 -0.008357999999999999 0.048994 0.009493
23100 -1.55541474 9.768238830000001 -0.45610614000000005 -0.006205 0.050064 0.006302
23120 -1.55856375 9.747578970000001 -0.46538640000000003 -0.001932 0.047932 0.00313
23140 -1.5275739600000002 9.75176784 -0.49861287 -0.007262 0.047954 0.002024
23160 -1.52622999 9.78545538 -0.50908995 -0.012606 0.046904 0.003057
23180 -1.5203930399999999 9.76240188 -0.48603645 -0.011549 0.04583 0.004133
23200 -1.53190998 9.7234758 -0.4573029600000001 -0.008353 0.044754 0.004157
23220 -1.52353224 9.707613030000001 -0.46343421000000007 -0.006219 0.044746 0.004172
23240 -1.5293691900000002 9.69115185 -0.45085779000000004 -0.004079999999999999 0.044743 0.003119
23260 -1.53056601 9.72227898 -0.44008641 -0.006205 0.04582 0.002034
23280 -1.56139884 9.73755315 -0.45654759 -0.008348000000000001 0.044758 0.003089
23300 -1.5522755400000001 9.723632760000001 -0.4543011 -0.009415 0.043701 0.002015
23320 -1.54074879 9.73844586 -0.45025938000000004 -0.005133 0.043699 -0.00116
23340 -1.52413065 9.73920123 -0.46732878 -0.001928 0.044753 -0.001139
23360 -1.51394787 9.75296466 -0.4980144600000001 0.001268 0.043676 -0.001115
23380 -1.4838605999999999 9.747431820000001 -0.50684346 0.002325 0.042603 -3.8e-05
23400 -1.49030577 9.73560096 -0.48514374000000005 0.006587999999999999 0.041523 -7.000000000000002e-06
23420 -1.5018227100000001 9.723328650000001 -0.47226321000000004 0.008703 0.039376 0.002147
23440 -1.5060213900000003 9.708662700000001 -0.44457939 0.008707 0.03832 1.2e-05
23460 -1.5066198 9.73246176 -0.45295713 0.006569 0.037262 -2e-06
23480 -1.5075125100000002 9.70312005 -0.48155328000000003 0.00445 0.038343 -0.002154
23500 -1.4976338400000002 9.71299872 -0.47091924000000007 0.001254 0.040481 -0.001111
23520 -1.49224815 9.77632227 -0.48139632000000004 0.003397 0.041543 -0.002166
23540 -1.47293226 9.75776175 -0.46268865000000003 0.003392 0.040477 -0.002165
23560 -1.49419053 9.735757920000001 -0.45250587000000003 0.005512 0.037274 -0.002146
23580 -1.51454628 9.73231461 -0.47331288 0.0076409999999999985 0.036201 -0.002129
23600 -1.51080867 9.699833700000001 -0.48424122 0.005497 0.035139 -0.001075
23620 -1.51021026 9.739946790000001 -0.48139632000000004 0.00444 0.037274 -0.001085
23640 -1.47039147 9.75671208 -0.46582785000000004 0.005497 0.0362 -8e-06
23660 -1.4804172899999999 9.743841360000001 -0.47780586 0.005493 0.035135 -7.000000000000002e-06
23680 -1.5003315900000003 9.74593089 -0.47151765 0.006559000000000001 0.03407 -0.001066
23700 -1.509759 9.74159487 -0.45714600000000005 0.005493 0.035135 -7.000000000000002e-06
23720 -1.5081109199999998 9.72617355 -0.44427528000000005 0.006559000000000001 0.036192 0.001068
23740 -1.50197967 9.75011976 -0.45953963999999997 0.006569 0.039384 0.002132
23760 -1.49614272 9.752670360000002 -0.45011223 0.002302 0.037277 -3.2e-05
23780 -1.47727809 9.7493742 -0.45804852 0.005478 0.034061 0.002131
23800 -1.5027252300000002 9.74832453 -0.45610614000000005 0.009736 0.034038 0.004297
23820 -1.49733954 9.746235 -0.45819567 0.012941 0.03297 0.0021850000000000003
23840 -1.48730391 9.71704044 -0.47481381 0.00976 0.03512 2.3e-05
23860 -1.4801229900000001 9.73784745 -0.44906256 0.000168 0.038345 0.00102
23880 -1.509759 9.73874997 -0.45130905 -0.008334000000000001 0.045832 0.000951
23900 -1.49478894 9.723927060000001 -0.43334694 -0.011544 0.045835 0.003065
23920 -1.48146696 9.73006812 -0.45025938000000004 -0.007286 0.042628 0.002031
23940 -1.4748844500000002 9.74264454 -0.44173449000000004 0.001249 0.043659 0.003157
23960 -1.4864112000000003 9.75716334 -0.44577621000000006 0.00444 0.041518 0.003182
23980 -1.5054229799999999 9.73021527 -0.45745011 0.003368 0.038334 0.001043
24000 -1.5197848200000001 9.743684400000001 -0.45130905 -0.003062 0.031965 0.001006
24020 -1.4949459 9.73500255 -0.448317 -0.008429 0.023466 -8.9e-05
24040 -1.5106615200000002 9.747431820000001 -0.4568517 -0.010592 0.01496 -0.00223
24060 -1.5135064200000001 9.73829871 -0.45250587000000003 -0.008482 0.008565000000000001 -0.003275
24080 -1.5070612500000002 9.72662481 -0.44277435000000004 -0.006363000000000001 0.006422 -0.002189
24100 -1.51844085 9.74997261 -0.45549792000000006 -0.002086 0.012782 0.002105
24120 -1.53460773 9.75326877 -0.46522944000000005 -0.001014 0.017027 0.005312
24140 -1.5416415 9.715549320000001 -0.43529913000000003 -0.000966 0.02874 0.006365999999999999
24160 -1.52817237 9.71344998 -0.44487369000000004 -0.0008939999999999998 0.042597 0.004212
24180 -1.5375997800000003 9.77063247 -0.45116190000000006 0.005569 0.057484 0.005306
24200 -1.5181465500000002 9.743988510000001 -0.45819567 0.005640999999999999 0.076646 0.008487
24220 -1.5214329000000002 9.719434080000001 -0.45280998 0.001455 0.099015 0.012702
24240 -1.53535329 9.716294880000001 -0.43724151 -0.004874 0.11926 0.016905
24260 -1.5453889200000002 9.731716200000001 -0.45984375 -0.015452 0.138476 0.015738
24280 -1.53161568 9.7493742 -0.45415395000000003 -0.022848 0.151298 0.012465
24300 -1.5443392500000002 9.70462098 -0.44277435000000004 -0.030301 0.149215 0.007075
24320 -1.5467328900000001 9.70551369 -0.43499502 -0.031373000000000005 0.142849 0.001734
24340 -1.5491265300000001 9.73829871 -0.44382402 -0.031402 0.13539600000000002 0.000675
24360 -1.54194561 9.74503818 -0.4827501 -0.034684 0.120481 0.003876
24380 -1.51635132 9.763598700000001 -0.48199473000000004 -0.030517 0.101278 0.007135
24400 -1.4906000700000002 9.76464837 -0.47885553000000003 -0.025303 0.07568899999999999 0.008272
24420 -1.5197848200000001 9.73844586 -0.4656807 -0.012596 0.0554 0.009455
24440 -1.47892617 9.72258309 -0.44202879000000006 -0.005191 0.042587 0.010591
24460 -1.4403042000000001 9.73291302 -0.45206442 0.002206 0.022338 0.006396
24480 -1.44869175 9.75416148 -0.45385965 0.009592 0.0020800000000000003 0.004337
24500 -1.45572552 9.77721498 -0.45714600000000005 0.004220000000000001 -0.005363000000000001 0.005377000000000001
24520 -1.49823225 9.75341592 -0.47182176000000003 -0.0010960000000000002 -2.2e-05 0.006402
24540 -1.5699335399999998 9.74533248 -0.50459697 -0.004287 0.003181 0.007444
24560 -1.63325709 9.679772250000001 -0.46867275 -0.00322 0.005299 0.009585
24580 -1.6661892600000001 9.74862864 -0.47346984000000003 -0.003177 0.012765 0.007439
24600 -1.6703781300000002 9.74728467 -0.4628358 0.00222 0.027655 0.008526
24620 -1.6847497800000002 9.73515951 -0.4573029600000001 0.010856 0.05424 0.012825
24640 -1.7069007600000001 9.7234758 -0.43245423 0.005665 0.081973 0.00848
24660 -1.7245685700000002 9.7377003 -0.41733702000000006 -0.004941 0.089492 0.001987
24680 -1.70376156 9.71794296 -0.41598324 0.002546 0.093727 0.002034
24700 -1.6866921599999998 9.66061332 -0.39203703 0.011215 0.125647 0.00419
24720 -1.61828703 9.688306950000001 -0.42152589 0.004972 0.16825 0.01157
24740 -1.5441921 9.69519357 -0.47646189000000005 0.007345999999999998 0.234238 0.02432
24760 -1.4492901599999999 9.75372003 -0.48394692000000006 -0.041759 0.226957 0.022918
24780 -1.3703981400000003 9.70192323 -0.48634056000000003 -0.017197 0.231136 0.022016
24800 -1.30873248 9.71704044 -0.52840584 -0.007629 0.219402 0.017825
24820 -1.27654587 9.77437008 -0.54097245 -0.007825 0.171482 0.013612
24840 -1.24735131 9.76688505 -0.5728549500000001 -0.005874 0.129933 0.012611
24860 -1.2394248300000001 9.77392863 -0.5752584000000001 -0.002831 0.093708 0.011611
24880 -1.2747506400000002 9.76195062 -0.5477119200000001 -0.0040420000000000005 0.05857 0.008442
24900 -1.3389669 9.83918475 -0.5599842300000001 0.000105 0.030863 0.007439
24920 -1.3239968400000002 9.75057102 -0.52391286 0.002134 0.00742 0.007483
24940 -1.3584299400000002 9.73260891 -0.50145777 -0.0032630000000000003 -0.0053490000000000005 0.00853
24960 -1.4518309500000002 9.72856719 -0.44083197 -0.014974 -0.004226 0.004174000000000001
24980 -1.48282074 9.69084774 -0.37601730000000005 -0.029872000000000006 0.002226 0.001925
25000 -1.4901488100000002 9.72497673 -0.38529756 -0.040522 0.004403 -0.00028900000000000003
25020 -1.56380229 9.73860282 -0.37706697 -0.046956 -0.009398 -0.006725
25040 -1.62412398 9.76584519 -0.36479466 -0.050262 -0.043432 -0.017387
25060 -1.75150683 9.75027672 -0.2977335 -0.046144 -0.08708099999999999 -0.027984
25080 -1.8299475900000002 9.66690153 -0.2630061000000001 -0.034585000000000005 -0.131841 -0.033188
25100 -1.7776995300000002 9.73081368 -0.30221667 -0.026252 -0.175551 -0.032005
25120 -1.7518109400000001 9.803417490000001 -0.33351057 -0.006259000000000001 -0.235285 -0.029652
25140 -1.81617435 9.684863640000001 -0.27033417000000004 -0.012694 -0.243781 -0.030755
25160 -1.8160272000000002 9.72003249 -0.29728224000000003 -0.011752 -0.26405500000000004 -0.023245
25180 -1.7817412500000003 9.74293884 -0.35910486 -0.007537 -0.274726 -0.022133
25200 -1.6509150900000003 9.752523210000001 -0.34593003000000005 -0.014996 -0.271509 -0.021121
25220 -1.53520614 9.80057259 -0.50026095 -0.019354 -0.282185 -0.011524
25240 -1.43566407 9.75850731 -0.5215192200000001 -0.024554 -0.265071 -0.024401
25260 -1.3671117899999998 9.74488122 -0.52076385 -0.026563 -0.245855 -0.032985
25280 -1.3004920800000002 9.74159487 -0.59322051 -0.035132 -0.25222100000000003 -0.031969
25300 -1.2190690800000001 9.79413723 -0.5755527000000001 -0.036299 -0.269282 -0.026614
25320 -1.19930193 9.799071660000001 -0.62390619 -0.04195 -0.315168 -0.002026
25340 -1.22474907 9.77377167 -0.65698551 -0.054474 -0.273497 -0.022463
25360 -1.30228731 9.736954740000002 -0.60893613 -0.047026 -0.267174 -0.011737
25380 -1.3910580000000001 9.76913154 -0.57136383 -0.030013 -0.267285 0.001201
25400 -1.4838605999999999 9.73425699 -0.57031416 -0.017240000000000002 -0.264172 0.0109
25420 -1.5413472000000001 9.739642680000001 -0.5727078 -0.019302 -0.251369 0.007665000000000002
25440 -1.5061685400000002 9.7174917 -0.57465018 -0.015981 -0.22687 0.005520000000000001
25460 -1.46096406 9.74547963 -0.5697157500000001 -0.013656 -0.184267 0.005482
25480 -1.4129146799999999 9.76149936 -0.59202369 -0.010254 -0.137415 0.0075819999999999985
25500 -1.28642454 9.73920123 -0.59066991 -0.013258 -0.09585 0.005371
25520 -1.17490446 9.828266220000001 -0.5626819800000001 -0.015213999999999997 -0.060672 0.00104
25540 -1.13015124 9.79173378 -0.54142371 -0.019347 -0.032951999999999995 -0.001161
25560 -1.1329961400000002 9.775272600000001 -0.5298969600000001 -0.036316 -0.012644 -0.003442
25580 -1.15290063 9.82661814 -0.5074418700000001 -0.049061 -0.002999 -0.0067480000000000005
25600 -1.21651848 9.78141366 -0.41404086 -0.04266 -0.0008990000000000002 -0.00457
25620 -1.3181598900000002 9.73051938 -0.39038895 -0.03092 0.004369 -0.00022200000000000006
25640 -1.43536977 9.77692068 -0.33231375 -0.013802000000000002 0.018145 0.003085
25660 -1.51320231 9.70342416 -0.27737775000000003 -0.008401 0.030918 0.00097
25680 -1.6477758900000001 9.67154166 -0.25012557 -0.011544 0.038408 -0.004403
25700 -1.5193433699999999 9.68171463 -0.20702043 -0.013601 0.054398 -0.0055060000000000005
25720 -1.5633510300000002 9.71674614 -0.1790325 -0.014605000000000003 0.06825 -0.005531
25740 -1.55541474 9.66734298 -0.16930098000000005 -0.011357 0.07889199999999999 -0.005522
25760 -1.5031764900000002 9.61106301 -0.16555356 -0.007075 0.084195 -0.0033619999999999995
25780 -1.6079571000000001 9.56660409 -0.26884305000000003 -0.011318 0.092719 -0.000198
25800 -1.37384145 9.71299872 -0.27168795 -0.015576 0.098047 0.00297
25820 -1.4531749200000001 9.807302250000001 -0.21989115 -0.016638 0.101238 0.005095000000000001
25840 -1.5275739600000002 9.78156081 -0.15582204 -0.015562 0.099121 0.000833
25860 -1.67082939 9.76254903 -0.10358379000000001 0.000479 0.104404 -0.0022670000000000004
25880 -1.8616829400000001 9.73889712 -0.13232709 0.013334 0.112895 -0.005393
25900 -1.94386131 9.71524521 -0.11092167 0.009091 0.117175 -0.006495999999999999
25920 -1.9609209000000003 9.70447383 -0.06541308000000001 -0.003692 0.121481 -0.006591
25940 -1.9746941400000002 9.67378815 -0.04250673 -0.007926 0.128952 -0.00663
25960 -1.94700051 9.735757920000001 -0.018109260000000002 -0.003625 0.140638 -0.0023420000000000003
25980 -1.85150016 9.77032836 0.04235958 0.004953 0.15444000000000002 0.001973
26000 -1.7757571500000002 9.66195729 0.04295799 0.014646 0.176768 0.004149
26020 -1.70944155 9.67049199 0.00404172 0.011512 0.194876 0.007308
26040 -1.64852145 9.82661814 -0.01062423 0.000901 0.206636 0.006151
26060 -1.601973 9.82616688 -0.01032993 0.002074 0.224763 0.000795
26080 -1.5645478499999999 9.75640797 -0.01272357 0.003217 0.237559 -0.003487
26100 -1.60331697 9.747578970000001 -0.00703377 0.016058000000000003 0.246037 -0.003408
26120 -1.64358702 9.74234043 -0.01002582 0.028908 0.260889 0.000936
26140 -1.6947756 9.75836016 0.0011968200000000001 0.020436000000000003 0.275828 0.001926
26160 -1.6950797100000001 9.811049670000001 0.06421626 0.003452 0.291879 -0.001418
26180 -1.62097497 9.74204613 0.06511878 -0.013551 0.30367 -0.004757
26200 -1.61573643 9.72273024 0.06975891000000001 -0.02209 0.302634 -0.004815
26220 -1.57113036 9.73380573 0.0378666 -0.022177 0.285581 -0.002657
26240 -1.56844242 9.709113960000002 0.06571719 -0.015929 0.251471 -0.00257
26260 -1.58760135 9.759851280000001 0.10238697000000001 -0.008624 0.213103 -0.004606
26280 -1.60286571 9.771682140000001 0.12903093000000002 0.000834 0.176868 -0.008767
26300 -1.5959790900000002 9.755368110000001 0.046107 0.007081999999999998 0.14063499999999998 -0.010813
26320 -1.59702876 9.779314320000001 0.05792805 0.010105 0.101209 -0.010741
26340 -1.60870266 9.719434080000001 0.05328792 0.015291 0.070289 -0.008529
26360 -1.57308255 9.70282575 0.08188407 0.01841 0.053229999999999986 -0.007417
26380 -1.6232214600000001 9.736650630000002 0.11166723 0.026916 0.051052 -0.003082
26400 -1.62981378 9.77692068 0.09580446000000001 0.03115 0.048886 0.002291
26420 -1.6214262300000002 9.74817738 0.0073378800000000015 0.026878 0.048896 0.00333
26440 -1.64493099 9.69039648 -0.04281084 0.021572 0.055306 0.0032840000000000005
26460 -1.74237372 9.72647766 -0.04625415 0.012052 0.073449 0.003195
26480 -1.84356387 9.76374585 0.0073378800000000015 0.005771 0.103286 0.0063170000000000006
26500 -1.85150016 9.68501079 0.04745097 -0.005879 0.128868 0.012612
26520 -1.8366772500000002 9.77317326 0.07768538999999999 -0.002635 0.145871 0.020091
26540 -1.81407501 9.80281908 0.04730382 -0.002534 0.169303 0.02113
26560 -1.7603358300000003 9.75207195 0.01062423 0.002949 0.20443 0.02326
26580 -1.73818485 9.68994522 0.00523854 0.00204 0.241709 0.025342
26600 -1.74102975 9.65357955 0.006141059999999999 0.008584999999999999 0.275767 0.02748
26620 -1.68923295 9.66090762 -0.006582510000000001 0.020421 0.306584 0.036069
26640 -1.60047207 9.724829580000002 -0.053140770000000004 0.024828 0.342767 0.041395
26660 -1.5064628400000002 9.70971237 -0.07529175 0.018532 0.373652 0.048789
26680 -1.42593255 9.74159487 -0.10942074000000002 0.013346 0.401389 0.043376
26700 -1.41215931 9.76539393 -0.16870257000000002 0.017676 0.407795 0.03592
26720 -1.34300862 9.75776175 -0.23950134000000003 0.025182 0.414169 0.033828
26740 -1.31665896 9.815091390000003 -0.30386475 0.030512 0.4109640000000001 0.031733
26760 -1.26532323 9.78156081 -0.2775249 0.030507 0.410959 0.032801
26780 -1.3028857200000001 9.724231170000001 -0.26629245 0.017671 0.404608 0.033788
26800 -1.3720462199999999 9.7234758 -0.23815737 0.002663 0.384437 0.029436
26820 -1.44479718 9.76913154 -0.25147935000000005 -0.014526 0.346194 0.017615000000000002
26840 -1.5157431 9.79203789 -0.28979721 -0.015776 0.300413 0.012324
26860 -1.57263129 9.66989358 -0.27018702 -0.007490000000000002 0.249234 0.01672
26880 -1.6357978800000001 9.64893942 -0.2544714 0.008249 0.198015 0.024373
26900 -1.7130418200000002 9.74832453 -0.18217170000000002 0.016593 0.16068 0.02982
26920 -1.75585266 9.71644203 -0.17917965 0.024998 0.131888 0.029916
26940 -1.7961129 9.665253450000002 -0.15806852999999998 0.026988 0.098861 0.028904000000000006
26960 -1.87006068 9.655816230000001 -0.23815737 0.024677 0.059453999999999986 0.028938
26980 -1.9543383900000002 9.73784745 -0.22512969000000002 0.022418 0.02646 0.023624000000000003
27000 -1.97139798 9.72856719 -0.23321313 0.027671 0.006209 0.02155
27020 -1.91377404 9.68890536 -0.25102809000000004 0.023327 -0.01082 0.021541
27040 -1.98337599 9.76090095 -0.21001248 0.018993 -0.024658000000000003 0.022597
27060 -2.01540564 9.77632227 -0.25476570000000004 0.021035 -0.041722 0.025838
27080 -1.99774764 9.79084107 -0.21659499000000002 0.023131 -0.049191000000000006 0.026930000000000003
27100 -1.9320304500000003 9.712704420000001 -0.15642045 0.026312 -0.053463 0.026958
27120 -1.9074858300000002 9.72946971 -0.07963758 0.032732 -0.050285 0.02593
27140 -1.8797922000000002 9.72647766 -0.07648857 0.033832999999999995 -0.043893 0.024862
27160 -1.7895303900000001 9.74219328 -0.08067743999999999 0.043487 -0.034331 0.02278
27180 -1.66559085 9.783650340000001 -0.09236115 0.045631 -0.033269 0.021726
27200 -1.58220585 9.73231461 -0.0836793 0.043459 -0.0386 0.024922
27220 -1.5320669400000002 9.684108270000001 -0.09205704 0.042339 -0.049254 0.025996
27240 -1.47772935 9.643691070000001 -0.06406911000000001 0.042277 -0.062041 0.02708
27260 -1.3985430300000004 9.67632894 -0.14983794 0.044367 -0.067392 0.031375
27280 -1.3066331400000002 9.700275150000001 -0.21211182 0.045391 -0.075922 0.032461000000000004
27300 -1.1798487 9.71779581 -0.36419625 0.036851 -0.075896 0.03347
27320 -1.11083535 9.708957000000002 -0.40655583 0.028388 -0.058827 0.034457
27340 -1.15485282 9.76809168 -0.38051028000000003 0.049778 -0.040817 0.040992
27360 -1.1743060500000002 9.81808344 -0.39368511 0.07546 -0.034472 0.030481
27380 -1.1976636600000001 9.803417490000001 -0.41868099000000003 0.075522 -0.030173 0.020862
27400 -1.19496591 9.7029729 -0.48559500000000005 0.04453 -0.057698 0.004658
27420 -1.2621742200000001 9.70656336 -0.50789313 0.03488 -0.076805 -0.0039310000000000005
27440 -1.29809844 9.74578374 -0.47226321000000004 0.031637 -0.104418 -0.022078
27460 -1.35618345 9.74683341 -0.42855966000000006 0.044377 -0.118311 -0.021971
27480 -1.34061498 9.73440414 -0.45819567 0.045434 -0.122568 -0.024095
27500 -1.34630478 9.74069235 -0.49427685 0.037985000000000005 -0.107671 -0.013484
27520 -1.40019111 9.78036399 -0.47855142 0.024154 -0.08849 -0.0029230000000000003
27540 -1.4563239300000002 9.74219328 -0.45085779000000004 0.011347 -0.079961 0.006591
27560 -1.46665386 9.756113670000001 -0.45280998 0.016666999999999998 -0.073627 0.016234000000000002
27580 -1.4657513400000002 9.739642680000001 -0.45745011 0.031646 -0.057726 0.022728
27600 -1.47907332 9.772280550000001 -0.46882971 0.041382 -0.030054 0.020624
27620 -1.5081109199999998 9.83200383 -0.5049010799999999 0.046836 -0.014051 0.009959
27640 -1.45781505 9.743684400000001 -0.47481381 0.042627 -0.010802 0.000312
27660 -1.40811759 9.736199370000001 -0.44802270000000005 0.036221 -0.010784 0.001335
27680 -1.4198013 9.75102228 -0.49816161000000003 0.02769 -0.01075 0.000207
27700 -1.42548129 9.76554108 -0.5029587000000001 0.024499 -0.006486 0.002316
27720 -1.3961493900000002 9.7348554 -0.52391286 0.027705 0.004117 0.011939
27740 -1.3305793499999998 9.72901845 -0.56177946 0.028777 0.012606 0.019413
27760 -1.32968664 9.76060665 -0.5267577600000001 0.041593 0.023184 0.026966000000000004
27780 -1.3796784000000002 9.75805605 -0.5294457 0.050085000000000005 0.022055 0.035573
27800 -1.46665386 9.796530870000002 -0.5396284800000001 0.042627 0.017845 0.029117
27820 -1.55407077 9.81808344 -0.38185425 0.012764 0.007348 0.016103
27840 -1.5991281 9.65387385 -0.4076055 -0.012874000000000002 -0.009568 0.006332
27860 -1.48476312 9.73470825 -0.45654759 -0.012927 -0.02553 0.002079
27880 -1.48326219 9.67303278 -0.54037404 -0.004445 -0.038339 0.001086
27900 -1.5081109199999998 9.548347680000001 -0.5825864700000001 0.000889 -0.036236 0.003257
27920 -1.5759274500000002 9.593552160000002 -0.58962024 0.006272 -0.025602 0.003281
27940 -1.5001844400000002 9.68546205 -0.65503332 0.015921 -0.013921 0.0044020000000000005
27960 -1.4129146799999999 9.72677196 -0.66686418 0.015936000000000002 -0.0032990000000000003 0.011866
27980 -1.4346144 9.80521272 -0.6149202300000001 0.01063 0.008417000000000001 0.017155
28000 -1.4664969 9.77781339 -0.54426861 0.014922 0.009484 0.012911
28020 -1.4593159800000002 9.73874997 -0.55309761 0.018113 -8.499999999999999e-05 0.005468
28040 -1.48296789 9.7695828 -0.5557953599999998 0.014879 -0.013896 -0.000946
28060 -1.4664969 9.72617355 -0.60309918 0.010597 -0.023443 -0.007373
28080 -1.4910513300000003 9.822272309999999 -0.59157243 0.004215 -0.023404 -0.011691
28100 -1.53341091 9.81373761 -0.5794472700000001 -3.4e-05 -0.014884 -0.007459
28120 -1.47772935 9.69862707 -0.53558676 0.001086 0.004257 2e-06
28140 -1.45092843 9.65552193 -0.49831857 0.001172 0.024493 0.001045
28160 -1.5057172800000003 9.737101890000002 -0.51148359 0.0033490000000000004 0.033012 -1.9e-05
28180 -1.4455427399999998 9.70656336 -0.54606384 0.005516 0.036217 -0.004281
28200 -1.40078952 9.69534072 -0.5953100400000001 0.006606999999999999 0.039418 -0.006414
28220 -1.34195895 9.89891784 -0.6634208699999999 0.00555 0.042613 -0.005357
28240 -1.29061341 9.915830280000002 -0.6706017900000001 0.009813 0.044716000000000006 -0.002125
28260 -1.2100831200000002 9.783807300000001 -0.65219823 0.008712000000000001 0.038324 -0.001056
28280 -1.19092419 9.743537250000001 -0.5758568100000001 0.006534999999999999 0.028744 -0.001059
28300 -1.25588601 9.71495091 -0.59681097 0.003296 0.020233 -0.001071
28320 -1.2621742200000001 9.69833277 -0.61118262 -0.003114 0.017064 -0.00218
28340 -1.22579874 9.755211150000001 -0.57674952 -0.005253 0.013884 -0.004327
28360 -1.2448105200000001 9.783807300000001 -0.63498168 -0.007382 0.012835 -0.006476999999999999
28380 -1.2900150000000001 9.77766624 -0.66880656 -0.013759 0.017123 -0.007595999999999999
28400 -1.34330292 9.81329616 -0.6502460400000001 -0.019084 0.013967 -0.01297
28420 -1.31980797 9.763893 -0.6197075100000001 -0.022313 0.007586 -0.012984
28440 -1.34345988 9.743537250000001 -0.60444315 -0.028738 0.00016 -0.015156
28460 -1.36156914 9.78859458 -0.59905746 -0.030910000000000007 -0.008354 -0.01516
28480 -1.38701628 9.787996170000001 -0.6198644700000001 -0.036254 -0.009405 -0.014128
28500 -1.3359748500000002 9.72183753 -0.55309761 -0.041579000000000005 -0.006195 -0.013101
28520 -1.3455494099999998 9.71000667 -0.5674692600000001 -0.036221 0.000174 -0.012004
28540 -1.38986118 9.751326390000001 -0.5457695400000001 -0.030867 0.005477 -0.010905
28560 -1.4265309600000002 9.716147730000001 -0.55639377 -0.024466 0.008638 -0.007659999999999998
28580 -1.4434532100000004 9.73051938 -0.54471987 -0.011659 0.013902 -0.003304
28600 -1.5010771500000002 9.73560096 -0.53543961 0.00543 0.023409 0.002144
28620 -1.5075125100000002 9.724525470000001 -0.56582118 0.009707 0.030829 0.007506
28640 -1.49614272 9.74593089 -0.55938582 0.003311 0.029795 0.005326
28660 -1.46799783 9.75671208 -0.5516064900000001 -0.000981 0.020239 0.001035
28680 -1.43865612 9.74563659 -0.60444315 -0.008425 0.020287 -0.004358
28700 -1.4135130900000004 9.752817510000002 -0.63467757 -0.019036 0.032046 -0.005515
28720 -1.4070777300000001 9.76149936 -0.6188148 -0.024298 0.049105 -0.0045060000000000005
28740 -1.37833443 9.74248758 -0.6228565199999999 -0.025317 0.062944 -0.001326
28760 -1.37175192 9.756260820000001 -0.6303415499999999 -0.02425 0.06188 -0.002385
28780 -1.3620204000000002 9.75372003 -0.6686594100000001 -0.024269 0.055497000000000005 -0.004514
28800 -1.36590516 9.732010500000001 -0.69784416 -0.023265 0.040583 -0.005556
28820 -1.3804337700000002 9.744439770000001 -0.6842278800000001 -0.015864 0.029888 -0.001217
28840 -1.40078952 9.7263207 -0.67284828 -0.008434 0.023461000000000003 0.0009789999999999998
28860 -1.38132648 9.71404839 -0.6816870899999999 5.8e-05 0.015966 0.0031850000000000003
28880 -1.35857709 9.71644203 -0.6707587500000001 0.003225 0.011681 0.006417
28900 -1.36994688 9.73351143 -0.6712002000000001 0.005377000000000001 0.013813 0.004293
28920 -1.35138636 9.75326877 -0.63842499 0.0032630000000000003 0.018081 0.004273
28940 -1.3558793400000002 9.77482134 -0.62794791 -0.003119 0.020243 0.002089
28960 -1.3892627700000002 9.71359713 -0.61058421 -0.010578 0.016033000000000002 -0.004367
28980 -1.4465924099999998 9.72587925 -0.5998030200000001 -0.01164 0.017102000000000003 -0.004376
29000 -1.47009717 9.71779581 -0.5966638200000001 -0.009482 0.023482 -0.003301
29020 -1.4904529199999998 9.672140070000001 -0.5869323000000001 -0.004172 0.023442 0.002077
29040 -1.49433768 9.71479395 -0.5768966700000001 0.001158 0.022358000000000003 0.002116
29060 -1.55122587 9.819427410000001 -0.6033934800000001 -0.002052 0.019178 0.001029
29080 -1.5789195000000003 9.838890450000001 -0.57825045 -0.000981 0.0213 0.002102
29100 -1.6122931200000001 9.75491685 -0.55938582 -0.000966 0.027679 0.005299
29120 -1.63295298 9.703875420000001 -0.5333402700000001 0.002239 0.02555 0.002119
29140 -1.6097523300000003 9.712557270000001 -0.51358293 0.000101 0.023432 0.001039
29160 -1.5813131400000002 9.66435093 -0.46642626 0.001168 0.023428 0.001046
29180 -1.56380229 9.68231304 -0.44113608000000004 0.007578 0.025536 0.001088
29200 -1.56904083 9.747127710000001 -0.49531671000000005 0.01186 0.029778 0.002181
29220 -1.5648421500000003 9.73815156 -0.5001138 0.010784 0.027651 0.002176
29240 -1.51844085 9.728420040000001 -0.48858705 0.0075689999999999985 0.025527 0.003225
29260 -1.4702443200000002 9.74848149 -0.45984375 0.00222 0.024472 0.005325
29280 -1.4024376 9.760008240000001 -0.47316573 0.00221 0.022342 0.005328
29300 -1.3910580000000001 9.77392863 -0.47660904000000004 0.005386999999999999 0.018065 0.006423999999999999
29320 -1.4069207700000002 9.74503818 -0.45056349000000007 0.009635 0.012728 0.005392
29340 -1.4166522899999998 9.799974180000001 -0.49427685 0.011798 0.01699 0.003265
