time Ax Ay Az Gx Gy Gz
20 -0.10537902 13.05360783 -5.467534830000001 -1.019923 -1.550997 0.33989899999999995
40 -0.45864693000000006 12.283758270000002 -1.00994931 -1.7031040000000002 -1.509918 -0.016371
60 0.03907323000000001 9.608669370000001 2.20581774 -2.097525 -1.384445 -0.681584
80 0.5730119100000002 6.03544554 0.07020036 -2.275051 -1.228456 -0.908419
100 1.07251749 7.47096246 -2.69993763 0.527983 0.938618 -0.218637
120 2.04953463 5.626201770000001 -0.45445806 0.899914 0.491882 0.619883
140 1.72172367 4.3185189600000005 0.33006726 -0.526948 -1.075085 1.043486
160 -0.13771278 3.81870927 1.3076828100000002 -0.5795170000000001 -1.87494 0.781361
180 -1.50227397 3.8251446300000005 1.41021693 -0.745954 -1.410298 -0.183933
200 -1.72965015 3.51334359 1.3608235800000001 -2.683351 1.539035 -1.0633
220 -2.07454032 2.13935499 1.2982455900000003 -0.321369 2.9808 -0.293416
240 -1.4841647100000002 0.26105391000000006 0.78616359 2.43318 -0.071291 0.26705100000000004
260 -1.19331783 1.13689071 -1.23822801 -1.053957 -0.012249 -0.285084
280 1.71318897 6.203098440000001 -4.78570059 -2.140244 1.36543 -1.010146
300 4.30833618 17.84439 -9.18041382 -1.799602 1.9836 -1.648423
320 18.92679597 32.52676194 -18.33402672 -1.009562 0.834832 -1.966172
340 6.0119505900000005 14.27940657 -14.62114773 -0.90903 1.486048 -1.604177
360 -0.39263544 2.93210109 -7.403155740000001 -1.635023 1.733424 -0.767807
380 -4.52943396 1.3997398499999998 -2.14967511 -1.762018 -0.808192 -0.690661
400 -4.419405 7.2233776800000005 9.54759231 -1.36766 -0.453522 -0.483263
420 -1.45467585 13.47004233 8.6964669 -1.487802 0.459403 -0.375245
440 6.89810751 28.819719900000003 -14.88729303 -1.667436 1.341882 -0.593411
460 -1.60870266 12.54451788 -2.9708702100000006 -1.568348 1.608575 -0.772522
480 -4.7681799300000005 -0.45071064 -0.13741848 -1.363402 1.357667 -0.808157
500 -4.104317610000002 2.17976238 5.57126577 -0.964292 0.758286 -0.713802
520 -3.01832118 5.08103064 8.22255561 -0.730951 1.2408 -0.6358779999999999
540 0.06735546 14.46202953 7.209604440000001 -0.738973 1.34102 -0.64995
560 5.33655171 20.23178103 0.26435007 -0.802657 1.011673 -0.816615
580 6.24411405 11.671977240000002 -4.104768870000001 -1.000633 1.005349 -0.928017
600 0.81490689 7.97870844 0.55489284 -1.005284 0.8363229999999999 -1.012222
620 -2.24473401 8.17075881 2.80935837 -0.945863 0.9015 -1.1123040000000002
640 -2.13785406 7.28864361 2.50713189 -0.727013 1.004842 -1.038268
660 -0.09475478999999999 7.506886680000001 1.9426644900000003 -0.169432 0.715015 -1.236964
680 2.03456457 9.50358465 -0.20058507 -0.012511 -0.042572000000000006 -1.062914
700 2.01436578 9.878856390000001 -1.35602649 0.150908 0.681582 -0.614047
720 1.49823225 8.39708532 -0.78092505 0.8224459999999999 1.042637 -0.113096
740 0.75652758 7.64026344 -0.48364281 1.68902 0.780241 0.285331
760 0.5382845100000001 8.114625990000002 -0.12513636 2.290557 0.5461689999999999 1.28862
780 1.33372836 8.65559844 0.37811664000000006 2.838777 0.139472 2.350511
800 1.34854146 9.38249001 0.04850064 3.662352 -0.544172 2.635945
820 1.43700804 9.99172044 -0.23306598000000003 2.549257 -2.354264 2.316432
840 1.0150407000000001 11.30164974 -0.09430353000000001 2.538935 0.796797 2.065563
860 0.76161897 11.32814655 -0.03771945 2.170435 2.053491 2.467303
880 2.9332979100000003 11.52991863 -1.12910157 1.910786 0.8502370000000001 2.299321
900 6.49229724 13.14955944 -0.16645608 1.97217 0.379776 2.414652
920 6.77685591 13.163774130000002 -1.36186344 1.0245879999999998 0.294729 2.1272
940 2.5706025900000005 11.73439827 -1.61424531 1.725205 0.30049000000000003 2.210066
960 3.0525973200000003 14.714097480000001 -2.12977062 0.942088 -1.364161 1.730302
980 5.15019114 12.841643160000002 -2.00164221 0.5675100000000001 -2.042835 1.54589
1000 1.8045004500000001 11.56944312 -4.28184918 0.6608229999999999 -1.817895 1.423408
1020 -5.197338000000001 14.479393230000001 -4.790791980000001 0.714154 -2.233896 1.246988
1040 -7.671841830000001 16.608565440000003 5.75688078 0.340287 -2.139854 0.964382
1060 -4.0083660000000005 19.15611453 3.20828202 -0.062999 -2.227689 0.6358699999999999
1080 -1.1608369200000002 16.45557849 -5.80971744 -0.470117 -2.155971 0.370152
1100 -0.13232709 14.885046540000001 -6.080659830000001 -1.19702 -1.922679 0.202406
1120 1.1618865900000004 12.246931530000001 -1.52726985 -1.905405 -1.725296 -0.325156
1140 0.5599842300000001 10.58643207 0.9398961000000001 -2.355833 -1.379521 -0.8895620000000001
1160 1.73459439 6.268070070000001 3.48430599 -1.286328 0.473189 -0.800076
1180 0.430659 8.90153514 -2.09279673 0.987683 1.557703 0.67361
1200 1.03329711 5.905521899999999 -0.7005419100000001 -0.086069 -1.008593 0.816813
1220 1.2265541100000001 4.96232964 0.9969314400000001 -0.539443 -1.882815 1.117073
1240 0.9454387500000001 4.553978580000001 0.8849601 -0.281194 -1.931728 0.339138
1260 -0.6245046000000001 3.44957859 1.45123254 -1.893734 0.241895 -0.242137
1280 -1.4480933400000002 3.3858135899999997 1.6049650500000001 -1.199916 2.090369 -0.36571
1300 -1.95687918 2.54635227 1.5317628300000001 1.870828 0.640165 0.524994
1320 -2.04699384 -0.12364524000000002 0.99153594 -0.807557 -0.213571 -0.236103
1340 -1.70495838 -0.60234381 -0.89244513 -1.958838 0.951258 -0.956005
1360 0.6765957 3.63878406 -5.176383840000001 -2.088784 1.879516 -1.742177
1380 3.10709187 13.397742630000002 -8.62656084 -1.276517 1.111412 -1.637243
1400 18.63071055 32.46628329 -18.62711028 -0.991348 0.989961 -1.34988
1420 6.94600974 17.84843172 -13.883926230000002 -1.227055 1.082203 -1.036519
1440 0.56313324 3.3262374599999998 -7.53667965 -1.839747 0.534792 -0.807225
1460 -4.503829860000001 2.8584574200000006 -4.27510971 -1.835361 0.186138 -0.468121
1480 -2.6207513100000006 10.16566155 6.33901599 -1.513692 0.617219 -0.391651
1500 -0.04146687000000001 16.66469826 5.55868935 -1.392116 1.280614 -0.42904
1520 5.53458618 24.24283497 -6.49334691 -1.525563 1.815419 -0.588754
1540 -5.672750219999999 2.32017291 -1.58610042 -1.452487 2.092449 -0.666579
1560 -4.82237037 3.42413145 1.57502493 -1.0984969999999998 1.771773 -0.7000149999999999
1580 -3.42038403 5.1742943100000005 7.331905710000001 -0.852765 1.151931 -0.683617
1600 -2.21673627 9.9138879 6.40892205 -0.73438 1.3943450000000002 -0.6692140000000001
1620 3.0897281700000008 15.479463870000002 3.50361207 -0.8399030000000001 1.360848 -0.725456
1640 6.0912840600000004 15.84829044 -0.47122335000000004 -0.949423 1.205699 -0.7260220000000001
1660 1.9170603900000003 10.12898196 -0.26644941 -1.019903 1.087053 -0.831048
1680 -1.5786153900000002 9.06634314 1.06309008 -1.000976 1.196976 -0.897286
1700 -2.39786811 8.609501250000001 1.4432962500000002 -0.720108 1.247175 -0.907139
1720 -1.2752019000000003 8.23048209 1.9034441100000001 -0.201774 1.205854 -1.145952
1740 0.2601612 7.126533360000001 2.59979715 0.016047 0.484099 -1.193712
1760 2.31208947 8.44917642 1.13538978 -0.093603 0.741566 -0.750428
1780 2.3309541 9.90805095 -0.90696393 0.382573 1.163559 -0.40047
1800 1.66543389 8.67071565 -1.16442738 1.150745 1.30849 -0.015003
1820 1.3684557600000002 7.87737114 0.13636880999999998 2.037754 0.862726 0.400893
1840 1.70376156 7.885454580000001 0.32602554 2.607887 0.56681 1.445703
1860 1.8390708900000001 8.78777838 0.32227812 3.548943 0.146214 2.446261
1880 2.3346917100000004 9.635911740000001 -0.14325543000000002 3.275644 -1.792588 2.682914
1900 2.3568525 10.246495950000002 -0.7156591200000001 2.461649 -1.785589 2.437937
1920 1.09392291 10.90407006 -1.03120758 2.514266 1.647256 1.994867
1940 -0.07020036 10.867998690000002 -0.48902850000000003 1.90522 2.284934 2.361537
1960 1.50078285 10.69331202 0.46957527000000004 1.865021 0.6310859999999999 2.531086
1980 6.436762830000001 12.67863039 0.27348318 1.687301 0.776401 2.575592
2000 9.155113830000001 12.996121230000002 -1.49928192 1.094206 -0.024307 2.462448
2020 3.97139211 11.928547980000001 -2.4465159 1.008338 -0.092592 2.031443
2040 3.48729804 12.970526940000001 -2.1312715500000006 0.548656 -1.480343 1.555719
2060 6.19127739 14.431343850000001 -3.37608207 0.558886 -1.909306 1.4612690000000002
2080 4.68556011 10.98805347 -2.37001752 0.653964 -2.282889 1.296837
2100 -1.83607884 12.86544222 -4.65172542 0.410367 -2.339756 1.077291
2120 -7.272025470000001 17.14639869 1.9287342900000002 0.033152999999999995 -2.1589400000000003 0.675978
2140 -7.795035810000001 19.524352500000003 7.50898602 -0.406882 -1.919438 0.305129
2160 -1.22086431 17.47496502 -3.0561975900000005 -0.861059 -1.63663 0.038812
2180 0.96773688 15.45880401 -7.144338510000001 -1.624111 -1.449785 -0.203903
2200 1.7119921500000002 12.206661480000001 -3.7690118100000003 -2.135541 -1.133676 -0.7558779999999999
2220 -0.12888378 11.601021509999999 0.8509782600000001 -2.250554 -1.277493 -1.186991
2240 1.08105219 6.94256643 3.5628939 -0.064552 0.4607350000000001 -0.609928
2260 1.52607303 8.04352311 -2.38034745 1.284843 0.409823 0.826708
2280 1.6657380000000002 5.22713097 -1.13419296 -0.243142 -0.768475 1.111305
2300 1.7794947600000002 5.171890860000001 0.49591512000000004 -0.680109 -1.297895 0.951903
2320 0.88196805 4.79302866 1.1193700500000001 -0.4652520000000001 -0.945503 0.021463
2340 -0.39233133000000003 4.2312492 1.64852145 -2.836569 1.62917 -0.827341
2360 -1.47533571 4.40728965 2.02169385 -0.180046 2.081346 -0.5914470000000001
2380 -2.15596332 3.12520113 1.7028590399999999 1.082014 0.390043 0.355298
2400 -2.21613786 1.18508724 0.9813629700000001 -0.906534 -0.050785 -0.366258
2420 -2.4748079400000003 -0.06615864 -0.0142245 -1.97353 1.309928 -1.127483
2440 -1.50961185 2.81055519 -3.9580701300000003 -1.83126 1.7411599999999998 -1.731655
2460 3.5079579000000005 11.432024640000002 -7.0597665 -1.102107 0.543949 -1.604319
2480 16.61380398 31.25051037 -16.88728716 -0.936701 1.0917290000000002 -1.538704
2500 12.677433570000002 24.078782340000004 -18.85763547 -1.506465 1.174412 -1.209504
2520 2.14115022 3.24255816 -9.53921457 -1.993568 -0.184938 -0.7731939999999999
2540 -3.15050112 0.67224987 -4.48751583 -1.570079 0.299363 -0.508074
2560 -4.362075360000001 6.22540638 6.030059850000001 -1.470974 0.714721 -0.302815
2580 -3.0707163900000003 10.324475640000003 12.96933012 -1.593338 1.521365 -0.5204840000000001
2600 2.5721035199999998 21.306093750000002 -13.81851315 -1.498966 1.996583 -0.628325
2620 5.46184503 22.29239115 -2.86683516 -1.126633 1.760907 -0.622217
2640 -3.0042536400000004 1.9251438300000001 0.6427610100000001 -0.606824 1.124097 -0.596406
2660 -3.57591177 4.16418804 4.60831617 -0.458408 1.456733 -0.526361
2680 -4.23933264 6.6942262800000005 6.653063520000001 -0.590608 1.388311 -0.616927
2700 -1.53326376 11.151360539999999 5.29015041 -0.788637 1.343744 -0.7549859999999999
2720 3.1003524000000002 16.94341998 1.2493035 -0.956321 1.175463 -0.884128
2740 4.19697306 13.57078122 -0.7262931600000001 -1.028949 0.9592 -1.084116
2760 2.5722506700000003 8.78433507 0.8821152000000001 -0.975839 1.086018 -1.14266
2780 -0.4309533 8.45890794 1.9297839600000002 -0.628955 1.164518 -1.0944040000000002
2800 -1.3611178800000001 7.68860712 2.32361622 -0.062923 0.7049350000000001 -1.206297
2820 -0.10642868999999999 7.604035110000001 2.7339194700000005 -0.016452 0.12431 -0.968083
2840 1.4365665900000002 9.21229632 0.6466555799999999 0.184625 1.055403 -0.6207
2860 1.75090842 9.40359132 -1.7122864500000001 0.731072 1.274482 -0.203762
2880 1.7411769000000001 7.70462685 -1.4180060700000001 1.612517 1.027782 -0.013553999999999998
2900 1.5874443900000004 8.11342917 0.45116190000000006 2.222804 0.7461260000000001 0.893717
2920 1.2805875900000003 8.10159831 0.9698362200000001 2.708509 0.282846 2.040701
2940 1.66722912 8.443496430000001 0.9714843000000001 3.604713 -0.415615 2.771042
2960 1.6007663699999999 8.864266950000001 0.15672456 2.67002 -2.918519 2.658762
2980 2.23065666 9.65717001 -0.03742515 2.440131 -0.647764 2.428851
3000 1.9233486000000002 11.02322232 -0.12229146 2.308655 1.699382 2.456972
3020 1.5364029600000002 11.51884314 -0.27602397 1.784157 1.510808 2.650103
3040 2.6806217400000003 11.11603473 -0.12993344999999998 1.936653 0.268435 2.849313
3060 6.47897526 12.171934080000002 0.46493514 1.0107700000000002 0.053241 2.588884
3080 7.528596210000001 13.279483080000002 -0.97971489 1.2398870000000002 -0.450488 2.619972
3100 4.0749759 12.32372421 -2.15088174 1.129868 -0.8503290000000001 2.007625
3120 3.58174872 12.33015957 -1.7468667000000002 0.5612739999999999 -1.596092 1.719394
3140 6.54498675 13.95188991 -3.01248423 0.560176 -2.089373 1.468986
3160 5.322935429999999 10.818154080000001 -2.2778133300000003 0.378733 -2.346632 1.225562
3180 -0.41793543000000005 12.58058925 -4.59020691 0.169774 -2.372405 0.926101
3200 -5.634883620000001 15.569725680000001 0.19130481000000002 -0.123446 -2.214421 0.5670649999999999
3220 -6.89511546 17.99797536 8.36565408 -0.522745 -2.110587 0.25542600000000004
3240 -1.3639627800000003 19.018254600000002 -1.4346144 -1.201848 -1.701632 0.07283400000000001
3260 -0.32332778999999995 16.80330375 -6.29785323 -1.770504 -1.53447 -0.477214
3280 1.82755395 13.94799534 -4.6689419700000006 -1.85303 -1.041697 -1.091581
3300 -0.42571475999999997 12.46397778 -0.19100070000000002 -1.304251 -0.082415 -1.168025
3320 0.87627825 8.22270276 2.28604392 1.218123 1.216423 0.5720390000000001
3340 1.7148370499999999 7.57949049 0.38515041 0.571783 -1.480215 0.439589
3360 1.4784749099999999 6.220314989999999 -1.7283061800000001 -0.610406 -1.5237040000000002 0.8843129999999999
3380 1.2666672 5.23072143 0.59635971 -0.6203609999999999 -0.8348780000000001 0.462481
3400 1.69343163 4.80051369 0.07215255 -1.746316 0.94456 -0.531496
3420 0.3558087 3.6901296 1.29181023 -1.165357 1.680966 -1.109494
3440 -1.3966006500000003 3.3560206200000002 1.9380243600000002 2.024071 0.616052 0.827334
3460 -2.14743843 3.25213272 1.4923952999999999 -1.261057 1.245105 -0.187729
3480 -2.57883318 1.16592831 0.9726811200000001 -1.848542 1.479508 -0.7540180000000001
3500 -2.6162583300000004 -0.27617112 -0.83346741 -2.229146 1.610191 -1.40205
3520 -1.4976338400000002 2.8303125300000005 -5.38864281 -1.262625 1.6319 -2.073647
3540 4.466110410000001 9.95400099 -6.462062820000001 -0.6149060000000001 0.688129 -1.8521330000000005
3560 16.51306509 28.182040470000004 -15.00793641 -1.107359 0.214286 -1.476815
3580 12.887298900000001 23.82235875 -17.34008733 -1.762113 0.508727 -1.0160209999999998
3600 3.02939667 3.1145769000000003 -9.080420490000002 -1.964711 0.490649 -0.582646
3620 -2.52644778 1.5834026700000001 -2.85666219 -1.7754450000000002 1.166013 -0.475368
3640 -5.9288697 8.188573770000001 3.00260556 -1.751207 1.317276 -0.49462
3660 -4.559668379999999 14.26593744 7.94907243 -1.777866 2.07344 -0.6923279999999999
3680 0.9804604500000001 25.336159470000002 -17.264648429999998 -1.313565 1.974398 -0.835304
3700 5.96254743 10.88146782 5.54986035 -0.942183 1.466368 -0.65153
3720 -1.4084217 0.41583609000000005 2.41746849 -0.4498180000000001 1.63277 -0.600234
3740 -2.14743843 3.75478731 4.2131399400000005 -0.395384 1.670797 -0.566788
3760 -2.8809125100000004 9.16709184 6.865773750000001 -0.521461 1.52253 -0.675369
3780 -0.7213489200000001 14.07253329 3.2645619900000002 -0.816346 1.3353780000000002 -0.770124
3800 3.45526839 16.62742026 0.2544714 -0.914847 1.163528 -0.865663
3820 3.6600423300000005 11.357184150000002 0.19159911000000002 -0.8324290000000001 1.325706 -1.00096
3840 0.89558433 8.993003580000002 1.51963767 -0.7960229999999999 1.09875 -1.019643
3860 -1.94565654 8.74676277 2.05897185 -0.630106 0.970393 -1.032206
3880 -1.7485147800000003 8.53435665 2.05297794 -0.258252 0.570896 -1.083576
3900 0.5394813299999999 7.92152595 2.7771717600000003 0.108389 0.583087 -0.987027
3920 2.93465169 8.177792580000002 1.19047293 0.43662 0.968774 -0.753425
3940 2.4944083200000002 9.63725571 -0.7804737900000001 1.09516 1.189647 -0.349593
3960 2.65473315 8.96111127 -1.30333698 2.210509 1.126025 0.207346
3980 1.6359450300000002 7.578587970000001 -1.46560419 2.5802110000000003 0.427971 1.291863
4000 1.2117312 8.39768373 0.10148445 3.171063 0.166444 2.509826
4020 2.0460913200000004 8.6011137 1.0886843700000002 3.37042 -1.708086 3.046663
4040 2.16853974 8.653656060000001 0.8960355900000001 2.197964 -3.295878 2.864251
4060 2.73555774 8.53510221 0.15478218000000002 2.4262240000000004 0.5432130000000001 2.441115
4080 1.6217303400000003 10.189764720000001 -0.77958108 2.062419 1.56579 2.512039
4100 1.3537800000000002 11.535010020000001 -0.92672127 1.7668529999999998 0.561497 2.702473
4120 2.47540635 11.67377247 -0.41658165 1.670412 -0.236091 2.710299
4140 4.90604967 11.922112620000002 0.18202455 1.418202 -0.900626 2.613249
4160 8.26925121 13.09013046 -0.8740317600000002 0.584801 0.216477 2.097522
4180 6.1649277300000005 12.876968970000002 -2.17482795 0.434701 -1.422364 1.806949
4200 4.0169007 12.0399111 -2.0707929000000003 0.507908 -2.496282 1.773586
4220 6.44484627 12.621300750000001 -2.27063241 0.518166 -2.692018 1.429941
4240 7.513479 12.48853221 -1.9616664600000002 0.320655 -2.735064 1.177584
4260 2.57988285 11.809395720000001 -2.9606972400000005 0.047222 -2.628509 0.875367
4280 -3.0915234000000003 16.607810070000003 -2.28245346 -0.43672 -2.5193950000000003 0.6485890000000001
4300 -6.768321210000001 18.13134231 7.42081374 -1.048682 -2.265645 0.326727
4320 -1.4748844500000002 20.46843747 1.1049984000000002 -1.930287 -1.925828 0.027441000000000004
4340 1.58505075 17.082025469999998 -6.10430193 -2.312873 -1.374002 -0.708739
4360 1.36561086 13.482461790000002 -5.164405830000001 -2.218184 -1.583693 -1.098778
4380 0.07364366999999998 12.65917716 0.34802937000000006 1.132351 0.274282 -0.042648
4400 0.00793629 9.29177694 3.3822133200000004 0.992761 -0.176413 0.8969889999999999
4420 1.8598779 8.131685580000001 -0.35401347000000005 -0.754322 -0.677702 1.231532
4440 2.8400440500000004 5.98335444 -1.68190488 -0.785604 -0.8000229999999999 0.946255
4460 2.62180098 6.0529662 1.39075389 -0.767304 -0.202297 -0.159993
4480 1.14302196 4.45533903 1.2481066800000002 -1.639212 1.949845 -0.806569
4500 -0.5074418700000001 4.13709282 2.05852059 1.39054 1.710611 0.447628
4520 -1.7973097200000003 3.92872842 2.41268121 0.206048 -0.095239 -0.603052
4540 -2.4201662400000004 3.1698072 2.4866289900000003 -2.012791 0.964478 -1.284343
4560 -2.79753732 0.8306225100000001 2.2703283 -2.156617 2.08068 -1.640359
4580 -3.1166664300000004 -0.14369688 1.16636976 -1.55406 1.43775 -1.753899
4600 -1.72710936 2.60503569 -2.3659758 -1.080972 1.020928 -1.556712
4620 2.92492017 10.337650470000002 -5.023102590000001 -1.263971 0.991355 -1.461813
4640 15.8689503 29.048891310000002 -18.187033680000003 -1.930104 -0.146609 -1.088993
4660 14.62413978 26.355997260000002 -18.37249173 -1.601608 -0.144552 -0.822851
4680 1.72172367 3.4934391 -8.766216 -1.390809 0.463008 -0.827498
4700 -3.7035987300000004 2.35370349 -3.6905710500000004 -1.297606 0.960528 -0.651228
4720 -5.570814510000001 11.04343092 3.7878764400000002 -1.691773 1.294402 -0.6864560000000001
4740 -0.6301943999999999 13.640088870000001 10.7814843 -1.7065099999999995 1.576748 -0.685852
4760 5.87513052 18.05141043 -7.7067261899999995 -0.932377 1.4284290000000002 -0.496521
4780 -3.7178232300000005 9.67258152 -5.735622510000001 -0.532121 1.080463 -0.405685
4800 -1.6515135 4.102218270000001 4.39395786 -0.580677 1.374886 -0.465153
4820 -1.03510215 6.2035497 6.60651507 -0.715013 1.399728 -0.700064
4840 -0.33829785 10.22913225 6.39335358 -0.8353 1.304898 -0.856743
4860 2.12587605 12.97741356 2.80457109 -0.971204 1.032327 -1.040009
4880 4.43377665 14.281653060000002 -1.3859666099999999 -0.929395 0.993103 -1.124056
4900 3.3200964 10.5443766 -0.6980011199999999 -0.914704 1.0172370000000002 -1.044936
4920 0.7981416 8.4909474 1.19601558 -0.664976 1.082219 -0.995205
4940 -0.9047174400000001 8.49079044 1.7350456500000002 -0.08678 0.5710970000000001 -1.016149
4960 -1.04916969 7.27008309 2.32376337 0.224761 0.501167 -0.848309
4980 0.71970084 6.76683009 2.53602234 0.556766 0.8248620000000001 -0.56653
5000 3.04331706 8.299191330000001 1.54194561 1.36926 1.197211 -0.0817
5020 3.76810929 9.95878827 -2.23050951 2.087181 0.810033 0.74741
5040 1.6681316400000001 9.170829450000001 -2.48842422 2.43357 0.13023900000000002 1.814649
5060 0.11630736000000001 8.47866528 -0.25701219000000003 3.4103449999999995 -0.310183 2.680887
5080 0.3924882900000001 8.50621176 0.6575839200000001 2.97326 -2.531136 2.756524
5100 1.5349118400000004 9.306148590000001 1.0383885000000002 2.099569 -2.047714 2.501974
5120 1.84341672 8.74346661 0.28470582000000005 2.336171 1.339516 2.383918
5140 1.7760612600000003 8.705148750000001 0.19205037000000003 1.860775 1.363946 2.547209
5160 2.13890373 11.10271275 0.17767872 1.843177 -0.278134 2.684854
5180 2.87986284 12.434341770000001 -0.6450075000000001 1.7024560000000002 0.181648 2.644826
5200 4.00402017 11.631864150000002 -0.90561996 1.225471 -0.408704 2.306829
5220 6.91397028 12.90451545 -0.46268865000000003 1.555563 -0.911108 2.185865
5240 7.9796109600000005 13.76852139 -1.4129146799999999 0.729638 -1.03061 1.618364
5260 5.35571064 12.20531751 -1.1425707 0.616606 -1.349418 1.522911
5280 5.525757179999999 12.8064645 -1.91361708 0.695099 -2.182768 1.26495
5300 6.458021100000001 12.992383620000002 -2.7952908300000003 0.636364 -1.891057 1.09325
5320 3.48071553 10.77923781 -3.30423363 0.31105 -2.008791 0.715114
5340 -2.1405518100000007 14.339875410000001 -4.25160495 -0.14971800000000002 -2.175885 0.277344
5360 -5.280124590000001 17.359099110000002 5.209620120000001 -0.85 -1.788995 0.036948
5380 -3.36664485 20.07699885 4.68645282 -1.686598 -1.360143 -0.455487
5400 0.31658832000000003 17.44067907 -5.54746671 -2.017305 -0.840683 -1.134647
5420 0.44906256 14.835653190000002 -6.1351445700000005 -2.004479 -0.5502100000000001 -1.325073
5440 0.35042301000000003 13.564188900000001 -0.79230465 0.573522 1.389086 0.309874
5460 -1.20379491 11.524680090000002 1.25918217 0.430887 -0.8369260000000001 0.861864
5480 -0.0489519 6.03799614 1.48565583 -0.358482 -1.109604 1.27117
5500 0.32377905 7.945923420000001 -1.3648653000000002 -0.6543680000000001 -1.115479 0.866391
5520 1.27085607 4.99435929 0.00434583 -1.811449 0.17924 -0.096204
5540 1.81452627 4.96996182 0.12139875000000001 -2.013762 1.785565 -0.957458
5560 1.15454871 3.77470161 1.20334365 2.5683 0.448749 0.635865
5580 -0.26958861 4.219575300000001 1.5176952900000003 -0.4627350000000001 -0.249588 -0.319106
5600 -1.63160901 4.13051031 1.5871500900000002 -1.757182 1.21242 -1.172848
5620 -2.2472748 2.4689611800000004 1.7402841900000001 -2.181462 2.256402 -1.872562
5640 -2.8666880100000003 -0.7951495500000001 0.18112203000000002 -1.353927 1.704877 -1.862871
5660 -3.02371668 -0.23815737 -3.13014537 -0.8746360000000001 1.064093 -1.607669
5680 3.5887824900000003 4.18634883 -5.44672782 -1.216435 1.112673 -1.472318
5700 7.8228864 18.29375667 -11.01634551 -1.859819 0.485063 -1.140587
5720 21.99960189 34.33349907 -18.33357546 -1.853448 0.150063 -0.7544850000000001
5740 5.8586693400000005 10.46727981 -11.39640453 -1.548407 0.780003 -0.576905
5760 0.5680676700000001 1.38058092 -5.2179978600000005 -1.615759 1.242494 -0.55874
5780 -3.2817785400000004 3.1617237600000005 -1.5432895800000002 -1.6804259999999998 1.666209 -0.7028760000000001
5800 -1.18358631 11.205992430000002 11.387565720000003 -1.416386 1.436688 -0.809696
5820 -0.39816828 19.60921881 -3.3403050000000003 -1.044237 0.90812 -0.81817
5840 2.5999443000000007 23.90663646 -9.16903422 -0.639957 1.21954 -0.726014
5860 -4.963673610000001 0.54097245 -0.10717425000000001 -0.652423 1.398132 -0.621645
5880 -2.84393862 4.50338841 7.073843850000001 -0.770358 1.176277 -0.716188
5900 -2.2734675 7.51272363 8.37328626 -0.8980459999999999 1.195059 -0.7737189999999999
5920 -0.19654335 12.37596246 4.9829895 -1.046671 1.030828 -0.8664139999999999
5940 4.6169980200000005 15.99364521 0.26315325 -0.91023 1.091676 -1.016158
5960 5.3940285 13.102108470000001 -1.75076127 -0.765463 1.071781 -0.961711
5980 2.32332192 8.60410575 0.5174775 -0.503612 1.160409 -0.97495
6000 0.01392039 8.33990283 2.14787988 -0.080316 0.622058 -0.978781
6020 -0.78347565 8.37777924 1.78683264 0.142181 1.0175610000000002 -0.7106779999999999
6040 0.16660323000000002 7.62918795 1.90433682 0.564942 0.753425 -0.557836
6060 1.7013581100000001 7.65987363 1.1021535 1.272875 1.285175 -0.150853
6080 2.26943559 8.83927107 -0.33664977 2.11886 1.030102 0.564683
6100 2.63691819 9.0406017 -0.52840584 2.435684 0.400552 1.613492
6120 1.87170876 8.30907 -1.2555917100000002 3.104822 -0.17059000000000002 2.66896
6140 0.6029422200000001 7.954310970000001 -1.08883152 3.062967 -1.839812 2.9549540000000003
6160 1.64761893 8.509802220000001 0.79664067 2.089246 -2.854356 2.5680970000000003
6180 1.4771309400000001 9.04449627 1.34614782 2.227188 0.6375850000000001 2.1907080000000003
6200 1.99459863 8.93087685 0.26629245 1.934896 1.662064 2.256788
6220 1.7944648200000002 10.460393190000001 -0.35820234 1.769014 0.053402 2.4243330000000003
6240 1.2064926599999997 12.6587259 0.15282999000000003 1.6981939999999998 -0.379385 2.556853
6260 1.6085555100000002 12.453951960000001 0.15747012000000002 0.973457 -0.855558 2.38469
6280 5.157529020000001 11.97030915 -0.35161983 1.6816970000000002 -0.762791 2.281628
6300 8.356520970000002 13.30119261 -1.36695483 0.503458 -0.659752 1.512691
6320 6.7096476 13.014681750000001 -2.01391452 0.665846 -1.794848 1.516349
6340 4.1879871 12.106521 -0.41987781 0.57597 -2.008027 1.358965
6360 6.21028917 14.12882307 -2.5524933300000003 0.431321 -2.391099 1.111687
6380 6.36790644 10.5244623 -1.8871300800000002 0.258699 -2.0138700000000003 0.964719
6400 2.7397564200000004 10.37522277 -3.40825887 -0.125302 -2.119737 0.6000449999999999
6420 -1.73729214 14.73670953 -2.97775683 -0.6595270000000001 -1.823946 0.353448
6440 -4.47958935 17.50699467 5.70463272 -1.345523 -1.470687 -0.013923
6460 -1.86437088 19.33319484 3.4051196700000004 -1.7788689999999998 -0.953187 -0.646796
6480 0.5825864700000001 16.472049480000006 -5.3646966 -2.1983 -0.50349 -1.119252
6500 0.9845021700000001 14.133610350000001 -5.81196393 -0.596435 0.29952 -1.124047
6520 0.8469365400000001 13.021421220000002 -0.6019023600000001 1.148085 1.403956 1.153491
6540 -0.13037490000000002 10.107282240000002 1.7377335900000002 -0.405789 -1.146056 0.8382569999999999
6560 0.11016630000000001 6.62656671 1.64911986 -0.8828440000000001 -1.409571 1.08309
6580 1.1744532 6.4090692 -1.2340293300000003 -0.989611 -0.706588 0.13606600000000002
6600 3.21426612 6.248008620000001 -0.35386632 -1.910936 1.55427 -1.280114
6620 1.4991347700000002 5.07399687 0.94528179 -0.632943 1.82546 -1.20851
6640 0.17408826000000002 4.0806657 1.4895504000000002 1.699411 0.5128020000000001 0.5560069999999999
6660 -0.94004325 4.50892125 1.4519781 -0.8415299999999999 0.202392 -0.333013
6680 -1.8802434600000002 3.6489668400000004 1.2698064 -1.812544 1.156701 -0.777922
6700 -2.13201711 2.38993182 1.39495257 -1.854039 1.492957 -1.181362
6720 -2.28424869 0.26465418 0.9404945100000001 -1.141137 0.660239 -1.348367
6740 -1.99191069 1.1379305700000002 -1.20783663 -0.820607 0.793118 -1.55567
6760 2.3294531700000007 5.088221370000001 -4.917723570000001 -1.3195940000000002 1.1112030000000002 -1.547813
6780 7.22832192 14.95464849 -10.334364120000002 -1.7793310000000002 0.276294 -1.216669
6800 21.390214500000003 29.68147935 -17.76580209 -1.507445 0.5807680000000001 -0.871192
6820 9.84503151 15.92613279 -13.420492020000001 -1.597822 1.234717 -0.760498
6840 0.8119148400000001 2.6785322099999997 -6.249951 -1.550549 1.229542 -0.83921
6860 -4.662957870000001 2.12422797 -1.75390047 -1.434199 1.233435 -0.848016
6880 -6.82161894 5.246142750000001 9.31647852 -1.396 1.521599 -0.749842
6900 -2.59679529 13.90937337 0.88825626 -0.946568 1.273286 -0.58081
6920 12.12014709 35.32249422 -11.996207550000001 -0.632793 1.134473 -0.504733
6940 1.6646883300000002 4.8999086100000016 6.055811100000001 -0.63256 1.322368 -0.606454
6960 -1.53460773 0.9098088300000001 3.2446575 -0.732467 1.249845 -0.765155
6980 -1.6411835700000001 3.58250409 7.18640379 -0.909149 1.127759 -0.983082
7000 -1.96211772 6.66788643 5.853273840000001 -0.989626 1.171019 -1.075567
7020 0.6417113400000001 14.16324636 0.2565707400000001 -0.906351 0.99052 -1.030957
7040 3.3621616800000007 16.97590089 -1.9736444700000002 -0.728245 0.910378 -0.857626
7060 1.56918798 10.55095911 0.25072398 -0.268254 0.816617 -0.985684
7080 -0.33755229 8.46369522 1.82455209 -0.073888 0.4598350000000001 -0.909094
7100 -1.1180260800000001 8.761732830000001 1.76901768 0.19726 0.915157 -0.7240489999999999
7120 0.27198225000000004 7.76554695 2.58467994 0.835577 0.997152 -0.4708
7140 2.48827707 7.435342350000001 2.3433735600000007 1.509263 1.263783 -0.067989
7160 3.8802277800000002 8.22943242 1.14586686 2.058738 0.8731639999999999 0.968252
7180 3.4636461300000003 8.705295900000001 -0.51972399 2.3557490000000003 0.154016 2.062971
7200 1.90732887 8.46909072 -1.61604054 3.144774 -0.629391 2.817241
7220 0.30581694000000004 8.88253317 -0.8872065900000001 2.699956 -2.455016 2.872021
7240 0.36763956000000003 8.9537832 0.74964096 2.017784 -1.924026 2.543973
7260 0.9348047100000001 9.08640459 1.41904593 2.277819 1.272106 2.242591
7280 2.8542685500000005 8.86890708 0.5881291200000001 1.877556 1.606382 2.378236
7300 2.9568026700000005 9.75087513 -0.28455867 1.883514 -0.343287 2.42671
7320 2.6409599100000003 10.656642240000002 -0.02185668 1.498393 -0.257155 2.266881
7340 3.19795209 11.251049759999999 -0.04505733 0.889574 -0.191047 2.2465200000000003
7360 4.468209750000001 12.239299350000001 0.53453709 2.039569 -1.464616 2.189955
7380 6.55801443 13.502219129999999 -0.39637305000000006 0.700476 -1.200696 1.288298
7400 4.922814960000001 13.60565577 -1.7907272100000002 0.448616 -2.024913 1.429668
7420 3.74954877 12.54182013 -0.3210813 0.39079 -2.164956 1.336508
7440 6.35922459 13.840065720000002 -1.6557023700000002 0.322736 -2.327911 1.121529
7460 6.76083618 12.419822970000002 -2.09429766 0.079083 -2.111197 0.950771
7480 4.3237575 10.676850840000002 -3.7643716800000004 -0.34962600000000005 -2.122388 0.658302
7500 -0.5599842300000001 13.661190180000002 -3.6157305600000003 -0.971214 -1.7338779999999998 0.477206
7520 -3.91031505 15.80563656 2.3605901100000004 -1.710236 -1.301636 0.117909
7540 -3.9800739600000004 19.42405506 5.84474895 -2.18128 -0.6910649999999999 -0.580508
7560 -0.5622307200000001 17.873133300000003 -3.8513373300000002 -2.352226 -0.552024 -1.103173
7580 0.8009865 14.39841168 -6.12032166 0.483199 0.5589569999999999 -0.606228
7600 1.67487111 12.23989776 -1.9297839600000002 1.014908 0.6271939999999999 1.046734
7620 0.0025407900000000002 11.27216088 1.9079370900000001 -0.5105430000000001 -1.075844 0.952803
7640 1.6078099500000003 7.0280311499999994 1.37728476 -0.725524 -1.160456 0.986661
7660 0.39368511 5.5679696100000005 0.47930679000000004 -0.999705 -0.283978 -0.045075
7680 3.2998878000000005 5.716757879999999 -1.37025099 -2.087409 1.496138 -1.241748
7700 2.2808053800000003 5.65898679 0.52705206 0.824268 1.237141 -0.802335
7720 0.9867486599999999 4.8041139600000005 1.0027683900000002 1.073101 -0.396249 0.126576
7740 -0.10508471999999999 4.81473819 1.8074925000000002 -0.907239 -0.048447 -0.683528
7760 -1.4838605999999999 4.5574218900000005 1.6334042400000002 -1.979303 1.508916 -1.067958
7780 -1.7326422000000001 2.6791306200000005 1.35887139 -2.028739 1.747275 -1.225637
7800 -2.34637542 0.62075718 1.1231174700000002 -1.105001 0.773409 -1.442263
7820 -2.04759225 0.5688132300000002 -0.54876159 -0.746286 1.278258 -1.463906
7840 0.036071370000000005 3.8962475100000002 -3.15693648 -1.321064 1.193607 -1.374877
7860 4.1793052500000005 10.479709080000001 -5.5266597 -1.607641 0.17282 -1.063649
7880 17.19384966 26.55298206 -17.452509929999998 -1.282003 0.5252140000000001 -0.760588
7900 15.561338130000001 26.361677250000003 -17.904564540000003 -1.42317 1.483053 -0.677344
7920 2.53482552 3.8553790500000003 -8.802895589999999 -1.49529 1.529309 -0.7270449999999999
7940 -2.40774678 0.69664734 -3.87020196 -1.540129 1.275967 -0.736647
7960 -4.086198540000001 5.3115558300000005 4.35803364 -1.508153 1.658634 -0.8223719999999999
7980 -1.7051055300000002 10.35202212 6.424039260000001 -1.120776 1.241679 -0.783881
8000 5.188656149999999 28.083695220000003 -12.054135600000002 -0.786934 0.8130689999999999 -0.71477
8020 4.613701860000002 16.355742120000002 -2.4457605300000003 -0.738146 1.16786 -0.7704310000000001
8040 -2.65143699 0.91205532 1.87006068 -0.918968 1.032217 -0.791817
8060 -2.12647446 2.90785077 7.03013049 -0.930831 1.167845 -0.8657809999999999
8080 -1.32564492 4.89227643 7.998171480000001 -0.873468 1.284025 -0.931759
8100 0.32198382000000003 11.646382950000001 3.91480803 -0.704206 1.187614 -0.94434
8120 4.022737650000001 17.433498150000002 -1.6837001100000002 -0.420466 1.408222 -0.947981
8140 3.5642378700000004 12.91664061 -2.74724145 -0.047287 0.979244 -1.086899
8160 0.01377324 8.857831590000002 1.4917968900000003 0.043531 0.710831 -0.908595
8180 -1.7318966400000002 8.62581528 2.2260165300000003 0.326746 0.8239200000000001 -0.664276
8200 -0.9232779600000001 8.689727430000001 2.62359621 0.8563370000000001 0.742032 -0.359233
8220 1.6497182700000002 8.28377001 2.8157937299999998 1.495462 0.982944 0.111736
8240 3.61079613 8.28541809 2.00492856 2.035392 0.683656 1.226841
8260 4.53481965 8.91351315 0.7253906400000001 2.3911860000000003 -0.066373 2.267531
8280 2.3736177900000004 8.64961434 -1.4455427399999998 3.272044 -0.741913 2.873822
8300 0.85188078 8.160134580000001 -0.56821482 2.387788 -2.958368 2.745504
8320 -0.15792137999999997 8.04232629 -0.01241946 2.105801 -1.235593 2.401632
8340 0.50535234 8.068067730000001 0.59081706 2.289037 1.064709 2.15
8360 1.8453591 9.26453457 0.55833615 1.858989 0.935726 2.277485
8380 2.1296234700000003 10.10414304 -0.69276258 1.890939 -0.286058 2.493986
8400 1.4587175700000001 11.216322360000001 -0.37781253 1.521845 -0.188289 2.340663
8420 0.85037985 11.571836760000002 0.27303192 1.521918 -1.279561 2.181829
8440 3.3256390500000004 11.59174125 0.53558676 0.609135 0.012388 1.699507
8460 7.3488181500000005 12.348121680000002 0.27422874 0.6537569999999999 -1.114284 1.563462
8480 9.19493262 12.60828288 -1.1741589000000001 0.689688 -1.43609 1.55558
8500 5.5847349 12.98040561 -0.6873670799999999 0.479557 -2.004969 1.210873
8520 5.733827280000001 13.00360626 -0.3558087 0.286958 -2.009152 1.092029
8540 7.49581119 13.289960160000001 -2.92087845 -0.043173 -2.033039 0.692375
8560 6.29171217 10.654994160000001 -2.8303125300000005 -0.432237 -1.867138 0.30168
8580 1.69671798 12.337497449999999 -4.7316573 -0.956597 -1.547805 0.019871
8600 -3.17998998 14.68041975 -0.99872667 -1.57475 -1.376603 -0.432252
8620 -5.29060167 17.73781416 7.306007310000001 -1.833275 -0.985041 -1.157745
8640 -1.15050699 18.592382880000002 -0.74095911 -1.445915 -0.992791 -1.419949
8660 -0.04939335000000001 15.841109520000002 -5.504057459999999 1.191103 0.807937 0.716584
8680 1.5615558 13.566739499999999 -3.93472233 0.578112 -0.8564309999999999 1.0829719999999998
8700 -0.09190989000000001 12.68327052 0.6542877600000001 -0.476973 -1.060337 1.573654
8720 -0.6710530499999999 8.690777100000002 1.52802522 -0.63976 -1.272743 1.020519
8740 1.50990615 8.55021942 1.0716247800000003 -0.989559 0.150313 0.031351
8760 2.06720244 5.996234970000001 -1.7380377 -1.434805 1.313423 -0.870556
8780 2.53886724 5.35212018 -0.0038945700000000004 1.178808 0.237395 -0.448201
8800 0.92267955 3.93172047 0.5049010799999999 -0.535406 0.952127 -0.277357
8820 0.39861954000000005 3.8281366800000005 1.31636466 -1.6921130000000002 1.577169 -0.803257
8840 -1.2424168800000002 3.98725488 1.6685829000000003 -1.882047 2.120492 -1.445144
8860 -2.0255884200000005 3.5977684500000002 1.8952135200000002 -1.4556 1.932 -1.563701
8880 -2.10222414 1.7528508 1.18958022 -1.002964 0.955096 -1.411873
8900 -1.46994021 0.49307022000000006 -0.39562748999999997 -0.945254 0.292182 -1.383915
8920 -0.34922619 2.5119289800000004 -3.6169273800000004 -1.343712 0.8499209999999999 -1.188724
8940 4.834201230000001 7.759111590000001 -6.537805830000001 -1.688318 0.995413 -1.043903
8960 14.65348149 23.489603549999998 -15.155380710000001 -1.42785 0.8410129999999999 -0.753466
8980 17.63976321 29.348871300000003 -17.965190340000003 -1.320878 1.350066 -0.542931
9000 3.68817741 5.947734330000001 -8.85483954 -1.310208 1.95978 -0.646187
9020 -1.93262886 2.56656087 -5.36439249 -1.3939700000000002 1.782398 -0.7031609999999999
9040 -4.65726807 8.285123790000002 -1.2897207000000002 -1.034926 1.564262 -0.8093319999999999
9060 -2.55264048 13.057649550000002 7.71825294 -0.7234430000000001 1.352107 -0.771633
9080 -1.6205335200000002 15.26644953 -2.91488454 -0.667892 1.626669 -0.750232
9100 3.3193508400000002 13.95263547 -4.83973407 -0.572857 1.465249 -0.691678
9120 -1.15514712 4.77147609 1.74162816 -0.632095 1.333391 -0.6994
9140 -0.99348813 7.477397820000001 4.65801363 -0.8645280000000001 1.266427 -0.80135
9160 -0.87417891 10.05384717 5.7113721900000005 -0.932323 1.320147 -0.8563719999999999
9180 0.7459033500000001 11.543848830000002 2.50923123 -0.8877370000000001 1.104517 -0.7842140000000001
9200 3.9541755600000013 11.842023779999998 1.09497258 -0.616047 1.065051 -0.7406050000000001
9220 4.74992352 11.571385500000002 0.8821152000000001 -0.205041 0.899394 -0.961848
9240 2.33588853 10.22373675 1.07910981 -0.115513 0.638105 -0.965161
9260 -0.4827501 9.30540303 1.08823311 0.056561 1.2371370000000002 -0.668829
9280 -0.8897473800000001 9.473948640000001 1.7724609900000001 0.600604 0.902248 -0.509707
9300 0.19159911000000002 8.64602388 2.2826006100000003 1.14314 1.191576 -0.340714
9320 2.3433735600000007 8.07959448 1.043784 2.044845 1.321452 0.230507
9340 3.22908903 9.8418825 0.38634723000000004 2.514796 0.686567 1.149001
9360 3.0250606500000004 10.04036823 -0.54546543 2.995579 0.218366 2.1987490000000003
9380 1.81782243 8.28737028 -0.22378572 3.381783 -1.299238 2.825096
9400 1.5874443900000004 7.06680027 -0.47182176000000003 2.379261 -3.625376 2.789028
9420 1.94505813 8.411005710000001 0.49307022000000006 2.4014990000000003 -0.654196 2.472387
9440 2.1900923100000007 8.956029690000001 0.85801203 2.0942540000000003 1.381864 2.126869
9460 3.4182945 8.9944947 0.56462436 1.764723 0.904837 2.092064
9480 3.35302857 8.836573320000001 -0.45340839000000005 1.684794 -0.055532000000000005 2.299971
9500 2.57779332 10.858865580000002 -0.6506973 1.503262 -0.350956 2.2766490000000004
9520 1.29226149 11.8577394 0.53453709 0.5238149999999999 0.026723 2.183866
9540 2.160162 11.73095496 1.02506652 0.541326 -0.661317 1.870812
9560 5.68682757 12.588525540000001 0.028586340000000002 0.563643 -1.547085 1.716143
9580 6.38392617 12.885356520000002 -1.8053931600000002 0.34930900000000004 -2.201723 1.509318
9600 4.96787229 13.118265540000001 -2.0101671000000003 0.208464 -2.415571 1.2971
9620 5.248232280000001 12.19813659 -1.54568322 -0.039729 -2.41659 0.968492
9640 6.88208778 11.562703650000001 -2.98150425 -0.389284 -2.3737630000000003 0.685053
9660 7.389088200000001 10.637924759999999 -2.7554720400000003 -0.769857 -2.075305 0.437389
9680 4.105661580000001 9.711350640000001 -3.0954081600000007 -1.354028 -1.662454 0.26400100000000004
9700 0.40925358 14.3708652 -3.4248770100000003 -1.805336 -1.2655809999999998 -0.29086300000000004
9720 -3.3579630000000003 16.291525860000004 4.7642951700000005 -1.81193 -0.904364 -0.8393700000000001
9740 -2.4941140200000005 17.542320480000004 4.8295611 -0.8072189999999999 -0.990877 -0.8546729999999999
9760 1.19855637 17.96863365 -3.18283488 0.721762 0.6994130000000001 0.823472
9780 1.31725737 14.50453626 -5.21650674 0.327492 -0.24147800000000005 0.96186
9800 0.77733459 11.98542636 -1.40782329 -0.5929939999999999 -0.6123850000000001 1.008249
9820 -0.27408159 10.77235119 0.7253906400000001 -0.6466729999999999 -0.614837 0.603021
9840 2.9969157600000003 9.182650500000001 1.30109049 -1.034193 0.181285 -0.215759
9860 3.29165721 6.61340169 -1.28252997 -2.426137 1.692072 -0.92924
9880 2.5882704000000003 5.89743846 -0.11840670000000002 0.607347 1.401092 -0.323361
9900 1.66049946 5.43025683 0.49816161000000003 1.155791 -0.452287 -0.050099
9920 0.30746502000000003 4.19098896 1.37384145 -1.041548 -0.09562 -0.758113
9940 -0.9253773000000001 3.46603977 1.4714411400000003 -1.677802 1.595224 -1.600073
9960 -1.6235255700000002 3.81660993 1.8788896800000001 -1.646899 1.987328 -1.913349
9980 -1.9263406500000002 3.0919746600000004 1.4726379600000001 -1.057546 0.672906 -1.657584
10000 -2.0929438800000004 0.9544149000000001 0.18831276000000002 -0.8697950000000001 0.5895859999999999 -1.497001
10020 -1.6639427700000002 2.34502164 -2.76968673 -1.309713 0.603633 -1.165738
10040 2.12498334 6.724470510000001 -6.579272700000001 -1.528534 -0.076433 -0.871566
10060 7.691608980000001 17.22932262 -9.688306950000001 -1.319851 0.512161 -0.660423
10080 21.256700400000003 26.89127991 -12.43524429 -1.413367 1.11631 -0.61378
10100 6.272710200000001 12.16444905 -12.638223 -1.435311 1.131651 -0.701547
10120 0.13876245 4.64424039 -7.27801938 -1.237491 1.237462 -0.693892
10140 -3.3873047100000004 3.4783120800000003 -2.6023379399999995 -1.061101 1.473659 -0.773079
10160 -1.09527669 6.67312497 3.3931416600000004 -0.904076 1.07775 -0.736223
10180 3.70928853 10.89538821 8.98461603 -0.6765800000000001 1.174794 -0.693098
10200 5.968541340000001 17.67299949 -5.75882316 -0.576237 1.220118 -0.6593399999999999
10220 2.4965076600000002 23.14621431 -11.37904083 -0.679718 1.136664 -0.745414
10240 -3.45675951 2.90949885 -0.57450303 -0.779842 0.8836870000000001 -0.798132
10260 -3.1069349100000005 4.51595502 4.782551580000001 -0.872923 0.724626 -0.900059
10280 -2.26643373 5.718111660000001 6.57552528 -0.89825 0.7355729999999999 -0.951525
10300 0.41014629 10.86560505 4.928347800000001 -0.8022699999999999 0.772339 -0.904968
10320 4.934783159999999 15.71057766 1.12087098 -0.571145 0.641746 -0.948052
10340 6.74691579 12.831617340000001 -2.7078641100000005 -0.308015 0.200275 -1.064221
10360 1.96496262 8.30413557 -0.03712104000000001 -0.214326 0.638921 -0.817369
10380 -1.7139345300000002 8.73478476 2.18200887 0.243624 0.567641 -0.70512
10400 -1.91631483 8.805289230000001 1.9441556100000001 0.702778 0.3703280000000001 -0.511517
10420 0.14550192 8.3261394 1.33822134 1.084056 0.642255 0.152027
10440 2.86654086 8.66846916 1.23298947 1.833136 0.446146 1.124252
10460 3.24390213 9.39281994 -0.26270199 2.18796 -0.5998140000000001 1.845916
10480 2.06421039 9.07727148 -1.1201254200000001 3.140838 -0.330205 2.327585
10500 1.11728052 8.559646830000002 -0.66267531 2.810216 -1.895295 2.397784
10520 1.41650514 8.40936744 -0.41149026 1.915071 -2.196717 2.09602
10540 2.0899518300000004 8.05325463 0.37587015 2.027272 0.8647520000000001 2.031992
10560 2.44561338 8.92204785 0.038023560000000005 1.84777 1.387996 2.139026
10580 2.9722239900000003 8.76262554 -0.12498921000000002 1.830235 -0.4503140000000001 2.065416
10600 2.33753661 9.644446440000001 -0.16780005000000003 1.860831 -0.424311 1.929932
10620 1.7498587500000002 11.27814498 -0.04775508 1.4745620000000002 -0.866409 1.734452
10640 1.3099292999999999 10.878328620000001 0.26270199 0.743783 -0.315625 1.559863
10660 2.16569484 11.34924786 0.93150855 0.596561 -1.197642 1.1476309999999998
10680 5.5821941100000005 12.89717757 0.8523320400000001 0.741019 -1.591176 1.134189
10700 6.7415301 12.37146948 -0.6882696 0.603627 -1.7696889999999998 1.139868
10720 5.8585123800000005 12.269082510000002 -0.0022464900000000003 0.347235 -1.851859 1.131773
10740 6.515497890000001 14.844776490000003 0.51028677 0.014934 -1.937199 0.916985
10760 5.28565743 14.733560520000001 -2.09489607 -0.44644 -1.81847 0.663646
10780 4.55263461 11.81178936 -3.98710773 -0.901425 -1.4622190000000002 0.4132520000000001
10800 2.21673627 9.97136469 -3.38041809 -1.301918 -1.172928 0.07786699999999999
10820 -0.64306512 11.61285237 -3.3115617 -1.649011 -0.908176 -0.294502
10840 -2.78091918 14.72337774 2.57674365 -1.600811 -0.7057399999999999 -0.610618
10860 -2.99167722 16.246311570000003 6.094276110000001 -0.766572 -1.219883 -0.630838
10880 -0.8309266200000001 15.919246170000001 -3.27594159 0.816441 -0.001206 0.658388
10900 0.54247338 14.450051520000002 -6.274054169999999 0.503529 0.168301 0.8974030000000001
10920 1.20768948 11.77122501 -1.47443319 -0.65909 -0.08617899999999999 0.809492
10940 0.06556023 9.50493843 1.9895170500000001 -0.557054 -1.054294 0.40018
10960 2.8149010200000006 8.657844930000001 0.93315663 -0.779032 -0.494978 -0.217383
10980 1.5789195000000003 6.540503580000001 -0.7699967099999999 -1.587112 1.410733 -0.831152
11000 1.8226097100000003 5.284009350000001 -0.17753157 1.255747 0.8345819999999999 0.12520599999999998
11020 1.7603358300000003 5.132523330000001 0.32318064 -0.095517 0.247885 -0.102466
11040 0.62046288 5.138811540000001 0.52315749 -1.289927 0.8715649999999999 -0.7877930000000001
11060 -0.7292852099999999 5.0705535600000005 0.83915721 -1.573371 1.699898 -1.227737
11080 -1.3208576400000003 5.018609610000001 1.05799869 -1.147351 1.998652 -1.715458
11100 -1.13104395 4.8180343500000005 1.05754743 -0.7399859999999999 0.980004 -1.7412169999999998
11120 -1.6293625200000001 3.1214635200000003 0.3468325500000001 -0.8704149999999999 0.063946 -1.648019
11140 -0.8553240900000001 2.4632811900000005 -0.60683679 -1.393199 0.024702 -0.972231
11160 0.41329530000000003 4.58616519 -3.22280082 -1.713375 0.275162 -0.458837
11180 4.6533735 9.4106349 -5.799387510000001 -1.590967 1.116593 -0.264644
11200 11.776610699999999 19.27062666 -10.325682270000001 -1.593568 1.6760669999999998 -0.313449
11220 14.05906416 20.02909662 -13.504318470000001 -1.521473 1.875724 -0.48839
11240 4.341425310000001 8.5228299 -10.404564480000001 -1.365735 1.700093 -0.657993
11260 0.09729558 4.62642543 -7.82992017 -1.115113 1.593035 -0.742631
11280 -3.2198087699999998 6.32614527 -4.13469918 -0.803916 1.539668 -0.720092
11300 -1.67561667 11.49639786 7.04479644 -0.55678 1.760109 -0.6502819999999999
11320 1.4531749200000001 16.39585521 0.38515041 -0.414794 1.52214 -0.67035
11340 4.684657590000001 21.13305516 -8.971441200000001 -0.621096 1.336831 -0.76983
11360 -0.62390619 4.98971916 2.3905302300000004 -0.800163 1.090499 -0.817767
11380 -0.98225568 4.78689741 4.41970911 -0.8753639999999999 1.135812 -0.8952620000000001
11400 -1.81392786 6.453832230000001 6.560702370000001 -0.88166 1.110464 -0.944412
11420 -2.1459375 10.229279400000001 4.66849071 -0.79545 1.0537459999999998 -0.954419
11440 0.58648104 14.43163815 0.82179351 -0.483878 1.051639 -0.963991
11460 4.069737360000001 14.527285650000001 -0.26525259 -0.15102100000000002 0.533981 -1.002663
11480 4.21823133 10.292897250000001 1.1662226100000002 0.055957000000000014 0.942702 -0.829757
11500 1.52023608 8.94674943 2.06091423 0.409177 0.801603 -0.749129
11520 -1.22415066 8.955725580000001 1.8562874400000002 0.959772 0.8391290000000001 -0.48789
11540 -1.0583028 8.43735537 1.49030577 1.7361220000000002 1.270075 0.026523
11560 0.5761511099999999 8.272547370000002 1.0334540700000001 2.3626970000000003 0.903847 1.023747
11580 2.105971560000001 8.78882805 0.39548034000000004 2.678342 0.096061 2.157166
11600 2.5313822100000003 9.70462098 0.07260381 3.430431 -0.363359 2.9075580000000003
11620 2.1833626500000003 8.57865861 -0.58184091 2.763522 -2.460941 2.966476
11640 1.7031631500000002 7.965533610000001 -0.8002311300000001 2.055534 -1.4995 2.640901
11660 1.6055634600000002 8.517591359999999 0.5891787900000001 2.053867 1.316578 2.503753
11680 2.7466430400000004 8.640186930000002 0.85322475 1.719407 1.192074 2.4940990000000003
11700 2.84992272 8.87908986 0.98375661 1.977662 -1.024108 2.638679
11720 3.12684921 9.13430682 0.25342173 1.293858 -0.88725 2.040864
11740 2.5418592900000005 10.00264878 -0.20043792 0.543402 0.666564 2.264367
11760 1.70345745 11.199861180000001 -0.14594337000000002 0.983286 -1.0443559999999998 1.905369
11780 1.49509305 11.349395010000002 -0.13905675 0.7640140000000001 -1.77703 1.77018
11800 3.4166464200000006 10.803184020000002 0.11137293000000001 0.593777 -2.429384 1.486748
11820 6.50112624 12.374314380000001 -0.2806641000000001 0.449179 -2.299103 1.266586
11840 6.0496700400000005 12.83131323 -1.4907472200000003 0.166113 -2.343095 1.058498
11860 5.435946629999999 12.74659407 -0.67764537 -0.236231 -2.381177 0.807909
11880 6.1252659000000005 14.04947979 -0.47391129 -0.74079 -2.122809 0.570113
11900 6.0493659300000004 13.103305290000002 -2.7830087100000003 -1.296288 -1.691188 0.206757
11920 4.8578433300000015 10.05608385 -3.25992186 -1.899709 -1.330409 -0.247642
11940 1.5676870500000002 12.72234375 -4.27541382 -2.003714 -0.64151 -0.872024
11960 -1.8056972700000002 14.74912899 -1.07117352 -1.335259 -0.837475 -1.196116
11980 -3.63279996 17.413436700000002 7.41153348 0.775259 0.16037300000000002 0.247696
12000 -0.42032907 18.009649260000003 -0.37347651000000004 0.659407 -0.971222 0.6820350000000001
12020 1.25858376 15.22827882 -6.84810594 -0.490409 -0.866066 0.955879
12040 1.6266647700000003 11.88767952 -4.4656591500000005 -0.493159 -1.063001 0.65701
12060 0.39488193 12.828174030000001 0.85188078 -0.698472 0.196784 -0.120499
12080 4.24083357 9.214984260000001 2.31163821 -0.841038 1.697972 -0.848741
12100 2.38154427 7.60807683 -0.96159582 1.28912 0.407476 0.344972
12120 2.39457195 6.559662510000001 -0.25880742 -0.843525 0.809199 -0.231256
12140 1.18942326 4.85949141 1.0942270200000002 -1.616212 1.04994 -0.889645
12160 0.29847906 4.44874671 1.2319398000000001 -1.770474 1.357169 -1.395317
12180 -0.4326013800000001 4.263730110000001 1.08509391 -1.180984 0.965288 -1.6748439999999998
12200 -1.11577959 4.29157089 1.4272863300000003 -0.704534 0.197515 -1.627803
12220 -1.4166522899999998 4.13784819 1.4593159800000002 -0.847342 0.161123 -1.461043
12240 -1.86676452 2.41971498 1.00695726 -1.451656 0.391992 -1.130139
12260 -1.9261935000000001 1.6844456700000001 -0.85951296 -1.819731 0.50797 -0.7771399999999999
12280 -1.2723570000000002 3.7350299700000003 -4.2574419 -1.672566 1.092855 -0.650812
12300 4.10236542 9.12517371 -6.92295624 -1.524676 1.509796 -0.6171979999999999
12320 16.80360786 22.987243260000003 -12.76919631 -1.44347 1.490525 -0.663608
12340 14.689405709999999 22.338351 -15.589178910000003 -1.258869 1.44747 -0.7124699999999999
12360 3.4682862600000006 5.97512385 -8.995838670000001 -1.017401 1.187108 -0.812999
12380 -2.0460913200000004 4.25520522 -5.00184432 -0.6857840000000001 1.126375 -0.830901
12400 -3.4385031 10.101592440000001 -0.02245509 -0.540117 1.157255 -0.68785
12420 -1.25543475 15.29414316 7.10781588 -0.498932 1.057001 -0.693843
12440 0.9705817800000001 17.336800980000003 -9.42604641 -0.6701590000000001 1.101579 -0.77094
12460 1.9447540200000002 6.58944567 1.41380739 -0.84705 0.923183 -0.760196
12480 -1.08315153 4.70785824 2.18126331 -0.8842559999999999 0.8130890000000001 -0.90132
12500 -0.55953297 7.37711019 5.77214514 -0.950435 0.799497 -0.908174
12520 -1.3030426800000001 12.73312494 4.138897860000001 -0.7981560000000001 0.819932 -0.8227469999999999
12540 1.61065485 12.88220751 0.67779252 -0.490622 0.785154 -0.916695
12560 4.0920453000000006 12.461436990000003 0.7595196300000001 -0.16131800000000002 0.028577 -0.878174
12580 2.6598147300000003 10.68118686 0.63079281 -0.002584 0.917674 -0.647468
12600 0.18381978000000002 9.444911040000001 0.8984292300000001 0.416162 0.399245 -0.5680350000000001
12620 -0.66851226 8.71876503 1.21292802 0.968415 0.76079 -0.352065
12640 -0.24683922000000003 9.08910234 1.8829314000000001 1.659109 0.6933090000000001 0.206185
12660 1.71019692 8.36939169 1.2543948900000002 2.1522240000000004 0.43875 1.098716
12680 2.99767113 8.20742859 0.16270866 2.6098790000000003 -0.337706 2.0002150000000003
12700 2.6812201500000006 9.10915398 -0.47017368 3.098036 -0.9918 2.645396
12720 2.3243617800000003 9.48801618 -0.76925115 2.563439 -2.749353 2.804147
12740 2.07992601 8.50411242 -1.63445391 1.77957 -1.870524 2.424736
12760 1.9279887300000003 8.19695151 -0.9123496200000001 1.945328 0.700874 2.059403
12780 1.6554080700000002 8.546177700000001 0.71027343 1.709844 0.93644 2.228372
12800 2.13276267 8.86202046 0.6725539800000001 1.698935 -0.661906 2.345712
12820 2.47929111 8.96590836 -0.16121754000000002 1.882464 -1.100498 2.377466
12840 2.7732870000000003 9.94053186 -0.58633389 0.191855 0.666132 2.1444080000000003
12860 2.32196814 10.933117470000001 -0.6054928200000002 0.466814 -0.254543 2.241512
12880 1.74717081 11.225602620000002 -0.35535744 0.482221 -1.878979 1.934985
12900 3.0946626000000004 11.699670870000002 0.37556604 0.489213 -2.321759 1.835188
12920 6.987623760000001 12.453804810000001 0.26494848000000004 0.369299 -2.507503 1.50344
12940 6.919512930000001 12.246931530000001 -1.7732163600000002 0.045908 -2.544796 1.253401
12960 4.47928524 12.36398445 -1.55376666 -0.365232 -2.407063 0.999321
12980 5.31933516 12.695994090000001 -0.79888716 -0.704838 -2.155052 0.6099289999999999
13000 6.47628732 13.02456042 -2.0371151700000003 -1.123631 -1.884941 0.291533
13020 6.5452908600000015 10.55485368 -2.13515631 -1.691788 -1.472244 -0.123162
13040 4.2152392800000005 9.677378610000002 -3.0276014399999998 -2.095857 -0.975537 -0.64364
13060 0.96639291 13.14671454 -3.25109286 -2.129146 -0.562258 -1.134716
13080 -2.91428613 15.701748660000002 2.08605726 -0.525914 -0.391016 -1.125874
13100 -3.6848910600000004 18.3994398 6.278694300000001 0.5640470000000001 0.26416100000000003 0.5825779999999999
13120 0.8530776 15.95307105 -2.54470419 -0.283506 -0.497839 0.8660540000000001
13140 1.52487621 13.512549060000001 -5.44193073 -0.8436440000000001 -0.6867850000000001 0.916863
13160 1.6175316599999998 11.4640641 -2.6848204200000003 -0.658239 -0.588229 0.35294200000000003
13180 0.63962181 11.46794886 2.39576877 -0.8530209999999999 0.175064 -0.415312
13200 3.7266522300000005 9.19283328 0.33755229 -0.808794 1.64641 -0.237427
13220 2.96593578 7.44566247 -2.74499496 1.302701 0.855758 0.382949
13240 2.34592416 6.34485294 0.24624081 -0.585084 -0.337981 -0.485422
13260 2.04654258 6.5729844900000005 1.04752161 -1.6597689999999998 1.010891 -1.209298
13280 0.29938158000000004 5.31200709 1.12955283 -1.6622720000000002 2.035798 -1.7671720000000002
13300 -0.5149269000000001 5.431600800000001 1.66708197 -0.8857079999999999 1.333049 -1.7245279999999998
13320 -1.65495681 4.804408260000001 1.81213263 -0.841706 0.379939 -1.308529
13340 -1.62412398 4.348459080000001 1.6808552100000003 -1.178364 0.254433 -1.066097
13360 -1.9717020900000002 2.3858901 0.99468495 -1.406714 0.516092 -1.034912
13380 -1.86437088 1.87006068 -0.55010556 -1.371244 0.64989 -0.958992
13400 -0.7656606900000001 3.8375739 -3.31471071 -1.330291 1.027832 -0.67077
13420 3.69716337 8.212971240000002 -6.0535646100000005 -1.423144 1.662277 -0.7416659999999999
13440 12.569062500000001 20.30602311 -13.536200970000001 -1.481162 1.529491 -0.78463
13460 17.177525820000003 22.952515860000002 -14.27910246 -1.357732 1.42479 -0.815681
13480 4.93673535 6.926693850000001 -9.25690239 -1.2117639999999998 1.353022 -0.843411
13500 -0.26944146 5.489538659999999 -5.081933159999999 -1.085359 1.240683 -0.831702
13520 -2.6201529 10.142156790000001 -1.22160987 -0.8004680000000001 1.241843 -0.836123
13540 0.51867432 12.983103360000001 5.243445 -0.582835 1.0449 -0.791621
13560 4.52867859 11.2818924 1.22684841 -0.6164229999999999 1.1261450000000002 -0.833621
13580 3.8552319 15.04715679 -7.31258982 -0.730788 1.073307 -0.8407610000000001
13600 -3.60405666 5.623209719999999 -2.18965086 -0.841044 0.950286 -0.883034
13620 -1.5802634699999998 5.73532821 4.57119513 -0.8782549999999999 0.957959 -0.904669
13640 -1.40019111 7.17113943 6.1790050800000005 -0.733716 1.134038 -0.84086
13660 -1.01968083 11.18458701 3.50990028 -0.422005 1.0524790000000002 -0.961423
13680 4.384677600000001 14.70481722 0.89693811 -0.081613 0.525306 -1.0246
13700 6.0972681600000005 12.579088320000002 -0.27841761000000004 -0.018514 0.24533600000000005 -0.862499
13720 1.2955576500000001 9.65881809 0.57600396 0.275982 0.907254 -0.68076
13740 -1.6211319300000002 8.797804200000002 1.53161568 0.856118 0.973028 -0.316802
13760 -1.9411635600000001 8.83447398 2.47749588 1.650334 0.849936 -0.060064
13780 0.5373819900000001 9.36242856 1.86003486 2.118326 0.571601 0.939144
13800 2.8928807100000005 9.560315880000001 1.22520033 2.6552830000000003 0.127278 2.096076
13820 3.66018948 8.81052777 1.0044066600000001 3.633312 -0.464705 2.7681
13840 2.42959365 8.66547711 0.38230551 2.557745 -2.926841 2.706058
13860 1.23882642 8.28436842 0.17753157 2.100883 -0.589271 2.480886
13880 0.84619098 8.505907650000001 -0.18995103 2.138676 1.910696 2.506789
13900 1.32684174 8.59991688 0.05223825 1.718695 1.313347 2.536667
13920 2.31328629 8.24291136 0.42152589 1.729241 -0.06545 2.610078
13940 2.5896143700000005 8.00924697 0.47376414 1.907615 -0.276918 2.591299
13960 2.89543131 8.37223659 -0.05463189 0.071101 0.15720399999999998 1.914549
13980 2.9636892900000005 9.50747922 -0.24548544000000003 0.714515 -0.746375 1.945838
14000 1.85539473 10.687023810000001 0.01302768 0.713059 -1.649305 1.841231
14020 1.3398596100000002 10.870392330000001 0.053739180000000004 0.459192 -2.5509630000000003 1.637651
14040 2.55937995 10.9608111 0.37826379000000004 0.5060020000000001 -2.209711 1.772137
14060 6.8394240900000005 11.718682650000002 0.39218418 0.131813 -2.155212 1.521626
14080 7.9537125600000005 11.676921479999999 -0.8705884500000001 -0.245047 -2.063205 0.95165
14100 4.55727474 12.316533480000002 -1.69537401 -0.6744600000000001 -1.928822 0.485938
14120 4.60816902 12.78266544 -1.0135397700000002 -1.216147 -1.46547 0.167503
14140 7.29866943 14.555734650000002 -3.07610208 -1.848191 -0.994084 -0.216734
14160 5.47756065 10.304424000000001 -2.9274609600000003 -1.993021 -0.796433 -1.033053
14180 0.6643233900000001 11.46585933 -5.37022944 -1.300933 -0.631812 -1.508061
14200 -3.89610036 15.351776910000002 -1.99145943 1.129734 1.690816 0.296281
14220 -6.537354570000001 18.72785898 8.49887388 0.325768 -0.534053 0.33731300000000003
14240 -1.57487778 18.66453543 -0.9234251100000002 -0.29542 -0.965532 1.151785
14260 0.38859372000000003 15.438291300000001 -7.488473310000001 -0.007213 -0.137242 0.7596310000000001
14280 2.123629560000001 12.626696250000002 -4.8838986900000005 -1.832893 0.954159 -0.725461
14300 0.42705873000000005 11.04358788 0.8840575800000001 1.603582 0.608468 -0.107083
14320 1.31187168 12.09410154 2.5565350500000004 0.224458 0.5521520000000001 -0.013027
14340 4.139790570000001 6.812181720000001 -1.3847697899999998 -1.395468 1.068181 -0.847534
14360 2.3861844000000003 6.609507120000001 -0.31943322 -1.757121 1.813627 -1.536814
14380 1.0207305 6.254748090000001 0.06556023 -1.301209 1.7878439999999998 -1.877564
14400 1.06907418 5.908513950000001 1.57083606 -0.627908 1.065605 -1.666837
14420 -0.20747169000000001 5.44388292 1.2742993800000002 -0.792049 0.823457 -1.708265
14440 -1.3229471700000002 5.159922659999999 1.96630659 -1.568093 0.629713 -1.336355
14460 -1.81153422 4.8118932899999995 2.0727352800000003 -1.915193 0.930861 -0.954606
14480 -3.0731100300000005 2.28529836 1.4016822299999998 -1.832531 1.246147 -0.75147
14500 -3.5362499400000003 -0.35131572000000005 0.23156505000000002 -1.503391 1.429038 -0.686381
14520 -3.38371425 1.15215507 -4.006413810000001 -1.495983 1.21899 -0.645467
14540 3.50181684 7.09180596 -7.844586120000001 -1.465205 1.771194 -0.769874
14560 18.24451047 24.759861210000004 -14.27027346 -1.233274 1.291405 -0.866983
14580 19.050588360000003 26.95654584 -18.38671623 -0.811704 0.934855 -0.779192
14600 4.20685173 4.4779412700000005 -10.62954702 -0.525812 1.243536 -0.698542
14620 -1.8196176600000002 3.5196318000000004 -4.729862070000001 -0.503252 1.633936 -0.579244
14640 -2.26104804 12.35231055 8.47762542 -0.7506970000000001 1.512845 -0.718618
14660 -2.88195237 15.08922207 4.68570726 -0.79445 1.183125 -0.8093
14680 4.12886223 19.06345908 -8.542587240000001 -0.7239300000000001 1.333528 -0.920095
14700 -2.49126912 2.1519216 1.3063290300000001 -0.675782 1.366375 -0.917665
14720 -2.21000661 5.702091930000001 3.6639270900000005 -0.495949 0.991965 -0.949044
14740 -1.16232804 10.748395170000002 7.4702169000000005 -0.377062 0.644174 -0.924267
14760 -0.6409657799999999 13.55446719 2.76669468 -0.196084 0.652744 -0.826873
14780 2.410591680000001 13.18039227 0.54247338 0.019588 1.054149 -0.696626
14800 3.95462682 12.613217310000001 0.46313991000000004 0.5025649999999999 0.588743 -0.61254
14820 3.2250473100000003 10.423723410000001 1.67157495 1.08483 0.936514 -0.441207
14840 1.96197057 9.20809764 1.28613024 1.661828 0.936791 0.32019200000000003
14860 0.10837107 8.64827037 1.5646950000000002 2.1131990000000003 0.5412520000000001 1.339731
14880 0.7054861499999999 7.3341522 1.50497172 2.604161 -0.141742 2.283002
14900 2.15701299 7.045394850000001 1.9625689800000001 3.14106 -0.8430979999999999 2.717077
14920 2.2962267 8.920399770000001 -0.1761876 2.24139 -2.9762150000000003 2.540474
14940 2.38663566 9.99516375 -1.16009136 1.911664 -0.45124 2.226219
14960 2.14084611 8.8934517 -0.5276504700000001 1.968515 1.830073 2.303809
14980 1.5627526200000001 7.6136194800000006 -0.11630736000000001 1.720777 0.586724 2.295126
15000 0.93091014 7.89054597 0.04819653 1.731946 -1.173262 2.323097
15020 1.89820557 8.963809020000001 0.01482291 1.792898 -0.635748 2.116667
15040 2.7979787700000003 9.60283242 0.6599775600000001 0.601734 0.134489 1.807189
15060 2.75652171 9.33533334 0.13321980000000003 0.581322 -0.247418 1.693236
15080 2.32122258 10.52865117 -0.5599842300000001 0.670986 -1.511861 1.605752
15100 2.31134391 11.756254950000002 -0.028144890000000002 0.557664 -2.227633 1.414666
15120 3.6833901300000003 11.634404940000001 0.9888480000000001 0.379802 -2.210934 1.122846
15140 6.430327470000001 11.76718329 0.16615197 0.175736 -2.158604 1.000645
15160 5.8484865600000004 12.806768609999999 -1.8046476000000002 -0.254183 -2.282386 0.627127
15180 4.78046205 13.313464920000001 -0.9683352900000001 -0.68909 -1.985791 0.35985900000000004
15200 5.97318147 12.17941911 0.01122264 -1.210244 -1.580524 0.163419
15220 6.8752011600000005 12.905113859999998 -1.5322140900000003 -1.6942669999999995 -1.331649 -0.381869
15240 5.293740870000001 10.487645370000001 -2.59949304 -1.865664 -0.826119 -0.912484
15260 3.0701179800000005 10.062676170000001 -3.7501471800000004 -0.975913 -1.316131 -1.154537
15280 0.03202965 13.55865606 -3.4190400600000004 0.984189 0.482141 0.8512200000000001
15300 -2.5912624500000003 16.196466960000002 3.51049869 0.342095 -0.068992 0.971355
15320 -2.59291053 17.80098075 6.98731965 -0.636315 -0.639336 1.125485
15340 0.74829699 16.21233954 -4.0430934 -0.610522 -0.8727870000000001 0.610013
15360 0.54007974 14.198277870000002 -6.67087848 -0.841354 -0.025459 -0.36263
15380 1.3742927100000002 12.37251915 -1.2955576500000001 -1.027866 1.563874 -0.718483
15400 -0.2565707400000001 10.209816360000001 2.22257322 1.02118 1.321252 0.102648
15420 1.84595751 8.67595419 1.6413405300000004 0.264613 -0.350076 -0.594839
15440 2.5906640400000005 6.6199842 -1.7823396599999999 -1.490632 0.8273659999999999 -1.281588
15460 2.7982828800000004 6.2989029 0.18786150000000001 -1.639561 2.133605 -1.737228
15480 1.6584001200000003 5.43025683 0.9154986300000001 -1.0942040000000002 1.887946 -1.782243
15500 0.58109535 5.041368810000001 1.23268536 -0.746768 0.868392 -1.529613
15520 -0.32242527000000004 5.043909600000001 1.33672041 -0.8864209999999999 0.494658 -1.453198
15540 -1.4200956 4.34891034 1.67726475 -1.628968 0.140012 -1.099008
15560 -1.74641544 3.4970295600000005 1.6658851500000003 -1.7366400000000002 0.447091 -0.809597
15580 -1.6679844900000003 1.9157164200000003 1.06952544 -1.402772 0.337758 -0.663983
15600 -1.8965574900000002 1.99504989 -1.15215507 -1.362433 0.805121 -0.625844
15620 1.37070225 5.73412158 -4.33498995 -1.507016 1.129579 -0.653975
15640 5.3073669599999995 14.72592834 -9.23863617 -1.363493 0.949318 -0.721108
15660 22.72065651 25.03693485 -14.10352308 -1.009347 0.8292010000000001 -0.826371
15680 8.94764214 16.2996093 -13.86955458 -0.850341 0.867941 -0.7954
15700 1.3052891699999998 4.5218017800000005 -8.741377080000001 -0.677129 1.252711 -0.73059
15720 -3.6803980800000002 4.93434171 -3.3400008900000002 -0.615371 1.167508 -0.788801
15740 -3.5859474 12.15666972 3.4700814900000005 -0.69786 0.990305 -0.8917
15760 0.9125065800000001 11.809690020000001 8.088129180000001 -0.8248110000000001 0.90269 -0.982205
15780 4.16418804 13.52871594 -5.92303275 -0.857143 0.837791 -0.97487
15800 -2.9844963 11.453135760000002 -7.707471750000001 -0.735993 1.076623 -0.866439
15820 -1.56649023 6.1430710500000005 2.42465922 -0.47489 1.094561 -0.783454
15840 -0.71536482 6.683150790000001 6.05505573 -0.140998 0.691351 -0.938701
15860 -0.045351630000000004 9.08805267 5.798936250000001 -0.061491 0.211264 -0.8296399999999999
15880 2.6179064100000002 12.32401851 2.15311842 0.177083 0.7573310000000001 -0.6652359999999999
15900 5.69984544 13.45507227 -0.48619341000000005 0.652748 0.74715 -0.396981
15920 5.340740580000001 10.604099880000001 -0.2920437 1.294067 1.0315 -0.134356
15940 2.2180900500000007 8.69811498 1.61693325 1.952188 0.6772640000000001 0.500946
15960 0.02784078 8.75484621 1.5293691900000002 2.273919 0.257176 1.378605
15980 -0.27812331 8.788975200000001 1.54852812 2.963051 -0.328185 2.243019
16000 0.55639377 7.84877499 1.03210029 2.954688 -1.593016 2.603504
16020 1.5238265400000002 8.13124413 0.5382845100000001 1.992219 -2.441454 2.492115
16040 1.57263129 9.67468086 -0.11661147000000001 1.955846 0.067611 2.172452
16060 1.42982712 9.42740019 -0.14190165000000002 1.745139 1.246099 2.281633
16080 0.88077123 8.67446307 -0.7116174 1.445172 0.07194199999999999 2.331249
16100 0.7762849200000002 8.70754239 -0.17274429 1.45043 -0.229252 2.522883
16120 1.88503074 8.80215003 0.92806524 0.705331 -0.7542399999999999 2.321798
16140 2.6788265100000004 9.164089980000002 0.83346741 0.970299 -0.376153 2.379781
16160 3.1262508 8.95887459 0.18291726 0.163197 -0.753775 1.876835
16180 2.80785744 10.070014050000001 -0.1850166 -0.13644 -1.649874 1.654769
16200 1.8182736900000003 11.62019025 -0.11735703 0.08229199999999999 -2.189388 1.586485
16220 1.79342496 11.31392205 -0.14759145 -0.04011 -2.414698 1.294294
16240 4.920117210000001 11.6203374 0.42017211000000004 -0.280495 -2.27751 1.028589
16260 8.597670390000001 12.50798544 -0.75083778 -0.557158 -2.159298 0.744494
16280 5.75133813 12.34407996 -1.79282655 -0.890393 -2.009084 0.498419
16300 3.58953786 11.48396859 -0.9629496000000001 -1.333825 -1.7856610000000002 0.155341
16320 5.49597402 12.483293670000002 -1.82889792 -1.734115 -1.315928 -0.282823
16340 6.74272692 11.663148240000002 -2.0779836300000003 -1.814419 -0.89194 -0.747536
16360 4.79108628 9.37545624 -2.42166717 -1.157471 -1.208506 -1.005324
16380 0.98584614 12.25231722 -3.7709541900000003 0.566379 0.207988 0.242971
16400 -3.12474987 14.9176746 0.48319155 0.611791 0.904387 0.808554
16420 -4.0231791 17.33290641 6.74212851 -0.45401 -0.14386400000000002 0.938117
16440 0.08412075 16.9158735 -0.50145777 -0.412169 -1.252224 0.487971
16460 1.3897140300000002 14.11773777 -5.46902595 -0.8916950000000001 -0.542902 -0.123037
16480 2.5288414200000005 12.38030829 -3.46739355 -2.457962 1.554522 -0.869466
16500 1.00126746 11.95428942 0.35820234 0.641084 1.37409 -0.260065
16520 1.29450798 8.227490040000001 2.6909516700000005 1.4417209999999998 -0.965306 0.389458
16540 2.7315160200000004 7.85207115 -0.48424122 -0.973514 0.0057810000000000005 -0.600739
16560 2.31882894 6.83598078 -2.04864192 -1.605471 1.589474 -1.556832
16580 2.6322780600000004 6.125707350000001 0.32751666 -1.431727 2.264152 -1.796833
16600 1.5004787400000001 5.55555015 0.40071888000000006 -0.793113 0.912478 -1.857938
16620 -0.00329616 5.3880444 1.4807214000000002 -0.901274 1.138486 -1.540653
16640 -1.04078214 4.928347800000001 1.8791937900000002 -1.576947 1.212902 -0.917353
16660 -1.4633577 4.58241777 1.6488255600000001 -1.4160549999999998 -0.031746 -0.68924
16680 -1.88488359 3.1364237700000004 1.1795445900000001 -1.177333 0.475195 -0.5974229999999999
16700 -2.0368110600000007 2.5017462000000004 0.5225590800000001 -1.109498 1.464994 -0.695426
16720 -1.5157431 4.1912832600000005 -1.94759892 -1.3966809999999998 1.445663 -0.673906
16740 1.8820386900000001 8.266710419999999 -4.68764964 -1.295234 1.866394 -0.748512
16760 7.65358542 18.39494682 -11.32425198 -1.153456 1.732109 -0.856308
16780 21.062550690000002 22.836963869999998 -12.819943440000001 -0.882074 0.942566 -0.78183
16800 7.546558320000001 10.95092262 -12.8093094 -0.566971 1.085038 -0.7199909999999999
16820 1.8685597500000002 4.591550880000001 -6.993755010000001 -0.579814 1.341701 -0.6915680000000001
16840 -0.9860031 4.4914104 -2.63931183 -0.647818 1.077043 -0.781434
16860 1.13508567 7.73770617 10.304571150000001 -0.7422479999999999 0.921978 -0.816078
16880 1.8567387 13.749205500000002 7.7363622 -0.793084 0.873684 -0.948831
16900 6.79781007 22.437441810000003 -12.525349140000001 -0.771358 0.93337 -0.975461
16920 -1.8751520700000002 13.19400855 -7.16485122 -0.542428 0.8886709999999999 -0.918257
16940 -4.7482754400000005 2.38978467 0.6500988900000001 -0.23014 0.666622 -1.070684
16960 -3.40990695 3.9727360800000002 6.678510660000001 -0.14736 0.2842 -0.8794719999999999
16980 -2.4400805400000003 6.094276110000001 7.65403668 0.007989 0.903758 -0.639899
17000 0.42002496 13.85758638 5.081629050000001 0.591558 0.690793 -0.369563
17020 5.59117026 17.73587178 -0.7689470400000001 1.23205 0.931858 -0.204096
17040 6.29366436 10.94868594 -2.83899438 1.764343 0.710743 0.549797
17060 0.5975565300000001 8.613533160000001 1.46709531 2.156437 0.144055 1.530685
17080 -1.1135331000000002 8.73748251 2.54635227 2.7850650000000003 -0.402624 2.364717
17100 -0.71850402 8.47313244 2.32182099 3.237435 -1.099769 2.618734
17120 1.8694622699999999 8.34903594 2.2659922800000003 2.193364 -2.4533150000000004 2.353598
17140 4.3743574800000005 9.07637877 0.6544349100000001 2.170925 0.35485300000000003 2.081719
17160 3.61004076 8.904978450000002 -1.51305516 1.990883 1.950808 2.194852
17180 2.37690414 8.60276178 -0.5945644800000001 1.751895 0.725658 2.156297
17200 1.8652734000000002 8.03529252 -0.36778670999999996 1.710132 0.040584 2.217772
17220 1.51290801 7.82377911 -0.0068866199999999995 1.493689 -0.737102 1.881835
17240 2.09788812 8.71488027 0.29938158000000004 0.8222510000000001 -0.111553 1.873138
17260 2.0357712 8.94569976 0.32811507000000006 0.533129 -0.304817 1.437668
17280 2.6750889 9.57604131 -0.13053186 0.7168439999999999 -1.498352 1.384934
17300 2.34202959 10.837764270000001 -0.07229970000000002 0.591493 -1.708463 1.290324
17320 1.67980554 11.09208852 0.7165616400000001 0.377035 -1.916748 1.082926
17340 2.8677376800000003 11.38996917 1.0699767 0.193561 -1.7156630000000002 1.038658
17360 6.29695071 12.36428856 0.9157929300000001 -0.205214 -1.764038 0.695171
17380 8.61398442 12.38808762 -1.35528093 -0.707033 -1.674791 0.390313
17400 4.78615185 12.24812835 -1.77037146 -1.272015 -1.2991549999999998 0.182923
17420 4.07932173 12.92427279 -0.10298538000000002 -1.720582 -1.008802 -0.376058
17440 6.0968169 14.470554420000001 -1.8928100700000001 -1.931616 -0.5754279999999999 -0.943176
17460 5.545073070000001 10.54871262 -2.6348188500000003 -1.410905 -0.742692 -1.124127
17480 2.2785588900000002 10.44947466 -4.293974340000001 0.72806 0.851756 0.283868
17500 -2.4493608000000004 13.279483080000002 -3.8306872800000002 0.4350890000000001 0.338048 0.864661
17520 -4.926258270000001 15.66163557 3.6131897700000004 -0.653827 -0.32476900000000003 1.063003
17540 -3.0795453900000003 17.60264217 5.07938256 -0.5967439999999999 -0.852757 0.650676
17560 0.10088604 16.49120841 -4.1788638 -1.04664 -0.260575 -0.262282
17580 1.13718501 13.051959750000002 -6.43003317 -1.813803 1.315466 -1.052667
17600 1.93517946 11.35792971 -1.79132562 1.379159 1.584708 0.241543
17620 0.13756563000000002 9.67857543 1.2816372600000001 0.354551 -0.122831 0.040022
17640 2.57509557 8.669224530000001 1.6233784199999999 -1.244814 0.543938 -0.946223
17660 2.05237953 6.655908419999999 -0.60054858 -1.7627 1.716877 -1.579458
17680 2.2203365400000004 5.62335687 -0.9147432600000001 -1.163423 1.58072 -1.881677
17700 1.93353138 5.68203048 0.11525769000000001 -0.855672 0.515493 -1.628198
17720 0.9165483000000001 5.09195898 0.5194198800000001 -1.220752 1.001348 -1.3344049999999998
17740 0.13666311 4.94271945 0.9533652300000001 -1.851982 1.157823 -1.02389
17760 -1.13883309 4.7901935700000005 0.8015849100000001 -1.410539 -0.130276 -0.8290120000000001
17780 -1.4751787500000002 4.036658040000001 0.7096750199999999 -1.146576 0.353971 -0.678238
17800 -1.5500290500000002 1.86108453 0.4451778 -1.415889 1.03958 -0.604085
17820 -1.1771509500000001 1.2145761000000002 -1.22010894 -1.471958 1.539714 -0.685235
17840 1.44120672 4.679419050000001 -3.92977809 -1.355256 1.342438 -0.736509
17860 5.0430168900000005 10.89898848 -5.924376720000001 -1.102308 1.362864 -0.735837
17880 16.725765510000002 22.29808095 -12.6903141 -0.739879 1.137563 -0.651832
17900 13.10644449 19.41343083 -15.37407504 -0.488304 1.345411 -0.633249
17920 3.7854828 6.05416302 -9.871675470000001 -0.531964 1.276671 -0.72106
17940 -1.2470570100000002 4.01210361 -5.24898765 -0.682621 1.1698309999999998 -0.7785920000000001
17960 -3.38655915 8.42956623 0.58887468 -0.774674 1.011793 -0.870899
17980 -0.88450884 11.247165 10.811865870000002 -0.7721520000000001 1.020619 -0.948873
18000 2.02259637 16.332688620000003 -4.05641538 -0.710923 1.110963 -0.950698
18020 5.502556530000001 22.61526768 -8.821750410000002 -0.465176 1.255791 -0.885073
18040 -2.7401978700000003 2.89543131 2.35444905 -0.027882 0.614589 -1.021134
18060 -2.7351162900000006 4.41746262 3.62111625 -0.010553 0.464315 -0.7526970000000001
18080 -2.6206041600000005 6.80649192 6.6979737 0.275743 0.909163 -0.625217
18100 -1.0737143100000002 10.93565826 5.83786233 0.748835 1.0799219999999998 -0.315552
18120 3.3495852600000005 15.585294150000001 2.3285604600000003 1.544544 1.105746 -0.004515
18140 7.70088924 13.513893030000002 -2.52449559 2.105044 0.755616 0.754013
18160 2.66251248 8.32224483 -0.47077209 2.485767 0.316614 1.7816599999999998
18180 -0.37766538 8.823996900000001 2.18425536 3.357318 -0.326692 2.592943
18200 -0.45310428 8.444241990000002 2.36972322 2.877417 -2.265503 2.744831
18220 0.59336766 7.991284860000001 2.54800035 2.099801 -1.7706939999999998 2.48987
18240 2.57299623 8.4710331 1.12326462 2.153068 1.373402 2.327048
18260 3.10678776 9.281594160000001 -0.14354973000000004 1.821291 1.648206 2.357493
18280 1.94445972 9.05601321 -1.09347165 1.6637830000000002 0.15385 2.4373560000000003
18300 0.9544149000000001 8.15145273 -0.71820972 1.5243209999999998 0.134444 2.3498810000000003
18320 1.09257894 8.03393874 0.10448631000000001 1.183566 -0.566912 2.213804
18340 1.81078866 8.443045170000001 0.8446900500000001 0.887727 0.088042 1.985503
18360 2.18396106 8.98131987 0.7789826700000001 0.4788770000000001 -0.6437890000000001 1.538137
18380 2.62134972 9.17651925 0.48215169 0.54002 -1.616211 1.441533
18400 2.61401184 10.53269289 0.2459367 0.444825 -1.885592 1.224365
18420 1.9754397000000001 11.605965750000001 0.42077052000000004 0.205735 -1.869051 1.025052
18440 1.84551606 11.742334560000002 0.06406911000000001 -0.092687 -1.898619 0.686516
18460 4.81548375 11.25345321 0.15851979 -0.464483 -1.786603 0.435948
18480 8.22404673 12.3581475 -0.28905165000000005 -0.913129 -1.499394 0.130139
18500 7.008725070000001 12.25262133 -1.38955707 -1.478478 -1.189976 -0.300427
18520 4.00117527 11.801753730000001 -1.2214627199999997 -1.6608009999999995 -0.638063 -0.965774
18540 6.070477050000001 12.84644025 -2.01720087 -1.616076 -1.123063 -1.195576
18560 6.53795298 12.47385645 -2.61700389 -0.02105 0.100907 -0.440384
18580 3.7167735600000014 9.39281994 -3.5805519 0.790514 0.752753 1.010822
18600 -0.6026479200000002 12.44527011 -4.69183851 -0.426791 -0.262086 1.174535
18620 -3.72784905 15.653248020000001 1.70495838 -0.785522 -1.281427 0.921235
18640 -3.92693319 18.323843940000007 7.11740025 -0.751147 -0.79382 0.16561800000000002
18660 0.23306598000000003 18.082096110000002 -2.68286823 -2.075843 1.175851 -0.809696
18680 0.91818657 14.906903220000002 -7.015013280000001 -0.247277 1.106938 -0.6131
18700 1.11144357 12.770697240000002 -2.6698503600000003 1.593142 0.332114 0.279895
18720 0.47466666 11.62467342 0.25671789 -0.684516 -0.24987 -0.5887789999999999
18740 1.5310172700000002 8.05010562 2.01032406 -1.417532 1.377938 -1.566998
18760 2.23380567 7.5736535400000005 -0.6188148 -1.435232 2.300918 -1.930432
18780 2.5743500100000003 5.213357730000001 -1.3162175100000002 -1.017394 1.146469 -1.571384
18800 2.41103313 5.83710696 0.31344912 -1.096886 0.8057880000000001 -1.554411
18820 1.09571814 5.2338704400000005 0.60968169 -1.223833 1.492491 -1.34467
18840 -0.25297047 4.63570569 1.00231713 -1.786945 -0.194567 -0.941586
18860 -1.2509515800000002 4.46161743 1.2927127500000002 -1.2720479999999998 -0.034388 -0.686094
18880 -1.9550839500000001 3.4196384699999998 1.1802999600000001 -1.235066 0.705417 -0.577825
18900 -1.6603425000000003 1.10874582 0.8918467200000001 -1.407196 1.499948 -0.653753
18920 -1.55107872 0.68093172 -0.47017368 -1.348517 1.695921 -0.6952550000000001
18940 0.87747507 4.0917411900000005 -3.44224071 -1.0764479999999998 1.483848 -0.909932
18960 5.0331382200000006 10.902578940000001 -6.25369842 -0.864748 1.176046 -0.8428969999999999
18980 19.00238202 22.47097239 -11.89172124 -0.593173 1.214992 -0.694703
19000 14.979055770000002 19.46612034 -16.94445984 -0.52253 1.308318 -0.651601
19020 4.98268539 5.6613804299999995 -10.89688914 -0.6079600000000001 1.206688 -0.7364569999999999
19040 -1.1596401 3.8305303200000003 -4.90110543 -0.7046520000000001 1.21056 -0.821527
19060 -2.29412736 8.33317317 3.6033111000000004 -0.768207 0.720162 -0.939915
19080 -0.49157910000000005 11.31002748 10.843748370000002 -0.820865 0.709287 -1.104775
19100 2.05253649 15.7878216 -6.519539610000002 -0.7498819999999999 0.917504 -1.022293
19120 4.05491445 22.846087170000004 -11.07247833 -0.473092 0.8523459999999999 -0.95191
19140 -3.26590596 4.52823714 0.10673280000000002 -0.146514 0.54585 -1.044307
19160 -3.3087168000000005 5.41947564 5.918539770000001 -0.027876 0.35804899999999995 -0.802888
19180 -3.0305934900000002 6.08784075 7.3507605300000005 0.342859 0.8101689999999999 -0.7026020000000001
19200 -1.2470570100000002 9.6972831 5.355563490000001 0.8932549999999999 1.046877 -0.43521
19220 3.3229413000000005 15.683040990000002 1.90359126 1.6398400000000002 1.0791959999999998 -0.107433
19240 7.44551532 14.46262794 -2.8139985000000003 2.275886 0.697853 0.66555
19260 3.9748354200000002 8.510999040000002 -0.22378572 2.62343 0.253568 1.711132
19280 0.5177718 8.808732540000001 2.5634216700000003 3.233781 -0.469191 2.638197
19300 -0.8689403700000001 8.70604146 1.87664319 2.716135 -2.571518 2.954537
19320 -0.6026479200000002 7.572152610000001 1.91796291 2.00883 -2.051581 2.748104
19340 1.57248414 7.83351063 1.26187992 2.008148 1.026271 2.415143
19360 3.06098487 9.53457444 -0.21794877000000001 1.7333 1.470872 2.291944
19380 2.68286823 8.96141538 -0.40969503 1.645275 -0.298295 2.304279
19400 2.19757734 8.165373120000002 -0.6912616500000001 1.562946 -0.107296 2.29705
19420 1.4931408600000002 8.073914490000002 0.47720745000000003 0.442992 -0.109633 1.987991
19440 2.09025594 8.46938502 0.7857123300000001 0.780191 -0.29843800000000004 2.024772
19460 2.7470844899999998 9.05631732 0.55744344 0.746925 -1.354926 1.72145
19480 2.47794714 9.21543552 0.07304525999999999 0.390926 -2.153054 1.556548
19500 2.85037398 9.64684008 0.5780934900000001 0.219593 -2.334563 1.27571
19520 2.5764395400000004 11.051514359999999 0.5680676700000001 0.011878 -2.285912 1.011414
19540 2.13246837 11.56375332 0.15837263999999998 -0.313422 -2.266764 0.767699
19560 2.74588767 11.097621360000002 -0.03652263 -0.688006 -2.170286 0.409241
19580 6.0387417 12.535237620000002 0.03547296 -1.132833 -1.6894360000000002 0.159826
19600 7.685320770000001 13.452374520000001 -1.3199551200000001 -1.702234 -1.273711 -0.212152
19620 4.96771533 12.759317639999999 -1.7583934500000002 -2.015622 -0.633135 -0.825117
19640 4.371806879999999 12.19693977 -1.71587691 -1.506866 -0.8579540000000001 -1.2539049999999998
19660 6.21192744 12.896432009999998 -2.9271666600000006 0.597561 -0.366859 -0.150248
19680 5.70223908 9.74219328 -2.30580126 1.013414 0.632124 1.14713
19700 2.58497424 9.66121173 -3.44957859 -0.22846 -0.224677 1.23783
19720 -0.01182105 13.817463480000002 -2.51716752 -0.585238 -1.078778 0.952285
19740 -3.54417642 16.33089339 4.97056023 -0.680163 -0.828572 0.003788
19760 -2.5477060500000004 17.59965012 4.64438754 -2.930218 1.607426 -0.902742
19780 1.20933756 16.083308610000003 -4.677918120000001 -0.486425 1.147613 -1.252552
19800 1.15724646 13.79860866 -6.44739687 1.524763 -0.229632 0.6914020000000001
19820 1.32265287 12.14588853 -0.8222447700000001 -0.264581 -0.788243 -0.3181
19840 1.2025980900000002 11.304945900000002 2.25162063 -1.3560020000000002 1.324472 -1.303717
19860 3.06637056 7.395072300000001 1.0741655700000001 -1.828106 2.439982 -1.734665
19880 2.54470419 6.49753578 -0.9699833700000001 -0.980431 0.988866 -1.883913
19900 2.19369258 5.664225330000001 -0.155979 -0.780446 -0.652122 -2.207289
19920 1.46634975 5.434749810000001 0.8515766700000001 -1.5620040000000002 0.986753 -1.38484
19940 0.34787241 4.6533735 1.02432096 -1.774775 -0.249286 -0.8549049999999999
19960 -0.49562082 4.5574218900000005 1.30244427 -1.123758 -1.127089 -0.350373
19980 -1.5518242800000004 3.81990609 1.3666605300000003 -1.198432 0.238144 -0.173182
20000 -1.8961062300000002 3.1991489100000003 1.3840242299999999 -1.575228 1.391945 -0.405892
20020 -1.99834605 1.5447905100000001 0.37272114 -1.508253 1.281045 -0.702248
20040 -1.99714923 2.06031582 -1.9085355000000002 -1.371278 1.145131 -0.930785
20060 1.7468667000000002 5.893848 -5.096147850000001 -1.196252 0.868821 -0.981551
20080 7.03986201 17.204768190000003 -11.76254316 -0.976514 0.7291380000000001 -0.873015
20100 24.82721667 27.431202690000003 -12.03347574 -0.923083 1.058894 -0.799357
20120 7.999211340000001 13.09701708 -13.11991362 -0.867332 1.002709 -0.9164
20140 1.0409391000000001 2.0764827 -8.03529252 -0.94547 1.064183 -1.036666
20160 -2.5857198000000006 0.8562168 -3.1931550000000004 -0.88276 0.930067 -1.118309
20180 -1.3271360399999999 4.396204350000001 12.61621917 -0.735843 1.13076 -1.084425
20200 -1.09811178 10.62086517 8.731194299999999 -0.5002840000000001 1.527509 -0.872848
20220 9.18909567 28.348496550000004 -16.36067655 -0.033147 1.442985 -0.919683
20240 5.79414897 21.15206694 -7.2633436200000006 0.286871 0.723859 -0.91439
20260 -4.858147440000001 1.0699767 2.0887550100000003 0.330843 1.067676 -0.619694
20280 -3.99683925 3.3678416700000002 5.85971901 0.900256 0.854503 -0.28536300000000003
20300 -3.4943318100000007 4.337383590000002 6.42523608 1.407872 0.485871 0.351042
20320 -0.68123583 10.001000700000002 4.32105975 1.905463 0.157322 1.361204
20340 5.25317652 17.971027290000002 1.4706955800000001 2.355803 -0.55319 2.294613
20360 10.157578110000001 14.272225650000001 -2.9648861100000006 3.456786 -0.605642 2.735001
20380 3.43101807 6.869511360000001 -0.9666872100000001 2.472707 -2.457521 2.630087
20400 -0.7342196400000001 8.7371784 1.8949094100000001 1.966377 -0.753329 2.332742
20420 -3.11891292 8.40592413 2.68541883 2.086638 1.3628790000000002 2.6182220000000003
20440 -2.03666391 7.618710870000001 1.09152927 1.76008 0.959799 2.470111
20460 1.45976724 8.26611201 0.8394515100000001 1.673073 -0.36189 2.465856
20480 2.70142875 10.01611791 -0.20881566000000004 1.273117 -0.389143 2.169336
20500 2.54290896 9.34491771 -0.4543011 0.71932 -0.279071 2.29565
20520 1.49449464 7.77618099 -0.11810259 1.154951 -1.2899200000000002 2.160051
20540 0.51118929 7.882756830000001 0.5751014400000001 0.70339 -1.977181 1.526458
20560 0.73362123 8.3526264 0.9053158500000001 0.290269 -1.699252 1.379007
20580 1.1544015600000002 8.95467591 0.46762308 0.187467 -1.864751 1.297316
20600 2.17452384 9.55388052 -0.17198892 -0.205395 -1.975122 1.000952
20620 2.02603968 10.877426100000001 -0.10328949000000001 -0.568773 -1.972414 0.905475
20640 0.97522191 11.946657240000002 0.022003830000000002 -0.895335 -1.74771 0.673238
20660 2.13575472 11.42558928 -0.03847482 -1.322941 -1.661369 0.23217
20680 6.87639798 12.30695892 0.50999247 -1.7840900000000002 -1.276347 -0.281087
20700 11.100015 12.26414808 -0.6257014200000001 -1.907837 -0.8901370000000001 -0.8507399999999999
20720 7.951917330000001 11.90130561 -0.8734333500000001 -1.283075 -1.5588959999999998 -1.184145
20740 6.84121932 14.4027477 -0.58662819 0.7644989999999999 0.00224 0.108955
20760 6.865028189999999 13.474231200000002 -2.9361428100000007 0.661702 0.725865 0.920226
20780 3.86675865 12.5084367 -4.30429446 -0.608945 0.041078 1.176079
20800 -1.15529427 13.41585189 -3.8550847500000005 -0.628504 -1.086692 0.837693
20820 -4.02498414 16.59703869 2.02304763 -0.981907 -1.258969 0.005437
20840 -4.43781837 17.90591832 6.217470090000001 -3.163451 1.952263 -0.88879
20860 -0.31838355 16.36067655 -3.07999665 -1.588135 1.3022280000000002 -1.6663689999999998
20880 1.0717719300000002 14.7235347 -5.839657560000001 2.350404 0.181175 1.137819
20900 3.1990017600000002 12.50334531 -1.9872705600000002 0.08039500000000001 -1.163209 0.178309
20920 1.62950967 11.066190120000002 0.8515766700000001 -1.049073 0.995366 -1.319312
20940 3.0398737500000004 7.560174600000001 1.9911553200000003 -1.739479 2.493852 -1.696727
20960 0.8306225100000001 5.3771160600000005 0.08248248000000001 -0.993049 1.592677 -1.556831
20980 0.6104272500000001 6.042636270000001 0.89873334 -0.995085 0.068763 -1.678806
21000 2.07124416 5.64461514 -0.07978473 -1.370001 2.250225 -1.298592
21020 0.55414728 4.71594168 0.47541222 -1.774635 0.785833 -1.0388959999999998
21040 -0.35790804000000004 4.826264940000001 0.49038228 -1.226084 -0.743954 -0.703023
21060 -0.42421383 4.916526750000001 1.06802451 -1.261032 -0.048862 -0.539652
21080 -1.7497116 3.7233560700000004 1.3651596 -1.476726 0.865874 -0.534853
21100 -1.91332278 2.14488783 1.24435926 -1.35024 1.615766 -0.628934
21120 -1.6064561700000002 2.1296234700000003 0.25267617 -1.313396 1.557791 -0.814473
21140 -0.29637972 4.531974750000001 -2.9144430900000002 -1.0568030000000002 1.221262 -0.795158
21160 4.51221741 10.23092748 -7.079975100000001 -0.6424449999999999 1.12162 -0.745134
21180 18.75615102 21.843181440000002 -12.451411170000002 -0.539751 1.471529 -0.692523
21200 15.409704960000001 21.565950840000003 -15.04715679 -0.560553 1.3003049999999998 -0.7458600000000001
21220 4.16822976 5.76420885 -10.089771390000001 -0.725996 1.384523 -0.883855
21240 -0.7235954100000002 2.51702037 -5.495522760000001 -0.8365299999999999 1.175314 -0.950589
21260 -2.10222414 1.85898519 0.77374413 -0.835852 1.02112 -1.018753
21280 -0.6541406099999999 4.58436996 15.416444430000002 -0.747432 1.0886 -0.921014
21300 0.06840513000000001 15.698305350000002 2.9326995 -0.44584 1.043749 -0.8889389999999999
21320 13.08130146 36.88479558 -17.86669794 -0.063033 0.778046 -1.108115
21340 -1.7402841900000001 9.552389400000001 -0.22228479 -0.021883 0.7330409999999999 -0.811873
21360 -7.24822641 0.67344669 -0.032932170000000004 0.416127 0.790507 -0.6443810000000001
21380 -4.505929200000001 2.6023379399999995 8.638686000000002 0.906206 0.67371 -0.366275
21400 -3.14406576 4.617743580000001 7.62379245 1.366048 0.7699550000000001 0.207245
21420 0.31299785999999996 13.105846080000001 5.403612870000001 2.014721 0.350325 1.219647
21440 7.884699210000001 19.82192904 -0.59845905 2.407235 -0.423837 2.13671
21460 8.11148679 11.377539900000002 -3.5108028000000004 3.39627 -0.373978 2.66271
21480 1.6136469 8.06927436 1.12596237 2.5923830000000003 -2.438674 2.608466
21500 -0.09744273000000002 8.77610448 1.99071387 2.082835 -1.082386 2.203654
21520 -0.9548661600000001 7.375314960000001 1.94850144 2.235631 1.664089 2.288796
21540 0.40191570000000004 7.3009159200000004 2.5891631100000003 1.973728 1.141682 2.354934
21560 1.97484129 8.774897850000002 0.5855785200000001 2.068821 -0.016594 2.35281
21580 1.9965508200000002 9.602234010000002 -0.5780934900000001 1.762502 -0.290439 2.103194
21600 2.1195878400000003 8.85424113 -0.75846996 0.5707399999999999 -0.146508 1.775286
21620 1.49628987 7.66884978 0.25940583 0.963355 -0.265643 1.657472
21640 1.3591755 7.9397921700000005 0.9256716 0.996745 -1.234798 1.56708
21660 2.12947632 8.711888220000002 1.0910780100000002 0.732506 -1.591018 1.36807
21680 2.63257236 8.895698190000001 0.48409407000000004 0.517257 -1.7798470000000002 1.3571950000000002
21700 2.85680934 9.26887059 0.10912644 0.239472 -1.905602 1.078746
21720 2.6845163100000007 10.55380401 0.39084021 -0.130253 -1.705586 0.930629
21740 2.14713432 11.3080851 0.64141704 -0.637895 -1.817284 0.5330520000000001
21760 2.3942678400000004 11.41301286 0.94408497 -1.099276 -1.475859 0.26660900000000004
21780 5.454360000000001 12.22014042 0.36090009000000006 -1.602963 -1.217777 -0.166665
21800 8.589292649999999 12.909008430000002 -1.0674261 -1.896287 -0.637933 -0.794367
21820 6.80335272 12.088715850000002 -0.86879322 -1.7530880000000002 -0.437908 -1.122635
21840 6.57342594 13.706845920000001 0.33679692000000006 0.4123020000000001 0.601213 -0.456158
21860 6.2662650300000005 14.740299990000002 -2.22122925 0.738675 0.149831 0.783701
21880 4.686904080000001 11.12501088 -3.7065907800000004 -0.399609 -0.462146 1.09807
21900 1.3368675600000002 10.98805347 -4.28663646 -0.436043 -0.853563 0.978676
21920 -1.8895237200000001 13.289067450000001 -3.3702451200000003 -1.050269 -0.6956289999999999 0.112128
21940 -4.30115526 17.120500290000003 5.07145608 -2.042416 1.143159 -0.921583
21960 -3.1379247 17.63183673 4.382588070000001 0.990555 1.281212 -0.246823
21980 -0.29039562 16.17880896 -5.93037063 0.549928 0.087643 -0.016567
22000 1.08045378 13.528421640000003 -5.557796639999999 -1.134863 0.821486 -0.919105
22020 0.8101196099999999 11.273652 -0.5643300600000001 -1.7027740000000002 2.025364 -1.78667
22040 0.83750913 10.918441710000002 1.66184343 -1.422712 1.858402 -1.834706
22060 3.1204138500000003 7.41482964 0.8533719000000001 -0.940304 0.695847 -1.369443
22080 2.61520866 6.32404593 -1.10260476 -0.798859 0.903861 -1.29715
22100 1.83877659 5.57739702 -0.058977720000000004 -1.438852 0.5318930000000001 -1.228505
22120 0.30192237 4.909345830000001 0.33126408 -1.616851 0.002488 -1.083792
22140 0.20387142 5.069660850000001 0.6137234100000001 -1.279164 0.086796 -0.881784
22160 -0.53064252 4.73345253 0.9542677500000001 -1.330223 0.531561 -0.707522
22180 -1.2427111800000001 4.61804769 0.6087791700000001 -1.320463 1.078927 -0.6696989999999999
22200 -1.31741433 3.06517374 0.84992859 -1.308531 1.1841 -0.607794
22220 -1.17970155 1.06698465 0.15552774 -1.18432 1.135266 -0.757483
22240 -0.32167971 1.09796463 -1.9291855500000001 -0.945233 1.143017 -0.771846
22260 2.69634717 3.9261876300000003 -3.91076631 -0.757117 1.0897290000000002 -0.662573
22280 6.471794340000001 12.39107967 -7.74908577 -0.7151430000000001 1.328526 -0.742703
22300 22.281011550000002 25.32807603 -14.88894111 -0.8270770000000001 1.191064 -0.901405
22320 10.88461683 17.903514870000002 -14.651235000000002 -0.934022 1.0882889999999998 -0.947954
22340 2.7884042100000004 4.4825814 -7.85940903 -0.886941 1.041564 -1.0255459999999998
22360 -2.55009969 4.23215172 -5.179081590000001 -0.8093100000000001 1.059108 -0.951318
22380 -2.67358797 10.12554846 6.707401110000001 -0.4882510000000001 1.162965 -0.8285
22400 -0.9746235 10.71411903 8.7832854 -0.121011 1.085503 -0.956158
22420 4.109850450000001 20.24929188 -11.646078840000001 0.0005780000000000001 0.6109979999999999 -0.947224
22440 -0.7093709100000001 10.79809263 -4.7859948900000004 0.1374 0.925874 -0.6881619999999999
22460 -2.06031582 4.651431120000001 2.4411204 0.603425 0.920998 -0.406094
22480 -1.49823225 6.5131042500000005 6.754400820000001 1.245149 1.033934 -0.16781600000000002
22500 -0.62704539 8.790917580000002 6.58540395 1.930903 0.61903 0.430369
22520 2.9936294100000005 12.088117440000001 2.77552368 2.207361 0.230516 1.443336
22540 6.93283491 13.999183920000002 -1.4069207700000002 2.988277 -0.218266 2.438539
22560 5.65254162 9.836948069999998 -1.47098988 3.196267 -1.5540770000000002 2.779262
22580 1.26472482 8.211176009999999 1.4100697800000002 2.077395 -2.418564 2.554637
22600 -0.18126918000000003 8.89480548 1.3320802800000002 2.156289 0.457137 2.356018
22620 -0.22512969000000002 8.03738205 1.50826788 1.855809 1.817123 2.442976
22640 1.12460859 7.79055264 1.25334522 1.755715 0.220535 2.464619
22660 2.062111050000001 8.54124327 1.15545123 1.69692 0.076448 2.584034
22680 2.38693977 9.234143190000001 -0.16466085 1.044222 -0.618996 2.305833
22700 1.6802568 9.36438075 -0.93764961 0.941326 -0.602195 2.189724
22720 0.66387213 8.40831777 0.23336028 0.73514 -0.448207 1.689227
22740 0.7331797800000001 8.01059094 0.98510058 0.638145 -1.2708 1.557144
22760 1.82156004 8.50711428 0.97507476 0.6398550000000001 -1.6954759999999998 1.463697
22780 2.45609046 9.07607466 0.27078543 0.325322 -1.907468 1.20433
22800 2.91279501 9.58351653 -0.036071370000000005 -0.045397 -1.899426 0.8470799999999999
22820 2.7842055300000004 10.700198640000002 0.10178856 -0.311133 -1.719483 0.5672560000000001
22840 1.98517122 10.880123850000002 0.49471830000000006 -0.650552 -1.517173 0.086062
22860 2.18965086 11.238924599999999 0.46627911 -1.100977 -1.206299 -0.275337
22880 5.31873675 12.21280254 0.51911577 -1.410154 -1.0409 -0.8759120000000001
22900 8.64422865 12.73401765 -0.6869256300000001 -1.411548 -0.732871 -1.447816
22920 6.553374300000001 12.07778751 -1.4564710800000003 -0.462163 -0.254712 -1.168332
22940 5.010683129999999 11.967012990000002 -0.95396364 0.756249 0.8724370000000001 0.681417
22960 6.754400820000001 13.644729000000002 -1.99579545 0.130394 -0.386857 0.991648
22980 5.79086262 11.182046220000002 -2.55024684 -0.519476 -0.5617989999999999 1.081337
23000 2.6941006800000005 10.2987342 -4.34262213 -0.908183 -1.235568 0.482349
23020 -1.37474397 13.520338200000001 -3.78831789 -2.10387 0.369873 -0.362342
23040 -4.4191107 16.706753730000003 4.438416780000001 -2.619093 1.7275619999999998 -1.644206
23060 -3.16786482 18.00111456 5.73158079 2.627932 -0.423595 0.023172
23080 -0.13053186 17.24938407 -4.71983625 -0.042067 -0.198453 0.380247
23100 1.02177036 14.38418718 -6.8276030400000005 -1.062899 0.977634 -0.869664
23120 1.6075058400000002 12.07059678 -1.45587267 -1.731373 1.834886 -1.547343
23140 1.1687732100000001 10.58703048 1.24151436 -1.36185 1.630228 -1.836125
23160 1.2957048 8.013131730000001 1.043784 -0.839542 0.370083 -2.041301
23180 1.3654637100000002 7.497312120000001 -0.91774512 -0.927978 0.414103 -1.784534
23200 1.62307431 5.589679139999999 -0.54471987 -1.637154 0.59 -1.202191
23220 1.2606831000000003 5.63637474 0.14954364 -1.678261 -0.273474 -0.750582
23240 0.71401104 5.44073391 0.5843817000000001 -1.410393 0.4617850000000001 -0.50503
23260 -0.16810416000000003 4.91158251 1.06698465 -1.479062 1.2845799999999998 -0.546088
23280 -0.94379067 4.60457856 1.0075556700000001 -1.570378 1.3880940000000002 -0.778663
23300 -2.09025594 3.4655885100000003 0.98270694 -1.3212549999999998 1.5711540000000002 -0.952346
23320 -2.0836636200000003 1.0565075700000002 -0.01616688 -0.921817 1.269036 -0.871188
23340 -1.34614782 0.786762 -2.49157323 -0.500003 1.090952 -0.6586420000000001
23360 1.64911986 3.6122872500000005 -6.177200040000001 -0.500183 1.398374 -0.547942
23380 8.17554609 10.85482386 -8.718921990000002 -0.435047 1.408808 -0.549637
23400 22.33116027 23.31372006 -12.50439498 -0.5337569999999999 1.332153 -0.74144
23420 11.320063110000001 17.20402263 -12.46622427 -0.736456 1.1790200000000002 -0.8986200000000001
23440 3.70584522 4.979242080000001 -7.812252360000001 -0.7637510000000001 0.905882 -1.034125
23460 -1.8134766 2.6391646800000004 -5.197338000000001 -0.791967 0.985021 -1.086767
23480 -2.8342071 4.29622083 2.26508976 -0.77571 1.212245 -0.91496
23500 -1.48057425 9.45583938 12.462486660000001 -0.467954 0.794859 -0.965687
23520 0.5290042500000001 22.041814320000004 -15.589483020000001 -0.123419 0.440503 -0.8271620000000001
23540 10.260563490000001 31.88384397 -10.37043549 0.23139 0.960652 -0.6757989999999999
23560 -3.4232289300000005 0.48693897 6.6720753 0.790028 0.523552 -0.54315
23580 -3.6664776900000002 2.0191530600000003 3.0412275300000005 1.481909 0.8432209999999999 -0.099688
23600 -3.30991362 4.715196120000001 6.877751760000001 1.989341 0.441643 0.783518
23620 -2.59200801 9.29192409 5.65928109 2.450422 -0.232768 1.737252
23640 2.23440408 16.249009320000003 1.6747141500000002 3.1501 -0.760029 2.44891
23660 8.115528509999999 16.593291269999998 -2.33035569 2.757888 -2.623632 2.631224
23680 3.82918635 8.40112704 0.08756406 1.755709 -2.707594 2.386118
23700 -0.14265702 8.736285689999999 2.18276424 2.19535 0.824583 2.340865
23720 -1.5375997800000003 8.367302160000001 1.62367272 1.79982 1.196392 2.4102650000000003
23740 -0.6917129100000001 7.493564699999999 1.8083852100000002 1.598386 -0.5907020000000001 2.475242
23760 2.17332702 7.579941750000001 1.33911405 1.765423 -0.850582 2.318644
23780 2.95754823 9.13820139 0.3990708 1.09777 -0.5767770000000001 1.825453
23800 3.4669422900000004 9.51735789 -1.31201883 0.31364000000000003 -0.023582 1.892974
23820 2.6521825500000005 8.398282140000001 -1.46006154 0.594063 -1.227448 1.676422
23840 1.6576545599999999 8.498579580000001 -0.20656917 0.494446 -2.1735450000000003 1.529523
23860 1.2337350300000003 8.76802104 1.16293626 0.4149390000000001 -2.254511 1.333587
23880 1.5018227100000001 8.64048123 1.16892036 0.281665 -2.20209 1.127491
23900 1.7482106700000002 9.19597248 0.37242684 -0.051894 -2.260011 0.983161
23920 2.1165957900000003 10.049648490000001 0.16466085 -0.494033 -2.394792 0.706781
23940 2.1168999000000004 11.916569970000003 0.28425456 -0.996075 -2.070309 0.44969
23960 2.3444232300000003 12.2246334 -0.04116276 -1.461487 -1.57174 0.04949
23980 4.38288237 11.17470834 -0.22512969000000002 -1.722677 -1.127593 -0.504107
24000 7.848627840000001 12.12942735 -0.7488954 -1.615273 -0.864416 -0.876503
24020 7.69609215 12.8147049 -2.1544722000000003 0.166996 -0.361881 -0.488684
24040 5.59716417 12.518619480000002 -1.23957198 0.8622360000000001 0.291291 0.7320399999999999
24060 6.16612455 13.35388212 -1.03180599 -0.370195 -0.40335 1.021288
24080 6.700818600000001 12.13825635 -2.62644111 -0.738564 -0.972934 0.989534
24100 6.23842425 10.2813705 -2.8118991600000003 -0.529163 -0.6916100000000001 0.25356300000000004
24120 1.8200689200000002 11.799811350000002 -3.5563015800000004 -1.354573 0.449273 -0.355073
24140 -1.5380510399999998 14.54061744 1.0747639800000002 -0.246996 1.656896 0.115792
24160 -3.1242986100000003 17.62509726 8.06537979 1.430746 0.059687 -0.182363
24180 0.8232846300000001 17.66386638 -0.57465018 -1.28377 0.377116 -0.752933
24200 0.54336609 14.993721720000002 -5.958505710000001 -1.839332 1.916776 -1.420016
24220 0.7806307500000002 12.526997220000002 -3.3573645900000004 -1.489502 2.071213 -1.715804
24240 -0.40176855 11.32709688 0.95366934 -0.888682 1.07035 -1.561842
24260 1.0891356300000001 9.859697460000001 2.5673064300000004 -0.906914 0.279256 -1.381494
24280 3.2654547000000003 6.4490351399999994 -1.25947647 -1.335279 0.116974 -1.186657
24300 2.5144697700000003 6.03335601 -0.15762708 -1.656836 0.162275 -1.047956
24320 1.9423603800000002 5.95342413 0.8467893900000001 -1.364746 0.262905 -0.8922209999999999
24340 0.59097402 4.8277560600000005 0.8918467200000001 -1.3984379999999998 0.709996 -0.781934
24360 -0.2573163 5.03462934 1.16337771 -1.552994 1.164551 -0.8348709999999999
24380 -1.32549777 4.6937907 1.1493101700000001 -1.604925 1.190505 -0.886542
24400 -1.57143447 3.8839752 1.2552876 -1.393243 0.898494 -1.038513
24420 -1.69432434 2.4251104800000003 1.04302863 -1.146977 0.682199 -0.974559
24440 -1.5648421500000003 1.6935787800000002 -0.61327215 -1.049608 1.104283 -0.8515739999999999
24460 -0.17528508000000004 4.11479469 -4.06868769 -0.8223659999999999 1.177759 -0.775305
24480 4.83524109 8.65619685 -6.094276110000001 -0.696812 1.013626 -0.8639479999999999
24500 14.23344672 20.851037280000003 -11.626468650000001 -0.758757 0.943757 -0.919839
24520 15.60789639 22.695650820000004 -15.001353900000002 -0.809377 0.987961 -1.007843
24540 4.52644191 7.2573595200000005 -9.77407578 -0.8343870000000001 1.163644 -0.964446
24560 -0.8027817300000001 4.63032 -5.50554858 -0.5359729999999999 1.614097 -0.917005
24580 -2.8350998100000004 9.80760636 -2.4638796000000003 0.055961 1.238508 -1.010666
24600 0.8268849 14.623541370000002 7.5829338 0.05704600000000001 0.06665599999999999 -0.999543
24620 5.0548379400000005 12.70498005 1.30244427 0.134366 0.810492 -0.602577
24640 -3.00155589 13.55086692 -10.19275677 0.75773 0.715445 -0.285112
24660 -3.41140788 5.73277761 0.9967744800000001 1.354865 0.281582 0.069992
24680 -0.44097912 6.4930428000000004 6.90693651 1.8003349999999998 0.230167 1.084775
24700 0.1935513 8.84465676 6.486460290000001 2.056491 -0.413897 2.086177
24720 1.5500290500000002 12.76276095 2.13007473 3.039816 -0.636922 2.660558
24740 5.04615609 12.77024598 -0.31419467999999995 2.50553 -1.931819 2.737533
24760 5.273983530000001 11.017385370000001 -0.34473321000000007 1.827043 -1.371762 2.330425
24780 1.97484129 9.407790000000002 0.97851807 2.048121 0.634224 2.387083
24800 -0.66282246 8.653351950000001 1.0880859600000001 1.808142 0.996813 2.496037
24820 -0.83496834 8.72206119 1.5268284 1.610618 -0.220121 2.498353
24840 0.7506906300000001 8.543636910000002 1.03584771 1.411956 -0.271617 2.494895
24860 2.50669044 8.22763719 0.56163231 0.8054140000000001 -0.35180700000000004 2.295276
24880 2.83540392 9.00288225 0.6197075100000001 1.334593 -0.472476 2.176282
24900 2.69903511 9.31423203 0.25012557 1.034088 -1.285745 1.754345
24920 1.3218975000000002 7.9736170500000005 -0.29084688000000003 0.408322 -1.620418 1.5421
24940 0.7243409700000001 7.62993351 -1.21651848 0.377493 -1.603236 1.534385
24960 1.1931706800000002 8.274941010000001 0.16630893 0.332287 -1.91749 1.306941
24980 1.6426844999999999 9.174871170000001 0.89873334 0.017565 -1.968487 1.013183
25000 2.6906573700000003 9.67827132 0.9532180800000001 -0.39418 -2.011661 0.712328
25020 2.5706025900000005 10.400669910000001 0.34338924000000004 -0.8613270000000001 -1.804288 0.407561
25040 1.24107291 11.6869473 -0.05613282 -1.39457 -1.402585 0.047604
25060 1.0557522 11.95952796 -0.39876669 -1.7035490000000002 -0.990966 -0.588538
25080 6.023918790000001 12.23735697 0.5397756300000001 -1.942453 -0.242603 -1.048364
25100 11.25090261 12.66860457 0.40325967 -0.6546350000000001 0.396809 -0.89491
25120 7.68486951 12.01745601 -2.39696559 0.546682 0.108943 0.253643
25140 4.3063938 12.47385645 -0.02320065 -0.156882 -0.96425 0.711576
25160 5.8568741100000015 14.481639720000002 -1.23119424 -0.638162 -0.764271 0.935489
25180 5.838912 11.131004790000002 -2.50638633 -0.7201380000000001 -0.408831 0.298869
25200 2.15371683 12.36009969 -4.531974750000001 -0.814587 0.395533 -0.437758
25220 -2.28754485 13.667027130000001 -2.6840650500000005 -0.295852 2.028397 -0.037781
25240 -5.051247480000001 16.59209445 4.667146740000001 0.818735 1.128027 -0.151687
25260 -2.69709273 16.89267285 2.2119489900000002 -0.97426 0.7005899999999999 -0.92851
25280 -0.40521186000000003 15.055387379999999 -4.52912985 -1.901057 1.831187 -1.541046
25300 1.3078299600000003 12.972027870000002 -4.934488860000001 -1.523376 2.010982 -2.074886
25320 1.60361127 11.693382660000001 -1.14153084 -0.997989 0.701178 -1.586702
25340 1.1687732100000001 10.838058570000001 1.3840242299999999 -0.989494 0.449982 -1.114166
25360 1.4768268300000003 7.49760642 1.07686332 -1.232137 0.706959 -1.231558
25380 0.39173292000000004 6.54783165 -0.22213764000000003 -1.56302 0.786381 -1.358953
25400 2.0098728 7.192996110000001 -1.02372255 -1.505884 0.932177 -1.105572
25420 1.5983727300000001 5.698354320000001 0.22962267000000003 -1.364394 1.040606 -0.904966
25440 1.11458277 5.59372086 -0.08038314 -1.366739 1.1475879999999998 -0.7502270000000001
25460 -0.18306441 5.51782089 0.8644572 -1.300373 1.280178 -0.6655439999999999
25480 -0.8026345800000001 5.307808410000001 1.00770282 -1.037927 0.972738 -0.732751
25500 -1.15260633 3.5920786500000004 1.00456362 -0.844724 0.963664 -0.762368
25520 -0.9425938500000001 1.4784749099999999 0.56282913 -0.683612 1.260088 -0.7050069999999999
25540 -0.19145196 0.93869928 -1.52772111 -0.577769 1.071168 -0.705094
25560 2.3599917 3.46978719 -4.70396367 -0.6472829999999999 0.97471 -0.7652760000000001
25580 6.239326770000001 9.932291460000002 -6.6752145 -0.779562 1.101333 -0.8806620000000001
25600 18.82859787 23.164480530000002 -13.7403765 -0.8984280000000001 1.126707 -0.995825
25620 11.34640296 19.45040472 -14.10307182 -0.776335 1.180811 -1.045248
25640 2.6551746 6.62956857 -8.95273353 -0.567443 1.00069 -0.937804
25660 -3.3200964 6.76907658 -4.7342079 -0.248118 0.776109 -0.996174
25680 -4.1118026400000005 13.16826711 -1.13464422 -0.118649 0.401679 -0.978767
25700 1.3900083300000001 13.850542800000001 5.93560917 -0.031758 0.779516 -0.7041109999999999
25720 4.922216550000001 10.77055596 0.7592253299999999 0.35249 0.551495 -0.491763
25740 -3.4646958000000003 6.84107217 -5.091507720000001 0.90376 1.175077 -0.269726
25760 -3.51304929 6.0968169 0.7815234600000001 1.645741 0.911199 0.074421
25780 -0.74155752 8.649163080000001 5.79400182 2.047691 0.396693 1.051038
25800 1.18807929 11.894262029999998 5.34029913 2.461403 -0.278994 2.098447
25820 5.3630485199999995 13.144762350000002 1.84880241 3.292279 -1.097343 2.7633240000000003
25840 6.57702621 11.66764122 -0.34952049 2.550277 -2.960767 2.671866
25860 1.2220611300000002 9.46825884 -0.051041430000000006 2.141355 -1.009523 2.312928
25880 -0.53558676 8.75918223 1.00530918 2.2050400000000003 1.509709 2.294122
25900 -0.61747083 8.45816238 2.18590344 1.891071 1.111809 2.437717
25920 1.9655610300000002 8.81966088 1.80285237 1.7047560000000002 -0.474646 2.663843
25940 3.999537 8.394995790000001 1.3492968300000001 1.457667 0.050404 2.378365
25960 4.23873423 8.34305184 0.96414642 1.025999 -0.7739159999999999 2.169171
25980 3.0051463500000004 8.95452876 0.032932170000000004 0.6283880000000001 0.398462 1.838016
26000 1.57816413 8.510704740000001 -0.43155171000000003 0.528666 -1.059975 1.676818
26020 0.40789980000000003 8.26236459 -1.38491694 0.468088 -1.897421 1.498007
26040 0.74514798 8.6355468 0.030087270000000003 0.439908 -2.297714 1.1938799999999998
26060 1.70495838 9.10092339 1.15244937 0.197972 -2.133367 1.063793
26080 2.64545289 9.11439252 0.9746235 -0.197874 -2.177753 0.785483
26100 2.6568226800000003 9.477990360000002 -0.0489519 -0.586222 -1.931531 0.553856
26120 1.8242577900000003 11.00855637 -0.41104881000000004 -1.047647 -1.540278 0.347169
26140 1.31217579 11.1982131 0.28965006000000004 -1.574767 -1.342556 -0.155626
26160 2.46612609 11.003170680000002 1.2713073300000002 -1.802599 -1.09657 -0.733304
26180 6.4039876200000005 11.83064418 1.3205535300000002 -1.674247 -1.136092 -1.0838020000000002
26200 10.01492109 11.30658417 -0.45939249000000004 0.535936 0.331504 0.017206
26220 5.89818402 12.254416560000001 -1.05635061 0.7909079999999999 0.199477 0.843823
26240 4.17586194 12.381652260000001 -0.18486945000000002 -0.458047 -0.343956 1.162671
26260 6.3740475000000005 12.19244679 -2.4704621100000006 -0.903609 -0.7472489999999999 0.904771
26280 7.4106407700000005 11.7159849 -2.5950000600000007 -0.735679 -0.143223 0.223644
26300 4.05087273 9.039856140000001 -2.76549786 -0.563566 1.207333 -0.40393
26320 0.28291059 13.79621502 -4.37780079 -0.36643 2.227855 -0.039597
26340 -3.3902967600000005 15.56852886 1.30947804 0.504409 0.903486 -0.469789
26360 -4.3981565400000004 17.75323548 7.7607596700000006 -0.6950850000000001 0.093585 -1.220612
26380 -0.35671122 17.734674960000003 -2.4896210400000003 -1.565876 1.353057 -1.343676
26400 0.6786852300000001 15.092214120000003 -6.2267503500000005 -1.428182 1.535021 -1.41345
26420 2.22841998 12.64959279 -3.1856797800000005 -1.069337 1.2383030000000002 -1.315492
26440 -0.46538640000000003 12.59824725 1.0699767 -0.98958 0.30348600000000003 -1.242166
26460 -0.25611948 7.35166305 3.2639635800000004 -1.306882 0.6054149999999999 -1.081331
26480 3.74880321 8.01448551 -2.05957026 -1.446155 0.842831 -1.191567
26500 2.4101404200000003 6.171215940000001 -1.3986901800000002 -1.257651 0.8630969999999999 -1.095204
26520 3.0532055400000004 6.378540480000001 0.44802270000000005 -1.18328 1.285792 -0.8388530000000001
26540 1.0238697 4.976102879999999 1.0910780100000002 -1.434199 1.346962 -0.733862
26560 0.39457782 5.00289399 1.30034493 -1.3462 1.269771 -0.6872149999999999
26580 -1.4694987600000002 4.15251414 1.5194905200000002 -1.221341 1.002103 -0.724456
26600 -1.75375332 3.38117346 1.4115609000000002 -1.068435 0.938216 -0.864311
26620 -2.0119623300000002 1.74597399 1.0762649100000001 -0.959083 1.038043 -0.881835
26640 -2.00164221 0.27991854 -0.48783168000000005 -0.717722 1.159438 -0.8130069999999999
26660 0.54561258 3.2394091500000006 -3.64342419 -0.667415 1.2898040000000002 -0.957032
26680 5.23955043 8.85992112 -6.47208864 -0.726821 1.446171 -1.114676
26700 15.15104469 21.640202730000006 -11.69802279 -0.860002 1.383135 -1.219143
26720 16.925457870000002 25.73837928 -14.2464744 -0.764854 1.000174 -1.169918
26740 4.343514840000001 9.01036728 -9.817485029999999 -0.509699 1.011218 -0.956642
26760 -1.69252911 5.87304099 -7.791749460000001 -0.246332 1.132181 -0.7989970000000001
26780 -4.303254600000002 8.951536710000001 -2.6960430600000005 -0.017683 0.749942 -0.779818
26800 -2.2439884500000002 12.982956210000001 2.03965596 -0.065569 0.659082 -0.660396
26820 7.400163689999999 9.89696565 2.516265 0.056106 0.722364 -0.607284
26840 1.03015791 9.530081460000002 -1.34270451 0.52108 0.711032 -0.5741109999999999
26860 -2.6661029400000005 6.86412567 -3.07461096 1.0975629999999998 0.699913 -0.424792
26880 0.32437746000000006 6.08439744 2.63900772 1.655847 0.801487 0.328869
26900 2.71610451 9.66749994 4.87715922 2.085957 0.437921 1.363174
26920 3.6063031500000005 11.941869960000002 3.5242719300000007 2.407794 -0.46355 2.210472
26940 4.75066908 11.39580612 0.0606258 3.087259 -0.692765 2.731463
26960 3.2913531 10.245299130000001 0.11824974 2.512991 -2.227762 2.680281
26980 0.29503575000000004 9.772280550000001 0.62494605 1.939831 -1.235664 2.296855
27000 -0.88465599 9.39191742 1.6542112500000001 2.099401 1.3021040000000002 2.088551
27020 -0.11840670000000002 9.07413228 2.6298844200000007 2.009258 0.8278979999999999 2.206033
27040 1.9899585000000002 9.560168730000001 1.26681435 1.949122 -0.214772 2.199472
27060 2.21868846 9.394016760000001 1.14362037 1.532573 -0.197931 2.079036
27080 2.36314071 9.16873011 0.96639291 1.0935700000000002 -0.360258 2.028108
27100 2.7056274300000003 8.81966088 0.6717986100000001 0.554852 -0.402052 1.492424
27120 1.97694063 8.2917063 0.4309533 0.723355 -1.292442 1.567381
27140 1.3238496900000003 8.418343590000001 0.0318825 0.573168 -1.955673 1.322559
27160 0.94333941 8.195303430000001 0.50654916 0.34584000000000004 -2.08652 1.207907
27180 1.2946551300000002 8.268956910000002 0.7111759500000001 0.048832 -2.115673 1.030682
27200 1.97275176 9.19657089 0.10942074000000002 -0.349774 -1.943211 0.8717159999999999
27220 3.2031906300000004 10.24439661 -0.6908103900000001 -0.8096899999999999 -1.82509 0.769007
27240 3.3561677700000003 10.591229160000001 -0.00538569 -1.177368 -1.711099 0.553717
27260 2.92820652 10.266106140000002 0.06481466999999999 -1.532624 -1.518026 0.264705
27280 3.0557463300000003 10.67625243 0.32063004 -1.803493 -1.044206 -0.241995
27300 5.302128420000001 11.203902900000001 1.05620346 -1.883628 -0.467284 -0.5904659999999999
27320 6.50307843 11.6001288 0.9337550400000001 -0.114397 0.143092 -0.51907
27340 5.27054022 12.004889400000001 -0.67135716 0.920374 0.383866 0.707759
27360 4.62418875 12.47970321 -0.7027884 -0.055505999999999986 -0.7205520000000001 0.952321
27380 6.543338670000001 12.561881580000001 0.07708698000000001 -0.561771 -1.1510129999999998 0.88097
27400 6.78284982 12.861851759999999 -1.6572033000000002 -0.8913129999999999 -1.05236 0.472618
27420 5.1980933700000005 10.289453940000001 -2.60967582 -2.401152 1.532608 -0.234517
27440 2.82777174 11.06648442 -3.45211938 -2.639134 2.102372 -1.319018
27460 -0.5159765700000001 13.424229630000001 -2.9541049200000002 2.454172 0.122273 0.061851
27480 -4.574187180000001 15.98570892 3.4232289300000005 0.200767 -0.184922 0.249467
27500 -4.36806927 18.596277450000002 5.19974145 -1.056948 1.005858 -0.740404
27520 0.10523187 17.04640536 -4.804408260000001 -1.7463380000000002 2.319572 -1.5309780000000002
27540 1.89131895 13.43007639 -5.10678189 -1.150128 2.282219 -1.76391
27560 2.05821648 11.561055569999999 -0.98091171 -0.8351350000000001 0.625893 -1.815135
27580 0.50879565 10.09979721 1.70570394 -1.223267 1.11019 -1.37836
27600 3.34179612 8.35307766 0.7937957700000001 -1.6876950000000002 1.2389370000000002 -0.938456
27620 2.60428032 6.946304040000001 -1.33133472 -1.577107 0.46508 -0.917464
27640 2.8315093499999997 6.2875233 -0.47481381 -1.153342 0.6187020000000001 -0.807879
27660 1.75135968 5.882615550000001 0.19339434 -1.300088 1.112902 -0.658918
27680 0.7170129000000001 5.144648490000001 0.18396693 -1.365951 1.668071 -0.64193
27700 -0.6197075100000001 4.11314661 0.69575463 -1.389065 1.89966 -0.727846
27720 -0.85382316 4.145029110000001 0.77972823 -1.050491 1.960353 -0.747991
27740 -1.1943675 2.8743201899999997 0.45714600000000005 -0.543097 1.241282 -0.6527270000000001
27760 -1.04257737 1.82320812 0.20087937 -0.244249 1.57658 -0.579498
27780 -0.4263131700000001 1.94850144 -1.40138793 -0.400548 1.961573 -0.5511729999999999
27800 0.4263131700000001 5.6393766 -3.47711526 -0.458132 1.624507 -0.6579649999999999
27820 4.4399177100000005 12.33285732 -6.71997753 -0.56713 1.390248 -0.854979
27840 18.68519529 21.617600490000004 -12.676835160000003 -0.674892 1.293004 -0.951747
27860 12.493466640000001 16.800910110000004 -14.78834937 -0.742069 0.971896 -1.044741
27880 4.83284745 5.84819226 -8.41564584 -0.794769 0.698072 -0.987074
27900 0.15522363 4.16643453 -3.6063031500000005 -0.568762 0.6981930000000001 -0.947039
27920 -1.5045204600000002 4.2312492 1.97215335 -0.213147 0.77896 -0.940386
27940 -0.56357469 7.197930540000001 11.93977062 0.103125 0.5885819999999999 -0.758471
27960 -1.51021026 14.120886780000001 2.01525849 0.537783 0.76677 -0.674479
27980 7.684271100000001 29.235703140000002 -18.79387047 1.141733 1.059712 -0.397171
28000 2.03965596 9.616154400000001 1.3371716699999998 1.572689 0.901563 0.415754
28020 -4.5176031 1.18193823 1.1943675 2.0416060000000003 0.523474 1.584944
28040 -4.358789010000001 3.2886651600000003 6.53450967 2.393788 -0.552638 2.38995
28060 -3.49717671 6.44723991 6.85514952 3.3629 -0.712368 2.865873
28080 -0.32527017 14.28898113 4.474645110000002 2.548328 -2.7156130000000003 2.638424
28100 6.8021559 18.45198216 -0.54936 2.16355 -0.795573 2.33631
28120 7.59984624 11.01499173 -1.4368608900000002 2.329609 1.66077 2.50417
28140 1.7815941 8.3235888 2.5325790300000004 2.266892 1.228412 2.2564580000000003
28160 -0.29967588 8.887614750000001 2.55682935 2.219242 -0.398978 2.210141
28180 -0.3526695 7.77977145 2.58886881 1.714446 -0.385804 2.017522
28200 1.4904529199999998 8.176301460000001 2.5273404900000003 1.424104 0.978869 1.989177
28220 2.5514436600000003 9.298663560000001 1.44644526 1.457219 -0.59095 1.595109
28240 2.35954044 9.716294880000001 -0.34757811 1.235104 -1.470665 1.4707709999999998
28260 2.0417553 8.39693817 -0.93855213 1.031489 -1.7423830000000002 1.399194
28280 1.24301529 8.04442563 0.5655268800000002 0.724583 -1.77495 1.284929
28300 1.28223567 7.875271800000001 0.77658903 0.337858 -1.7476470000000002 1.186053
28320 2.2956282900000002 8.55875412 0.63498168 -0.121312 -2.024508 0.7580479999999999
28340 3.0276014399999998 8.74391787 0.99288972 -0.602362 -1.972023 0.304899
28360 3.09736035 9.12023928 0.62420049 -1.20621 -1.5904040000000002 -0.033093
28380 2.9083020300000006 9.63007479 0.42136893000000003 -1.865383 -1.240395 -0.675874
28400 3.5346018600000004 11.6115084 0.44802270000000005 -2.134385 -0.6523399999999999 -1.246801
28420 4.10057019 11.89980468 0.35745678 -0.987649 -0.14624 -0.93286
28440 4.753818090000001 11.249411490000002 -0.80996265 0.792225 1.285837 1.163975
28460 5.05438668 12.70378323 -1.1280519 -0.088773 -0.902992 1.050599
28480 5.47261641 13.26630825 -0.86804766 -0.855068 -0.8443379999999999 1.165881
28500 5.72469417 12.839396670000001 0.26150517 -1.119379 -0.838195 0.39277
28520 6.42494178 13.336969680000001 -0.43693740000000003 -1.7244689999999998 0.991514 -0.836915
28540 5.280271740000001 12.75018453 -3.18552282 -3.181474 2.116447 -1.70418
28560 4.2529587300000005 10.33960266 -3.4982263800000006 2.516743 -1.409307 -1.393872
28580 1.43042553 13.29983883 -3.05454951 0.700094 -1.242523 1.0928639999999998
28600 -1.50526602 15.887657970000001 -0.30161826 -0.379794 0.171939 -0.310521
28620 -4.71549042 17.633926260000003 7.740551070000001 -1.443744 0.61528 -0.7661060000000001
28640 -1.9745469900000003 17.31509145 -1.1816439300000001 -1.552865 0.915331 -1.114425
28660 -0.88646103 16.41800619 -7.08401682 -1.119536 0.202264 -1.390358
28680 -0.2314179 12.36698631 -3.3404521500000004 -0.802171 1.210186 -1.441776
28700 0.31524435000000006 11.23922871 2.1065699700000002 -1.137054 0.670779 -1.057796
28720 2.9570969700000003 8.597376090000001 3.0274542900000005 -1.242321 0.36388 -1.207689
28740 2.31658245 7.5899675700000016 -1.37115351 -1.441256 0.5699649999999999 -0.891012
28760 2.81653929 5.436397889999999 0.23576373 -1.623932 1.014839 -0.630076
28780 2.36747673 4.366872450000001 0.59695812 -1.6612220000000002 1.042491 -0.852562
28800 1.6929803700000001 4.24083357 0.68767119 -1.547717 1.058381 -0.928702
28820 1.01204865 4.75965504 1.1771509500000001 -1.502306 1.485067 -1.111597
28840 -0.62075718 4.09188834 1.12790475 -1.5470270000000002 0.985786 -1.156135
28860 -1.53819819 2.80561095 1.1612881800000001 -1.037068 0.54189 -0.880676
28880 -1.9782846 0.65129571 0.35955612 -0.816991 0.893537 -0.831519
28900 -1.33447392 0.03173535 -2.06825211 -0.702199 1.052855 -0.812762
28920 1.2394248300000001 3.1493043000000007 -5.5323495 -0.743663 1.158168 -0.739479
28940 6.881636520000001 9.923168160000001 -7.76450709 -0.730376 1.327253 -0.677646
28960 18.68983542 24.94413225 -12.16640124 -0.6546770000000001 1.276017 -0.717644
28980 13.4019315 24.04599732 -15.013027800000001 -0.657561 1.296469 -0.767897
29000 2.79169056 5.4705268799999995 -8.686441080000002 -0.487501 1.171168 -0.7494569999999999
29020 -3.06816579 0.29278926000000005 -4.6473894 -0.215829 0.471959 -0.887668
29040 -4.11240105 -3.4465865400000006 2.62733382 -0.16559100000000002 0.564176 -0.815865
29060 -2.02738365 0.0142245 13.53320892 0.330769 0.789736 -0.643908
29080 -0.7469432100000001 20.917352880000003 -10.850634990000001 0.924201 0.7773899999999999 -0.4688310000000001
29100 23.216571630000004 46.150379820000005 -9.286989660000001 1.5208270000000002 0.920042 0.102379
29120 -0.08712261 4.750521930000001 10.55710017 2.007773 0.662639 1.178605
29140 -6.99181263 -3.1275947700000004 -3.3205476600000003 2.311534 -0.35743800000000003 2.131684
29160 -4.149973350000002 1.3247424000000003 8.89719912 3.234083 -0.830507 2.6845950000000003
29180 -2.4120828 3.9255892200000004 5.70493683 2.346413 -3.312282 2.575821
29200 0.9562101300000001 14.759606070000002 0.8885505600000001 1.908637 -1.183792 2.40553
29220 6.7280609700000005 21.54499668 -2.34637542 2.190106 1.646523 2.192361
29240 2.87986284 11.15989524 -0.027095220000000003 1.774088 0.853774 2.332544
29260 -0.82418715 8.94165804 1.57816413 1.7758740000000002 -0.968475 2.487648
29280 -1.03719168 9.04479057 2.1871002600000002 1.6317700000000002 -0.331875 2.18886
29300 0.10448631000000001 8.69721246 2.2775092200000002 0.519948 -0.266695 2.037868
29320 2.03441742 7.7210978400000005 2.08231965 0.8117979999999999 0.021302 1.958353
29340 3.14974575 7.8838065 1.59044625 0.709496 -1.626382 1.706581
29360 3.1557396600000005 8.62790481 0.19623924 0.565304 -2.038647 1.566165
29380 2.1019298400000004 8.7719058 -0.6908103900000001 0.375345 -2.204612 1.410159
29400 1.03015791 8.28931266 -0.46118772 0.13000799999999998 -2.18473 1.17982
29420 1.0557522 8.05250907 -0.66775689 -0.190102 -2.24212 0.891374
29440 1.51619436 8.261766180000002 -0.8840575800000001 -0.590679 -2.146958 0.6181939999999999
29460 2.1683925900000003 8.97818067 -0.17019369 -1.0503870000000002 -1.870672 0.389234
29480 2.0505843 10.393488990000002 1.0193767200000001 -1.380537 -1.544663 -0.131577
