time Ax Ay Az Gx Gy Gz
20 -0.46912401000000004 3.78023445 -1.4949459 -0.404616 -0.287316 0.007156
40 -0.5987533500000001 3.5848977300000002 -2.6972398800000006 -0.7286130000000001 -0.63145 0.300163
60 -0.35042301000000003 4.98134142 -3.1234059000000003 -0.439938 -0.219391 0.100826
80 -0.79230465 7.06725153 -2.12213844 -0.3844010000000001 -0.112479 -0.043133
100 -2.8026189 11.569894380000001 -1.1472108300000001 -0.585432 -0.096272 0.074014
120 -4.37061006 18.44913726 -0.83660661 -1.310201 0.425605 0.19647
140 -3.5010712800000006 16.86318399 -5.435201070000001 -1.526769 0.459257 0.22696
160 -1.5968816099999998 13.558508910000002 -8.65619685 -0.939462 0.330577 0.461964
180 2.7949867200000003 11.72182185 -4.43437506 -0.409709 0.6475529999999999 0.6543329999999999
200 0.18157329000000003 15.267803310000001 -0.43829118000000006 -0.591797 0.702608 0.630558
220 -3.66033663 16.49749662 4.42240686 -1.003352 0.668199 0.534792
240 -4.57014546 9.668696760000001 0.7126670700000001 -1.341027 0.471545 0.455773
260 -1.32115194 5.507343810000001 -0.64261386 -1.433949 0.29883200000000004 0.304726
280 0.86221071 5.5787508 -0.8583161400000001 -1.227067 0.396594 0.186405
300 1.62756729 9.987080310000001 0.31285071000000003 -1.157057 0.606912 0.011436
320 1.281186 12.190945860000001 2.11375089 -1.1761629999999998 0.593164 -0.263212
340 -0.47885553000000003 11.379482280000001 2.5765965 -0.924223 0.684625 -0.443168
360 -3.79340928 10.10369178 0.31449879 -0.608273 0.6857840000000001 -0.474077
380 -3.64416975 9.25795206 -1.8299475900000002 -0.57106 0.482998 -0.410532
400 -1.885482 8.305930799999999 -1.54343673 -0.5552239999999999 0.242163 -0.137716
420 -0.59621256 7.49745927 0.11241279000000001 -0.495621 0.327879 0.219376
440 0.47182176000000003 5.95342413 0.7707520800000001 -0.461527 0.28645 0.426903
460 1.28582613 6.333326189999999 0.86804766 -0.203873 -0.133799 0.6022930000000001
480 1.1193700500000001 7.762260600000001 0.41493357000000003 0.16639600000000002 -0.334284 0.86685
500 0.6604288200000001 8.60785317 -0.7973960400000001 0.702102 -0.111206 0.826509
520 0.21555513 8.53794711 -1.04393115 1.184259 -0.097143 0.621556
540 0.15373251000000002 8.09965593 -1.04393115 1.530869 -0.005311 0.267073
560 0.87762222 8.526116250000001 -1.20678696 1.6479279999999998 -0.043228 0.0575
580 0.9369040500000001 9.96118191 -1.20080286 1.745857 0.149224 0.063278
600 -0.21061089 10.210414770000002 -0.93735531 1.830272 0.585964 -0.00399
620 -0.19025514000000002 9.858049379999999 -0.14864112000000002 1.86638 1.029923 -0.236111
640 3.0744540000000002 10.31370426 -0.30910329 1.651948 0.573496 -0.460282
660 4.50293715 11.988124110000001 -0.77838426 1.521278 -0.080926 -0.527654
680 2.9283634800000002 14.756162760000002 -0.23650929 1.403542 -0.331142 -0.456585
700 0.53812755 15.92268948 1.66483548 1.204725 -0.14415999999999998 -0.42403
720 -0.5415708599999999 13.42991943 3.76676532 0.943301 -0.737229 -0.536191
740 -0.4858893000000001 11.284138890000001 5.588776620000001 0.748969 -0.783379 -0.548172
760 -2.3802003000000003 9.3531483 4.1239278 0.496223 -0.484264 -0.272583
780 -4.01794056 10.04591088 3.4682862600000006 0.139105 -0.553744 -0.170302
800 -4.9220694 11.68424955 2.51177202 -0.334865 -0.543852 -0.102055
820 -3.7131831 13.875244380000002 0.74949381 -0.708679 -0.516388 0.013871
840 -2.72358954 14.231651490000003 -0.41868099000000003 -0.864424 -0.612271 0.15070699999999998
860 -0.86625243 12.18780666 0.04086846000000001 -0.7212890000000001 -0.570066 0.394139
880 0.8753757300000001 9.5151114 -0.27348318 -0.255487 -0.539175 0.523403
900 2.1495279600000003 8.30937411 -0.9967744800000001 0.343661 -0.989286 0.411729
920 2.6643077100000006 7.3465716599999995 -0.8478390600000001 0.294843 -0.7949390000000001 0.07144400000000001
940 1.11877164 6.459669180000001 -1.62891126 0.023752 -0.960774 -0.31266
960 -0.02679111 6.78344823 -1.7756100000000004 -0.030677 -0.70724 -0.531283
980 -0.19788732 6.32404593 -1.81407501 0.791075 -0.512525 -0.386923
1000 -0.71820972 5.34358548 -2.1176454600000003 1.590506 0.335592 -0.320469
1020 -0.5730119100000002 4.07736954 -2.1037250700000003 0.411736 0.615564 -0.315175
1040 -0.0580752 3.82125006 -2.08007316 -0.652404 0.072875 0.189766
1060 0.09100737 4.05895617 -2.8765666800000007 -0.6080180000000001 0.052185 0.26381
1080 0.18396693 5.1534873 -4.50487953 -0.33687 -0.07074 -0.13258499999999998
1100 0.29728224000000003 7.2573595200000005 -4.6448388000000005 -0.214569 -0.225359 -0.199899
1120 -0.7119215100000001 10.13646699 -3.0316431600000007 -0.733436 0.264075 0.131271
1140 -0.68527755 14.40783909 -2.37151845 -1.603226 0.77273 0.22282
1160 -2.8171377 17.10897354 -4.0342644000000005 -1.28164 0.498496 0.324762
1180 -3.94384563 12.66785901 -5.869891979999999 -0.41249 0.794246 0.4693229999999999
1200 -1.44778923 11.45253735 -4.84332453 -0.246851 1.087702 0.4658310000000001
1220 -3.3446410200000005 14.24198142 -1.7899816499999999 -0.721487 0.8519100000000001 0.436113
1240 -6.39081279 20.18088675 4.3152228 -1.158754 0.558719 0.342635
1260 -4.45907664 13.15045215 1.13104395 -1.299057 0.566042 0.231619
1280 -0.44697303 4.49904258 -0.40280841 -1.231212 0.654432 0.179637
1300 1.08434835 4.25879568 0.5634275400000002 -1.080914 0.678195 0.234067
1320 2.2643442 8.93491857 0.94767543 -1.006678 0.724115 0.141591
1340 1.9526903100000002 12.04260885 1.6085555100000002 -1.019885 0.639871 -0.091265
1360 0.33664977 12.064759830000002 1.72501002 -0.912274 0.610612 -0.32655300000000004
1380 -3.16861038 10.23855966 0.8243343 -0.779837 0.792663 -0.413455
1400 -3.71407581 8.466392970000001 -1.98531837 -0.667984 0.70512 -0.462768
1420 -1.8990982800000002 7.42710195 -1.8797922000000002 -0.673145 0.30551300000000003 -0.425973
1440 -0.87089256 7.307655390000001 -0.15282999000000003 -0.6339899999999999 0.270187 -0.151121
1460 -0.15433092 6.979089060000001 0.9017253900000001 -0.600102 0.280563 0.154614
1480 0.56373165 6.30309177 0.65055015 -0.604422 0.364351 0.250616
1500 0.7656606900000001 7.3142379 -0.11601306 -0.416029 0.819312 0.331466
1520 0.8747773200000001 8.979073379999999 -0.7439511600000001 -0.29440900000000003 0.799896 0.5523939999999999
1540 0.67315239 9.19642374 -1.3720462199999999 0.07866000000000001 0.473737 0.541531
1560 0.7589212200000001 8.471935620000002 -2.00897028 0.829465 0.184514 0.55676
1580 0.74859129 7.89982623 -1.7154354600000004 0.917769 -0.439557 0.701318
1600 1.4596102800000001 8.32972986 -1.51080867 1.4438879999999998 -1.036371 0.310516
1620 1.1587375800000002 9.054973350000001 -1.66528674 2.184936 0.500478 0.287017
1640 -0.24548544000000003 9.342975330000002 -1.06354134 2.252668 1.30674 0.26616100000000004
1660 -1.7380377 9.784101600000001 -0.00973152 2.096119 1.175864 -0.168463
1680 1.32265287 9.89576883 0.41389371 1.7840080000000005 0.431715 -0.549977
1700 3.3087168000000005 10.69705944 -0.46702467 1.699531 -0.6000840000000001 -0.589837
1720 1.6167861 11.62782243 -1.78099569 1.67127 -1.04055 -0.4388510000000001
1740 0.30342330000000006 12.641813460000002 -2.36717262 1.603015 -1.027558 -0.431866
1760 -1.5453889200000002 12.57939243 -0.53408583 1.181168 -1.102865 -0.41442
1780 0.3924882900000001 12.299169780000001 0.9458802000000001 0.728308 -0.850389 -0.289721
1800 2.89498005 10.36564821 6.7210272 0.464455 -1.079897 -0.209016
1820 -0.8253839700000001 9.35075466 9.60956208 0.062318 -1.100602 -0.010973
1840 -4.62403179 13.838574600000001 3.28162158 -0.498571 -1.12799 0.131491
1860 -3.7729063800000002 15.87299202 0.7071342300000001 -0.792207 -1.201457 0.110306
1880 -3.62546208 15.725547720000002 -0.16944813 -0.77433 -1.227214 0.14251
1900 -3.93845994 13.45940829 -0.13352391000000002 -0.7836069999999999 -1.291505 0.244009
1920 0.08427771 10.313557110000001 -0.5718150900000001 -0.423317 -1.083071 0.287919
1940 3.44912733 9.0756234 -0.98165727 0.356725 -1.210739 0.369375
1960 3.86885799 9.05706288 -1.07550954 0.138489 -0.169256 0.115484
1980 2.7969291 7.587868230000001 -1.28283408 -0.161659 -0.342533 0.018538
2000 1.25723979 5.77394037 -1.2115840500000001 0.603698 -0.457302 -0.182136
2020 -0.47555937000000004 5.42411577 -0.24444558 1.535164 -0.062813 -0.274412
2040 -1.4956914600000002 5.73667218 -1.55720997 0.918603 0.809004 -0.378112
2060 -1.18972737 6.48870678 -1.42399017 -0.379944 -0.500544 -0.237021
2080 -0.90022446 5.89115025 -1.9712508300000002 -0.31647800000000004 -0.683527 0.179195
2100 -1.01549196 4.649478930000001 -2.53108791 -0.351872 -0.202093 0.227469
2120 -1.38656502 4.34576133 -3.12684921 -0.314959 -0.264141 0.260921
2140 -0.5900715000000001 5.7532903200000005 -3.9116688300000004 -0.661049 -0.3344 0.282095
2160 -0.72524349 7.44207201 -2.27616525 -1.2128290000000002 0.5273770000000001 0.235475
2180 -1.78563582 11.64473487 -2.46268278 -1.251444 0.7044050000000001 0.221092
2200 -2.87851887 16.961225130000003 -1.9845728100000002 -0.682582 0.905269 0.378632
2220 -4.45129731 15.422281380000001 -5.36933673 -0.438045 1.143341 0.570179
2240 -2.33813502 13.30732386 -6.57612369 -0.6895939999999999 1.183683 0.556619
2260 0.7438040100000001 13.932878129999999 -2.6964943200000002 -1.28136 0.945318 0.472675
2280 -3.88816407 18.29196144 5.54312088 -1.576236 0.7528699999999999 0.370449
2300 -4.03950294 10.86740028 2.95171128 -1.548845 0.9062 0.364034
2320 0.10733121 5.13148347 -1.2040990200000001 -1.2297870000000002 1.217923 0.188538
2340 2.5270461900000005 5.5323495 0.05149269000000001 -1.168069 1.090134 -0.142015
2360 2.76699879 10.101592440000001 0.9586037700000001 -1.131398 0.971529 -0.349911
2380 0.9351088200000001 13.47752736 1.97619507 -0.967301 1.12027 -0.392752
2400 -2.6649061200000004 11.19072807 2.03172948 -0.760487 1.024977 -0.451006
2420 -5.46199218 9.02293389 -0.18427104 -0.586591 0.39658 -0.364596
2440 -5.20168383 8.417441069999999 -0.8692444800000001 -0.573519 0.33757600000000004 -0.006575
2460 -2.46223152 7.784862840000001 -0.7235954100000002 -0.6273029999999999 0.14448699999999998 0.374652
2480 -0.37886220000000004 6.887032020000001 0.6725539800000001 -0.592767 -0.19978 0.656277
2500 0.72389952 6.37763796 1.75360617 -0.419196 -0.541995 1.103376
2520 1.46500578 7.444769760000001 1.07146782 -0.019575 -0.567029 1.422393
2540 1.7552542500000001 8.592579 -0.34054434000000006 0.820649 -0.359566 1.027413
2560 1.2482538300000001 9.25795206 -1.8312915600000002 1.698989 0.1241 0.259536
2580 0.6980011199999999 8.5547124 -1.9176587999999999 1.895413 0.214441 -0.390823
2600 1.15215507 7.929010980000001 -1.6110963 1.7273619999999998 0.044664 -0.678063
2620 1.5154488000000002 8.41176108 -1.8799393500000001 1.65575 0.234607 -0.696966
2640 0.09310671 9.76090095 -2.18829708 1.56687 0.374675 -0.483054
2660 -0.99737289 9.73979964 -0.99887382 1.676859 0.714856 -0.401537
2680 0.9544149000000001 9.00212688 -0.08188407 1.705497 0.631848 -0.447164
2700 3.6985073400000004 10.45875492 0.7279314299999999 1.605627 0.30482600000000004 -0.6311770000000001
2720 3.6019573200000004 12.59690328 0.7099693200000001 1.392334 -0.088942 -0.808419
2740 1.8751520700000002 15.31734381 0.9367569000000001 1.026738 -0.14667 -0.707281
2760 1.6676803800000002 15.397883910000001 3.8923529400000003 0.8718899999999999 -0.252366 -0.780866
2780 -1.00635885 15.690526020000002 6.740480430000001 0.725883 -0.588899 -0.677837
2800 -2.7617602500000005 14.065048260000001 3.68069238 0.402802 -0.270372 -0.400628
2820 -3.4040700000000004 9.80760636 3.2939037000000004 0.044125 -0.145169 -0.23131
2840 -4.04278929 9.26453457 3.3593167800000003 -0.278662 -0.183829 -0.14057999999999998
2860 -5.055142050000001 10.09620675 1.48476312 -0.629887 -0.312138 0.016296
2880 -3.0840383700000005 11.744424089999999 0.15672456 -0.865189 -0.459214 0.237031
2900 -1.11293469 11.95339671 -0.33545295 -0.7955979999999999 -0.621354 0.497303
2920 1.16158248 11.287582200000001 -1.0027683900000002 -0.156329 -0.952196 0.361187
2940 1.82545461 10.337199210000001 -0.5706182700000001 0.578363 -1.437746 0.203503
2960 1.62367272 8.97743511 -0.2806641000000001 0.334241 -1.099653 -0.217378
2980 1.1798487 7.06007061 -0.47346984000000003 -0.481576 -0.872742 -0.310962
3000 0.9572598 6.13215252 -0.24533829000000001 -0.387745 -0.683197 -0.107587
3020 -0.9487251000000001 5.85432351 -2.54994273 0.691044 -0.540378 0.004451
3040 -0.6683553 5.943094200000001 -2.14787988 1.096743 -0.8679979999999999 0.330308
3060 -0.83975562 6.19740864 -1.9556823600000002 0.718341 0.371159 0.06543099999999999
3080 -0.93031173 5.41843578 -2.4896210400000003 -0.38435 0.430365 -0.46364
3100 -0.62345493 4.53676203 -2.59200801 -0.202944 -0.56608 -0.517712
3120 -0.23321313 4.43542473 -3.07490526 0.335498 -0.220351 -0.33065900000000004
3140 0.08696565000000002 5.38130493 -4.223018610000001 0.235472 0.195082 0.0281
3160 -0.34832367 7.5000000600000005 -5.32203291 -0.4354810000000001 0.434232 0.477102
3180 0.11720988 11.544447240000002 -4.8933261 -0.952783 0.785114 0.5574279999999999
3200 -0.88465599 14.364576990000002 -2.97117432 -0.876309 0.5383899999999999 0.386295
3220 -5.2935937200000005 18.06847983 -3.2587250400000003 -0.774803 0.240249 0.530528
3240 -4.517760060000001 12.35470419 -6.75186003 -0.802134 0.281026 0.480078
3260 -2.5912624500000003 7.39312992 -7.63517205 -0.964633 0.677891 0.47523
3280 -0.92582856 7.2763713 -3.57127164 -1.136151 0.94067 0.443785
3300 -2.3155327800000003 11.819117430000002 0.13965516000000006 -1.460523 1.058364 0.330273
3320 -3.3901496100000004 14.01101478 5.60539476 -1.558499 0.8308559999999999 0.29997
3340 -5.075497800000001 14.40633816 5.63742441 -1.346043 0.953215 0.152814
3360 0.26794053 13.332927960000001 0.7274899800000001 -1.238931 1.2034 -0.167225
3380 1.99834605 10.06297047 -0.82179351 -1.04849 1.25934 -0.468273
3400 2.3433735600000007 10.13751666 -0.12094749 -0.8632860000000001 1.283664 -0.584515
3420 2.5385729400000003 8.18198145 1.4895504000000002 -0.6935939999999999 1.038142 -0.604379
3440 0.47182176000000003 8.66637963 2.14099326 -0.482547 0.635332 -0.487021
3460 -2.7828615600000006 9.19462851 0.2228832 -0.379662 0.637727 -0.110291
3480 -4.5137183400000005 8.77505481 -0.14954364 -0.522312 0.5306069999999999 0.427233
3500 -3.68099649 8.21027349 -0.5402268900000001 -0.555616 0.05869700000000001 0.720298
3520 -1.88816994 7.221729600000001 -0.51537816 -0.199461 -0.292619 0.887742
3540 -0.21809592 5.951471939999999 0.15897105 0.260318 -0.256063 0.937909
3560 0.90201969 6.440510250000001 0.5285529900000001 0.815563 -0.143099 0.711975
3580 1.43551692 7.67783574 -0.1619631 1.059426 -0.353478 0.364639
3600 0.9698362200000001 8.447832450000002 -1.5783210900000002 1.7170740000000002 -0.618495 0.002104
3620 0.5096883600000001 8.53345413 -1.2940567200000002 1.80826 -0.158107 -0.123899
3640 0.9922913100000001 8.79046632 -1.34300862 1.846436 0.422766 0.034788
3660 1.04422545 9.620196120000001 -2.14668306 1.8973 0.774315 -0.01124
3680 -0.22768029 10.2381084 -1.9886145300000002 1.738179 0.5137229999999999 -0.239549
3700 -2.36463183 10.468780740000001 -0.79859286 1.617996 -0.261853 -0.387878
3720 1.4456898900000001 10.080491129999999 -0.38140299 1.375946 -0.907778 -0.352421
3740 6.639741540000001 11.02427199 -1.07296875 1.085896 -1.162235 -0.403259
3760 5.70658491 13.90697973 -0.3962259 0.915436 -1.454155 -0.513035
3780 1.35393696 15.883321950000003 -0.55100808 0.790177 -1.491242 -0.454042
3800 -2.1155461200000003 14.748824879999999 1.3145694300000001 0.6359779999999999 -1.484846 -0.321599
3820 -0.43903674000000004 11.52364023 5.41004823 0.377529 -1.285775 -0.064082
3840 -1.7289045900000002 10.04440995 6.401289870000001 -0.038758 -1.152944 0.112302
3860 -3.22399764 10.782082710000001 2.7137108700000003 -0.47101 -1.050792 0.249089
3880 -3.0358418400000002 12.20277672 1.5982255800000003 -0.742434 -1.050237 0.345468
3900 -2.27826459 13.633045290000002 0.5626819800000001 -0.766104 -0.7576039999999999 0.445341
3920 -3.53355219 13.48515954 -0.51148359 -0.33432 -0.110369 0.450732
3940 -1.5702376500000002 12.34393281 -0.42765714000000005 0.42986 -0.671697 0.302965
3960 1.0210248000000002 10.27448388 -1.02581208 0.607681 -0.606001 -0.029162
3980 2.9554587 9.06155586 -1.1758069800000002 -0.4856140000000001 -0.319958 -0.28392399999999995
4000 3.0964578300000003 8.14022028 -0.9819613800000001 -0.100601 -0.766818 -0.224047
4020 2.09085435 6.7180253400000005 -1.6217303400000003 1.059697 -0.6207189999999999 -0.203311
4040 0.89678115 6.373292129999999 -1.09796463 1.533921 -0.851917 -0.073652
4060 -0.12573477 6.00521112 -0.9770171400000001 1.213691 0.234972 -0.139238
4080 -0.63826803 5.83771518 -0.96758973 -0.615939 -0.327079 -0.254915
4100 -1.3705452900000001 5.314400730000001 -1.5304188600000002 -0.6329 -1.283403 -0.047642
4120 -1.5037749000000002 4.76145027 -1.58624757 -0.0441 -0.795482 0.234652
4140 -1.5310172700000002 4.02018705 -2.4872274 0.054156 -0.249533 0.283777
4160 -1.42698222 4.615506900000001 -3.6574917300000003 -0.450014 -0.073361 0.353737
4180 -1.5582596400000002 6.40038735 -2.6116182 -1.05168 0.570362 0.268593
4200 -3.18088269 9.941424570000002 -2.4569929800000003 -1.090672 0.3408 0.168202
4220 -5.07489939 15.450720570000001 -1.84176864 -0.721889 0.280951 0.429364
4240 -4.06689246 17.872083630000002 -1.8339893100000002 -0.665655 0.69416 0.675986
4260 -0.75742029 12.41204364 -8.728947810000001 -1.012695 0.957056 0.767229
4280 2.5364736000000003 10.05653511 -8.29679769 -1.299089 1.203568 0.640999
4300 2.109709170000001 12.922624710000001 -3.1952543400000004 -1.511246 1.049535 0.450639
4320 -1.13448726 16.82830944 2.17632888 -1.441322 0.841959 0.352049
4340 -6.33497427 13.90428198 6.72536322 -1.175158 0.974005 0.133685
4360 -4.33887471 7.850423070000001 -0.38649438 -1.077587 1.065235 -0.121055
4380 0.7643069100000002 7.600748760000001 -1.32669459 -1.021893 1.1627379999999998 -0.309867
4400 2.4373827900000005 9.20345751 0.10642868999999999 -0.845628 1.306517 -0.454098
4420 1.8562874400000002 11.044333439999999 1.01623752 -0.708971 0.97202 -0.5723550000000001
4440 0.11016630000000001 10.2990285 2.7960363900000003 -0.577008 0.34241900000000003 -0.414666
4460 -3.6926703900000004 8.9739918 0.68497344 -0.551307 0.232288 -0.06931
4480 -5.0427127800000004 8.570575170000001 -0.50939406 -0.604995 0.030796 0.282018
4500 -4.159253610000001 8.545579290000001 -0.80218332 -0.727777 -0.11729 0.391377
4520 -2.123629560000001 7.53293223 0.08891784 -0.408282 -0.054297000000000005 0.345458
4540 -0.26270199 5.94847989 0.45924534000000006 -0.056845000000000014 0.006514 0.550797
4560 1.0383885000000002 6.413709330000001 0.82299033 0.234631 0.289934 0.550333
4580 1.8955078200000002 8.196205950000001 0.53034822 0.729202 0.329071 0.457598
4600 1.4027319 9.29327787 -1.0139910300000001 1.188669 0.19771 0.408633
4620 0.62510301 9.23115114 -1.8955078200000002 1.506067 -0.0479 0.282978
4640 1.12371588 8.7169698 -1.79641701 1.859992 0.219896 0.139829
4660 1.7185746599999998 8.390051549999999 -1.7914727700000002 1.964175 0.818451 0.348093
4680 1.3500423900000003 8.896002300000001 -2.00837187 2.003178 1.10627 0.265743
4700 -0.29159244 9.2489661 -1.67202621 1.7344970000000002 0.8240700000000001 -0.058375
4720 -1.24136721 9.78201207 -1.25588601 1.342616 -0.24403 -0.343891
4740 3.6176729400000003 9.97930098 0.9322639200000001 1.085199 -1.075962 -0.399102
4760 6.527171790000001 11.39236281 -0.31913892 1.013366 -0.918045 -0.400874
4780 3.1295469600000003 14.01101478 -1.57741857 0.90675 -1.130763 -0.392801
4800 -0.5123861099999999 15.18262308 -0.81924291 0.750895 -1.385894 -0.391426
4820 -2.24518527 13.474976759999999 0.79799445 0.6307560000000001 -1.176084 -0.275029
4840 -1.6098994800000002 11.75909985 1.79357211 0.401887 -1.145016 -0.120708
4860 0.99872667 9.95714019 5.62634892 -0.076697 -1.3591799999999998 0.038594
4880 -1.7031631500000002 8.61414138 5.85791397 -0.603054 -1.252652 0.228129
4900 -4.25325303 10.98745506 3.47816493 -0.8195879999999999 -1.173347 0.29701700000000003
4920 -4.32734796 12.8465874 0.9472339800000001 -0.787357 -1.065036 0.355856
4940 -1.9423603800000002 14.43313908 0.60758235 -0.249897 -0.389473 0.377972
4960 -1.6244182800000002 13.39145442 0.00942741 0.675557 -0.467606 0.200803
4980 0.50235048 11.490256800000001 0.6542877600000001 0.90638 -0.346167 0.001434
5000 1.90897695 9.47260467 -0.73003077 -0.362276 0.140557 -0.203536
5020 3.0551479200000005 8.4795678 -1.1544015600000002 -0.461062 -0.511012 -0.478993
5040 2.10941487 8.15953617 -1.85509062 0.714904 -0.8085479999999999 -0.351825
5060 0.9339120000000001 7.2235248300000015 -1.89101484 1.358115 -1.319847 -0.119145
5080 0.032785020000000005 6.71114853 -1.8802434600000002 1.333469 -0.704584 0.28475
5100 -0.41793543000000005 6.51250584 -1.71977148 0.185869 0.443059 0.394904
5120 -0.7661021400000001 5.67814572 -1.8342836100000002 -1.3455700000000002 0.103256 0.385711
5140 -0.3469797 4.83674202 -1.49988033 -1.1231 -1.2767309999999998 0.30678
5160 0.10942074000000002 3.8896650000000004 -1.76333769 0.007356999999999998 -1.179416 0.032541
5180 -0.25626663 3.90643029 -3.07804446 0.124523 0.029957 -0.140174
5200 -0.20522520000000002 5.05797714 -3.5034649200000003 -0.7294470000000001 0.631763 0.085962
5220 -1.2970487700000002 6.929842860000001 -2.05567569 -1.296332 0.812604 0.108476
5240 -4.04458452 11.30958603 -2.074089060000001 -1.031438 0.477959 0.182326
5260 -5.47516701 18.88114023 -0.04550859 -0.370144 0.822343 0.332851
5280 -2.91428613 16.771274100000003 -4.78390536 -0.398202 1.146715 0.491404
5300 1.4605127999999998 11.96148015 -8.24365692 -0.966592 1.082187 0.603953
5320 3.9092751900000002 7.885454580000001 -8.27704035 -1.32711 1.056995 0.556601
5340 3.0925730700000003 9.85400766 -4.41521613 -1.381453 0.8811180000000001 0.364167
5360 -0.7697024100000001 12.35515545 -1.0792569600000002 -1.2110379999999998 0.702022 0.249151
5380 -4.12900938 11.82061836 2.59740351 -1.123769 0.7088439999999999 0.066018
5400 -6.436311570000001 12.11759649 3.7241016300000003 -1.201122 0.681999 -0.079766
5420 -2.29008564 12.96873171 -0.35371917 -1.18862 0.684762 -0.248462
5440 0.35356221 7.64595324 -1.61469657 -0.951978 0.89892 -0.4628640000000001
5460 1.12625667 8.0457696 1.98846738 -0.712683 1.016031 -0.652554
5480 0.00434583 9.36512631 3.15050112 -0.695867 0.945719 -0.666234
5500 -1.9085355000000002 11.64578454 1.96570818 -0.606799 0.446574 -0.328482
5520 -3.3991355700000003 11.088645210000001 -0.99213435 -0.6023890000000001 0.115979 0.023417
5540 -2.8879462800000004 9.186849180000001 -1.9580760000000001 -0.6411720000000001 0.020398 0.249732
5560 -1.57682016 7.796988 -0.22887711000000002 -0.5487 0.052658 0.360364
5580 0.034727400000000005 6.97220244 0.8827136099999999 -0.267489 0.114942 0.524618
5600 1.21337928 6.99495183 0.48124917000000006 -0.027735000000000003 0.04605 0.761389
5620 1.6408892700000002 7.757169210000001 0.017363700000000003 0.484311 0.066499 0.7980550000000001
5640 1.54223991 8.24126328 -0.6385721400000001 1.111031 -0.246035 0.623372
5660 1.07835444 8.552465910000002 -1.1132388 1.723539 -0.100799 0.26961
5680 0.95456205 8.537201549999999 -1.29974652 1.941118 0.445537 0.118742
5700 1.03180599 8.356520970000002 -1.52472906 1.9202 0.750383 0.092568
5720 0.9542677500000001 8.45801523 -1.42248924 1.890973 0.980129 -0.059618
5740 0.25686504 9.043446600000001 -2.19893112 1.782239 0.7843 -0.276976
5760 -0.31270356000000005 9.496550880000001 -2.6035347600000005 1.562713 -0.046212 -0.4537020000000001
5780 0.02994012 9.70207038 -0.54636795 1.312912 -0.792097 -0.455559
5800 3.0006631800000005 9.24358041 0.4300605900000001 1.143157 -0.801164 -0.438573
5820 4.06270359 10.02749751 -0.44786574 1.004081 -0.879534 -0.4330350000000001
5840 3.3223428900000003 11.912224140000001 -0.9936352800000001 0.783579 -1.051296 -0.445037
5860 -0.44472654 14.3737101 -0.5944173300000001 0.547462 -1.031677 -0.35164
5880 -1.7235189000000002 15.024701700000001 1.83967911 0.335319 -0.8122229999999999 -0.169669
5900 0.68392377 12.948827220000002 5.32248417 0.055761 -0.849369 0.037797
5920 -1.40856885 11.03101146 6.6087615600000005 -0.460358 -0.977744 0.087768
5940 -4.0083660000000005 12.203522280000001 3.5154429300000003 -0.845248 -1.047157 0.197332
5960 -5.41947564 12.07418724 1.6401437100000003 -0.929096 -1.114271 0.270539
5980 -4.84272612 12.8724858 0.5632803900000002 -0.678617 -0.772759 0.429948
6000 -3.79027008 12.98594826 0.03053853 0.073392 -0.7426119999999999 0.497119
6020 -0.91010313 11.4760323 -0.16241436 0.994562 -0.986153 0.395975
6040 1.8568858500000003 10.270893420000002 -0.29338767 -0.055069000000000014 0.020715 -0.070914
6060 3.78876915 9.668696760000001 -0.69200721 -0.243197 -0.216613 -0.231089
6080 3.18657249 8.81681598 -1.22594589 0.669702 -0.465195 -0.396377
6100 1.9109291400000001 7.18475571 -1.84700718 1.25938 -0.942632 -0.326485
6120 0.20342997 6.12226404 -1.43850897 1.127858 0.105397 -0.162104
6140 -0.59695812 6.95424033 -0.96788403 -0.009808 0.192735 -0.237461
6160 -0.72569475 6.9449600700000005 -0.95216841 -0.572365 -0.711246 -0.125932
6180 -0.87433587 5.61901104 -1.6603425000000003 -0.423884 -0.5577529999999999 -0.01186
6200 -0.5762982600000002 4.52823714 -1.44045135 -0.348248 -0.201837 -0.105791
6220 -0.30686661000000004 3.75359049 -1.6143924600000004 -0.403501 -0.220434 0.063694
6240 -0.45445806 3.9333685500000004 -3.2684565600000006 -0.8685440000000001 0.421918 0.202764
6260 -0.16705449 5.805528570000001 -4.11299946 -1.043673 0.886885 0.22765
6280 0.47586348000000006 7.99382565 -2.75696316 -0.791488 0.830242 0.321352
6300 -1.7398329300000002 12.47700546 -1.4286302999999998 -0.618001 0.923697 0.509383
6320 -3.61842831 17.94244095 -1.09527669 -0.748602 1.123117 0.569103
6340 -4.19248008 15.80683338 -6.22345419 -1.191034 1.17269 0.543517
6360 -1.7585406000000001 11.59608708 -7.9879887 -1.63668 1.151175 0.449633
6380 0.32722236 10.38989853 -5.183868870000001 -1.674651 1.162307 0.362827
6400 -1.0373388300000002 12.577293090000001 -0.13381821000000002 -1.392786 1.312066 0.230008
6420 -3.7449086400000007 13.3472898 2.9193775200000003 -1.231731 1.290137 -0.019871
6440 -4.091437080000001 11.033856360000001 3.03493932 -1.068897 1.231812 -0.226962
6460 -0.6412698900000001 10.32327882 0.05328792 -0.8403709999999999 1.399798 -0.343085
6480 3.0919746600000004 9.93393954 0.97327953 -0.68633 1.431458 -0.40187
6500 1.5925357800000002 11.45029086 0.6191091000000001 -0.620201 1.083312 -0.508853
6520 0.46957527000000004 10.57415976 1.5263771400000001 -0.567341 0.30647800000000003 -0.226546
6540 -2.78481375 9.07682022 1.52982045 -0.523762 0.162102 0.14248
6560 -4.828207320000001 8.25951969 -0.23935419000000002 -0.603115 -0.025671 0.282104
6580 -4.00133223 8.20563336 -0.6819813900000001 -0.393195 0.086789 0.21506
6600 -1.9237998600000001 7.94128329 0.0058369500000000005 -0.155841 0.087586 0.342767
6620 -0.37257399 7.134616800000001 0.9554645700000001 0.201349 0.30885300000000004 0.377025
6640 0.55849311 6.4014370199999995 1.5010771500000002 0.5904159999999999 -0.001451 0.383345
6660 0.98959356 7.10976807 0.71775846 1.0287540000000002 -0.461247 0.435066
6680 1.28986785 8.08439157 -0.44592336000000005 1.407735 -0.991575 0.328366
6700 1.03165884 9.13370841 -1.2760946100000001 1.921118 -0.300663 0.2627
6720 0.8916995700000001 9.03221415 -1.21068153 2.040047 0.334698 0.311855
6740 1.1557455300000001 8.85019941 -1.58071473 2.146112 0.623099 0.025943
6760 1.6991214300000002 8.829088290000001 -1.7661727800000002 1.917048 0.437441 -0.232861
6780 0.9123496200000001 9.39236868 -1.66363866 1.6851650000000002 -0.278041 -0.393797
6800 0.44561925 9.7695828 -0.9994722300000001 1.410589 -0.817264 -0.37366
6820 2.01451293 9.91896948 -0.64950048 1.332557 -1.0472549999999998 -0.333318
6840 4.7919888 10.6542486 -0.15657741000000003 1.230306 -1.011735 -0.336214
6860 4.1876928 11.379187980000001 -1.2295461600000002 0.765313 -0.854001 -0.217887
6880 1.25514045 13.460909220000001 -2.0558228400000003 0.359063 -0.822672 -0.24106100000000005
6900 -2.43243855 13.27978719 -0.60070554 0.461842 -1.177928 -0.200363
6920 0.022307940000000002 12.170590110000001 1.72366605 0.094933 -0.881606 0.073364
6940 1.2487050900000003 10.185271740000001 5.11771023 -0.38201 -0.978552 0.221844
6960 -0.34188831000000003 9.37515213 6.99150852 -0.693195 -1.0831540000000002 0.27642
6980 -3.2615699400000002 13.193861400000001 3.89519784 -0.7436619999999999 -0.8977 0.296126
7000 -3.44403594 15.144756480000002 1.4528806200000002 -0.5570350000000001 -0.573861 0.401701
7020 -3.2308842600000003 14.550937560000001 0.5559425100000002 0.069863 -1.184161 0.365201
7040 -3.9580701300000003 12.83460939 0.13172868000000001 0.44594 -0.725796 0.23157600000000006
7060 -1.66154913 10.89583947 -0.03652263 -0.650012 -0.13485899999999998 -0.077007
7080 1.33702452 9.18384732 -0.91070154 -0.163702 -0.150621 -0.286166
7100 2.32196814 9.37485783 -0.76356135 1.382927 -0.496895 -0.546247
7120 2.16913815 9.13280589 -1.0942270200000002 1.801877 0.174869 -0.270717
7140 1.19601558 8.14741101 -1.3271360399999999 0.638319 0.36814 -0.175474
7160 0.38574882000000005 6.406077150000001 -0.45206442 -0.580137 -0.693344 0.19873
7180 -0.81610371 5.799544470000001 -0.93645279 -0.8321780000000001 -0.783834 0.402184
7200 -0.91954035 5.79773943 -1.5962832 -0.447475 -0.448494 0.124567
7220 -0.38020617 5.4586960200000005 -1.25124588 -0.252215 -0.536157 0.033108
7240 -0.8089129800000001 4.072876560000001 -1.8248562 -0.791556 -0.0862 0.131314
7260 -0.6502460400000001 3.1783419 -3.22668558 -1.378672 0.812721 0.15063
7280 -0.43080615000000005 4.173174 -4.22990523 -1.087167 0.6815319999999999 0.204109
7300 -0.16106058000000004 5.564526300000001 -2.6414111700000005 -0.576094 1.121055 0.4026
7320 -1.4900016600000001 8.77280832 -1.85509062 -0.414972 1.46311 0.5037
7340 -2.91623832 15.92658405 -1.6673860800000002 -0.847994 1.502931 0.511307
7360 -2.5258493700000004 18.432519120000002 -4.53841011 -1.400911 1.265885 0.330423
7380 -1.0659349800000002 12.906909090000001 -8.15533749 -1.83311 1.077369 0.16314
7400 -0.22034241 12.19962771 -5.886657270000001 -1.539088 0.9741 0.158917
7420 -2.57494842 16.66828872 1.2593293200000002 -1.116802 1.219449 -0.024319
7440 -4.657111110000001 15.57630819 3.9357621899999997 -1.131293 1.110614 -0.233652
7460 -2.5176187800000003 8.15354226 0.31330197000000004 -1.092704 1.006663 -0.378527
7480 1.7717154300000002 8.083489049999999 -0.7857123300000001 -1.060573 0.957856 -0.4551520000000001
7500 3.58953786 7.44417135 0.10492776000000001 -0.757474 0.903845 -0.530946
7520 1.5263771400000001 11.91013461 0.55549125 -0.497837 0.696607 -0.34620100000000004
7540 -0.90741519 12.02973813 1.9547896500000002 -0.55725 0.224339 0.058845
7560 -4.42121004 10.62565245 2.09339514 -0.478273 -0.083384 0.221093
7580 -6.5909466000000005 9.44520534 -1.2439178100000001 -0.216674 0.755883 0.303029
7600 -3.90119175 8.51130315 -0.8514295199999999 -0.087838 0.983322 0.589921
7620 -1.3546825200000003 7.47574974 -0.050590170000000004 0.428413 0.986725 0.623433
7640 0.57465018 5.72170212 1.5699335399999998 1.005972 0.844046 0.638333
7660 0.9819613800000001 5.24284659 1.8567387 1.522482 0.261162 0.501682
7680 1.4831150400000002 7.10946396 1.66454118 1.933656 -0.34762600000000005 0.274598
7700 1.2404745000000001 9.043593750000001 -0.8885505600000001 1.992585 0.405377 0.260158
7720 0.6629696099999999 9.383088420000002 -2.13036903 2.059388 1.170388 0.166709
7740 0.7782273000000001 8.24470659 -1.4741388900000003 2.044871 1.274682 -0.061057000000000014
7760 0.98854389 8.01193491 -1.48086855 1.793527 0.422167 -0.30207
7780 0.8497814400000001 8.5228299 -2.28499425 1.45918 -0.545407 -0.46874
7800 -0.21330864 9.39850974 -2.5864751700000004 1.287914 -0.960058 -0.521748
7820 1.00021779 9.727517520000001 -0.37960776 1.301451 -1.272229 -0.5223220000000001
7840 3.3346152 10.44213678 1.57652586 1.084698 -1.042564 -0.492083
7860 2.5146169200000004 11.381434470000002 0.5007122100000001 0.621257 -1.005247 -0.365045
7880 1.0782072900000002 11.59862787 -1.7546558400000003 0.585642 -1.673593 -0.229842
7900 -0.5698629000000001 13.04313075 -0.88929612 0.189702 -1.509995 -0.039469
7920 -3.11981544 13.921204230000003 1.2009500100000001 -0.373915 -1.552759 0.2205
7940 -0.16181595000000001 11.502234810000001 4.9280535 -0.803396 -1.364106 0.301648
7960 0.25970994000000003 9.50403591 7.749831330000001 -0.944951 -1.011166 0.340799
7980 -2.57808762 11.20015548 5.214407400000001 -0.8632049999999999 -0.924809 0.518584
8000 -3.7690118100000003 15.543228870000002 1.2424168800000002 -0.293292 -1.085656 0.554818
8020 -3.3641040600000003 16.706910690000004 -0.77599062 0.66973 -1.290928 0.437894
8040 -3.29524767 14.808852270000001 -0.9587607300000001 0.001549 -0.139519 -0.009424
8060 0.29847906 11.51285904 -0.94064166 -0.672696 -0.5709930000000001 -0.214407
8080 4.69004328 9.89891784 -1.37458701 0.324312 -0.7521180000000001 -0.272372
8100 4.82087925 10.221647220000001 -1.01997513 1.135559 -0.74608 -0.35430700000000004
8120 2.50593507 8.52926526 -1.60107048 1.347948 0.072019 -0.264142
8140 0.5978606400000002 5.501055600000001 -1.71108963 0.190174 0.08848500000000001 -0.447438
8160 -0.6134291099999999 3.4533162 0.7126670700000001 -0.340724 -1.12562 -0.331018
8180 -1.4310239400000002 4.2209192700000004 -1.44180513 -0.157065 -0.7324890000000001 0.03082
8200 -1.20020445 5.798936250000001 -1.38911562 -0.086046 -0.259097 0.133259
8220 -0.6063855300000001 5.7464037 -1.7458170300000002 -0.312159 -0.100162 0.276754
8240 -0.9093575700000001 4.33184094 -1.95314157 -0.801417 0.092913 0.369229
8260 -0.55953297 3.11082948 -2.8509723900000004 -0.973401 0.639409 0.249823
8280 0.12065319 4.704866190000001 -3.5543592 -0.727901 0.90168 0.250133
8300 0.19908414 6.794072460000001 -3.30392952 -0.492745 1.149531 0.4020780000000001
8320 -1.2051486900000001 9.703571310000001 -2.09444481 -0.483913 1.320586 0.507674
8340 -3.2421069 15.548016150000002 -2.22377985 -0.89961 1.442271 0.540934
8360 -4.97311083 18.43551117 -2.5770379500000002 -1.471439 1.355153 0.445184
8380 -2.50713189 12.637320480000001 -7.672293090000001 -1.6825599999999998 1.125867 0.424776
8400 0.88630407 10.39753071 -7.32367512 -1.443041 1.213577 0.39429
8420 0.39233133000000003 12.25127736 -1.39255893 -1.219365 1.2844 0.07209
8440 -3.3825174300000005 15.609691620000001 3.01862529 -1.226747 1.039411 -0.193635
8460 -5.75733204 13.1329413 4.7502178200000005 -1.168069 0.954326 -0.278574
8480 -1.66244184 9.915830280000002 -0.9294190200000001 -1.10664 0.966334 -0.40421
8500 2.59800192 8.33257476 0.00329616 -0.932087 0.743606 -0.534097
8520 2.4128283600000002 10.119701700000002 0.8195470199999999 -0.65574 0.420339 -0.385406
8540 1.4130618300000002 11.83888458 1.8308403 -0.629413 0.225994 -0.026051
8560 -1.4533318800000001 11.10181023 2.41402518 -0.6352 0.069752 0.156775
8580 -5.166652320000001 9.25659828 0.52840584 -0.511092 0.4281430000000001 0.20098
8600 -5.77798209 8.05055688 -0.09160578000000001 -0.299968 0.685126 0.487341
8620 -4.24217754 7.89114438 -0.2402469 0.010069 0.878784 0.540533
8640 -1.9976004900000002 7.1699426100000005 0.47361699000000007 0.568367 0.720206 0.552113
8660 -0.14579622 6.31686501 1.19975319 1.3617 0.17086700000000002 0.577587
8680 1.20993597 6.69482469 1.28747421 1.844104 0.056878 0.427278
8700 1.83743262 8.356520970000002 -0.2484873 2.1645 0.786763 0.373034
8720 1.67710779 8.392896450000002 -1.81287819 2.136136 0.846672 0.334303
8740 1.5232281300000001 8.38526427 -2.15971074 1.96906 0.618456 0.008689
8760 2.11180851 8.68823631 -1.7901288000000002 1.736518 0.284021 -0.337543
8780 2.4020569800000002 8.7314886 -1.9902626100000003 1.596191 -0.27715700000000004 -0.537561
8800 0.95216841 8.590489470000001 -2.4676172100000002 1.421833 -0.781777 -0.466562
8820 -0.73901673 9.18250335 -2.0688505200000002 1.1944860000000002 -0.745003 -0.408377
8840 -0.25102809000000004 9.58755825 -0.02798793 1.247144 -1.374755 -0.4104060000000001
8860 3.3688913400000002 9.938432520000001 1.90404252 0.959091 -1.363138 -0.401751
8880 3.56438502 10.42192818 -0.7289811 0.5886 -1.05346 -0.26800300000000005
8900 0.6792836400000001 12.54646026 -1.9279887300000003 0.193321 -0.7757470000000001 -0.110887
8920 -2.55114936 12.990588390000001 -0.35087427000000004 -0.149195 -0.688656 -0.015115
8940 -1.84476069 13.46868855 1.7254612800000002 -0.5530729999999999 -0.721735 0.08251900000000001
8960 0.33066567 13.055697360000002 6.09442326 -0.804056 -0.885446 0.214504
8980 -1.13703786 10.740615839999998 7.68606633 -0.820739 -0.986791 0.264724
9000 -3.6324958499999997 12.557084490000001 3.50212095 -0.478883 -0.797655 0.355531
9020 -3.63907836 13.13339256 1.26906084 0.169173 -1.155779 0.374404
9040 -3.3277285800000005 14.00472657 0.45790137000000003 0.723133 -1.069421 0.409141
9060 -3.3567661800000006 13.535749710000001 -0.01721655 -0.371635 -0.220669 0.094895
9080 -0.62824221 11.89456614 -1.20379491 -0.31690300000000005 -0.8177 -0.099442
9100 2.7273271500000003 10.784319390000002 -1.57008069 0.8207459999999999 -0.890308 -0.244158
9120 3.9917478600000003 10.255324950000002 -1.01444229 1.250126 -1.117246 -0.341281
9140 2.7285239700000004 8.82923544 -0.30192237 1.168334 -0.291508 -0.307659
9160 0.6316855199999999 6.804255240000001 -1.6950797100000001 -0.117494 -0.068897 -0.516684
9180 -0.27243351000000005 6.041135340000001 -1.03869261 -0.585213 -1.286197 -0.455366
9200 -1.0145894400000002 5.9502751200000015 -0.7637085 -0.030751 -0.800346 0.107633
9220 -1.3750382700000001 5.54371929 -0.9936352800000001 -0.045887 -0.060218 0.180286
9240 -1.18882485 4.378840650000001 -1.97319321 -0.404851 0.011678 0.360353
9260 -0.9458802000000001 4.23588933 -2.2350024900000003 -0.779752 0.454824 0.421259
9280 -0.54950715 3.843558 -2.883159 -0.916013 0.897785 0.321464
9300 -0.40430934 4.4740467 -4.32959445 -0.798014 0.855617 0.374685
9320 0.0170694 5.6776944600000006 -3.6411777 -0.870591 0.866562 0.630537
9340 0.19414971 8.02750338 -1.78264377 -0.970454 1.064634 0.734271
9360 -2.062111050000001 13.418392680000002 -0.6381208800000001 -1.186929 1.216032 0.623607
9380 -3.8299319100000004 19.595004120000002 -2.30416299 -1.539488 1.394854 0.432908
9400 -3.1681591200000003 15.58963017 -8.3261394 -1.595224 1.215508 0.30990300000000004
9420 0.1761876 9.878110829999999 -9.66944232 -1.657198 1.151979 0.266822
9440 1.18643121 8.40562002 -4.3803415800000005 -1.470217 1.175869 -0.008572
9460 -1.8332339400000002 12.88715175 1.62501669 -1.198819 1.250513 -0.262077
9480 -5.672750219999999 14.15351484 5.039122320000001 -0.925916 1.275785 -0.424709
9500 -4.966077060000001 12.100232790000002 2.8847972700000004 -0.740898 1.253259 -0.546233
9520 0.17693316 10.60634637 -1.1195172 -0.555425 0.913056 -0.6118
9540 2.50609203 9.696086280000001 0.33514884 -0.451749 0.456958 -0.395778
9560 1.8047947500000001 11.82331611 0.6366297600000002 -0.413051 0.279161 0.076874
9580 0.90397188 11.01559014 2.17063908 -0.540582 -0.06020900000000001 0.340269
9600 -2.40938505 10.09965006 1.88921961 -0.30742600000000003 -0.00109 0.272387
9620 -4.6271808000000005 9.17726481 0.46209024000000004 -0.076392 0.113328 0.496044
9640 -4.87132227 8.65454877 0.50983551 0.151775 0.386034 0.565655
9660 -3.4453897200000005 8.179136549999999 0.24638796000000002 0.54294 0.279294 0.546091
9680 -1.7847431100000002 6.371202600000001 0.32527017 0.924613 0.193906 0.5232289999999999
9700 0.3376994400000001 5.389241220000001 0.97761555 1.847147 -0.145926 0.25878
9720 1.46799783 6.41850642 0.6785380799999999 2.130521 0.477322 0.264234
9740 2.4827344200000003 7.89667722 0.5149269000000001 2.002032 0.941857 0.356745
9760 1.6578017100000002 8.7283494 -0.96025185 1.935913 1.11919 0.28982600000000003
9780 1.2003516 8.9566281 -1.61140041 1.808539 1.202864 -0.011341
9800 1.6103507400000001 9.07757559 -1.3684557600000002 1.586937 0.309811 -0.263845
9820 1.6338555000000001 9.19163646 -1.81168137 1.374663 -0.5060640000000001 -0.377514
9840 -0.06452037000000001 10.072701990000002 -2.51372421 1.25021 -0.823382 -0.303201
9860 -1.7500157100000002 10.74974895 -1.6137940499999999 1.07786 -0.861498 -0.212489
9880 2.14010055 9.8387433 -0.30985866000000006 0.823175 -1.06607 -0.248189
9900 6.06509136 10.49781834 0.37137717000000003 0.603476 -1.273084 -0.23664
9920 4.2450224400000005 11.94725565 -1.52592588 0.322225 -1.389406 -0.207477
9940 0.8135629200000001 14.31413397 -1.56289977 0.007829000000000001 -1.386844 -0.043033
9960 -2.0969856 13.01888043 0.59485878 -0.503974 -1.3549790000000002 0.157381
9980 -0.79618941 11.89920627 2.48932674 -0.937569 -1.529881 0.31587800000000005
10000 -0.01047708 10.170301680000001 5.860013310000001 -1.086107 -1.461676 0.437599
10020 -3.03029919 9.265878540000001 4.88299617 -0.6647569999999999 -0.7293149999999999 0.4759229999999999
10040 -3.90402684 11.54923452 3.22863777 0.316171 -0.559479 0.310573
10060 -4.47674445 12.95002404 1.2798420300000002 0.889932 -0.7006640000000001 0.221827
10080 -3.54567735 14.45229801 0.34024023 -0.500577 0.17545 -0.018676
10100 -3.0548438100000004 14.377898970000002 -0.45161316 -0.851167 -0.10731 -0.397845
10120 -0.48978387 12.39647517 -0.52750332 0.5596260000000001 -0.8563799999999999 -0.509877
10140 2.17812411 10.317000420000001 -1.25274681 1.622319 -1.019047 -0.445629
10160 3.1088871000000005 9.22157658 -1.5482338199999999 1.530411 -0.137392 -0.001953
10180 2.9642877000000003 8.429723189999999 -1.73579121 0.31182 0.8443579999999999 -0.168751
10200 1.71558261 7.312442669999999 -1.5362558099999999 -1.231236 -0.025474 -0.021386
10220 0.04056435 6.094727370000001 -1.5061685400000002 -0.815914 -0.573688 0.316571
10240 -0.44607051 6.47089182 -1.1862840600000002 -0.163453 -0.165035 0.120847
10260 -0.64950048 5.86376073 -1.3301379000000002 0.204396 0.323341 -0.05133
10280 -0.34578288 4.67882064 -1.6603425000000003 -0.480791 0.774197 0.214635
10300 0.15956946 3.5458245 -1.47892617 -1.431067 1.471354 0.122714
10320 0.48723327000000005 2.7223927199999998 -2.3643375300000002 -1.279236 0.7097600000000001 0.23798200000000005
10340 0.31494024000000004 3.58893945 -3.18762216 -0.560971 0.763829 0.479007
10360 -0.82043973 6.16373091 -2.43843246 -0.310556 1.3025209999999998 0.612526
10380 -3.6170745300000005 10.762168410000001 -0.73003077 -0.8211370000000001 1.39595 0.601362
10400 -5.916744540000001 19.06735365 0.8265807900000001 -1.573759 1.195496 0.500222
10420 -4.10895774 18.071167770000002 -5.119652610000001 -1.833172 0.778329 0.353666
10440 -0.32377905 13.09326966 -8.9828208 -1.443612 0.951002 0.25789
10460 1.6079571000000001 7.69474818 -8.87115357 -1.258386 1.098313 0.021849
10480 1.4461411500000003 8.42268942 -2.6316796500000006 -1.33787 0.807397 -0.151385
10500 -2.8687873500000003 14.3219133 1.06099074 -1.027975 1.035833 -0.270222
10520 -7.74714339 14.705415630000001 5.77558845 -0.79609 1.2527549999999998 -0.372498
10540 -4.92879906 12.581638920000001 2.61401184 -0.52676 0.891718 -0.362676
10560 -0.66626577 10.46189412 -1.10095668 -0.454513 0.728974 -0.21989
10580 1.0370445300000004 7.612118550000001 -0.6589278900000001 -0.380125 0.408249 0.0010949999999999998
10600 0.39921795000000004 8.74032741 0.52331445 -0.421754 0.30556700000000003 0.140872
10620 0.38634723000000004 9.261836820000001 2.85231636 -0.341878 0.367763 0.235354
10640 -2.32332192 11.507316390000002 1.99804194 -0.161537 0.267544 0.365997
10660 -4.00147938 11.37244851 -0.59396607 0.067234 0.261961 0.497925
10680 -2.47510224 9.749227050000002 -1.5214329000000002 0.9446 0.091727 0.483976
10700 -0.9907903800000001 7.538023620000001 -0.7888613400000001 1.284347 0.164181 0.452073
10720 0.23935419000000002 5.60075463 1.08823311 1.674756 -0.133259 0.171034
10740 1.06907418 5.74999416 1.79910495 1.936835 0.222836 0.137157
10760 1.5452319600000002 7.28295381 0.41194152000000006 2.033185 0.524012 0.12783
10780 1.15724646 8.68254651 -1.13957865 2.079879 0.947702 -0.106327
10800 0.7186511700000001 8.89000839 -1.21682259 1.864495 1.0577379999999998 -0.263933
10820 1.01953368 8.429870339999999 -0.8057737800000001 1.52671 0.305239 -0.399924
10840 1.40992263 8.896002300000001 -1.48431186 1.139826 -0.273106 -0.355952
10860 1.0434798900000002 9.74503818 -2.26344168 1.028309 -0.736768 -0.458686
10880 0.35401347000000005 9.943975170000002 -0.95816232 0.950412 -1.023934 -0.505864
10900 1.9875648600000002 9.23594823 -1.4937392700000003 0.68671 -1.080473 -0.5236569999999999
10920 2.0857629600000003 10.18302525 -1.0844955 0.410587 -1.150313 -0.401582
10940 1.96751322 11.02517451 -1.66199058 0.145708 -1.038247 -0.225183
10960 2.4697165500000002 11.559711600000002 -1.4876080200000001 -0.210195 -0.92935 0.023224
10980 1.15918884 13.37244264 -0.00509139 -0.657948 -0.907224 0.205938
11000 -0.28261629000000005 14.646594870000001 2.5909583400000002 -0.929049 -1.093009 0.281195
11020 0.30701375999999997 12.076433730000002 3.6342910800000006 -0.858024 -1.13292 0.343699
11040 -1.0008162 10.200536099999999 5.91554772 -0.388334 -0.750346 0.434084
11060 -4.21448391 11.19671217 4.19039055 0.367038 -0.818738 0.36574
11080 -4.60457856 12.34498248 2.0392047 0.924541 -0.6441319999999999 0.173926
11100 -4.056562530000001 13.691277450000001 0.7906565700000001 -0.4119680000000001 0.178268 -0.266957
11120 -3.26126583 13.91671125 -0.40086603 -0.270331 -0.197942 -0.347739
11140 -1.11817323 12.347827380000002 -0.8077161600000001 1.252002 0.056504 -0.296839
11160 1.07461683 10.257571440000001 -0.80547948 1.689556 -0.812365 -0.242462
11180 3.1692087900000008 9.10586763 -0.63707121 0.990882 0.405549 -0.245699
11200 2.83614948 8.6446701 -1.2493035 -0.475284 -0.100777 -0.226449
11220 1.9928034 7.24433184 -2.14383816 -0.693584 -1.027485 -0.058007
11240 1.04243022 6.50293128 -1.8678141900000003 -0.409722 -0.926552 0.029304000000000007
11260 -0.21479976 6.221511810000001 -1.3672589400000001 -0.119675 -0.5395810000000001 -0.024714
11280 -0.70532919 5.599852110000001 -1.1573936100000002 -0.403952 -0.203858 0.181174
11300 -0.59501574 4.58810757 -1.2948120900000002 -1.081585 0.612877 0.318536
11320 -0.53379153 4.12452621 -1.5771242700000003 -1.022165 0.7151890000000001 0.255794
11340 -0.45025938000000004 3.7688646600000006 -2.41552611 -0.5689960000000001 1.011417 0.375016
11360 -0.90726804 4.47284988 -3.8275382700000002 -0.397005 1.185022 0.500977
11380 -0.72553779 6.34755069 -3.5860945500000003 -0.6413310000000001 1.249523 0.5664859999999999
11400 -0.81056106 8.571026430000002 -1.70450712 -0.98542 1.307412 0.507393
11420 -3.76346916 13.19177187 -1.1982620700000002 -1.407255 1.314765 0.366636
11440 -5.48459442 20.28371517 -0.6053456700000002 -1.506914 1.121617 0.270047
11460 -4.93793217 14.665155390000002 -6.620729760000001 -1.362523 1.100217 0.168534
11480 -0.0378666 11.82616101 -9.401796090000001 -1.276148 1.047781 -0.112806
11500 1.0731159000000003 11.176209270000001 -3.74686083 -1.296045 0.908132 -0.337093
11520 0.25940583 13.792918860000002 2.6399102400000003 -1.206992 0.914636 -0.442233
11540 -3.8757446100000004 12.775778820000001 2.94901353 -0.963951 0.98246 -0.5645359999999999
11560 -2.77463097 9.04419216 0.37916631 -0.8474209999999999 0.67787 -0.685109
11580 1.17385479 8.75289402 -0.6126737400000001 -0.679002 0.259444 -0.355452
11600 3.29883813 8.717568210000001 0.99707859 -0.519975 0.429876 0.041751
11620 1.5808618800000003 10.86934266 0.8984292300000001 -0.5588890000000001 0.090256 0.29081
11640 -0.19295289 10.76187411 2.447114310000001 -0.362076 -0.001113 0.325416
11660 -4.38198966 10.218203910000001 1.5651462600000001 -0.105168 0.019025 0.394483
11680 -4.995408960000001 8.83073637 -0.89214102 -0.176624 0.184813 0.5550729999999999
11700 -4.14921798 8.521780230000001 -0.40969503 0.5666220000000001 -0.085367 0.609749
11720 -2.6095188600000006 8.48540475 0.7575772500000001 0.955291 -0.397086 0.703662
11740 -0.8900514900000001 7.39761309 1.01069487 1.509851 -0.479955 0.434177
11760 0.3715243200000001 6.508464120000001 0.50385141 2.030553 0.105759 0.296059
11780 1.66049946 7.53847488 0.36299943 2.133091 0.659133 0.349477
11800 2.2119489900000002 8.452325430000002 -0.7864677000000001 2.1618 0.973847 0.210405
11820 1.67846157 8.43376491 -1.6293625200000001 2.051529 1.089321 -0.06611399999999999
11840 1.46754657 8.313857279999999 -1.71618102 1.7933990000000002 0.607621 -0.32581
11860 1.5908877000000001 8.65844334 -1.4296799699999998 1.52024 -0.435053 -0.412908
11880 1.29900096 9.0926928 -1.5170968800000002 1.317878 -0.8571639999999999 -0.438349
11900 -0.45714600000000005 9.616007250000001 -1.5075125100000002 0.936125 -0.567182 -0.430705
11920 -1.34420544 9.25315497 -1.00157157 0.653975 -1.236977 -0.5183439999999999
11940 0.56732211 9.35974062 -0.78407406 0.580283 -1.463735 -0.490794
11960 3.0144266100000006 10.32597657 0.60489441 0.369917 -1.079199 -0.301545
11980 4.04294625 11.260781280000002 -0.98390376 0.004072 -1.09683 -0.10432
12000 2.08561581 13.30568559 -2.1661461 -0.555397 -1.305232 0.015953
12020 -0.62929188 13.849944390000003 -0.38620008 -0.888201 -1.210649 0.094692
12040 0.14190165000000002 13.360464630000001 2.22931269 -0.886173 -1.135419 0.193954
12060 2.04385464 11.602375290000001 5.506902360000001 -0.6598350000000001 -0.8782409999999999 0.4184640000000001
12080 -1.19690829 9.854910180000001 7.14000249 -0.017133000000000002 -0.7994479999999999 0.403624
12100 -4.74109452 11.31870933 4.2224202 0.999776 -1.0499379999999998 0.358706
12120 -5.1003465299999995 12.119548680000001 2.30699808 0.01542 0.050245 -0.057641
12140 -3.7959598800000003 13.36899933 0.92133558 -0.447835 -0.261234 -0.083978
12160 -3.5453732400000004 13.875244380000002 -0.21735036 0.036133 -0.7840060000000001 -0.040404
12180 -1.16068977 12.731624009999999 -0.58737375 1.15349 -1.036823 -0.123074
12200 1.5232281300000001 10.59975405 -1.1054496600000001 1.014656 -0.615355 0.092265
12220 3.48115698 10.089918540000001 -0.9122024700000001 0.406033 0.074361 -0.299566
12240 3.62111625 8.96366187 -1.5178424400000001 -0.994198 -0.926811 -0.730011
12260 2.626137 6.97399767 -0.7249393800000001 -0.191478 -0.97346 -0.15070899999999998
12280 0.6620769 5.47636383 -2.55758472 0.133964 0.168882 0.27418400000000004
12300 -0.21840003000000002 6.43571316 -1.7227635300000004 -0.204262 0.171206 0.518578
12320 -0.7068301200000001 6.8166747 -1.43267202 -0.47046 0.257479 0.486698
12340 -0.97163145 5.43384729 -2.0091174300000003 -0.600661 0.960904 0.247742
12360 -0.48843009000000004 4.04802783 -2.22048369 -0.720958 0.931847 0.159344
12380 -0.76011804 2.86713927 -2.7960363900000003 -0.877376 0.579773 0.427895
12400 -0.7878116700000001 4.014497250000001 -3.6781515900000006 -0.983585 0.733463 0.71324
12420 -0.11810259 5.47725654 -3.0588855300000004 -1.028475 1.189561 0.712342
12440 -0.7914021300000001 7.47006975 -2.09444481 -1.415569 1.532496 0.536146
12460 -3.1605269400000005 12.994178849999999 -1.62217179 -1.661156 1.129035 0.413171
12480 -4.09024026 19.88165232 -1.46964591 -1.661309 0.900783 0.217977
12500 -3.2073795000000005 14.0324202 -7.498204830000001 -1.446578 1.086812 -0.135411
12520 1.54104309 8.43764967 -9.13325715 -1.417504 0.982972 -0.299581
12540 1.52532747 6.22315989 -7.241791050000001 -1.194185 1.011146 -0.346127
12560 0.8301712500000001 10.289748240000002 0.29024847 -0.972189 1.113258 -0.499599
12580 -6.5547182699999995 16.980541019999997 4.223764170000001 -0.833219 0.995249 -0.6790069999999999
12600 -6.77551194 18.53580861 4.80141621 -0.591108 0.792971 -0.387569
12620 0.38410074000000005 11.20405005 -0.80651934 -0.569729 0.48663 0.01142
12640 3.2525839800000003 9.28519443 -0.17064495 -0.595726 0.152372 0.240266
12660 1.90464093 9.69758721 0.39038895 -0.420186 0.225481 0.18692
12680 0.63991611 10.55110626 1.99325466 -0.269638 0.392701 0.32983
12700 -2.3281092 9.580828590000001 1.01758149 0.170732 0.459909 0.456734
12720 -4.96547865 9.22322466 1.01114613 0.626095 0.534543 0.578392
12740 -4.57358877 9.43293303 1.0159334100000001 1.173271 0.061652 0.613798
12760 -2.4872274 8.3899044 0.17408826000000002 1.784746 -0.112222 0.408921
12780 -0.18351567000000002 6.77745432 -0.08322804 2.1211330000000004 0.8233229999999999 0.325682
12800 0.7367702399999999 6.87984129 0.87747507 1.694164 1.487415 0.322917
12820 1.67786316 7.490278350000001 0.5694116400000001 1.837026 0.806834 -0.099297
12840 1.8832355100000002 8.08423461 -0.7530842700000001 1.834544 0.61226 -0.455851
12860 1.13912739 8.95079115 -1.9535830200000002 1.509578 0.114262 -0.578192
12880 1.64807019 8.91276759 -1.40902011 1.346834 -0.6726260000000001 -0.52491
12900 2.0667511800000007 8.45756397 -1.39165641 1.275083 -0.963222 -0.518629
12920 1.3078299600000003 8.179136549999999 -2.0249900100000002 1.115063 -0.897933 -0.456805
12940 -1.0955709900000001 8.892411840000001 -2.3632878600000002 0.77215 -0.992627 -0.454806
12960 -0.38275677 8.75559177 -1.4094713700000001 0.439231 -0.935282 -0.387771
12980 2.90725236 9.01410489 -0.32722236 0.168697 -0.8754719999999999 -0.192116
13000 4.0739262300000005 10.85288148 -0.67224987 -0.268623 -0.850409 0.046215
13020 3.0138282000000003 11.942468370000002 -1.77396192 -0.7607510000000001 -0.959196 0.238402
13040 0.7396151400000001 13.687088580000001 -0.70787979 -0.911238 -1.13368 0.313418
13060 -3.04795719 13.921802640000001 1.1587375800000002 -0.736644 -0.904493 0.390187
13080 0.25476570000000004 12.14320059 5.36634468 -0.182406 -0.737251 0.444051
13100 -0.6740451000000001 10.287805859999999 8.07511131 0.721337 -1.245131 0.395467
13120 -3.86166726 13.44593916 3.9116688300000004 0.640039 -0.676778 0.059817
13140 -4.76369676 14.47699959 1.9676603700000002 -0.435061 -0.4437970000000001 -0.26098000000000005
13160 -4.364478810000001 14.453494830000002 0.80532252 0.06409400000000001 -0.775526 -0.320093
13180 -5.266949760000001 13.811479380000002 -1.1105410500000001 1.457541 -0.752699 -0.310389
13200 -1.6200822600000002 11.797270560000001 -0.18441819 1.757678 -0.000341 -0.106295
13220 2.13905088 9.86613282 -0.31419467999999995 0.286551 0.105445 -0.509812
13240 3.68997264 9.60672699 -0.03562992 -0.568479 -0.946191 -0.515505
13260 2.4617802600000003 9.007963830000001 -1.0756665 -0.316196 -0.453257 -0.129814
13280 1.3548296699999998 7.1795171700000004 -1.1743060500000002 -0.205109 0.22105500000000006 0.042081
13300 0.13397517 5.8133079 -1.0686229200000001 -0.395712 0.067358 0.281297
13320 -0.5472606600000001 6.12451053 -0.33036156 -0.8225389999999999 0.637256 0.390816
13340 -0.512082 5.40480969 -0.7741855799999999 -1.049014 1.166893 0.27212
13360 -0.32542713 4.29053103 -1.6805511 -1.045468 0.7928729999999999 0.296125
13380 -0.35326791 4.38962184 -1.72112526 -0.880977 0.8764 0.577041
13400 -0.37377081000000006 3.78248094 -2.7756806400000005 -0.749326 1.0556299999999998 0.663188
13420 -0.33380487 4.4915575500000005 -4.370757210000001 -0.987062 1.223085 0.5512859999999999
13440 0.12993344999999998 6.323447520000001 -3.5482181400000004 -1.515588 1.196854 0.376713
13460 -1.070271 8.88117939 -1.8925157700000002 -1.742635 0.87008 0.240949
13480 -3.7595844000000005 14.57698311 -1.2100831200000002 -1.535782 0.966756 0.127971
13500 -4.70696553 20.49298209 -2.55682935 -1.322491 1.154578 -0.139972
13520 -1.9687100400000002 13.05973908 -8.16207696 -1.256456 0.892181 -0.378456
13540 0.86205375 9.97854561 -8.139621870000001 -0.997544 0.7445579999999999 -0.449098
13560 0.7614620100000001 11.2645287 -2.5821293400000003 -0.6754859999999999 0.649944 -0.5108199999999999
13580 -3.54029166 15.3600075 5.1063306299999995 -0.558251 0.5698529999999999 -0.5633100000000001
13600 -5.55315651 14.02328709 6.575230980000001 -0.467644 0.398864 -0.239855
13620 -2.0956416300000003 10.124194680000002 -0.50999247 -0.499237 0.364548 0.110345
13640 1.8103374 9.195678180000002 -0.11616021000000001 -0.509121 0.381306 0.190372
13660 1.05665472 10.65095244 0.33784659 -0.346174 0.447327 0.321748
13680 0.93600153 10.858865580000002 1.8959590800000001 -0.06399500000000001 0.249684 0.485274
13700 -1.8122797800000001 9.51855471 2.32990443 0.331771 0.159249 0.646251
13720 -4.716844200000001 8.86546377 1.08315153 0.854462 -0.21908 0.764687
13740 -4.86892863 9.327406860000002 0.7057804500000001 1.517261 -0.343163 0.584673
13760 -3.08853135 8.79825546 -0.53917722 2.210364 0.158806 0.460685
13780 -0.9729754200000001 7.13895282 -0.20327301 2.146371 0.588535 0.410549
13800 0.6629696099999999 5.82708114 0.7954438500000001 2.036707 0.6558510000000001 0.188574
13820 1.65031668 6.350091480000001 1.23703119 1.968091 0.725599 -0.14421099999999998
13840 1.71318897 7.81928613 -0.37032750000000003 1.803128 0.35741300000000004 -0.367082
13860 1.6363962900000002 8.88806601 -1.8233552700000002 1.4577440000000002 -0.517084 -0.357692
13880 1.5229338300000004 8.7861303 -1.77725808 1.111024 -0.977182 -0.348842
13900 2.18291139 8.432116830000002 -1.2969016199999999 1.110466 -1.3924219999999998 -0.402793
13920 1.79910495 8.772062759999999 -1.50901344 1.104803 -1.6408599999999998 -0.340557
13940 -0.66775689 9.402394500000002 -1.0265674500000002 0.890201 -1.622219 -0.287601
13960 -1.3686029100000001 9.31947057 -0.57974157 0.579159 -1.669399 -0.20746
13980 0.9334607400000001 9.64115028 -0.6875240400000001 0.228035 -1.791252 -0.06661399999999999
14000 2.28814326 10.860660809999999 -0.88301772 -0.293284 -1.742301 0.131575
14020 2.60832204 11.327695290000001 -1.80359793 -0.6471640000000001 -1.75022 0.28721
14040 1.14526845 13.313464920000001 -0.30177522 -0.6658930000000001 -1.488724 0.443773
14060 -0.9442321200000001 13.852043730000002 1.8525498300000003 -0.368999 -0.830823 0.562508
14080 0.67839093 11.672879759999999 5.810315850000001 0.217088 -0.862242 0.4523430000000001
14100 -0.5881291200000001 10.095157080000002 7.749831330000001 0.864973 -1.147417 0.344002
14120 -3.73548123 12.97966005 4.09997178 -0.26474699999999995 -0.307865 -0.036706
14140 -4.20580206 13.651164360000001 2.46357549 -0.549347 -0.653485 -0.204894
14160 -4.07557431 14.160254310000001 1.1999003400000001 0.7829649999999999 -0.8979959999999999 -0.153614
14180 -4.48138458 14.309640990000002 0.51956703 1.378713 -1.201963 -0.31250100000000003
14200 -2.3912757900000003 12.340940759999999 -0.43589754000000003 1.152983 -0.07655 -0.237539
14220 0.92193399 10.12105548 -1.29450798 -0.08037000000000001 0.6488619999999999 -0.223583
14240 4.00177368 9.41302854 -0.8012807999999999 -0.727194 -0.8583040000000001 -0.245398
14260 3.6627302700000004 9.05452209 -0.92447478 -0.342565 -0.7656729999999999 -0.034526999999999995
14280 2.2339528200000003 8.27180181 -1.9565848799999999 -0.164536 -0.102556 -0.051224
14300 1.13584104 6.2484598799999995 -1.67262462 -0.478278 0.348222 0.178879
14320 0.29278926000000005 6.302493360000001 -0.69380244 -1.133694 0.703394 0.371467
14340 -0.51791895 5.7666123 -0.24938001 -1.269924 0.860022 0.215422
14360 -0.7593724800000001 4.31014122 -1.0500624 -0.799826 0.759359 0.206016
14380 -0.8467893900000001 3.46034997 -1.04078214 -0.442839 0.829892 0.372926
14400 -0.86909733 3.2352202800000005 -1.9220046300000002 -0.687606 0.960844 0.603921
14420 -0.7893126 4.26837024 -3.35332287 -1.04215 0.941616 0.658084
14440 -0.7023371400000001 5.85671715 -3.0163788000000005 -1.450303 0.979523 0.590023
14460 -1.61828703 8.311620600000001 -1.9567320300000002 -1.617093 0.781377 0.469471
14480 -4.26987117 14.319676620000001 -0.92073717 -1.463608 0.592915 0.313756
14500 -4.97625003 20.62380825 -2.25970407 -1.204066 0.637785 0.057002
14520 -2.08846071 13.868063460000002 -7.761809340000001 -1.076122 0.658378 -0.141888
14540 2.10102732 9.20900016 -8.706796830000002 -0.953579 0.706516 -0.298123
14560 1.5167927700000001 10.21565331 -4.08006729 -0.863138 0.762108 -0.425749
14580 -1.14272766 15.934510529999999 1.55048031 -0.772148 0.659147 -0.596965
14600 -5.595368939999999 16.360225290000002 4.0878466200000005 -0.550248 0.487652 -0.526829
14620 -5.97512385 9.91178856 1.78578297 -0.585346 0.131702 -0.193333
14640 -0.8899043400000001 8.17001325 -0.004188870000000001 -0.536361 -0.002019 0.170376
14660 1.2328325100000002 8.14246677 0.9937824300000001 -0.5214529999999999 0.155993 0.335852
14680 1.14062832 10.967687910000002 1.59733287 -0.380764 0.424765 0.399516
14700 0.26554689 10.349481330000001 2.7500765400000002 -0.016158000000000002 0.327877 0.603012
14720 -3.0368817000000004 9.67333689 1.25768124 0.501265 0.326064 0.607697
14740 -4.145029110000001 8.59527675 -1.08074808 1.006771 0.215908 0.544071
14760 -2.91279501 8.286919020000001 -1.25963343 1.838969 -0.329023 0.233321
14780 -1.48431186 8.34454296 -0.35925201 2.077783 -0.00024900000000000004 0.125609
14800 0.25297047 7.002888120000001 0.24399432 1.871351 0.379622 0.14611300000000002
14820 1.28642454 6.06104964 0.47945394 1.899175 0.743308 0.015518
14840 1.3789328400000003 6.63330618 0.21599658 1.801035 0.74143 -0.22872
14860 1.27594746 7.7983319700000004 -0.90411903 1.592815 0.047257 -0.410882
14880 0.78721326 8.920703880000001 -1.7621310600000002 1.303956 -0.8263940000000001 -0.395757
14900 0.73662309 9.2720196 -1.8681183 1.100168 -1.098265 -0.428879
14920 1.21472325 9.06514632 -1.6854953400000003 0.995475 -1.318605 -0.381258
14940 1.5350589900000002 8.77056183 -1.7335447199999998 0.716733 -1.051687 -0.289543
14960 0.5816937600000001 8.968302000000001 -1.72605969 0.718587 -1.445467 -0.384098
14980 -0.13247424000000002 9.839783160000001 -1.3001977800000002 0.551054 -1.562576 -0.256931
15000 -0.42092748 10.249036740000003 0.11436498 0.213192 -1.48884 -0.02224
15020 2.76160329 10.23511635 0.51791895 -0.312399 -1.421841 0.195124
15040 3.4618509 10.815014880000001 -1.12056687 -0.656687 -1.449961 0.332693
15060 2.18515788 13.260628259999999 -1.070271 -0.73492 -1.197593 0.425826
15080 -1.7980650900000001 14.23360368 0.5545985400000001 -0.493584 -0.565034 0.536728
15100 -1.32040638 13.89979881 3.25932345 0.187716 -0.503182 0.4623600000000001
15120 0.15897105 11.253600359999998 7.50868191 0.816333 -0.6462829999999999 0.272518
15140 -2.3972697000000003 10.333157490000003 6.00326874 -0.39746 -0.027891000000000003 -0.139473
15160 -3.54283245 13.091023170000001 3.40676775 -0.481025 -0.835117 -0.396464
15180 -3.21052851 13.54607964 1.4193500399999999 0.989835 -0.5764819999999999 -0.282904
15200 -3.27384225 13.76926695 0.25461855 1.743283 -1.149392 -0.189312
15220 -2.8479803400000003 12.831764490000001 -0.41194152000000006 1.828329 -0.133954 -0.054355
15240 -0.01032993 10.819655009999998 -0.8075690100000001 -0.105171 0.205432 -0.133457
15260 3.5847407700000002 9.91807677 -1.3365732600000002 -1.091063 -1.391513 -0.053908000000000005
15280 4.154309370000001 9.821075490000002 -1.14452289 -0.44581 -1.368372 0.259286
15300 2.57883318 9.23684094 -1.2195105300000002 0.211036 -0.5130560000000001 0.247823
15320 0.68497344 6.82640622 -1.0388397600000001 -0.025710000000000004 -0.085727 0.4144
15340 -0.7243409700000001 5.61542058 -1.11204198 -0.946799 0.579947 0.444501
15360 -1.3823761500000002 5.429364120000001 -1.30543632 -1.296188 0.539211 0.278675
15380 -0.7457463900000001 4.9539519 -0.8442486 -0.7605 0.443128 0.398976
15400 -0.7506906300000001 4.76953371 -1.1454156 -0.332039 0.970481 0.549776
15420 -0.8222447700000001 3.91241439 -1.26726561 -0.680036 1.301382 0.684722
15440 -0.60654249 3.4703856 -2.50234461 -1.202084 1.411006 0.62966
15460 -0.020355750000000002 4.45713426 -2.7590625 -1.591043 1.278015 0.392105
15480 -0.83346741 6.659351730000001 -1.5117111900000002 -1.670983 0.856191 0.189125
15500 -4.28798043 11.66419791 -1.2867286500000001 -1.493174 0.8572639999999999 0.033337
15520 -5.979616830000001 19.01481129 -0.39098736000000006 -1.546968 0.988395 -0.21183
15540 -3.32383401 15.69172284 -5.02879239 -1.565022 1.028742 -0.428857
15560 0.9129480300000001 11.700122130000002 -10.00264878 -1.215319 1.116332 -0.524803
15580 3.7619780400000002 10.52940654 -6.099514650000001 -0.756745 1.0880459999999998 -0.508744
15600 1.43281917 14.44032 -1.04034069 -0.589159 0.958206 -0.418745
15620 -3.18463011 15.966549990000003 2.64933765 -0.450857 0.5322399999999999 -0.042287
15640 -6.3102825000000005 10.512484290000002 3.9125615400000004 -0.419052 0.327394 0.274391
15660 -3.4307139600000003 8.35367607 -0.73601487 -0.4517640000000001 0.0246 0.366418
15680 0.69754986 7.447310550000001 -1.6455294 -0.276319 -0.301095 0.410789
15700 1.6796583900000002 9.058858110000001 0.12080034 0.029657 -0.357418 0.6437350000000001
15720 1.44075546 10.49348232 1.9486485900000001 0.518388 -0.0228 0.722564
15740 -0.52510968 11.69637471 3.1165192800000003 1.13811 -0.099348 0.6799890000000001
15760 -4.04742942 10.60185339 -0.020355750000000002 1.573565 -0.122043 0.383957
15780 -4.54904415 9.62663148 -0.91624419 1.893333 -0.119284 0.21634
15800 -3.6095895000000002 8.44184835 -0.88046712 2.087785 0.434975 0.235148
15820 -1.49389623 6.608310300000001 0.8436501900000001 1.99144 0.723396 0.119805
15840 0.23845167 5.724095760000001 0.97536906 1.89846 0.962082 -0.081976
15860 1.21876497 6.812632980000001 0.8693916300000001 1.508346 0.694379 -0.196521
15880 2.14039485 8.19814833 0.21180771 1.385133 -0.777786 -0.367479
15900 1.6224759000000002 8.696614049999999 -0.8599642200000001 1.163821 -1.1094190000000002 -0.358986
15920 0.95666139 8.31715344 -0.8101196099999999 1.02538 -1.333534 -0.403463
15940 0.8827136099999999 8.282730149999999 -1.0355436 0.871597 -1.56963 -0.368983
15960 0.94498749 8.868004560000001 -1.57442652 0.595054 -1.586902 -0.338846
15980 -0.31404753 9.79712928 -1.1493101700000001 0.4784350000000001 -1.485994 -0.164601
16000 -0.89214102 9.82975734 -1.7455227299999998 0.272692 -1.473351 0.048658
16020 0.9894464100000001 9.69878403 -1.9130186700000003 -0.248097 -1.604191 0.186193
16040 4.10296383 10.018217250000001 -1.01982798 -0.694235 -1.795794 0.269849
16060 5.576955570000001 11.277399420000002 -0.77374413 -0.8664290000000001 -1.519823 0.402888
16080 3.18133395 13.496686290000001 0.01616688 -0.525017 -0.656611 0.554786
16100 -1.39150926 14.833249740000001 1.72426446 0.331853 -0.533295 0.408926
16120 -1.3506408 12.87292725 4.56026679 1.006831 -0.825616 0.199302
16140 -1.90194318 10.58867856 6.76697724 -0.449204 0.149952 -0.080242
16160 -3.70419714 10.79749422 3.6748554300000005 -0.578661 -0.294374 -0.207695
16180 -4.23065079 11.42948385 0.65519028 0.984655 -0.976107 -0.241835
16200 -3.5072025300000003 13.108239720000002 1.1094913800000001 1.438419 -1.077008 -0.177648
16220 -3.47727222 14.60258721 0.17543223 1.047901 -0.167792 0.026763
16240 -1.75404762 13.22066232 -0.87553269 -0.07624600000000001 0.256366 -0.108752
16260 0.22108797000000002 11.323947870000001 -0.7987400100000002 -0.8657879999999999 -1.050726 -0.223687
16280 1.60451379 10.08677934 -2.65622427 -0.322714 -1.029136 0.033248
16300 3.3280326900000006 9.218584530000001 -1.25379648 -0.019994 -0.113102 0.06302999999999999
16320 2.8572606000000005 7.729328430000001 -1.5590052 -0.450779 0.42006 0.305029
16340 1.7142386400000003 6.50112624 -1.41396435 -0.99336 0.784053 0.325342
16360 0.62390619 5.96299869 -1.07865855 -0.924693 1.13089 0.110664
16380 -0.42721569 5.57171703 -1.27085607 -0.485234 1.298926 0.06544900000000001
16400 -0.9458802000000001 5.017265640000001 -1.6137940499999999 -0.364641 1.477848 0.238046
16420 -0.84109959 4.2227145 -1.1805942600000001 -0.753124 1.511015 0.538665
16440 -0.61446897 3.07849572 -1.56080043 -1.292168 1.567823 0.652331
16460 -0.50145777 3.7235032200000004 -2.97985617 -1.672117 1.653791 0.5288579999999999
16480 -0.35566155000000005 5.35121766 -2.87687079 -1.609302 1.416852 0.320229
16500 -1.18958022 8.598572910000001 -2.05462602 -1.462969 1.162915 0.027815
16520 -4.9394331000000005 14.94476982 -1.39464846 -1.452428 1.089446 -0.256164
16540 -5.505254280000001 21.336926580000004 -1.45092843 -1.382583 1.141636 -0.314495
16560 -2.63976309 14.321314890000002 -7.24628403 -1.090707 1.224992 -0.367043
16580 1.1078433 8.85288735 -10.38420873 -0.795975 1.175404 -0.476016
16600 3.17519289 7.28010891 -4.752464310000001 -0.684884 0.926972 -0.516582
16620 -0.05627997 12.386596500000001 0.52211763 -0.5470520000000001 0.416768 -0.119723
16640 -4.684657590000001 13.45416975 3.10200048 -0.474123 0.126466 0.219785
16660 -5.27068737 12.53627748 4.1912832600000005 -0.562519 -0.116901 0.4171
16680 -1.3132156500000003 11.262576509999999 -0.00104967 -0.37839 0.06657 0.463016
16700 1.99864035 9.11544219 -0.14265702 -0.030694 0.119376 0.542289
16720 1.3395653100000002 11.20539402 1.35438822 0.339594 0.238053 0.646205
16740 -0.43424946000000003 10.831328910000002 2.66715261 0.814721 0.308874 0.6387510000000001
16760 -3.83233536 9.86957613 0.68048046 1.464534 -0.199303 0.352316
16780 -5.148690210000001 8.78658156 -0.7161103800000002 1.992698 -0.026242 0.03959
16800 -4.20041637 8.51922963 -0.52570809 2.057792 0.651199 0.001789
16820 -2.4002617500000003 8.438846490000001 0.48438837 2.039182 1.253165 -0.003385
16840 -0.30761217 7.15167639 0.8647515000000001 1.958386 1.402134 -0.156896
16860 1.3837201200000002 5.8405502700000005 1.1258054100000001 1.7020540000000002 0.8882969999999999 -0.373809
16880 1.91332278 6.6008252700000005 0.6032463299999998 1.393257 -0.249067 -0.459967
16900 1.89400689 8.02106802 -0.4167288 1.080544 -0.049785 -0.474157
16920 0.97956774 8.752746870000001 -1.24435926 0.8474649999999999 -0.691108 -0.531579
16940 1.22565159 9.23294637 -1.7130418200000002 0.882826 -1.062227 -0.461422
16960 1.7872839 9.2401371 -1.9233486000000002 0.782991 -0.888533 -0.388634
16980 1.3927060800000002 8.96411313 -1.91257722 0.519891 -0.835145 -0.191851
17000 0.08906499000000001 9.36902088 -2.36762388 0.117147 -0.8076909999999999 -0.048353
17020 0.22034241 9.61345665 -1.56858957 -0.351562 -1.0110370000000002 0.060797
17040 2.9780609399999998 9.58561587 -0.88301772 -0.796986 -1.002536 0.185861
17060 3.95073225 10.73088432 -0.6159699000000001 -0.984303 -0.765937 0.320982
17080 3.48820056 12.31953534 -1.0150407000000001 -0.757414 -0.490231 0.440786
17100 0.6134291099999999 14.22356805 -0.8295728400000001 -0.13000499999999998 -0.29192 0.387231
17120 -2.00867598 15.179336730000001 1.85704281 0.923926 -0.8960290000000001 0.29709
17140 -0.46807434000000003 12.511134450000002 5.06846403 -0.031913 0.17409000000000002 -0.084836
17160 -0.5396284800000001 9.322168320000001 7.7924950200000005 -0.436671 -0.06147100000000001 -0.232639
17180 -4.981635720000001 11.137293 4.30160652 0.603217 -0.65815 -0.037672
17200 -5.116807710000001 13.148205660000002 2.2339528200000003 1.624027 -1.107279 0.0384
17220 -3.7778408100000003 14.38808175 0.09145863 1.348519 -0.243216 0.245808
17240 -3.1802842800000004 13.639186350000001 -0.5213622600000001 0.160509 -0.007559999999999998 -0.113169
17260 -0.6843750300000001 11.840679810000001 -0.37676286000000003 -0.826678 -1.108482 -0.199839
17280 2.01690657 10.518174089999999 -0.98255979 -0.481542 -1.094243 -0.06391799999999999
17300 3.74655672 10.33106796 -1.65136635 -0.351005 -0.402913 -0.168578
17320 3.9098736000000005 8.56758312 1.32205446 -0.39518 -0.192115 -0.098654
17340 0.7620604200000001 7.75836603 -4.2650838900000005 -0.829614 0.283256 -0.05316
17360 0.8358610499999999 5.390595 -1.42308765 -1.20947 0.6917439999999999 -0.111884
17380 -0.18381978000000002 5.509590300000001 -1.27654587 -0.982341 0.548784 0.010595
17400 -0.7258419 5.34942243 -0.82373589 -0.6463220000000001 0.50535 0.457378
17420 -1.3837201200000002 4.67432766 -1.53895356 -0.770666 0.909393 0.7550939999999999
17440 -1.3642668900000001 3.68069238 -1.9248495300000001 -1.251653 0.979128 0.782623
17460 -1.1111394600000002 3.41230059 -2.20056939 -1.7306860000000002 0.58833 0.625954
17480 -1.17610128 4.33573551 -3.1261036500000006 -1.732318 0.250431 0.412731
17500 -0.90397188 6.364767240000001 -3.0247565400000003 -1.372853 0.496111 0.201283
17520 -0.75083778 9.59460183 -1.2536395200000001 -1.195124 0.6752520000000001 0.003605
17540 -2.87342748 15.331117050000001 -1.2424168800000002 -1.115553 0.652188 -0.158179
17560 -3.41739198 16.53835527 -2.19713589 -1.112235 0.8442139999999999 -0.229973
17580 -1.3085755200000002 14.431343850000001 -8.704550339999999 -0.686082 0.71795 -0.458638
17600 1.73743929 9.65717001 -9.521703720000001 -0.657346 0.495086 -0.428242
17620 2.6701446600000005 9.60627573 -4.05566982 -0.483747 -0.011559 -0.152915
17640 -1.92229893 12.976668 1.0449808200000001 -0.339272 0.18367 0.183265
17660 -6.10295796 14.63896269 4.723279560000001 -0.502945 0.046025 0.380988
17680 -3.84101721 12.665308410000002 0.8178989400000001 -0.280599 0.371258 0.373578
17700 1.7556957000000002 10.085876820000001 -0.65473902 0.224415 0.474879 0.396201
17720 1.6094482200000002 9.52574544 -0.022749390000000005 0.7751600000000001 0.551687 0.424519
17740 0.14969079000000002 10.63643364 0.5568450300000001 1.138711 0.482289 0.414328
17760 -1.46545704 10.057731930000001 1.39435416 1.300731 -0.093251 0.346763
17780 -3.90612618 9.210501090000001 -0.31808925000000005 1.63165 -0.248081 0.151652
17800 -3.81990609 9.53966583 -0.8421492600000001 1.823248 0.65652 0.206311
17820 -1.89206451 9.48712347 -1.13852898 2.078163 1.215453 0.069574
17840 0.11884815000000001 7.444916910000001 0.18561501000000002 1.898064 1.000879 -0.193123
17860 0.714168 5.536989630000001 1.31397102 1.575666 0.28586300000000003 -0.39208
17880 0.46298295 5.56767531 1.29945222 1.397724 -0.395214 -0.412746
17900 0.55400013 6.921602460000001 0.07110288000000001 1.385818 -0.660466 -0.402876
17920 -0.04715667 8.68838346 -1.00291554 1.143787 -0.2161 -0.229947
17940 -0.20387142 9.35689572 -0.86250501 0.8109689999999999 -0.204288 -0.231219
17960 0.25701219000000003 8.808879690000001 -1.11008979 0.599067 -1.101421 -0.271074
17980 1.45886472 8.52013215 -0.7994855700000001 0.3928 -0.903786 -0.232175
18000 0.5783976000000002 8.94943737 -2.2120961400000003 0.002803 -0.6006739999999999 -0.037667
18020 0.6140275199999999 9.80266212 -1.8535995 -0.530863 -0.488675 0.1219
18040 -0.07320222000000003 10.00414971 -0.3912816600000001 -0.895344 -0.560157 0.198494
18060 2.75831694 9.80925444 0.82672794 -1.040125 -0.385368 0.30301300000000003
18080 3.6116888400000002 11.244761550000002 0.49143195 -0.750157 -0.160691 0.342138
18100 1.5153016500000003 13.72151187 -1.03689738 -0.069094 -0.388595 0.268139
18120 -2.1445935300000003 15.39982629 -0.66596166 0.7313149999999999 -0.611738 0.232355
18140 -1.35977391 13.60311498 2.27975571 -0.318237 0.240402 -0.169174
18160 -0.04415481 9.70342416 6.1864803 -0.141835 -0.238179 -0.253854
18180 -1.7500157100000002 8.42552451 7.14134646 1.472731 -0.533958 -0.147126
18200 -4.48482789 12.76305525 2.73167298 2.181262 -0.311382 0.054091
18220 -3.03434091 15.98720004 0.14833701000000002 0.554461 0.138684 -0.26336
18240 -2.6168567400000002 15.207775920000001 -0.15373251000000002 -0.94725 -1.201334 -0.052078999999999986
18260 -1.91257722 12.488826509999999 -0.21061089 -0.799121 -1.271917 0.154145
18280 1.1805942600000001 9.600134670000001 -0.8240400000000001 -0.437017 -0.538904 0.080959
18300 2.81863863 9.34013043 -1.0901853000000001 -0.194303 -0.537151 -0.034852
18320 2.2324617 9.56226807 -1.53790389 -0.483231 -0.394857 0.062291999999999986
18340 1.47593412 8.1587808 -1.34405829 -1.139441 0.8630389999999999 0.146895
18360 0.5084915400000001 5.246888310000001 -0.55385298 -1.179085 0.630776 0.189645
18380 -0.42107463000000006 4.9075407900000005 -1.7594431200000002 -0.6940000000000001 0.622522 0.500692
18400 -0.25791471 5.17009563 -1.1006623800000002 -0.469456 0.8800100000000001 0.649345
18420 -0.24234624000000002 4.8835945800000005 -1.52278668 -0.7885989999999999 1.06974 0.631918
18440 -0.6378265799999999 4.69484037 -1.4895504000000002 -1.45599 1.026864 0.47776
18460 -1.6853481900000002 3.9923462700000005 -2.292930540000001 -1.798941 0.7347899999999999 0.289868
18480 -1.3305793499999998 4.631369670000001 -3.5260671600000006 -1.480928 0.8546030000000001 0.155203
18500 -0.6980011199999999 6.400838610000001 -3.74296626 -1.215978 1.18376 -0.070899
18520 -0.5918667300000001 8.47133721 -2.6941006800000005 -1.186057 0.941789 -0.324617
18540 -1.45781505 12.554994960000002 -1.5834026700000001 -1.084729 0.820459 -0.44019
18560 -2.29742352 16.698228840000002 -0.01002582 -0.974214 0.537564 -0.386713
18580 -2.01256074 14.10995844 -6.52941828 -0.990056 0.358562 -0.364161
18600 0.21840003000000002 15.15523356 -9.014409 -0.443343 0.179049 -0.168901
18620 0.8494871400000001 14.42146518 -4.41356805 -0.406556 0.17110899999999998 0.186016
18640 -2.5908111899999997 16.27699725 3.90478221 -0.328313 0.165962 0.339325
18660 -4.5613164600000005 11.366464410000003 4.174223670000001 -0.08132400000000001 0.55062 0.368331
18680 -0.8062250400000001 6.872209110000001 -1.9636186500000001 0.377786 0.626789 0.369304
18700 2.3656815 6.959478870000001 -0.54546543 0.94518 0.646929 0.435198
18720 1.3223487600000001 10.50979635 -0.32991030000000005 1.215696 0.466366 0.599689
18740 -0.7328756700000001 12.646002330000002 0.60025428 1.244257 -0.27007 0.391461
18760 -1.9779903 10.819203750000002 1.7323479000000002 1.811866 -0.10566 0.07688500000000001
18780 -5.14180359 9.49191075 0.16854561000000004 1.946989 0.999621 0.07854900000000001
18800 -4.1851422000000005 9.23325048 -0.30282489 2.07797 1.490925 -0.087809
18820 -1.89536067 8.58195477 -0.42781410000000003 1.84847 1.2253040000000002 -0.329421
18840 -0.5110421400000001 6.458315399999999 0.4249692 1.544616 0.620931 -0.5080939999999999
18860 0.39397941000000003 5.144648490000001 1.4576679000000001 1.418794 0.076294 -0.594801
18880 0.85188078 6.286179330000001 1.7169265800000002 1.415515 -0.129491 -0.5454220000000001
18900 0.7815234600000001 8.303085900000001 -0.6652161000000001 1.226148 -0.14628 -0.445242
18920 1.26920799 9.46601235 -1.9995428700000002 0.277754 0.926132 -0.342146
18940 1.31531499 9.16154919 -1.8045004500000001 0.564774 -1.160854 -0.296874
18960 2.1044706300000002 8.37388467 -1.37025099 0.420819 -0.5949909999999999 -0.222761
18980 2.27077956 8.52192738 -1.4043799799999999 -0.044206 -0.66423 -0.087052
19000 0.74679606 9.024130710000001 -1.5530210999999998 -0.721666 -0.76149 0.04721
19020 -0.30491442 8.39424042 -0.2894931 -1.098838 -0.819036 0.113015
19040 0.27258066000000003 9.33279255 -0.27901602 -1.041966 -0.8496020000000001 0.248047
19060 2.30520285 11.20734621 0.9906432300000001 -0.47108 -0.7135640000000001 0.365092
19080 1.4579720100000002 13.21541397 -0.40565331 0.437554 -0.935494 0.464659
19100 -0.9168426000000001 14.033764170000001 -0.33395202000000007 0.690275 -0.273798 0.205998
19120 -2.74679019 15.0417711 0.90561996 -0.549859 0.036447 -0.112846
19140 0.265851 11.753410050000001 4.92026436 -0.27581300000000003 -0.436563 -0.077211
19160 0.6135762600000001 8.534955060000001 8.344395810000002 1.082442 -0.869613 -0.052213
19180 -4.569694200000001 10.34828451 4.11704118 1.452327 -0.717342 0.17557
19200 -5.195101320000001 14.049332640000001 0.30506157000000006 0.504854 -0.119223 0.073114
19220 -3.37309002 16.45168392 -0.10537902 -0.5755680000000001 -0.4418510000000001 -0.093185
19240 -2.4138780300000002 14.32879992 -0.027389520000000004 -0.496984 -0.943026 -0.037514
19260 0.14923953 11.01993597 -0.32931189000000005 -0.372004 -0.278291 0.119535
19280 2.11854798 9.68950377 -1.08105219 -0.171594 -0.125399 0.07266900000000001
19300 1.9237998600000001 9.755211150000001 -1.7007597 -0.242585 0.020643 0.109374
19320 1.1518509600000002 8.48585601 -1.82844666 -0.705281 0.8147909999999999 0.114739
19340 0.70668297 5.89548627 -1.1837432700000001 -1.002614 0.8702280000000001 0.095499
19360 0.8963397000000001 4.2858909 -2.9585979000000004 -0.723774 0.580164 0.197163
19380 0.18920547 4.30235208 -2.27511558 -0.5660270000000001 0.757729 0.410614
19400 0.8658011700000001 4.862493270000001 -1.32265287 -0.863466 0.888403 0.490622
19420 0.21943989 5.013528030000001 -1.64926701 -1.476543 0.950292 0.463827
19440 -0.10987200000000001 4.77761715 -2.00762631 -1.915493 0.729657 0.342471
19460 -0.29429019 4.456683 -3.9275316 -1.7788099999999998 0.530883 0.11615
19480 -0.25492266 5.970934980000001 -4.72866525 -1.568083 0.921934 -0.090115
19500 -0.42571475999999997 7.852522410000001 -3.7610755200000003 -1.555415 1.2080229999999998 -0.249558
19520 -1.4575207500000003 11.25524844 -1.8645180300000002 -1.334783 1.2886540000000002 -0.358147
19540 -4.21598484 17.739756540000002 -1.00231713 -1.151669 1.384111 -0.412538
19560 -4.37914476 16.57083618 -5.5580909400000005 -0.818472 1.354599 -0.51379
19580 -0.65503332 12.2593608 -8.85678192 -0.557702 0.731722 -0.28470700000000004
19600 0.56627244 9.04433931 -6.8397282 -0.524995 0.296597 0.07606900000000001
19620 -0.23291883000000002 11.40837273 -1.5658918200000003 -0.5355810000000001 0.118676 0.356098
19640 -2.88285489 12.80466927 4.12541892 -0.388769 0.30336 0.397479
19660 -3.2277352500000003 12.363543 4.139790570000001 -0.035976 0.11732 0.5283680000000001
19680 -1.3666605300000003 10.76022603 0.19878984000000002 0.461029 0.213058 0.664177
19700 1.6534656900000002 10.547515800000001 -0.93585438 0.991753 0.299707 0.646408
19720 0.22812174000000002 10.24813422 -0.5204695500000001 1.453899 -0.13663699999999998 0.407709
19740 -0.6019023600000001 9.45942984 0.9860031 1.865633 -0.181752 0.144656
19760 -2.05373331 9.12038643 1.3362691500000001 1.953365 0.297519 0.094448
19780 -3.9471417900000003 8.93491857 0.11690577 2.017429 0.7406229999999999 0.051599
19800 -3.37233465 9.89547453 -0.6277909500000002 2.007759 1.032154 -0.117621
19820 -1.18389042 8.81576631 -0.36763956000000003 1.708616 0.75378 -0.306293
19840 -0.00494424 6.746474340000001 0.5198711400000001 1.450616 -0.050132 -0.441661
19860 0.7530842700000001 5.700591 1.5124567500000001 1.343499 -0.705625 -0.528095
19880 1.06802451 6.1454745 1.1900216700000001 1.083541 -0.47533 -0.6178
19900 0.6059440800000001 7.87946067 -0.21630069000000005 0.974264 -1.340808 -0.670866
19920 0.34607718 9.16004826 -1.12835601 0.866816 -1.386736 -0.5476439999999999
19940 0.49786731 9.17561673 -1.15844328 0.5877720000000001 -1.001254 -0.269144
19960 1.26322389 8.90977554 -1.1837432700000001 0.18734 -0.844208 -0.034997
19980 1.2530411099999998 8.753050980000001 -1.74162816 -0.480686 -0.943772 0.13458399999999998
20000 0.29010132000000005 9.71045793 -2.00657664 -0.898184 -0.971277 0.18191
20020 0.22228479 10.1598246 -0.40041477000000003 -0.8212889999999999 -0.923728 0.212296
20040 2.5607239200000005 9.51975153 -0.05478885000000001 -0.605186 -0.423266 0.345624
20060 3.74356467 10.97009136 -0.5215192200000001 -0.123427 -0.264199 0.375491
20080 2.70443061 12.834913499999999 -0.81880146 0.821473 -0.859626 0.340125
20100 -1.00171872 14.809754790000001 -0.21555513 0.096418 0.176038 -0.150171
20120 -2.54635227 14.789840490000001 2.09250243 -0.562426 -0.006801000000000001 -0.209018
20140 0.56596833 11.29895199 5.76601389 0.427903 -0.737532 -0.280213
20160 -1.5946351200000002 9.12083769 6.72911064 1.576387 -0.8364459999999999 -0.249631
20180 -3.7673637300000005 10.92308184 3.7266522300000005 1.812705 0.060602 0.056381
20200 -4.221674640000001 12.335996520000002 1.6031698200000002 0.0008619999999999999 0.412218 -0.255827
20220 -3.80732967 13.938715080000001 0.4980144600000001 -0.614744 -1.094591 0.138114
20240 -3.57411654 14.060859390000001 -0.38888802 -0.28862 -0.311106 0.5271520000000001
20260 -0.55280331 12.54691152 -0.33305931000000005 -0.176169 0.150204 0.418388
20280 2.2129986600000002 10.801987200000001 -0.83750913 -0.279669 -0.068013 0.201096
20300 3.1695129 10.242454230000002 -0.67464351 -0.808732 0.350681 0.116747
20320 2.5300382400000005 8.95362624 -0.21106215 -1.346875 0.868547 0.015116
20340 0.7403607000000001 7.07054769 -1.3190526 -0.949839 0.605456 0.195552
20360 -0.16810416000000003 5.75956872 -1.77037146 -0.556898 1.008624 0.529997
20380 -0.47885553000000003 5.41618929 -0.79799445 -0.717812 1.132426 0.612035
20400 -1.2386694600000003 4.7518659 -0.52929855 -1.010022 1.014713 0.465935
20420 -1.40722488 4.74079041 -1.2084350400000001 -1.386552 0.8431489999999999 0.273381
20440 -1.04333274 4.48138458 -1.7612383500000002 -1.7466509999999995 0.613665 0.165406
20460 -1.052613 3.36036645 -3.0305934900000002 -1.7240259999999998 0.5649770000000001 0.06735
20480 -0.8207438400000001 4.64155245 -4.20954948 -1.459994 0.901697 -0.184406
20500 -0.8282288700000001 6.52253166 -3.412899 -1.363135 1.066455 -0.444586
20520 -2.39681844 9.75910572 -1.9881632700000003 -1.180256 1.047116 -0.5618569999999999
20540 -4.65786648 17.079778980000004 -0.79305021 -0.894811 0.917314 -0.5831970000000001
20560 -3.6405792900000002 18.051861690000006 -3.6229114800000004 -0.566709 0.776846 -0.372422
20580 -0.64635147 12.03722316 -8.6358411 -0.506861 0.545758 0.088696
20600 2.1489295500000005 9.74832453 -7.89368517 -0.571797 0.177209 0.401703
20620 1.7368408800000001 13.29100983 -1.40378157 -0.5020220000000001 -0.031560000000000005 0.33516
20640 -3.6485155800000006 17.8472349 4.5276387300000005 -0.26507800000000004 0.102449 0.449875
20660 -5.25347082 11.28563001 4.8847914 -0.055834 0.236589 0.55585
20680 -0.28650105 7.156767780000001 -1.56080043 0.256438 0.397438 0.553553
20700 2.62285065 6.923407500000001 -0.4326013800000001 1.120966 -0.014583 0.543028
20720 1.19406339 10.08243351 0.54785907 1.6023889999999998 -0.031941000000000004 0.470569
20740 0.29593827000000006 12.024195480000001 2.02858047 1.944977 -0.117907 0.359841
20760 -1.52862363 11.219020109999999 2.3553515700000003 2.120944 0.686394 0.468998
20780 -4.62283497 10.434946049999999 -0.04699970999999999 2.1853 1.171137 0.402596
20800 -4.07871351 9.94921371 -1.3966006500000003 2.065825 1.254108 0.004277
20820 -1.8503033400000002 8.87055516 -0.9316655100000001 1.7184720000000002 0.745484 -0.371375
20840 -0.22213764000000003 6.782241600000001 0.01122264 1.451261 -0.261651 -0.559958
20860 1.30184586 5.007534120000001 0.63707121 1.295327 -0.70348 -0.489978
20880 1.88428518 5.85043875 1.1244614400000001 1.211917 -0.426549 -0.407595
20900 1.6551039600000002 7.44806592 0.63393201 0.968045 -0.6129939999999999 -0.457129
20920 0.42361542 8.97263802 -0.9066598200000001 0.713266 -1.094462 -0.511703
20940 0.03622833 8.42807511 -1.45542141 0.420018 -0.952199 -0.402839
20960 0.29967588 8.14561578 -1.19556432 0.084242 -0.900795 -0.179855
20980 -0.17992521 8.79765705 -1.4718924000000002 -0.424701 -1.025212 -0.060404999999999986
21000 -1.66454118 10.23182019 -2.4650764200000004 -0.8820610000000001 -1.0582280000000002 0.067834
21020 -1.30349394 10.307563200000002 -0.92971332 -0.901763 -0.912186 0.326019
21040 3.59851401 9.20046546 0.77838426 -0.499065 -0.8992530000000001 0.471957
21060 6.035896800000001 10.68477732 -0.27138384000000004 0.270284 -0.6037819999999999 0.506862
21080 2.9286577800000004 12.6672606 -2.32256655 1.073901 -1.063425 0.470336
21100 0.17992521 14.195884229999999 -1.22520033 -0.011342 -0.238335 -0.327718
21120 -2.38888215 13.28143527 0.72479223 -0.644929 -0.931805 -0.5833550000000001
21140 -0.92702538 12.42101979 3.6824876100000004 0.370376 -0.254827 -0.530129
21160 -0.06840513000000001 8.65021275 5.10872427 1.29094 -0.71206 -0.471838
21180 -2.46312423 9.60133149 5.516182620000001 1.307213 0.289385 -0.241204
21200 -4.64438754 13.23038403 3.07849572 0.098884 0.4616270000000001 -0.17615699999999998
21220 -4.22586351 14.810951610000002 0.8767295100000001 -0.72349 -1.0221049999999998 -0.045404
21240 -4.7621958300000005 14.951803589999999 0.13157172 -0.53886 -0.7394069999999999 0.226851
21260 -3.67905411 13.600721340000002 -0.18980388 -0.189278 -0.207582 0.127131
21280 -0.07753824000000002 10.85527512 -0.24444558 -0.424059 -0.131494 0.21726
21300 2.9428822800000005 9.50283909 -0.8403540300000001 -1.00054 0.219039 0.17005499999999998
21320 3.6595910700000003 8.923538970000001 -1.1677235400000001 -0.985844 0.441366 -0.029884
21340 2.60099397 7.48399014 -1.43521281 -0.6831020000000001 0.6245930000000001 -0.025868
21360 0.3912816600000001 5.766455340000001 -2.07213687 -0.708833 0.706376 0.323156
21380 -0.69006483 6.18752997 -1.2921143400000001 -0.911108 0.92508 0.6835899999999999
21400 -0.7599708900000002 6.32360448 -0.9174410100000001 -1.3548440000000002 1.218369 0.7175020000000001
21420 -0.49995684000000007 4.60666809 -1.43072964 -1.838847 1.340159 0.517413
21440 -0.37916631 4.09488039 -1.6881930900000002 -1.83761 0.883123 0.258429
21460 -0.02798793 3.60869679 -2.23679772 -1.647445 0.806301 0.124192
21480 0.26599815 4.06060425 -3.6872847 -1.479931 1.268001 -0.129467
21500 0.15762708 5.522912280000001 -5.561239949999999 -1.2165629999999998 1.343233 -0.25697800000000004
21520 -0.28905165000000005 7.566011550000001 -3.5076537900000004 -1.015825 1.321461 -0.3143
21540 -3.5164827900000004 12.53627748 -1.7525565 -0.7159409999999999 1.2271299999999998 -0.427453
21560 -6.17391369 22.410052290000003 -1.86212439 -0.50738 0.864223 -0.429804
21580 -4.790791980000001 15.793207290000002 -8.10309924 -0.442084 0.290621 -0.0996
21600 0.55489284 8.51699295 -8.087677919999999 -0.490634 0.014665 0.220881
21620 1.38881151 10.9377576 -4.16837691 -0.464562 -0.06978 0.270309
21640 -1.67831442 14.5097748 1.4043799799999999 -0.272644 0.19883 0.330058
21660 -4.88404584 13.138474140000001 3.6182713500000006 -0.7471899999999999 0.87218 0.716849
21680 -2.91069567 9.866731230000001 0.6822855 0.80828 0.0012779999999999998 0.5771430000000001
21700 1.91227311 8.64811341 -0.23980545000000003 1.104544 -0.231235 0.6574909999999999
21720 2.7896010300000005 9.30000753 0.42556761000000004 1.547927 -0.566325 0.421735
21740 1.79986032 12.47176692 1.1921210100000001 1.968208 -0.283719 0.246984
21760 -0.1907064 11.0245761 2.7632513700000003 1.994891 0.533905 0.350808
21780 -4.24891701 9.1131957 0.88465599 2.076782 1.029612 0.19158
21800 -5.520822750000001 7.632032850000001 -0.06526593 1.896686 1.0366799999999998 -0.087425
21820 -4.2968192400000005 8.25353559 -0.06496182 1.598734 0.240861 -0.346996
21840 -1.9377202500000001 8.41729392 0.53888292 1.316072 -0.950124 -0.366672
21860 0.01018278 6.42867939 1.15425441 1.218866 -1.271268 -0.424623
21880 0.88914897 6.022574820000001 1.8263473200000002 1.183707 -1.262615 -0.427017
21900 1.15244937 7.32636306 0.80802027 0.98022 -1.148124 -0.37731
21920 1.2790866600000002 8.51908248 -0.38529756 0.742568 -0.912581 -0.200879
21940 0.41837688 9.23894028 -1.67935428 0.515967 -0.84957 -0.044445
21960 0.5267577600000001 8.780440500000001 -1.4049783900000001 0.241582 -1.282523 0.03965
21980 1.0496209500000002 8.827744319999999 -1.19840922 -0.292554 -1.312054 0.162008
22000 0.43080615000000005 9.48442572 -1.94984541 -0.539788 -1.1666459999999998 0.243416
22020 -0.05074713 10.25128323 -2.74229721 -0.613504 -0.937412 0.257562
22040 1.42279335 10.517428530000002 -1.2633710399999998 -0.491295 -0.513023 0.315556
22060 3.8962475100000002 10.42642116 -0.59306355 0.089898 -0.8727239999999999 0.253847
22080 3.86181441 10.97517294 -1.14481719 0.663489 -0.752101 0.227788
22100 1.72201797 12.90301452 -1.44180513 -0.297739 0.127116 -0.095178
22120 -1.2734066700000002 14.992377750000001 0.09609875999999999 -0.115048 -0.644316 -0.210418
22140 -3.5313057000000003 13.28127831 0.17528508000000004 1.155312 -0.78799 -0.280408
22160 0.7457463900000001 10.399620240000003 6.87340593 1.586367 -0.588929 -0.085373
22180 -1.08583947 8.829686700000002 7.39911402 0.910666 0.186241 0.055261000000000005
22200 -4.19098896 11.73289734 3.95866854 -0.551508 -0.158121 0.06044400000000001
22220 -3.84625575 13.930180380000001 1.60571061 -0.669856 -1.518256 0.107293
22240 -3.87393957 14.6572191 0.09340101 -0.217109 -0.929784 0.137476
22260 -3.88067904 13.729899420000002 -0.34638129 -0.167782 -0.23298 0.066425
22280 -0.12798126 10.827434340000002 -0.32467176000000003 -0.7743479999999999 -0.052184 0.134595
22300 3.47591844 9.063203940000001 -0.52974981 -1.191508 0.643889 0.117971
22320 3.90148605 9.600585930000001 -0.7039852200000001 -0.957468 0.586132 -0.026667000000000003
22340 2.5836302700000005 8.93551698 -1.6573504500000003 -0.432725 0.706177 0.133873
22360 0.8214894 7.3348977600000005 -1.7055567900000002 -0.426995 0.920941 0.500038
22380 -0.32706539999999995 5.84968338 -1.3781872800000001 -0.963972 1.07105 0.722558
22400 -0.81416133 4.8674277 -0.5568450300000001 -1.504449 1.103024 0.654648
22420 -1.14137388 5.27099148 -1.2840309 -1.6856240000000002 1.017887 0.524237
22440 -1.0990143 5.87034324 -1.21127994 -1.500177 0.816542 0.365557
22460 -0.7717919400000001 4.99975479 -1.81168137 -1.293968 0.815984 0.060419000000000014
22480 -0.8358610499999999 3.80718252 -3.00380238 -1.245595 0.7747609999999999 -0.062036
22500 -0.5641731000000002 4.59573975 -3.1744473300000005 -1.105199 0.8480479999999999 -0.12951600000000002
22520 -1.27744839 6.070624200000001 -1.60466094 -0.871441 1.171783 -0.304554
22540 -2.9404886400000003 10.51009065 -1.85434506 -0.677862 1.305109 -0.513813
22560 -3.53056014 18.31097322 -2.1174983099999998 -0.621088 1.044328 -0.349644
22580 -3.08628486 16.39570806 -5.71496265 -0.582723 0.381465 -0.051561
22600 0.34188831000000003 12.701389590000002 -8.712780930000001 -0.510965 0.200249 0.182045
22620 2.8630975500000004 11.3368284 -5.87543463 -0.446653 0.086873 0.240323
22640 0.1414602 13.74950961 -0.41344245 -0.5997060000000001 0.31922 0.343642
22660 -3.7748487600000002 13.334723190000002 2.6879596200000004 0.112186 0.329837 0.5344720000000001
22680 -4.476146040000001 9.079517970000001 2.87671383 0.580299 0.280242 0.543146
22700 -0.1850166 8.668322009999999 -0.10837107 1.101239 0.326444 0.525362
22720 2.2659922800000003 8.50666302 0.6036975900000001 1.61539 0.12405 0.34441
22740 0.82763046 12.35336022 1.29900096 1.896991 0.288428 0.28527800000000003
22760 -0.6436635300000001 11.48052528 2.5691114699999997 1.970398 0.8214540000000001 0.390861
22780 -3.97318734 9.63456777 0.9996193800000001 1.976924 1.175699 0.24197
22800 -4.8791016 8.249346720000002 -0.8189486100000001 1.7287689999999998 1.143944 -0.126123
22820 -3.75314904 8.28452538 -1.3674060900000002 1.405102 0.249443 -0.460523
22840 -1.6013745900000003 8.27658909 -0.42167304000000005 1.1904290000000002 -0.72358 -0.43407
22860 0.24084531 6.914872800000001 0.9243276300000001 1.017356 -1.019102 -0.440241
22880 1.3488455700000002 6.44484627 1.0057604400000002 0.945639 -1.31073 -0.442505
22900 1.9447540200000002 7.565570100000001 0.21180771 0.695797 -1.331252 -0.421791
22920 1.6887915 8.37208944 -0.8333202600000001 0.484908 -1.143467 -0.31347800000000003
22940 0.72509634 8.52791148 -1.5609573900000002 0.298188 -0.988986 -0.155815
22960 0.8916995700000001 8.56129491 -1.4756300100000002 -0.107977 -1.03917 -0.041083
22980 0.8565209100000001 8.489897730000001 -1.6643842199999999 -0.6474949999999999 -1.0570540000000002 0.103654
23000 0.06856209 8.85977397 -2.2796085600000007 -0.991284 -0.93513 0.280558
23020 -0.93121425 9.91956789 -2.3245187400000002 -0.959585 -0.403109 0.407216
23040 0.54441576 9.918223919999999 -0.7186511700000001 -0.464133 -0.15417 0.328104
23060 2.2182372 9.922412790000001 -0.39143862 0.422883 -0.477179 0.149912
23080 3.9939943500000004 11.140432200000001 -0.42601887000000005 0.286579 -0.135052 -0.041622
23100 3.1599285300000006 11.868667740000001 -1.2019996800000001 -0.542288 0.258153 -0.151533
23120 1.4853615300000003 13.912071120000002 0.79110783 0.344258 -0.15121500000000002 -0.31145900000000004
23140 -1.88173458 14.58986364 1.3274401500000002 1.855353 -0.454048 -0.216126
23160 -0.36194976 11.663001090000002 4.29202215 1.840853 -0.104538 0.037561
23180 -0.5167221300000001 9.47021103 6.3920096100000015 0.381217 0.6851189999999999 -0.100764
23200 -3.72994839 10.39049694 4.98987612 -0.826942 -0.439441 0.054607
23220 -4.68121428 12.836110320000001 2.31763212 -0.826256 -0.997544 0.294609
23240 -3.6748554300000005 14.325209460000002 0.42317397000000007 -0.515378 -0.5783149999999999 0.14776
23260 -3.29464926 14.449149000000002 -0.28874754 -0.367859 -0.196827 -0.009795
23280 -0.9692378100000001 12.714858720000002 -0.41208867000000005 -0.760376 0.100535 0.026607
23300 2.12872095 10.36608966 -1.0235754000000001 -1.257618 0.832902 0.060651
23320 3.98725488 9.35405082 -0.94647861 -1.131174 0.809721 0.15343099999999998
23340 3.6215675100000007 8.398733400000001 -1.44869175 -0.399218 0.8954139999999999 0.466082
23360 2.11929354 7.45240194 -1.9143724500000001 -0.299885 1.0957 0.642776
23380 1.02881394 6.61235202 -1.29945222 -0.935629 1.131968 0.648971
23400 -0.21061089 5.954768100000001 -1.07102637 -1.515849 0.988775 0.464572
23420 -1.07806014 5.035679010000001 -1.4000341500000002 -1.7734279999999998 0.724009 0.299674
23440 -1.59238863 4.394409120000001 -1.5167927700000001 -1.539507 0.6682680000000001 0.183875
23460 -1.3099292999999999 3.86077455 -1.5413472000000001 -1.33869 0.695263 -0.08074400000000001
23480 -0.78841008 3.43865025 -2.8448313300000003 -1.398674 0.428947 -0.295535
23500 -0.82478556 4.406985540000001 -3.66363279 -1.266019 0.398039 -0.406732
23520 -1.38790899 6.855590970000001 -3.0072456900000004 -1.073121 0.491503 -0.503781
23540 -2.7369115200000005 10.276583220000001 -1.2957048 -0.8404200000000001 0.4462390000000001 -0.5747359999999999
23560 -3.4305668100000006 16.071183450000003 0.6179122800000001 -0.732777 0.5168520000000001 -0.4779350000000001
23580 -2.63691819 16.09812171 -3.1726521 -0.668738 0.193373 -0.092513
23600 -1.13149521 14.48896779 -8.89480548 -0.552311 0.051134 0.211857
23620 1.70764632 14.086453680000002 -7.548353550000001 -0.383015 0.1521 0.390235
23640 1.4172507000000003 14.296770270000001 -1.77336351 -0.158118 0.193565 0.481484
23660 -2.4578856900000003 12.38134815 3.7538946 0.281823 0.041935 0.722965
23680 -4.99107294 9.57947481 0.9342063 0.833664 0.186668 0.81316
23700 -1.26052614 8.61967422 -0.62704539 1.320304 -0.13415 0.700534
23720 2.0881566 7.812703620000001 -0.6712002000000001 1.797275 0.268172 0.375406
23740 1.88128332 10.257571440000001 0.36075294 2.111025 0.390126 0.241777
23760 -0.15313410000000002 11.27665386 1.61529498 1.92517 0.7298819999999999 0.153517
23780 -2.71325961 10.79225568 2.02064418 1.901028 0.764162 -0.139388
23800 -4.99032738 9.77077962 -0.8101196099999999 1.614686 1.012843 -0.275235
23820 -3.7456640100000005 9.59744673 -1.64388132 1.6908279999999998 -0.13676300000000002 -0.563786
23840 -1.34525511 8.45546463 -0.96144867 1.467032 -0.568434 -0.577615
23860 0.39667716000000003 6.076166850000001 1.1743060500000002 1.21577 -0.390967 -0.51764
23880 1.34166465 5.630096340000001 1.12056687 1.069761 -0.616207 -0.540804
23900 1.91197881 7.33250412 0.86384898 0.816133 -0.75607 -0.509282
23920 1.73010141 8.6127876 -0.49636638 0.496041 -0.671162 -0.419759
23940 0.80218332 8.95811922 -1.6115475600000002 0.150912 -0.611015 -0.243854
23960 0.56462436 8.71457616 -1.1570895 -0.30848600000000004 -0.54951 -0.042043
23980 0.9053158500000001 8.402627970000001 -1.13689071 -0.815823 -0.7603439999999999 0.108507
24000 0.8059209300000001 8.368194870000002 -1.21711689 -1.016826 -0.943473 0.257957
24020 0.07978473 8.787179970000002 -1.2928599000000003 -0.7316050000000001 -0.7245119999999999 0.398538
24040 -0.23471406 9.581122890000001 -1.99774764 0.006803 -0.690895 0.408994
24060 0.8226862200000001 9.27965178 -0.10148445 0.799393 -0.894164 0.4714060000000001
24080 2.8409465700000003 9.5672025 0.13905675 0.216235 0.093263 -0.066975
24100 3.0756508200000003 11.1577959 -0.6330294900000001 -0.45405 -0.068161 -0.409009
24120 1.91721735 13.313612070000001 -0.37347651000000004 0.635502 -0.240305 -0.395836
24140 -1.7931208500000002 14.86409238 0.8990276400000001 1.393682 -0.252825 -0.320022
24160 -0.66896352 13.89710106 4.2508593900000005 1.179278 0.465929 -0.323509
24180 0.47990520000000003 10.379862900000001 8.088874740000001 0.099731 0.335168 -0.25397
24200 -3.9603166200000004 12.32432262 4.761303120000002 -0.393758 -0.395298 0.094964
24220 -4.0835106 13.17515373 2.3716656 -0.303744 -0.266876 0.136021
24240 -4.64813496 13.821505200000002 1.5675399000000003 -0.277955 -0.162932 -0.039121
24260 -5.0436153 14.176274040000001 1.00635885 -0.349396 -0.155221 -0.040698000000000005
24280 -2.5334815500000003 12.43285065 0.33994593000000006 -0.892307 0.332616 0.178143
24300 1.0930302 10.78058178 -0.9862974000000001 -1.26184 0.733332 0.188936
24320 2.9906275500000006 10.33810173 -0.68647437 -0.77781 0.800315 0.334304
24340 3.10109796 9.51930027 -0.7807779 -0.309777 1.11022 0.483523
24360 2.0392047 7.91135298 -0.8110123200000001 -0.37434 1.054782 0.550441
24380 0.00299205 6.412669470000001 -1.2436137 -0.762424 1.054243 0.488978
24400 -0.62001162 5.879476350000001 -0.5471135100000001 -1.259275 1.048826 0.409671
24420 -0.8782206300000001 4.98224394 -0.7463448 -1.668907 0.92828 0.274505
24440 -0.42286986 4.09279086 -1.12596237 -1.619196 0.7271920000000001 0.169356
24460 -0.37407492000000003 4.00911156 -1.62232875 -1.385812 1.0113370000000002 0.038162
24480 0.13756563000000002 3.51872928 -2.5086328200000003 -1.310655 1.086722 -0.23060100000000006
24500 0.43709436 3.6964178100000002 -4.07347497 -1.270812 1.024313 -0.375521
24520 0.12109464000000002 5.809864590000001 -4.00298031 -1.137095 1.050692 -0.428032
24540 -0.8240400000000001 8.90977554 -2.63840931 -0.910011 0.89485 -0.546955
24560 -2.6144631000000005 13.55490864 -1.01444229 -0.6393220000000001 0.26055 -0.400042
24580 -5.52845493 19.83615354 -1.8818817300000001 -0.64227 0.013899000000000002 0.011519
24600 -3.8425083300000002 14.931153540000002 -7.7168991600000005 -0.790038 -0.316883 0.27583
24620 0.44442243000000003 11.5537275 -7.4702169000000005 -1.542247 0.910597 0.32455
24640 -0.62180685 12.85795719 -2.52015957 0.196759 0.091183 0.469139
24660 -3.1118791500000005 15.66821808 3.46768785 -0.025364 0.351713 0.777038
24680 -4.245326550000001 10.640475359999998 1.90628901 0.476008 0.381744 0.824298
24700 -1.67487111 7.74294471 0.23216346000000002 1.329709 0.365156 0.7693939999999999
24720 1.55407077 7.841289960000001 0.47615778 1.801048 0.127666 0.344634
24740 2.06330787 11.848459140000001 0.78871419 2.081117 0.477092 0.098315
24760 0.98974071 12.38524272 1.1666738700000001 1.886452 0.528149 0.019978
24780 -0.6541406099999999 10.04067234 2.44142451 2.020924 0.821401 -0.171739
24800 -3.96854721 9.01051443 0.59695812 1.908987 0.88754 -0.363817
24820 -4.35518874 8.28362286 -1.05740028 1.659713 0.487793 -0.612874
24840 -3.2060355300000003 8.681948100000001 -0.5643300600000001 1.49904 -0.433906 -0.681181
24860 -1.66229469 8.05100814 0.42945237 1.469443 -0.603208 -0.6747609999999999
24880 -0.01227231 6.525533520000001 0.99258561 1.315069 -0.467634 -0.61192
24900 0.6141746700000001 5.781572550000001 0.9737209800000001 0.995234 -0.596712 -0.556305
24920 0.77014386 6.752605590000001 0.50669631 0.5579069999999999 -0.430651 -0.413226
24940 0.77613777 7.699839570000001 -0.96159582 0.273299 -0.797388 -0.362401
24960 0.98255979 8.43764967 -1.8372756600000002 -0.037901 -0.7322420000000001 -0.133922
24980 0.7189552800000001 8.46100728 -1.59074055 -0.481425 -0.6815180000000001 0.086173
25000 1.4572166400000002 8.47926369 -1.3697997299999998 -0.8181149999999999 -0.6161800000000001 0.28883600000000004
25020 1.4572166400000002 9.04074885 -2.07588429 -0.779537 -0.692446 0.413117
25040 0.51807591 9.680664960000001 -2.4584841 -0.416535 -0.629815 0.419845
25060 -0.023946210000000002 10.65708369 -0.5921708400000001 0.323428 -0.469507 0.448309
25080 3.3424043400000003 9.71449965 0.94827384 0.775135 -0.868474 0.195603
25100 3.5374467600000004 10.600058160000001 0.19699461000000001 -0.193503 -0.238516 -0.390947
25120 1.3974933600000001 12.827124360000001 -1.24915635 -0.359031 -0.524447 -0.404555
25140 -2.77881984 13.84919883 -3.22519446 0.7324689999999999 -0.608808 -0.500441
25160 -2.50444395 14.699137230000002 3.03029919 1.335429 -0.906554 -0.356979
25180 -0.07978473 13.15958526 4.98748248 1.120812 0.040016 -0.322303
25200 -0.0865242 10.30411989 8.180343180000001 -0.08830299999999999 0.192461 -0.101276
25220 -3.44927448 11.316619799999998 5.057231580000001 -0.6017979999999999 -0.888891 -0.164366
25240 -4.72432923 11.885737140000002 3.5802576000000004 -0.258657 -0.8288989999999999 -0.013563
25260 -4.50353556 13.24056681 1.62127908 0.070854 -0.455867 -0.079038
25280 -4.277503350000002 14.16683682 0.71805276 -0.395158 -0.189865 0.13742
25300 -1.7546558400000003 13.12815402 -0.53259471 -1.144657 0.362696 0.33337100000000003
25320 1.3611178800000001 11.23473573 -0.94618431 -1.231756 0.316659 0.200362
25340 3.7522465200000004 10.773842310000001 -0.95980059 -0.787301 0.400666 0.384956
25360 3.4317636300000003 9.55493019 -1.02925539 -0.551127 0.7238020000000001 0.623337
25380 1.80120429 7.494614370000001 -0.9770171400000001 -0.689709 0.7795569999999999 0.653276
25400 -0.06196977000000001 5.81316075 -0.86953878 -0.9640000000000001 0.932033 0.589208
25420 -1.0352493 4.44321387 -0.33260805000000004 -1.305576 1.000862 0.456411
25440 -1.18793214 4.33753074 -1.2930070500000002 -1.557891 0.903545 0.236856
25460 -0.7505434800000002 4.806203490000001 -1.4572166400000002 -1.513456 0.7778579999999999 0.194599
25480 -0.13172868000000001 4.595141340000001 -1.7010638100000002 -1.36307 0.891775 0.081203
25500 0.05837931 3.8883112200000003 -2.45609046 -1.297888 0.8597 -0.212061
25520 0.07768538999999999 3.89998512 -3.8040433200000003 -1.173317 0.8419549999999999 -0.410926
25540 -0.32198382000000003 5.864800590000001 -4.54455117 -0.975421 0.896906 -0.471571
25560 -0.44607051 8.74391787 -3.0198221100000002 -0.768408 0.638504 -0.499704
25580 -3.49882479 13.482461790000002 -1.34136054 -0.580024 0.164454 -0.3963
25600 -6.384073320000001 20.92753566 -1.59313419 -0.462151 0.165784 -0.032283
25620 -3.2945021100000003 13.89096 -7.46512551 -0.5481010000000001 0.097752 0.271647
25640 0.7605693 9.71779581 -8.258175720000002 -0.525107 0.241434 0.284443
25660 1.15290063 11.272013730000001 -3.52307511 -0.22522 0.103713 0.365762
25680 -2.0441489400000004 15.21047367 1.12371588 0.384864 0.38886 0.456184
25700 -3.32368686 12.80122596 2.89588257 0.746293 0.095719 0.456948
25720 -4.70202129 8.228392560000001 1.35018954 1.180065 -0.031389 0.432367
25740 -0.46778004 9.43158906 -0.9137034 1.521109 -0.582386 0.199378
25760 2.11599738 9.66300696 0.21120930000000002 1.786259 -0.339945 0.080211
25780 1.82186415 12.41518284 0.9993250800000001 1.779689 0.120185 0.103076
25800 1.11518118 10.551557520000001 2.2674834 1.914845 0.440679 0.024561000000000003
25820 -1.60525935 9.37485783 1.84880241 1.874119 0.391741 -0.22242
25840 -4.028270490000001 8.730448740000002 -0.52226478 1.690003 -0.147045 -0.389658
25860 -4.08500172 8.76053601 -0.55100808 1.436898 -0.715932 -0.429153
25880 -3.41619516 8.49274263 -0.30027429 1.276198 -0.918621 -0.484495
25900 -1.94790303 7.189395840000001 0.5566880700000002 1.198799 -0.975106 -0.4112560000000001
25920 -0.11331531000000002 5.58712854 0.5730119100000002 1.062982 -0.954763 -0.319296
25940 0.67704696 6.0299127 1.0177384500000002 0.784085 -0.984955 -0.252839
25960 0.98270694 7.48129239 0.3962259 0.591788 -1.235865 -0.210063
25980 1.00097316 8.4653433 -0.6948521099999999 0.248166 -1.287688 -0.006229999999999999
26000 0.64591002 8.63060256 -1.3135197600000001 -0.224394 -1.366511 0.13477999999999998
26020 1.0509649200000002 8.40951459 -1.0734200100000002 -0.576852 -1.409131 0.176169
26040 1.8702078300000002 8.77130739 -1.12072383 -0.6808770000000001 -1.256573 0.210499
26060 0.91190817 9.70821144 -1.61140041 -0.448076 -0.603826 0.341611
26080 -0.86250501 10.622061990000002 -1.1744532 0.24437 -0.581796 0.359239
26100 -0.89333784 10.76666139 -0.52092081 0.857648 -0.693372 0.291026
26120 2.562372 10.8483885 0.11496339000000001 -0.266658 -0.112544 -0.12883699999999998
26140 2.88704376 11.21019111 -1.16727228 -0.366 -0.654263 -0.169429
26160 1.5968816099999998 13.620174570000001 -1.4633577 1.033507 -0.714518 -0.167054
26180 -2.4822831600000006 14.39092665 -1.6040625300000002 1.6952330000000002 -0.7090529999999999 0.023432
26200 -0.71206866 14.28749001 1.96615944 1.107328 0.69706 0.013251
26220 1.33267869 11.28069558 5.58503901 -0.840203 0.105225 -0.011345
26240 0.16450389 8.81951373 6.67177119 -0.971234 -1.61422 0.124539
26260 -2.87163225 11.078315279999998 4.13335521 -0.204283 -0.860842 0.20157
26280 -3.45706362 12.78955206 2.1254346 0.112011 -0.374716 0.103812
26300 -3.34764288 14.030320860000002 0.5587874100000001 -0.44164 -0.07152 0.15296700000000002
26320 -3.1829820300000002 13.193861400000001 0.46522944000000005 -1.340488 0.465549 0.090453
26340 -1.0434798900000002 11.2733577 0.11241279000000001 -1.355134 0.258012 0.055365
26360 2.24607798 9.73425699 -0.73167885 -0.812865 0.111247 0.32319200000000003
26380 2.59200801 9.755368110000001 -0.52556094 -0.523654 0.468937 0.665516
26400 1.21218246 9.42994098 -0.8029288800000001 -0.808897 0.76974 0.813758
26420 0.07035732 8.18962344 -1.3218975000000002 -1.378451 0.94576 0.712346
26440 -0.6554845799999999 6.41071728 -1.2578382000000001 -1.804177 0.639514 0.410662
26460 -0.49382559000000004 5.12130069 -0.7707520800000001 -1.829662 0.458279 0.201345
26480 -0.3972755700000001 4.46251995 -0.95531742 -1.514566 0.6335270000000001 0.059112
26500 -0.05673123 4.848268770000001 -0.9758203200000001 -1.44051 0.689787 -0.221386
26520 -0.2806641000000001 4.47150591 -1.3537800000000002 -1.297601 0.675341 -0.461787
26540 -0.41059755000000003 3.17279925 -2.09040309 -1.039001 0.965417 -0.4998770000000001
26560 -0.38110869 4.50712602 -3.2034849300000006 -0.8154100000000001 0.857072 -0.505654
26580 -1.20993597 6.253100010000001 -2.9114412300000003 -0.5586439999999999 0.627858 -0.41704
26600 -3.2840250300000005 10.15638129 -3.1753498500000004 -0.495442 0.385224 -0.001818
26620 -5.41169631 17.03113119 -2.67628572 -0.502772 0.127875 0.424681
26640 -4.04324055 18.05305851 -3.12520113 -0.514524 -0.059787 0.478251
26660 0.10403505 11.690086500000001 -7.87153419 -0.295285 0.109682 0.531908
26680 2.06136549 9.704022570000001 -7.591017240000001 -0.014406 0.029498000000000007 0.626908
26700 1.44180513 13.601614050000002 -2.71325961 0.048777 -0.117882 0.664926
26720 -3.1045412700000004 18.871859970000003 3.8423611800000006 1.00003 -0.22022600000000006 0.658883
26740 -6.1929254700000005 11.27694816 4.7837484 1.447026 -0.357614 0.529722
26760 -1.78084854 7.803874620000001 -1.4907472200000003 1.908519 -0.349134 0.406884
26780 1.73444724 6.27914556 -0.8937891 2.050881 0.252158 0.430609
26800 1.40287905 9.20405592 -0.16870257000000002 2.117884 0.7861560000000001 0.299001
26820 1.05156333 10.75992192 2.07633555 1.972963 0.95742 -0.046198
26840 -0.75638043 11.726010720000001 2.80052937 1.688257 0.465288 -0.338112
26860 -4.18110048 10.7239977 0.3239262 1.300182 -0.728328 -0.40766
26880 -4.34905749 10.08617112 -0.896634 1.160131 -1.367666 -0.5093
26900 -2.5542885600000003 8.556056370000002 -0.9202859100000002 1.229923 -1.349475 -0.59002
26920 -1.1017120500000002 6.18229143 0.50310585 1.107881 -1.179771 -0.565453
26940 0.118701 4.7749194 1.2249060300000003 0.928686 -1.095292 -0.4909689999999999
26960 0.67000338 6.15115449 1.27489779 0.600953 -0.790883 -0.142203
26980 1.04752161 7.84578294 0.72509634 0.198322 -1.004068 -0.027238
27000 0.6412698900000001 9.080420490000002 -0.6634208699999999 -0.354225 -1.315899 0.111375
27020 -0.03173535 8.91021699 -0.6942537000000001 -0.667708 -1.379259 0.243863
27040 0.17094906 8.31311172 -0.99004482 -0.757792 -1.170453 0.31881
27060 0.6786852300000001 8.55935253 -1.3350723300000003 -0.650948 -0.540668 0.440526
27080 -0.44412813 9.640404720000001 -1.2789395099999998 -0.02312 -0.447975 0.425565
27100 -1.53071316 10.023455790000002 -0.9229836600000001 0.913048 -0.648011 0.35438000000000003
27120 0.90890631 9.978398460000001 -0.84724065 -0.130237 0.124413 -0.097209
27140 4.37974317 10.22523768 -0.24608385000000002 -0.577916 -0.52384 -0.366561
27160 4.223018610000001 11.102408640000002 -1.7702145 0.394747 -0.617707 -0.379943
27180 1.8627228 13.738728420000001 -1.91017377 1.281549 -0.946102 -0.277188
27200 -1.70271189 13.907126880000002 0.32631984 1.587755 0.107153 0.065433
27220 -0.35880075000000006 12.66381729 3.46335183 0.255878 0.701965 -0.208484
27240 0.28530423000000005 9.654021 6.0116464800000005 -1.092176 -0.854791 0.257317
27260 -1.04333274 9.30495177 6.752154330000001 -0.7488229999999999 -0.710792 0.445402
27280 -3.3591598200000004 12.10472577 4.643494830000001 -0.13459000000000002 -0.272246 0.000477
27300 -4.197718620000002 13.90952052 2.55892869 0.045623 -0.06097 -0.243158
27320 -4.25879568 15.041918250000002 1.0409391000000001 -0.498347 0.13839300000000002 -0.07736599999999999
27340 -4.52539224 14.397362009999998 0.06840513000000001 -1.246614 0.8968229999999999 0.049964
27360 -0.8357139 11.34101727 0.027389520000000004 -1.16651 0.868084 0.24070300000000006
27380 2.69574876 9.195374070000002 -0.28156662 -0.589913 0.95468 0.462537
27400 3.9737857500000002 9.85011309 -0.39412656000000007 -0.259435 1.039244 0.606811
27420 2.8749186 9.75042387 -1.0240168500000002 -0.524101 1.205501 0.551338
27440 1.162485 7.71914565 -1.66454118 -1.28042 1.127585 0.445742
27460 -0.27677934 6.03245349 -1.1066464800000002 -1.949465 0.771304 0.346454
27480 -0.67629159 5.129835389999999 -0.56462436 -1.74964 0.7252689999999999 0.230404
27500 -1.1696659200000001 4.13081442 -0.7342196400000001 -1.256672 1.16785 -0.053003
27520 -1.42593255 4.72268115 -1.51394787 -1.363205 0.975257 -0.2821
27540 -0.78302439 3.91975227 -1.64657907 -1.459545 0.598757 -0.350657
27560 -0.4770603 3.02535495 -2.9662300800000003 -1.35226 0.7039569999999999 -0.377816
27580 -0.09700128 4.14308673 -3.0159275400000007 -1.086357 0.747816 -0.387765
27600 -0.94633146 6.32584116 -2.25430857 -0.719852 0.619942 -0.162851
27620 -3.3434442000000004 11.443100130000001 -1.28372679 -0.73707 0.030389 0.231958
27640 -4.95574713 20.171753640000002 -0.1070271 -0.456938 -0.20855 0.334634
27660 -3.2212998900000005 16.933384349999997 -6.14711277 -0.264668 0.27989200000000003 0.29796300000000003
27680 1.14017706 12.167598060000001 -9.06245838 -0.104555 0.70476 0.469452
27700 2.9591963100000003 7.711660620000001 -6.880743810000001 0.169633 0.690013 0.456431
27720 1.76857623 11.53860048 -0.95905503 0.812141 0.595799 0.5497029999999999
27740 -4.51056933 15.57630819 3.65734458 1.265467 0.231488 0.6857949999999999
27760 -7.5300873300000015 15.280075620000002 5.15183922 1.867691 -0.208135 0.612585
27780 -2.27571399 10.01866851 -0.97761555 2.27212 0.398159 0.490719
27800 1.1569423499999998 6.89511546 -0.59322051 2.154836 0.829182 0.4295270000000001
27820 1.11518118 8.765019180000001 0.83915721 2.02949 0.827874 0.066526
27840 0.14309847 11.136841740000001 1.9883104200000001 1.664942 0.765663 -0.309818
27860 -0.46463103000000006 10.383757470000003 2.7677443500000005 1.457372 -0.0509 -0.52173
27880 -4.0383061200000006 10.8600624 0.99662733 1.248421 -0.979036 -0.5369550000000001
27900 -4.832249040000001 10.33496253 -0.75562506 1.309652 -1.163381 -0.576883
27920 -2.2538671200000002 9.06066315 -0.32482872 1.270384 -1.097277 -0.556946
27940 -0.17573634 6.80739444 0.10972485000000001 0.979313 -1.065328 -0.568634
27960 0.90411903 5.64086772 1.5497249400000002 0.631998 -1.059331 -0.435404
27980 0.8872065900000001 6.351288300000001 2.03800788 0.310904 -0.963643 -0.110893
28000 0.51628068 8.040383910000001 0.47122335000000004 -0.13258399999999998 -1.251238 -0.000391
28020 0.12334113000000002 8.924294340000001 -1.7312982300000002 -0.610059 -1.529028 0.08529199999999999
28040 -0.06840513000000001 8.92623672 -2.0389104000000002 -0.760434 -1.451002 0.150372
28060 0.6185106900000001 7.91374662 -0.93764961 -0.704073 -0.8956139999999999 0.272899
28080 0.74799288 7.15182354 -1.46500578 -0.280119 -0.443791 0.401332
28100 0.25806186000000003 7.572603870000001 -2.5747914599999997 0.519069 -0.6723720000000001 0.394388
28120 0.24084531 9.00407907 -1.9820320200000001 0.743901 -0.227049 0.19029
28140 1.9878689700000003 10.64750913 0.8390100600000001 -0.519493 0.180017 -0.078635
28160 3.9953383200000006 11.42993511 1.3332771 -0.5196890000000001 -0.630546 -0.372427
28180 1.7311510800000003 12.573555480000001 -0.9243276300000001 0.706913 -0.925697 -0.352799
28200 -0.9996193800000001 12.991932360000002 -2.33020854 1.163689 -1.227198 -0.209285
28220 -2.9244689100000003 12.540319199999999 -0.13831119 1.347769 -0.437095 -0.019936
28240 -1.2810388499999998 11.757451770000001 1.85927949 0.101109 0.499897 -0.158031
28260 1.2458601900000001 10.762021260000001 5.9857480800000005 -1.046491 -0.475608 -0.034474
28280 1.3970421 9.48757473 7.73382141 -0.699534 -1.017295 0.32863400000000004
28300 -2.5186586400000004 13.00121262 5.13940995 -0.07363 -0.232008 0.008329000000000001
28320 -3.3488397 15.332166720000002 2.69678862 -0.152842 0.07550599999999999 -0.101577
28340 -3.67740603 15.269598540000002 1.45706949 -0.690457 0.535704 0.098108
28360 -4.12257402 13.571830890000001 0.68123583 -1.245691 0.805445 -0.009733
28380 -0.92267955 10.98774936 -0.14669874000000002 -1.174527 0.465611 0.197366
28400 2.72538477 9.51181524 -0.95396364 -0.634634 0.561499 0.524686
28420 3.78727803 9.80461431 -1.2521484 -0.412557 1.105061 0.7968689999999999
28440 2.2498254 9.84532581 -1.5380510399999998 -0.825073 1.1757879999999998 0.7832140000000001
28460 0.80457696 8.50785984 -1.36126503 -1.378598 1.0176690000000002 0.578725
28480 -0.34877493 6.06523851 -0.89768367 -1.774319 0.544968 0.319125
28500 -0.38020617 4.736895840000001 -0.32887044 -1.6952470000000002 0.428092 0.174549
28520 -0.24818319 4.60398015 -0.61118262 -1.379298 0.761127 7.2e-05
28540 -0.54037404 4.62014703 -1.2843252 -1.343032 0.788471 -0.209081
28560 -0.63093996 4.03231221 -1.53161568 -1.191125 0.73738 -0.351096
28580 -0.38245266 2.8915367400000003 -2.74005072 -0.8996879999999999 0.8923840000000001 -0.472104
28600 -0.14474655 4.40519031 -3.19061421 -0.628872 0.807469 -0.5171060000000001
28620 -0.74485368 6.6663855000000005 -2.27706777 -0.5391640000000001 0.539021 -0.329196
28640 -2.82672207 10.27209024 -1.2356774099999999 -0.479863 0.133442 0.07873
28660 -5.29897941 17.06107131 0.11077452 -0.461665 -0.206822 0.439284
28680 -3.80837934 18.4950873 -3.80464173 -0.390898 -0.105958 0.462082
28700 -0.032932170000000004 12.88610208 -9.19208772 -0.174744 0.118797 0.545557
28720 3.0419730900000004 8.4767229 -8.391395520000001 0.241068 0.5328039999999999 0.5479310000000001
28740 3.28221999 9.53532 -3.94145199 0.683972 0.29596100000000003 0.518213
28760 -0.86534991 14.0731317 0.8330161500000001 1.108149 0.110647 0.672033
28780 -4.589902800000001 14.98608954 4.934488860000001 1.520748 -0.460583 0.641464
28800 -6.75963936 12.684477150000001 4.52389131 2.169639 -0.049064 0.531169
28820 -1.9176587999999999 10.52970084 -0.9629496000000001 2.2539580000000004 1.084451 0.708699
28840 1.0873404 6.75679446 -0.39412656000000007 2.236916 1.7705689999999998 0.43744
28860 1.0234184400000002 8.99719245 1.04257737 1.825544 1.335263 -0.102191
28880 1.13508567 9.50597829 2.6432064000000004 1.501868 -0.113933 -0.514929
28900 -0.9831582000000001 10.460393190000001 2.6429022900000003 1.307351 -1.1423020000000002 -0.518174
28920 -4.2252651 10.25038071 0.01571562 1.397924 -1.191523 -0.542048
28940 -4.25609793 10.05488703 -1.5054229799999999 1.248491 -1.235627 -0.5718770000000001
28960 -2.32196814 8.4767229 -1.3739886 0.787798 -1.251883 -0.6359630000000001
28980 -0.5547456900000001 6.667131060000001 0.58079124 0.46316 -1.224502 -0.542125
29000 0.6116240700000001 5.03388378 1.32684174 0.115577 -0.936517 -0.065291
29020 1.29645036 5.7697515 1.20469743 -0.299823 -1.17403 0.01757
29040 1.2650191200000003 7.672293090000001 0.05538726 -0.8793280000000001 -1.306821 0.161107
29060 0.8692444800000001 8.87953131 -1.31366691 -1.132447 -1.203263 0.323712
29080 0.30985866000000006 9.02249244 -1.14811335 -0.924357 -1.141343 0.376361
29100 0.43334694 8.685685710000001 -0.76715181 -0.365669 -0.967589 0.396064
29120 0.7093709100000001 8.78822964 -1.6199351100000001 0.5035149999999999 -0.841569 0.36245
29140 0.26435007 9.822272309999999 -1.7058510900000003 0.7272390000000001 -0.613675 0.187464
29160 0.54561258 10.55170467 -0.96144867 -0.5380010000000001 0.117042 -0.297669
29180 2.4737582700000003 10.22224563 -0.6361785000000001 -0.628236 -0.400964 -0.681127
29200 5.00678856 10.3394457 0.17064495 1.031152 -0.350158 -0.705921
29220 4.038453270000001 11.36526759 -0.88825626 1.754202 -0.509748 -0.318242
29240 0.9904862700000001 13.9601205 -1.26472482 1.200287 0.23967800000000006 -0.238682
29260 -3.71137806 13.52976561 -0.5394813299999999 -0.464639 0.012692 -0.106879
29280 -1.00425951 12.27732291 3.27833523 -0.622577 -0.73861 0.100215
29300 0.33291216 9.047184210000001 6.9864171299999995 -0.10776199999999997 -0.39729 0.078805
29320 -1.19601558 9.13775013 7.52111118 0.08142200000000001 0.026544 -0.048603
29340 -5.319040860000001 12.938938740000003 4.04249499 -0.422708 -0.050717 -0.003956
29360 -4.52254734 15.47676612 1.01234295 -1.192697 0.436998 0.17591099999999998
29380 -4.0621051800000005 15.366599820000001 -0.39532338 -1.186968 0.77462 0.188337
29400 -4.39381071 14.1858486 -0.00329616 -0.712514 1.1078629999999998 0.356799
29420 -0.93001743 10.94763627 0.31524435000000006 -0.395066 1.367225 0.489007
29440 3.52173114 9.26438742 -0.19578798 -0.559509 1.279715 0.670636
29460 4.89302199 9.668392650000001 -1.13553693 -0.961867 1.388039 0.570479
29480 2.6749417500000003 8.93896029 -1.9543383900000002 -1.596372 1.28016 0.393133
