time Ax Ay Az Gx Gy Gz
20 0.49023513 9.901605779999999 0.6418683000000001 -3.039043 -0.17816500000000002 -1.027265
40 -0.43035489 10.081383839999999 1.8824899500000003 -3.261979 0.012567 -0.8464
60 0.07065161999999998 11.25793638 3.0123370800000004 -3.067625 -0.026034 -0.685828
80 0.19774017000000002 11.31826788 -0.37601730000000005 -2.8188150000000003 1.392381 -0.502174
100 -1.74597399 12.50858385 -1.53775674 -2.875906 1.508584 -0.740935
120 -3.3015358800000003 12.281207670000002 1.3680045 -2.787808 -0.585784 -1.074126
140 -1.57113036 13.913562240000001 1.13209362 -2.460275 0.6719430000000001 -1.00081
160 -2.01900591 14.402149290000002 0.7309332900000001 -2.126544 0.600575 -1.025093
180 -2.14698717 14.634616860000001 -0.73302282 -2.033723 -0.945083 -1.38566
200 1.7003182500000003 14.618754090000001 4.4652177 -2.295945 -1.967397 -1.512232
220 5.97467259 13.401185940000001 0.66760974 -2.151311 -2.45934 -1.425133
240 7.10512794 13.419893609999999 -4.794980850000001 -1.887218 -2.67162 -1.049139
260 6.4810746 14.300811990000001 -0.33919056000000003 -1.449356 -2.500759 -0.734378
280 4.60891458 15.55430436 2.72134305 -0.7748689999999999 -2.207952 -0.484351
300 2.44531908 15.43111038 -1.25664138 -0.104088 -1.773518 -0.21744
320 1.5117111900000002 12.17613276 2.45159748 0.524986 -1.2012040000000002 -0.028977
340 1.5329596500000002 9.62887797 0.56462436 1.2326629999999998 -0.754672 0.111058
360 0.8514295199999999 9.19328454 -2.1106116900000003 1.853653 -0.276358 0.104101
380 0.36479466 7.351064640000001 -2.17707444 1.998451 0.2244 -0.040808
400 0.50714757 5.47815906 -1.21876497 1.34625 0.838241 -0.068583
420 0.9487251000000001 3.81811086 -1.5473313000000002 -0.410869 -0.17363399999999998 0.088151
440 1.48595994 2.65278096 -0.59920461 -1.100716 -1.10432 -0.469882
460 2.62733382 2.71430928 0.64904922 -1.182025 -1.414161 -0.969981
480 3.2373196200000005 2.32392033 1.1523022199999997 -0.793357 -1.465091 -1.091114
500 2.7274743000000004 1.8585339300000001 1.94580369 -0.061074 -0.98972 -0.459562
520 0.84260052 2.34757224 2.4039993600000003 0.7166710000000001 -0.878799 -0.101758
540 -0.02425032 4.189939290000001 3.25752822 1.681961 0.78667 -0.515893
560 -0.31479309 6.62177943 5.804478899999999 1.503903 2.806449 -0.897875
580 0.90890631 9.43951554 9.83080701 -0.957551 -0.217013 -0.5768409999999999
600 2.41073883 14.728773240000002 11.584413180000002 -0.385182 -0.325156 0.395105
620 2.8951272 16.47623835 11.354937660000001 0.844621 -0.7484810000000001 0.7631600000000001
640 1.08958689 15.832427670000001 7.27532163 3.94466 3.988057 0.127129
660 -0.55549125 9.42979383 6.754400820000001 3.359087 5.388407 1.021755
680 -1.18643121 2.30295636 9.69024933 0.715526 1.011408 0.861484
700 0.9198346500000001 5.788459169999999 9.608963670000001 1.507981 -0.364064 0.4917
720 1.93458105 8.14471326 4.283046 2.237823 1.120355 0.535488
740 2.6355644100000006 19.72972485 -6.18319395 2.177982 0.504361 0.6533640000000001
760 5.48100396 24.807017880000004 -3.8377210500000003 1.776777 0.224649 0.621009
780 7.287898050000001 3.95776602 3.54986622 1.604618 0.629985 0.637447
800 8.24021361 -5.87931939 -1.47398193 1.817341 0.985892 0.426969
820 -0.20013381 3.02640462 6.09458022 1.7961759999999998 0.991425 0.393699
840 -3.20962599 14.39092665 -7.9974161100000005 1.594359 1.333504 0.537129
860 -0.69096735 18.359316900000003 -6.279439860000001 1.4349889999999998 1.253061 0.545733
880 -1.48177107 16.29556758 2.2829047200000003 1.425505 1.132354 0.636621
900 0.35790804000000004 8.67879909 2.18320569 1.4555049999999998 0.5915779999999999 0.7806649999999999
920 1.2928599000000003 6.699023370000001 0.22931856000000003 1.585027 0.21295100000000006 0.7820550000000001
940 1.6251736500000002 6.229448100000001 -0.70892946 1.453021 0.368464 0.634587
960 0.7881157799999999 7.30510479 -0.95995755 1.0056770000000002 0.308087 0.404008
980 0.7804737900000001 9.5205069 0.52106796 0.595067 0.539768 0.364524
1000 0.19264878 10.20098736 0.61776513 0.225057 0.700383 0.479238
1020 -0.10552617 8.55650763 0.87268779 0.076323 0.033356 0.382914
1040 0.10642868999999999 7.82572149 -0.2689902 -0.33221100000000003 0.025192 0.115152
1060 -0.00074556 8.3437974 -0.76401261 -0.933874 -0.280354 -0.20912600000000006
1080 0.24833034 8.52507639 0.02544714 -1.969951 -0.380005 -0.763165
1100 0.49411989 9.366175980000001 0.12962933999999998 -2.879649 -0.272767 -1.217242
1120 -0.5269049100000001 10.364598540000001 0.27138384000000004 -3.4235290000000003 -0.031944 -1.030138
1140 -1.66363866 9.63815823 1.03943817 -3.250495 -0.131885 -0.696584
1160 -1.46694816 10.21535901 2.3772082500000002 -2.89093 1.2255969999999998 -0.289887
1180 -0.06765957 10.116415349999999 0.82598238 -2.959158 2.397636 -0.555717
1200 -0.28769787 11.97360531 -0.14295132 -2.9542740000000003 -0.165186 -0.883547
1220 -1.5114070800000001 12.55603482 0.87747507 -2.850868 -0.038407 -0.975923
1240 -1.8670686300000001 13.81970997 1.1126403900000001 -2.462723 0.995168 -0.8442129999999999
1260 -2.8009708200000003 15.27094251 0.77539221 -2.346875 -0.32826500000000003 -1.120514
1280 -1.7142386400000003 15.351776910000002 -1.6278615900000002 -2.59925 -1.962376 -1.439581
1300 2.0272365 16.1089029 3.78697392 -2.554748 -3.038226 -1.4977120000000002
1320 5.942790090000001 14.96438001 1.00036494 -2.153737 -2.723564 -1.148142
1340 7.279363350000001 13.77885132 -4.0023819000000005 -1.645776 -2.2891470000000003 -0.7360220000000001
1360 7.3057032 13.559401620000003 0.13426947 -0.936811 -2.09154 -0.418334
1380 5.322935429999999 15.200595000000002 3.38864868 -0.124641 -1.7174650000000002 -0.098014
1400 1.9134699300000002 15.416738730000002 -2.5503939900000003 0.651759 -1.371464 0.081086
1420 0.47855142 11.68200306 2.40729552 1.390555 -1.141215 0.202387
1440 0.49547367000000003 9.41422536 -0.40101318 2.032995 -0.818733 0.252395
1460 1.3654637100000002 9.06035904 -2.37945474 2.239733 -0.6871470000000001 0.200259
1480 0.95097159 7.94771865 -2.8856997900000003 1.458041 0.239457 -0.140742
1500 1.0340524800000002 5.77903176 -1.7564510700000002 -1.084128 -0.941304 0.040635
1520 0.8984292300000001 2.29847319 -1.3105277100000001 -0.934245 -0.8240270000000001 -0.911322
1540 1.33521948 1.0674261 -0.03666978 -0.882545 -0.8705620000000001 -1.306143
1560 2.04983874 1.0503665100000001 0.48139632000000004 -0.43441 -0.589854 -1.030976
1580 2.4727086000000003 1.3212990900000001 1.31172453 -0.7135819999999999 -0.055729 -0.09678
1600 2.1248361900000003 1.27384812 1.8815874300000002 -0.782984 0.378306 0.112619
1620 0.7475416199999999 2.1248361900000003 2.60068986 -0.355621 0.5159189999999999 -0.837426
1640 -0.49876002 4.13410077 4.02647526 1.048252 -0.121341 -1.198545
1660 -0.48993102000000005 7.509280320000001 7.93799694 1.33994 1.096168 0.170325
1680 -0.48723327000000005 13.58784081 10.97172963 1.035796 3.01161 0.680629
1700 4.01989275 19.38992607 13.76417556 4.0845410000000015 5.578854 0.984918
1720 5.43115935 14.18330781 10.742263920000001 1.844303 1.184792 1.278276
1740 3.6208219500000003 10.7672598 5.15782332 1.785732 0.174173 0.71514
1760 2.83899438 7.44177771 7.32023181 2.273313 0.720704 0.547998
1780 4.48347411 9.69099489 9.752219100000001 2.1707810000000003 1.206792 0.822261
1800 4.690945800000001 18.33462513 6.57567243 1.936696 0.451046 0.8750049999999999
1820 -0.37751823000000007 25.79136309 -6.5629488600000006 1.959899 -0.110327 0.8481129999999999
1840 2.4932115 0.34832367 -3.4925365800000003 1.892966 0.613434 0.796511
1860 8.781038910000001 -8.11866771 -2.4650764200000004 1.809156 0.664967 0.503167
1880 2.6177592600000006 1.18193823 10.38361032 1.585767 0.725746 0.416071
1900 -1.20185253 17.96368941 -8.344248660000002 1.4812040000000002 1.227739 0.444608
1920 -0.96399927 21.71848653 -5.9719846500000004 1.356854 1.140641 0.488716
1940 -2.37481461 14.431039740000001 1.29645036 1.385684 0.7238060000000001 0.541794
1960 0.16825131000000002 8.74960767 1.5199417800000004 1.464464 0.262063 0.593143
1980 2.07827793 6.25504239 0.6947049599999999 1.608898 0.287385 0.528958
2000 2.5267420800000004 6.457118580000001 -0.41418801000000005 1.638307 0.800068 0.432366
2020 1.9553880600000002 7.337595510000001 0.7412632200000001 1.144772 0.857341 0.390389
2040 0.20671632 8.832384450000001 1.4642504099999998 0.650083 0.8965049999999999 0.34949600000000003
2060 -0.7566747300000001 10.52895528 0.0318825 0.140399 0.775565 0.399502
2080 -1.17805347 9.286842510000001 0.28546119000000003 -0.048735 0.381374 0.306819
2100 -0.44607051 7.1548254 1.0901853000000001 -0.382196 0.16555999999999998 0.220377
2120 0.26284914 7.61811246 -0.36359784 -1.061387 0.105583 -0.17526
2140 0.5619266099999999 8.87055516 -0.07304525999999999 -2.069279 -0.208935 -0.567525
2160 0.6523453800000001 9.1217304 -0.30161826 -2.895897 -0.242159 -1.131937
2180 0.08801532 9.393418350000001 -0.27513126000000004 -3.474264 -0.02816 -1.133046
2200 -0.51552531 10.07554689 1.02267288 -3.08734 -0.350136 -1.13634
2220 -0.35341506000000006 10.05519114 2.38603725 -2.805855 1.134653 -0.796582
2240 0.09445068 10.683286200000001 3.3224900400000004 -2.6507080000000003 2.461284 -0.755538
2260 -0.88690248 11.17546371 -0.09640287000000002 -2.578612 -0.199386 -1.18105
2280 -2.47256145 12.90825306 -0.82194066 -2.501427 -0.103943 -1.406028
2300 -2.05971741 12.153530520000002 1.9579288500000003 -2.098106 1.016795 -1.240141
2320 -1.6363962900000002 13.621077090000002 2.30371173 -1.729526 -0.7848569999999999 -1.491631
2340 -3.9231955800000002 13.902045300000001 0.5092371000000001 -2.038202 -2.4163240000000004 -1.624156
2360 -3.44224071 14.160548610000001 0.14564907000000002 -2.2121 -2.652102 -1.385787
2380 2.3543019000000003 15.62734962 4.58496837 -2.010084 -2.803975 -1.143831
2400 6.996452760000001 14.263838100000001 -2.55937995 -1.675691 -2.714325 -0.676933
2420 7.395366600000001 14.65931844 -3.22249671 -1.033101 -2.577168 -0.369246
2440 7.64579628 16.76873331 2.5243484400000002 -0.380076 -2.383071 -0.190813
2460 4.713243930000001 16.79477886 0.8502327000000002 0.21127 -1.862961 0.031637
2480 0.43215012 15.54981138 0.07229970000000002 0.78235 -1.402193 0.193132
2500 -0.017363700000000003 11.86657821 2.83255902 1.500461 -1.067312 0.273563
2520 1.05081777 10.06956279 -0.34952049 2.146648 -0.7316239999999999 0.214621
2540 0.5327418599999999 8.91157077 -2.37271527 1.855595 0.114756 0.06302100000000001
2560 0.19114785 5.788763280000001 -1.84372083 0.144191 0.814167 0.067262
2580 0.5944173300000001 3.80344491 -1.6685829000000003 -1.273548 -1.017774 -0.384674
2600 0.7984359000000001 1.6613921699999998 -1.6278615900000002 -1.1860700000000002 -1.140318 -0.983178
2620 1.31411817 1.65585933 -0.33724818 -0.8353200000000001 -1.276621 -1.299952
2640 2.54964843 2.9720670300000007 -0.07364366999999998 -0.284325 -0.805959 -0.931375
2660 3.2883610500000007 2.80950552 0.5891787900000001 0.05712 -0.912773 -0.091367
2680 2.5632745200000002 2.28499425 1.00815408 1.193574 -0.264335 -0.198559
2700 0.80307603 2.5999443000000007 1.39883733 1.569638 2.477051 -0.898062
2720 0.34832367 4.693486590000002 3.20543712 -0.531663 -0.12198 -1.001277
2740 0.22273605000000002 8.01838008 7.51362615 -0.421133 -0.277324 -0.345485
2760 1.3900083300000001 13.224095819999999 12.18780666 0.275137 -0.550009 0.907411
2780 4.8241656 20.396589030000005 12.854219580000002 3.706005 3.950138 0.491911
2800 3.79955034 15.51164067 10.563535530000001 3.368438 4.066685 0.942329
2820 1.66528674 11.033856360000001 6.65770365 0.963432 0.429681 0.6684770000000001
2840 -0.9548661600000001 5.02145451 7.6092736499999996 1.576517 -0.6546810000000001 0.381456
2860 -1.41635799 0.29429019 7.869582 2.1805060000000003 0.539605 0.36278
2880 2.00103399 7.898325300000001 7.50030417 1.940352 0.312448 0.63379
2900 2.0538804600000002 15.226042140000002 2.6077236299999997 1.702447 -0.126814 0.665806
2920 1.67367429 25.227935549999998 -10.314155520000002 1.641084 0.714909 0.680322
2940 7.3030152600000005 13.256733689999999 1.3721933700000002 1.719167 1.283188 0.4910640000000001
2960 8.93432016 -5.221588320000001 0.6316855199999999 1.529999 1.31315 0.355108
2980 4.127969520000001 -1.54658574 7.798037669999999 1.378315 1.611544 0.457284
3000 -3.1271435100000002 12.402910530000002 -6.969357540000001 1.199514 1.297655 0.5205310000000001
3020 -2.21120343 18.02551203 -8.744810580000001 1.208476 0.913078 0.515745
3040 -3.24420624 20.094666660000005 0.11601306 1.356358 0.818825 0.5147619999999999
3060 -0.77808015 10.36608966 1.2660687899999998 1.649007 0.65481 0.518085
3080 1.3004920800000002 6.62536989 0.92447478 1.763281 0.724544 0.562591
3100 2.75292144 5.5036062 1.00396521 1.3166950000000002 0.976775 0.476895
3120 4.01749911 5.4446284799999995 1.0496209500000002 1.0384209999999998 0.5059779999999999 0.438167
3140 2.69035326 7.444916910000001 1.8811361700000002 0.375339 0.500367 0.5510470000000001
3160 0.92882061 10.276583220000001 -0.04819653 0.295768 0.303804 0.491991
3180 -0.39936510000000003 9.11813994 0.56357469 0.203533 0.4976390000000001 0.31697800000000004
3200 -0.51523101 7.92871668 0.39263544 -0.36551 0.91273 0.103099
3220 -0.46702467 8.362956330000001 -0.88046712 -1.032649 0.4436640000000001 -0.29727
3240 -1.01563911 9.20600811 0.42960933 -1.807714 0.188925 -0.921926
3260 -0.62465175 9.508823190000001 0.8370578700000001 -2.667862 0.01865 -1.283434
3280 0.20956122 9.8216739 0.73362123 -3.223762 0.410875 -1.11904
3300 -0.1963962 9.743684400000001 0.84708369 -3.003401 0.567766 -0.851715
3320 -0.39502908 9.96866694 0.00942741 -2.705683 1.610483 -0.530505
3340 -0.30431601 11.10750003 0.95591583 -2.6571830000000003 2.308565 -0.653906
3360 -0.43574058 11.02442895 0.13337676 -2.896479 -0.418694 -0.940503
3380 -0.43394535 11.970162 -0.30161826 -2.413084 0.466166 -1.263
3400 0.02006145 11.43412398 2.72658159 -1.924217 0.925993 -1.327472
3420 -0.6364728 12.67699212 2.9005227000000002 -1.954231 -0.764614 -1.563729
3440 -3.3075199800000004 15.585137190000001 0.33874911 -2.206403 -1.9403 -1.706057
3460 -3.4476264000000003 14.187202380000002 -1.4780236500000004 -1.7796740000000002 -2.436967 -1.481318
3480 1.1906200800000002 15.93870921 4.08006729 -1.482522 -2.7544150000000003 -1.207507
3500 5.53593996 14.212345410000001 2.8315093499999997 -1.199981 -2.513652 -0.922763
3520 7.899522120000001 13.016035530000002 -3.31096329 -0.611349 -2.061955 -0.639357
3540 7.522602300000001 13.336812720000001 -0.30252078000000004 -0.037348 -1.7488169999999998 -0.324896
3560 4.724623530000001 14.838792390000002 3.25513458 0.404549 -1.415953 -0.033816000000000006
3580 -0.16286562000000002 15.75383976 -2.24757891 0.939636 -1.147802 0.10951500000000003
3600 -1.20424617 13.648613760000002 3.3560206200000002 1.548598 -0.564667 0.273255
3620 -0.50355711 10.405908450000002 0.55280331 1.941766 0.322193 0.327208
3640 0.6397689599999999 8.64512136 -2.8225332 1.5791620000000002 0.25461100000000003 0.226485
3660 1.18853055 7.045846110000001 -2.4400805400000003 0.044435 -0.8584040000000001 0.175531
3680 1.12326462 5.384149830000001 -0.39428352 -0.8742489999999999 -1.036946 -0.465182
3700 1.7745603300000001 3.86825958 -1.070271 -0.963334 -0.72254 -1.223576
3720 1.9866721500000002 3.33042633 0.15133887000000001 -0.818507 -1.302482 -1.5070370000000002
3740 2.00283903 2.94512877 1.1937690900000002 -0.254601 -1.192183 -0.808895
3760 2.43498915 2.30311332 1.13912739 0.208665 -0.711777 -0.137567
3780 1.81751832 2.15387379 1.22684841 1.951885 0.260864 -0.327463
3800 0.62824221 2.50533666 1.9999941300000001 1.119548 2.436514 -0.494162
3820 -0.15657741000000003 3.5173853100000003 3.6759051 -1.470566 -0.693493 -0.8554149999999999
3840 -0.22273605000000002 5.910907590000001 6.09922035 -0.8987719999999999 -0.377964 0.193964
3860 1.48057425 9.25764795 7.75238193 0.608989 -0.963756 0.989321
3880 2.41238691 14.236144470000001 9.81628821 4.286384 4.419936 0.25287600000000005
3900 0.62494605 17.72659152 12.0544299 2.954387 4.346971 1.005308
3920 0.13397517 17.526752010000003 7.796988 0.755344 0.171587 0.656672
3940 0.24069816 10.226434500000002 7.560174600000001 1.395517 -0.175317 0.540879
3960 -2.18365695 1.0093509 9.69878403 2.135806 0.247348 0.760221
3980 -0.5441214600000001 4.06239948 7.74953703 2.016702 -0.575856 0.799968
4000 1.2445162200000002 11.36661156 1.02865698 1.724015 -0.480841 0.735845
4020 2.8252211400000005 21.36132405 -11.125314990000001 1.705475 0.510466 0.867973
4040 4.48722153 24.41647197 1.0124901 1.904056 1.033711 0.647567
4060 8.831334779999999 1.3563306 4.63735377 1.739314 0.907629 0.618804
4080 8.71682265 -5.719004370000001 0.9714843000000001 1.677497 1.394683 0.61668
4100 -1.70211348 4.90095828 3.01563324 1.493098 1.413514 0.59614
4120 -3.7368252 14.972463450000001 -10.44034155 1.447897 1.321014 0.5906020000000001
4140 -3.28013046 21.55726899 -2.85246351 1.394907 0.8125600000000001 0.715865
4160 -2.3186817900000003 14.556931470000002 1.1648786400000002 1.46522 0.341357 0.7425970000000001
4180 0.6918600600000001 7.910146350000001 0.9068167800000001 1.504242 0.577204 0.603699
4200 2.49456528 6.90214923 -0.12513636 1.114667 0.614378 0.436424
4220 3.71108376 6.186333149999999 0.58318488 0.775321 0.689651 0.288679
4240 2.6297274600000002 6.778808100000001 0.97208271 0.310744 0.8933780000000001 0.359948
4260 1.9079370900000001 9.46691487 1.8223056000000002 0.116676 0.459353 0.37624
4280 -0.11420802000000001 9.74159487 0.57121668 -0.283951 0.330708 0.127916
4300 -1.14780924 8.52731307 1.15200792 -1.0387959999999998 0.083389 -0.239167
4320 -0.39008484000000004 7.5428109 -0.5450141700000001 -1.93017 -0.461568 -0.913402
4340 0.02365191 7.162751879999999 -1.3066331400000002 -2.531706 -0.716182 -1.453525
4360 0.0928026 8.203386870000001 -0.16165899 -3.3735730000000004 -0.264645 -1.22177
4380 0.8089129800000001 9.69579198 -0.08172711 -3.227586 0.282169 -0.631793
4400 0.40744854 9.74204613 -0.6036975900000001 -2.766182 1.5783 -0.15594
4420 -0.5688132300000002 9.08910234 0.40880232000000005 -2.844265 2.14241 -0.49904
4440 -0.32706539999999995 10.68343335 2.030228550000001 -3.011346 0.389229 -0.685967
4460 -0.11077452 12.01520952 1.4925424500000002 -2.569646 0.16701400000000002 -0.90906
4480 -1.1298471300000001 13.44369267 -0.28425456 -2.185334 0.821259 -1.017241
4500 -2.39502321 13.65789402 0.39832524 -2.001785 0.048468 -1.325821
4520 -2.44022769 15.472420290000002 1.93293297 -2.118614 -1.1097860000000002 -1.415952
4540 -3.2361228000000004 14.99776344 -1.0060547400000002 -2.168719 -2.066057 -1.192886
4560 -1.80194985 17.07154839 -1.59777432 -1.948499 -2.113956 -0.8612059999999999
4580 2.23409997 16.58895525 3.31650594 -1.530968 -1.821171 -0.649293
4600 6.927743520000001 14.29557345 1.82710269 -0.8769620000000001 -1.725827 -0.550844
4620 7.570053270000001 12.00114198 -2.98433934 -0.204122 -1.617085 -0.35614
4640 7.4062949399999995 11.29610709 -0.04759812000000001 0.421175 -1.397418 -0.154432
4660 5.09750163 13.51629648 2.06390628 1.062958 -1.179499 -0.062635
4680 2.5797357 14.810951610000002 -0.02410317 1.7040080000000002 -0.7067479999999999 -0.027784
4700 0.91774512 12.683721779999999 1.79282655 1.740681 -0.471085 -0.118629
4720 0.6679138500000001 9.23983299 -0.19279593 0.879869 -0.359833 -0.287154
4740 0.69455781 8.541988830000001 -1.6661892600000001 -0.469309 -0.753478 -0.309961
4760 0.31838355 6.110894249999999 -1.89835272 -0.621405 -0.761019 -0.423177
4780 0.10537902 4.2351437700000005 -2.11195566 -0.86861 -1.167307 -0.902946
4800 0.8526263400000001 2.6655045300000006 -0.6291447300000002 -0.8501280000000001 -1.699469 -1.037799
4820 1.784439 2.76729309 0.92447478 -0.327138 -1.094308 -0.713387
4840 2.28214935 3.17370177 0.87013719 0.392174 -0.7697039999999999 -0.196032
4860 2.4059515500000006 3.0810463200000004 1.23059583 0.759356 0.203801 -0.208601
4880 1.65526092 2.97565749 1.99475559 0.8975690000000001 1.370293 -0.597964
4900 0.22318731000000003 3.3179970600000006 2.9075564700000003 -0.290931 0.222509 -1.044902
4920 -0.7318260000000001 5.129080020000001 4.288578840000001 0.484884 0.783593 -0.041414
4940 -1.0865948400000003 8.220152160000001 6.06284487 0.074145 -0.45101 1.099228
4960 -0.68183424 13.171563270000002 8.323137540000001 3.010471 3.680054 0.43826
4980 -0.28156662 14.681616570000001 11.78948142 3.718065 3.869015 1.053984
5000 2.30326047 13.312562400000001 11.209435740000002 1.314961 1.142764 0.792864
5020 3.4317636300000003 12.720695670000001 6.65440749 1.6083379999999998 -0.242335 0.599067
5040 1.45781505 8.943600420000001 6.26910993 1.964664 0.937936 0.8361200000000001
5060 1.14751494 4.211491860000001 8.45261973 1.980087 0.4336060000000001 0.936219
5080 3.11412564 7.512880590000001 7.09494516 1.846673 -0.289365 0.698
5100 4.9368825 14.47999164 4.57463844 1.793379 0.391703 0.655094
5120 1.4063223599999999 27.736568370000004 -5.61856959 1.886305 1.095546 0.384582
5140 2.1903964200000003 11.208690180000001 -2.35699965 1.7397470000000002 0.914272 0.289787
5160 8.72176689 -7.052585580000001 -0.82912158 1.619664 1.363808 0.396262
5180 8.080349850000001 -3.4248770100000003 5.903873820000001 1.470591 1.558749 0.526362
5200 -3.2343275700000005 13.663132560000001 -0.03771945 1.400734 1.2573219999999998 0.575399
5220 -1.94999256 18.20798784 -10.859620950000002 1.451223 0.8990530000000001 0.615735
5240 -2.32825635 16.73160246 0.8994789 1.529998 0.425634 0.656416
5260 -0.88510725 10.226728800000002 1.5627526200000001 1.627279 0.4265310000000001 0.6143649999999999
5280 1.17834777 6.75336096 0.70323966 1.233616 0.732205 0.438172
5300 2.26659069 6.54918543 -0.01511721 0.874755 0.6937399999999999 0.245571
5320 1.8702078300000002 7.403607000000001 0.33934752000000007 0.417545 0.86446 0.306252
5340 1.21816656 8.48196144 1.4784749099999999 0.086159 0.583974 0.406846
5360 0.21659499000000002 10.69450884 0.25252902000000005 0.0047420000000000006 0.368575 0.26448
5380 -0.40505490000000005 9.787093650000001 0.01751085 -0.478653 0.5683600000000001 0.00661
5400 -0.27961443 7.685163810000001 1.5646950000000002 -1.2742129999999998 0.152437 -0.25265
5420 0.18950957999999998 7.484431590000001 -0.43289568 -2.092825 -0.209028 -0.78988
5440 0.1764819 8.16297948 -1.2094847100000001 -2.99464 -0.161815 -1.158367
5460 0.40940073 9.050931630000001 -0.52974981 -3.2982910000000003 -0.134819 -0.986402
5480 0.82942569 9.65925954 -0.21539817000000003 -2.9618290000000003 -0.017757 -0.716078
5500 -0.18666468 10.726391340000001 0.1995354 -2.71434 1.401496 -0.47475
5520 -1.3373188200000001 10.11955455 0.92403333 -2.816636 1.383816 -0.7595890000000001
5540 -1.25349237 11.3803848 2.5578790200000006 -2.878436 -0.699897 -0.963517
5560 -0.021258270000000003 10.84883976 0.80427285 -2.439542 0.449582 -1.089043
5580 -0.63512883 11.912528250000001 -0.8916995700000001 -1.974654 0.896308 -1.053253
5600 -1.1964668400000003 13.181883390000001 1.5031764900000002 -1.869868 -0.568551 -1.38393
5620 -0.7945511400000002 13.81327461 1.9320304500000003 -2.065795 -1.599452 -1.551688
5640 -2.28035412 14.534770680000003 0.6782437800000001 -2.041417 -2.234894 -1.43854
5660 -3.63414393 14.24243268 -1.89760716 -1.828498 -2.195615 -1.056816
5680 -0.47151765 14.46547284 3.21471738 -1.407041 -2.04097 -0.668442
5700 2.64185262 14.217289650000001 1.5932911500000002 -0.776041 -2.110429 -0.362707
5720 5.704485570000001 13.673315340000002 -4.59305181 -0.09627 -2.060546 -0.106991
5740 6.235736310000001 12.936702060000002 -1.2310372800000002 0.523556 -1.615097 0.113617
5760 5.176687950000001 14.29526934 2.5014519 1.098263 -1.179425 0.154461
5780 3.3087168000000005 14.916634740000003 -0.85472568 1.514751 -0.769062 0.001952
5800 2.25206208 13.249994220000001 1.8495577800000003 1.339315 -0.552642 -0.154443
5820 1.518588 9.51585696 1.3374659700000002 0.422272 -0.61364 -0.089199
5840 1.30273857 9.00212688 -1.65526092 -0.407931 -0.798592 -0.003963
5860 0.40176855 8.099803080000001 -1.85344254 -0.517397 -0.130899 -0.382665
5880 -0.0056898 5.99667642 -1.65959694 -0.715757 -0.776288 -1.0508620000000002
5900 0.5110421400000001 3.5164827900000004 -1.1512525500000002 -0.6000489999999999 -1.300066 -0.969266
5920 1.2552876 2.20341429 -0.32048288999999996 -0.441899 -0.5449579999999999 -0.265171
5940 1.7887848300000002 2.4704621100000006 0.41509053000000007 0.053468 0.056158000000000007 0.029144
5960 2.48468661 2.4960564 1.05186744 -0.08755399999999999 0.98537 -0.187745
5980 1.91556927 2.397564 2.168991 -0.22573 0.3286 -0.726252
6000 0.7693983000000001 3.55555602 2.51642196 1.050471 0.634488 0.258625
6020 -0.15118191 5.417386110000001 3.2736951000000003 1.236505 0.783906 0.5599029999999999
6040 -0.42930522000000004 7.88994756 5.510944080000001 3.047067 3.797877 0.246085
6060 -0.27707364 10.55650176 8.744516280000001 2.484224 2.678694 1.160122
6080 0.22768029 11.826004049999998 11.696678820000002 1.237866 -0.292101 0.8443700000000001
6100 0.42062337 11.679158160000002 12.61501254 1.848917 -0.425083 0.536888
6120 3.0659291100000003 15.354474660000001 7.64430516 2.409467 0.46003 0.616581
6140 3.5774127 11.687094450000002 6.364610280000001 2.24308 0.073602 0.6938949999999999
6160 3.14705781 5.95297287 8.310266819999999 1.862448 -0.635401 0.6398020000000001
6180 3.9826147499999998 11.34011475 7.989931080000002 1.907472 -0.010653 0.742933
6200 4.14143865 18.372795840000002 1.1578448700000001 1.922709 0.917504 0.6542560000000001
6220 1.72232208 22.124895210000002 -3.46139964 1.7818080000000005 0.982542 0.4961600000000001
6240 4.374504630000001 0.20387142 -1.66363866 1.610592 1.369727 0.522241
6260 5.60120589 -1.69417719 -2.02663809 1.439637 1.550357 0.520816
6280 -1.2322341 6.0917353200000015 3.98710773 1.454032 1.009991 0.576088
6300 -4.224813840000001 15.57496422 -6.37598988 1.552846 0.247811 0.617279
6320 -1.77994602 16.23762972 -4.1573014200000005 1.758818 0.180308 0.536551
6340 -2.23380567 12.42865197 1.3377700800000003 1.643943 0.774854 0.339502
6360 0.2891988000000001 7.842486780000001 2.41567326 0.8437629999999999 0.675764 0.238968
6380 2.0622582 7.40285163 0.36943479 0.463097 0.539455 0.290963
6400 3.4277219100000003 6.820412310000001 0.27258066000000003 0.038646 0.912323 0.386865
6420 2.18291139 6.91636392 0.59905746 0.060602 0.467395 0.27863000000000004
6440 1.97079957 8.06059251 2.90949885 -0.063484 0.254272 0.137031
6460 0.9860031 10.073898810000001 1.01922957 -0.599172 0.202876 -0.131564
6480 -0.12768696000000002 9.45658494 0.7758336600000001 -1.529133 -0.424756 -0.610477
6500 -0.09145863 7.798783230000001 0.05867361000000001 -2.095812 -0.856991 -1.250542
6520 0.16106058000000004 7.788600450000001 -1.21966749 -2.936337 -0.387285 -1.300812
6540 -0.06601149 8.612934749999999 -1.3644140400000002 -3.106404 -0.13031800000000002 -0.946612
6560 -0.08861373 9.711949050000001 -1.5229338300000004 -2.789774 0.45712 -0.540297
6580 -0.93959199 11.080404810000001 0.15328125 -2.7333830000000003 1.5469540000000002 -0.603256
6600 -1.32070068 10.35936 2.1025282499999998 -2.843796 0.7248100000000001 -0.8358459999999999
6620 0.37556604 10.60335432 2.7041265 -2.673534 -0.573344 -1.08723
6640 1.6572033000000002 10.660232700000002 0.48469248000000004 -2.364802 0.7007220000000001 -1.087775
6660 -0.72165303 11.964168090000001 -0.9499219200000001 -2.114314 0.002785 -1.259251
6680 -2.96084439 12.716506800000001 -0.8693916300000001 -2.2029970000000003 -1.145655 -1.430382
6700 -1.97708778 13.316309819999999 0.7535355300000001 -2.1380060000000003 -1.802394 -1.354311
6720 -1.7302485600000002 14.481482759999999 0.14909238 -2.092305 -2.345616 -1.144993
6740 -3.16756071 14.933095920000001 -2.30235795 -1.6997380000000002 -1.956573 -0.7410979999999999
6760 -0.32811507000000006 15.503714190000002 2.10327381 -1.063334 -1.7322 -0.394041
6780 3.60719586 14.499601830000001 3.6757579500000004 -0.442696 -1.787556 -0.142875
6800 6.736291560000001 12.314895210000001 -1.62157338 0.167353 -1.640262 0.055614
6820 6.69871926 11.59743105 -2.61356058 0.818858 -1.309803 0.233861
6840 5.313645360000001 12.187953810000002 1.5928398900000003 1.442996 -0.7657649999999999 0.304822
6860 2.8749186 14.285390670000002 0.4656807 1.809404 -0.244827 0.24903000000000006
6880 1.27534905 14.09962851 0.7908037200000001 1.447581 -0.154686 0.13208699999999998
6900 1.5593093100000002 11.50073388 0.91055439 0.13534200000000002 0.436309 -0.003887
6920 1.8047947500000001 10.54961514 -1.09872 -0.799682 -0.183527 -0.296975
6940 1.3605194699999998 8.6070978 -1.4373121500000001 -0.897708 -0.71888 -0.8642
6960 0.3305087100000001 6.577624620000001 -2.0520852300000003 -0.531017 -1.460908 -1.298659
6980 0.56163231 5.128932870000001 -1.4293758600000002 -0.119622 -1.2663209999999998 -0.7672640000000001
7000 1.27489779 3.1346285400000005 0.018109260000000002 0.185035 -0.70653 -0.097147
7020 1.93128489 2.5960497300000003 0.7619132700000001 0.8338709999999999 0.541744 -0.069645
7040 2.5144697700000003 2.94482466 0.51732054 0.18726 1.83663 -0.185848
7060 2.68930359 2.52210195 1.20469743 -1.3191469999999998 0.102179 -1.230323
7080 1.21711689 2.6087733 2.0999874600000004 0.669874 0.409007 -0.033233
7100 -0.35805518999999997 3.51618849 2.6605701 1.150587 -0.119623 1.20994
7120 -0.36359784 5.54835942 4.66849071 2.993161 3.97358 0.309576
7140 0.2806641000000001 8.87025105 8.18602317 3.616852 4.392568 1.548261
7160 0.13636880999999998 14.509176390000002 12.171335670000001 0.6796810000000001 0.321637 1.026624
7180 1.1719124099999998 13.842312210000001 13.14655758 0.919617 -1.947912 0.6808310000000001
7200 1.12969998 14.198719320000002 8.88357303 2.095359 0.520141 0.774544
7220 -0.21675195 10.77519609 5.65359129 2.45322 0.457875 0.85083
7240 0.025751250000000003 5.400169560000001 6.931333980000001 2.010005 -0.050166 0.678538
7260 2.0127177 7.754177159999999 7.315885980000001 1.7669279999999998 0.451408 0.665515
7280 4.38019443 15.22035234 4.48167888 1.84448 0.932212 0.5073439999999999
7300 3.9044781 28.075317480000002 -6.22450386 1.625982 0.66802 0.431381
7320 1.37862873 15.927329610000001 1.10126079 1.392142 0.724895 0.530088
7340 8.089924410000002 -10.454860350000002 0.61462593 1.368988 0.931093 0.6663939999999999
7360 8.849002590000001 -6.3797373 -0.08442486000000002 1.3917469999999998 0.6005159999999999 0.732138
7380 -4.258942830000001 10.27074627 6.174364949999999 1.517753 0.122945 0.704788
7400 -5.410195379999999 19.92237363 -12.103381800000001 1.72757 -0.001181 0.6615479999999999
7420 -1.5432895800000002 17.570308410000003 -4.83210189 1.843294 0.4814020000000001 0.55812
7440 -0.49203036 11.31901344 4.63196808 1.214346 0.732212 0.452993
7460 1.7227635300000004 5.436397889999999 3.95776602 0.673216 0.557771 0.323386
7480 3.07026513 6.44843673 0.46343421000000007 0.245102 0.480484 0.308744
7500 2.17198305 7.3691739 -0.54606384 -0.007573000000000002 0.23335300000000006 0.258158
7520 0.35939916000000005 8.840016630000001 0.9394448400000001 -0.379314 -0.243111 0.119439
7540 -0.46837845000000006 10.441391220000002 1.6706724300000002 -1.029565 -0.27124000000000004 -0.273899
7560 -1.24376085 10.168653599999999 1.3159134000000001 -2.014613 -0.264179 -0.918518
7580 -0.2977335 7.70926698 0.9909375300000001 -2.600966 -0.603396 -1.36015
7600 0.7804737900000001 6.84900846 -0.09160578000000001 -3.252342 -0.112742 -1.218982
7620 0.7426071900000001 7.85281671 -1.66304025 -3.25016 0.144275 -0.493973
7640 0.59635971 9.246719610000001 -1.7747074800000002 -2.948403 0.695746 -0.137922
7660 0.72943236 10.09156662 -0.31898196000000006 -2.959962 1.314073 -0.510537
7680 -0.39952206 10.697805 1.0309034700000002 -3.013403 0.368085 -0.72441
7700 -1.2695121 10.38689667 1.65990105 -2.747848 0.5261140000000001 -0.780442
7720 -0.28111536000000004 10.8916506 2.9386934100000004 -2.237829 1.130952 -0.896227
7740 -0.10343664 11.44025523 0.92717253 -2.022967 0.28835900000000003 -1.358323
7760 -1.70944155 12.194693280000001 -1.39075389 -2.169176 -1.233169 -1.685339
7780 -2.19668463 12.51547047 0.4300605900000001 -2.1982630000000003 -2.127309 -1.566892
7800 -2.16195723 15.920442990000003 1.3308834600000001 -1.910534 -2.109396 -1.234824
7820 -1.58550201 15.350275980000001 -0.6354329400000001 -1.2699120000000002 -2.165078 -0.919426
7840 0.16870257000000002 16.75764801 -0.54441576 -0.6859569999999999 -2.124229 -0.718846
7860 1.9636186500000001 15.43065912 3.23208108 -0.170442 -1.913634 -0.551009
7880 5.842953720000001 12.70378323 0.31390038 0.236173 -1.4916969999999998 -0.392749
7900 7.45390287 12.671596619999999 -3.91600485 0.725122 -0.873708 -0.316418
7920 6.565342500000001 12.561724620000001 0.25970994000000003 1.302577 -0.213625 -0.187181
7940 2.81175201 13.412261430000003 2.4231582900000004 1.85048 0.505202 -0.071043
7960 2.15461935 13.05689418 0.71955369 1.938462 0.637965 -0.048166
7980 2.05821648 10.681638120000002 1.0741655700000001 1.0428 -0.415733 -0.03598
8000 0.9773212500000001 9.80790066 -0.7050348900000001 -0.359356 -1.4134209999999998 -0.270959
8020 0.023504760000000003 10.273885470000002 -1.85300109 -0.725608 -1.098803 -0.8422149999999999
8040 -0.6491963700000001 8.39633976 -2.4845296500000003 -0.785721 -1.473456 -1.136984
8060 0.10583028000000001 5.29149438 -1.36994688 -0.34473400000000004 -1.76187 -0.789566
8080 1.42039971 3.01248423 0.01062423 0.506737 -1.683889 -0.250676
8100 2.48753151 2.24578368 0.6595263 1.180624 -0.637677 -0.063575
8120 2.8038157200000002 3.43430442 0.8693916300000001 1.896781 1.667844 0.0485
8140 2.4104347200000005 3.6405792900000002 1.18044711 -0.676441 1.28314 -0.615256
8160 1.4974866900000001 3.4109566200000003 1.65016953 -0.819181 -0.201026 -0.964728
8180 0.66671703 2.8506682800000003 2.2966779600000002 0.864434 0.041896 0.228175
8200 0.09460764 4.15251414 3.9492411300000003 1.57557 0.974369 0.321678
8220 0.05268951 6.1945637399999995 6.561310590000001 4.222305 4.982213 0.35532600000000003
8240 0.92148273 9.346114530000001 8.65155672 2.874351 4.559541 1.461675
8260 0.33560010000000007 14.177019600000001 10.622356289999999 0.185167 0.16053599999999998 0.983852
8280 -1.3274401500000002 16.48836351 11.24611533 1.136627 -2.028699 0.981553
8300 -1.5982255800000003 15.74665884 7.331307300000001 2.368888 0.325608 0.966847
8320 -1.89236862 8.736884100000001 7.52724243 2.427064 0.798899 0.8395290000000001
8340 -1.6462749600000002 2.5129786500000004 9.08819982 1.7820919999999998 0.849326 0.776207
8360 -1.10559681 7.154374140000001 7.78605966 1.801746 0.753108 0.578846
8380 4.796324820000001 14.28464511 2.24907003 1.895442 1.478964 0.396973
8400 7.37247006 23.30548947 -10.1860173 1.6500400000000002 1.103363 0.499357
8420 3.81032172 21.92670378 -1.03914387 1.529574 0.668118 0.7565149999999999
8440 5.488783290000001 -1.3666605300000003 2.0091174300000003 1.34659 0.153897 0.838149
8460 9.73755315 -7.71510393 0.046107 1.417067 0.266066 0.6985600000000001
8480 1.5058644300000001 3.4355012400000002 4.80216177 1.558199 0.6210640000000001 0.511084
8500 -5.96599074 17.25446565 -5.747443560000001 1.3710209999999998 0.6710510000000001 0.4274600000000001
8520 -2.3216738400000003 18.683998470000002 -11.834685900000002 0.910964 0.63637 0.441382
8540 -1.4638089600000002 14.27536485 1.52487621 0.604949 0.8369549999999999 0.362076
8560 2.16494928 6.04308753 4.35459033 0.293283 0.936482 0.251881
8580 2.30580126 5.229230310000001 1.53190998 0.018246 0.667187 0.16912
8600 1.69896447 7.06560345 -1.3248993599999999 -0.341645 0.118743 0.17158199999999998
8620 1.1511054 9.06978645 -1.9896642 -0.992384 0.33092 -0.109905
8640 -1.10021112 11.27081691 0.5206167 -1.914067 -0.180368 -0.653004
8660 -1.19556432 10.29378996 0.44367687000000006 -2.486919 -0.7502 -1.243797
8680 1.12670793 7.5160197900000005 -0.7771874400000001 -3.273058 -0.289194 -1.296881
8700 2.23784739 7.03821393 -0.28800198 -3.2592790000000003 -0.401571 -0.91208
8720 0.7460505000000001 8.772955470000001 -0.71072469 -2.810752 0.629397 -0.447729
8740 -0.7202992500000001 9.69338853 0.039965940000000005 -2.879991 1.748548 -0.540445
8760 -1.21816656 9.47813751 -0.5730119100000002 -2.895629 0.822048 -0.599188
8780 -0.46912401000000004 9.68126337 0.05583852 -2.823146 0.089972 -0.604152
8800 0.26255484 10.25427528 2.0134632600000004 -2.482602 0.981902 -0.706534
8820 0.9313614 11.237580629999998 2.1603091500000002 -2.171064 0.6879890000000001 -1.002015
8840 0.12424365 11.98632888 -0.31374342 -2.053184 -0.229395 -1.324756
8860 -1.9056906 13.040433 -0.41313834 -2.246299 -1.694384 -1.36482
8880 -2.9961702000000003 13.38501906 0.99707859 -2.042676 -1.943285 -1.102433
8900 -2.0547731700000003 15.50041803 1.6703781300000002 -1.589214 -1.869388 -0.794917
8920 -2.13036903 15.275288340000001 -2.5506981000000004 -0.998318 -1.995612 -0.644281
8940 0.21031659 16.05097485 0.5375291400000001 -0.27347 -2.011429 -0.514216
8960 3.3344680500000003 14.478941970000001 3.5750190600000002 0.363735 -1.741782 -0.300739
8980 6.576722100000001 13.58544717 -1.80314667 1.001742 -1.150047 -0.181673
9000 6.30339588 12.59077203 -2.53273599 1.647706 -0.489999 -0.103231
9020 5.00484618 11.99081205 2.24518527 1.975174 -0.069134 -0.141007
9040 3.78053856 13.20957702 2.02348908 1.532175 0.093353 -0.164606
9060 3.45376746 12.87502659 -0.37331955 -0.365613 0.543519 -0.006455
9080 2.36987037 10.790460450000003 1.06174611 -1.571448 -0.251344 -0.516992
9100 1.3540841099999998 9.53442729 -0.16615197 -1.609403 -1.89705 -1.318451
9120 0.5245112700000001 9.215141220000001 -1.3443525900000002 -0.929759 -2.483772 -1.435797
9140 -0.2314179 7.681573350000001 -3.2064867900000005 -0.297256 -1.374291 -0.519471
9160 -0.08083440000000001 5.457803310000001 -1.38686913 0.571753 -0.956541 0.018038
9180 1.06832862 3.4331076 -0.55040967 1.80774 1.510797 0.238222
9200 2.1255817500000003 2.9666813400000005 0.14010642 -0.360581 2.030839 -0.591575
9220 2.7934956000000004 2.8092112200000003 0.67524192 -0.940887 -0.09044 -1.074678
9240 2.8728290700000003 2.68690995 1.37294874 0.890344 -0.087037 0.7466079999999999
9260 1.14586686 2.06241516 2.06495595 1.590527 0.129369 0.899705
9280 -0.06287229000000001 2.7535198500000004 2.4748079400000003 4.125006 5.414924 0.121219
9300 -0.5513023800000001 5.01142869 3.66812577 3.160305 4.215025 1.588028
9320 -0.94812669 7.59939498 7.228469070000001 0.372485 -0.483271 0.916551
9340 0.03398184 13.00420467 12.44527011 1.0512 -1.907733 0.642175
9360 0.10463346000000001 21.58182342 15.360154650000002 2.277144 0.892183 0.818066
9380 -0.0059841 20.44612953 7.954163820000001 2.533606 0.751714 0.8253780000000001
9400 -0.3930867 7.37740449 5.7113721900000005 1.845246 0.048561 0.640941
9420 0.44966097000000005 -0.13517199 7.16350725 1.498719 0.438172 0.744844
9440 3.49597989 7.20467001 7.1175474 1.646206 1.043395 0.580592
9460 4.34590848 16.34137047 2.31688656 1.616207 1.0740459999999998 0.400882
9480 2.9958660900000003 31.26488202 -7.66496502 1.553533 0.977004 0.480685
9500 0.46642626 15.022160910000002 2.4786927000000003 1.385669 0.780026 0.601543
9520 10.539432360000001 -11.72033073 0.41882814000000007 1.468257 0.691114 0.653508
9540 9.29701548 -7.9879887 0.56477151 1.608459 0.545771 0.6482640000000001
9560 -5.70792888 10.15398765 7.828419240000001 1.772782 0.69153 0.552017
9580 -7.37336277 18.66154338 -14.49600156 1.704997 0.7250979999999999 0.474589
9600 -1.7142386400000003 18.594335070000003 -7.021154340000001 1.092184 0.324842 0.401387
9620 -1.2695121 12.557535750000001 4.6529222400000005 0.675288 0.51739 0.296747
9640 1.8568858500000003 5.19434595 4.996007370000001 0.197227 0.979224 0.30243000000000003
9660 3.7372764600000004 6.248901330000001 0.63826803 -0.05225 0.586832 0.344987
9680 4.42121004 7.56062586 -1.40287905 -0.324341 0.238785 0.239915
9700 1.8751520700000002 7.773336090000001 -0.78481962 -0.649062 0.006037 -0.14768299999999998
9720 -0.17094906 10.16446473 1.87365114 -1.634194 0.058757 -0.4889850000000001
9740 -1.7312982300000002 10.961105400000001 1.2237092100000002 -2.17745 -0.287662 -1.031788
9760 -0.3962259 8.48899521 0.33634566000000005 -3.083719 -0.455765 -1.097724
9780 1.1512525500000002 6.98013873 -0.55968993 -3.181926 -0.48507 -0.87725
9800 0.50475393 8.280032400000001 -1.5486752700000002 -2.913757 -0.300939 -0.536986
9820 0.12933504 9.12936258 -1.2936054600000002 -2.705804 0.865878 -0.535961
9840 -0.27153099 9.915379020000001 -0.25746345000000004 -2.76264 0.560247 -0.778453
9860 -0.52645365 10.856020680000002 0.032932170000000004 -2.626488 -0.4799390000000001 -0.777237
9880 -0.22512969000000002 11.59219251 1.5778698300000003 -2.251649 0.741873 -0.82105
9900 -0.01078119 12.11416299 4.45637889 -2.004008 0.644572 -0.945245
9920 -0.41089185000000006 12.07239201 1.98412155 -1.880973 -0.75776 -1.4767
9940 -0.8434932300000001 12.73551858 -1.3497480900000003 -2.070353 -1.870141 -1.520394
9960 -1.6139412000000002 12.340783800000002 0.7455992400000001 -2.025539 -2.157607 -1.332774
9980 -1.2040990200000001 14.65616943 2.24547957 -1.708448 -2.031078 -1.015596
10000 -1.9357778700000001 14.519055060000001 0.32198382000000003 -1.288929 -1.926119 -0.721176
10020 -2.13486201 13.55731209 -1.95118938 -0.723641 -1.841225 -0.596627
10040 -0.27243351000000005 13.863570480000002 0.6867686700000001 -0.182583 -1.616981 -0.400855
10060 1.46500578 13.124259450000002 2.7723844800000004 0.351315 -1.157002 -0.275938
10080 4.656963960000001 12.823985160000001 -3.5769614400000003 1.021875 -0.51927 -0.232547
10100 5.1566265 12.38000418 -3.0725116199999998 1.512859 -0.198347 -0.194277
10120 4.29741765 12.78342081 1.67186925 1.504578 -0.103662 -0.156
10140 2.9553017400000003 12.91424697 0.9367569000000001 0.843557 -0.301385 -0.220185
10160 2.6955918000000003 12.04440408 0.9210314700000001 -0.095367 -0.8252809999999999 -0.260255
10180 2.44426941 9.81434583 1.11592674 -0.286053 -0.378959 -0.354026
10200 1.3491398700000001 8.96335776 -1.2889653300000001 -0.4303300000000001 -0.310992 -0.708702
10220 0.7355734200000001 9.09283995 -1.5682854600000002 -0.411469 -0.768547 -0.8532620000000001
10240 0.07873506000000001 7.54146693 -1.9805310900000002 -0.121538 -1.07503 -0.385099
10260 0.08876088000000001 5.284460610000001 -0.7444024200000001 0.050731 -0.8914110000000001 0.16600299999999998
10280 0.62884062 3.38805027 0.18875421000000003 -0.271477 0.280395 -0.087713
10300 1.5649991100000002 3.05544222 0.59396607 -1.046326 0.832727 -1.142827
10320 2.1076196400000002 3.1790874600000003 1.04557923 1.507377 1.93285 -0.8828450000000001
10340 2.30071968 3.16935594 1.7441689500000002 1.250603 0.510648 0.950253
10360 0.99348813 2.49785163 2.76594912 1.14781 2.3471330000000004 0.253906
10380 0.23471406 3.64776021 3.80852649 4.111915 4.902793 0.8641979999999999
10400 0.39143862 5.952374460000001 4.929103169999999 1.644571 2.192694 1.147402
10420 0.3555144 8.217464220000002 6.793326899999999 0.707222 -1.177288 0.757409
10440 -0.8553240900000001 11.907888120000003 8.48959362 1.689545 -0.256083 1.035486
10460 -1.60346412 12.68417304 9.35450208 2.178618 0.429922 1.152323
10480 0.21555513 11.60312085 10.283312879999999 2.195354 0.488873 1.047679
10500 2.39786811 11.95952796 7.615561860000001 1.822616 0.640261 0.808804
10520 0.87747507 10.707830820000002 6.95977317 1.710073 0.329314 0.6118640000000001
10540 1.3641099300000001 12.15277515 9.199268640000001 1.75886 0.567394 0.438847
10560 3.0220686000000003 19.462824180000002 9.134758080000001 1.683002 1.1349790000000002 0.556163
10580 0.85786488 25.669817190000003 -1.76782086 1.5068 1.461062 0.681633
10600 -0.32811507000000006 7.20107955 -3.4272706500000005 1.421003 1.167173 0.7241390000000001
10620 7.39717164 -9.747127710000001 -5.51168964 1.603286 0.466467 0.771175
10640 13.288616190000003 -7.54460613 1.43611533 1.790577 0.117486 0.76759
10660 -1.44838764 9.202564800000001 10.209365100000001 1.586775 0.341933 0.759469
10680 -9.241932330000001 23.33811753 -9.763294590000001 1.065676 0.509694 0.550516
10700 -3.3150050100000006 15.987504150000001 -7.9501221000000015 0.735322 0.871705 0.350123
10720 -2.13486201 10.496327220000001 4.246523370000001 0.252297 1.027474 0.44269
10740 2.29742352 4.7259675 3.4429862700000005 0.038915 0.612516 0.5026189999999999
10760 3.34179612 5.7669066 -0.6152243399999999 -0.139093 0.242989 0.093789
10780 2.30071968 8.3235888 -0.2200383 -0.6505850000000001 0.127433 -0.401018
10800 0.21884148000000003 10.54003077 0.034276140000000004 -1.47013 -0.31985 -1.05458
10820 -0.99916812 11.22215931 0.50908995 -2.062253 -0.8578450000000001 -1.598547
10840 -1.02537063 10.113266340000001 2.14323975 -2.964186 -0.120132 -1.485083
10860 -0.01886463 7.268886270000001 1.5783210900000002 -3.187695 0.67051 -0.811473
10880 0.41748417 6.649168950000001 -0.74186163 -2.778054 1.226076 -0.24103
10900 0.03307932 8.14531167 -2.7399035700000005 -2.8560380000000003 1.743698 -0.414221
10920 0.15387966000000003 9.533976030000002 -1.63310013 -3.059144 1.015358 -0.581349
10940 0.54216927 9.70416972 0.01002582 -2.6844330000000003 0.212473 -0.722981
10960 0.30880899 9.48203208 1.03225725 -2.307429 1.08004 -0.891307
10980 -0.62180685 10.419534539999999 2.15806266 -2.052669 0.739432 -1.181784
11000 -0.50355711 11.659852080000002 2.5685130600000003 -1.921231 -0.69689 -1.479196
11020 -0.39667716000000003 11.563606170000002 -0.25776756 -1.982791 -1.949843 -1.378675
11040 -2.4460646400000003 12.920378220000002 -0.5697157500000001 -1.825271 -1.991999 -1.0965790000000002
11060 -3.41066232 14.093193150000001 0.9572598 -1.47048 -1.8430000000000002 -0.83685
11080 -2.78360712 15.602805000000002 0.68512059 -0.933942 -1.8979 -0.626865
11100 -2.5390242 15.58843335 -2.65652838 -0.436484 -1.841967 -0.393794
11120 -0.70668297 16.59658743 -0.81924291 -0.011015 -1.381152 -0.117948
11140 2.6964943200000002 15.39683424 3.74311341 0.483002 -0.925642 0.093222
11160 7.8378466499999995 12.73327209 3.26621007 1.068143 -0.460507 0.216354
11180 8.61233634 10.91200635 -2.5981490700000003 1.555752 -0.012517 0.182867
11200 7.3465716599999995 10.86725313 -1.8083852100000002 1.566684 -0.023991 0.112455
11220 3.25033749 12.94462854 2.36448468 0.970589 -0.235871 0.069039
11240 2.3918742 14.20770528 0.8358610499999999 0.033219 -0.34470300000000004 -0.14033199999999998
11260 1.0612948500000001 12.393924570000001 0.8469365400000001 -0.497751 -0.242086 -0.8321069999999999
11280 0.40430934 9.767189160000001 -0.17499078 -0.7942859999999999 -0.708905 -1.316416
11300 0.22588506000000003 9.30868938 -1.41904593 -0.374977 -1.227785 -1.124815
11320 0.11406087000000001 7.497008010000001 -2.3104413900000003 0.370897 -1.029412 -0.232167
11340 -0.008985960000000001 5.08028508 -1.015335 0.571608 0.065701 0.123549
11360 0.89229798 3.9938472 0.32931189000000005 0.615286 1.582073 0.23087
11380 1.90868265 3.5311585500000002 1.03570056 -1.19325 0.734213 -0.356448
11400 2.64828798 3.0249135000000003 0.89019864 0.6100220000000001 0.412194 -0.245163
11420 2.50234461 2.3074493400000002 1.07237034 1.316075 0.630664 0.983671
11440 1.2686095800000001 2.23350156 1.65495681 2.427095 2.380011 0.512763
11460 0.03382488 3.3681457800000003 2.65248666 3.983415 4.786215 1.090981
11480 -0.41868099000000003 5.085827730000001 3.57875667 1.309243 1.964501 1.2276049999999998
11500 -0.42107463000000006 6.69527595 5.422320540000001 0.782161 -1.498585 0.854484
11520 -0.63153837 9.05976063 8.398282140000001 1.918306 -0.186561 0.767803
11540 -0.5236087500000001 12.36458286 10.51623171 2.28596 0.745033 0.846089
11560 -0.84798621 14.691799350000002 10.99238949 1.964281 0.28954 0.747218
11580 0.9632439 15.85907163 8.60904999 1.734435 0.644081 0.7291350000000001
11600 1.2479595300000004 10.47880656 7.2069165 1.731114 1.368214 0.5294939999999999
11620 2.42451207 5.47785495 8.348143230000002 1.618098 1.266817 0.410262
11640 1.4117178600000002 8.24545215 7.729475580000001 1.451603 1.538849 0.4578890000000001
11660 4.2716664 14.77038726 3.82499748 1.244912 1.482637 0.57509
11680 5.142402000000001 23.478979320000004 -4.329898560000001 1.2329139999999998 1.03704 0.663171
11700 2.76848991 12.77113869 0.94902921 1.401886 0.226644 0.71346
11720 7.6710962700000005 -6.21223155 -0.26210358 1.6649459999999998 0.077838 0.6684859999999999
11740 5.56287822 -3.00619602 -0.41523768 1.56701 0.512105 0.578583
11760 -5.680235250000001 12.53478636 1.15514712 0.884048 0.673381 0.533014
11780 -3.8862216899999997 18.88263135 -12.36129651 0.56653 0.785199 0.550949
11800 -3.4049725200000003 17.44292556 -0.76790718 0.177403 0.93853 0.638833
11820 -0.62420049 9.45928269 3.9570204600000003 0.030881 0.386046 0.401372
11840 2.35310508 5.69730465 1.70704791 -0.15026199999999998 0.062320000000000014 0.262721
11860 3.49119261 6.21627327 0.41373675 -0.686141 -0.091103 -0.065565
11880 2.80935837 7.03806678 0.038170710000000004 -1.67406 -0.574655 -0.561091
11900 0.64022022 9.24372756 0.67643874 -2.307568 -0.995705 -1.276413
11920 -0.8032329899999999 11.027421000000002 0.72284985 -3.085084 -0.304521 -1.356437
11940 -1.0946782800000001 9.74324295 1.00980216 -3.096421 -0.419557 -1.083972
11960 -0.04685256 7.306154460000001 0.09430353000000001 -2.80629 0.438683 -0.444248
11980 0.14385383999999998 7.2531706499999995 -0.99348813 -2.915546 1.968942 -0.480087
12000 -0.28979721 8.819955180000001 -1.8217071900000001 -2.936359 0.646846 -0.972057
12020 0.1502892 9.847719450000001 -1.125207 -2.751753 -0.140593 -0.8159350000000001
12040 -0.59141547 10.274631029999998 -0.49846572000000006 -2.387875 1.016276 -0.859741
12060 -1.08000252 9.80940159 1.57577049 -2.03308 0.5074569999999999 -1.262535
12080 -0.34877493 10.369238670000001 3.9477402 -1.974537 -0.932105 -1.485676
12100 0.32512302000000004 11.757746070000001 1.5609573900000002 -2.086797 -1.84183 -1.393427
12120 -1.38192489 11.99096901 -1.12221495 -2.072083 -2.360584 -1.1491049999999998
12140 -4.11584436 12.98983302 -0.30521853 -1.775871 -2.30243 -0.764687
12160 -3.14495847 13.63978476 2.17004067 -1.212445 -2.250069 -0.494831
12180 -2.1345579000000003 14.51142288 0.6704546400000001 -0.4844850000000001 -1.967943 -0.283941
12200 -2.9165326200000004 14.69538981 -2.54890287 0.161999 -1.346581 -0.122125
12220 0.11765133000000001 14.85809847 1.27415223 0.8619459999999999 -0.81124 -0.073056
12240 3.8173653 14.43687669 2.76160329 1.47053 -0.366372 0.036379
12260 7.797282300000001 13.379623560000002 -3.29823972 1.744711 -0.14569200000000002 0.023056
12280 7.67154753 13.25089674 -2.398309560000001 0.985323 -0.072926 -0.199191
12300 6.4593650700000005 13.79650932 2.44755576 -0.364553 -0.493825 -0.331994
12320 3.64312008 14.499601830000001 1.20963186 -0.460662 -0.291137 -0.586094
12340 2.7973803600000005 12.272231520000002 0.72089766 -0.544664 -0.555954 -1.154635
12360 1.3458535200000001 10.895692320000002 1.15829613 -0.5118729999999999 -1.138593 -1.199593
12380 0.68093172 10.16207109 -0.33964182000000004 -0.27676300000000004 -1.163133 -0.595442
12400 -0.03023442 8.18618013 -2.14010055 -0.787551 -0.081251 -0.043853
12420 -0.3962259 6.141432780000001 -1.97619507 -0.959607 0.558331 -0.5308470000000001
12440 0.10508471999999999 4.52867859 -1.82650428 1.102571 0.166981 -0.887682
12460 1.0568018700000001 2.946924 -0.86235786 1.7251419999999995 0.975095 0.27678800000000003
12480 2.05837344 2.3095486800000007 0.27872172 0.501015 1.022703 0.886677
12500 2.5400640600000006 2.6177592600000006 1.0734200100000002 3.47996 4.585524 1.099472
12520 2.81729466 3.0274542900000005 1.6874377200000001 1.849272 2.283212 1.509775
12540 1.39330449 2.87926443 2.5077303000000004 1.612786 -0.7246199999999999 0.789859
12560 -0.1938456 4.130059050000001 3.7200599100000002 2.198734 0.276712 0.555524
12580 -1.3145694300000001 6.547978800000001 5.96344995 2.127681 0.52986 0.7138680000000001
12600 -1.69896447 10.14919056 8.721609930000001 1.957647 0.507814 0.780007
12620 -1.50227397 13.123955339999998 11.73439827 1.738207 0.482462 0.916307
12640 -0.6792836400000001 12.70737369 12.953908800000002 1.80904 0.277924 0.856175
12660 1.29420387 14.04828297 9.465413940000001 1.892297 0.620158 0.714245
12680 0.8331632999999999 11.92525182 8.215816140000001 1.640326 0.987756 0.6468520000000001
12700 2.3474152800000003 11.953543860000002 9.24552279 1.441364 1.63805 0.700177
12720 5.03044047 16.49465172 8.85678192 1.414932 1.641539 0.649781
12740 2.51642196 22.90417218 0.47615778 1.6817 1.145384 0.619166
12760 1.60331697 1.9279887300000003 -6.4080293400000015 1.863595 0.332927 0.640705
12780 8.6879322 -6.89436009 -5.914498050000001 1.873483 0.180472 0.662334
12800 8.03918709 -1.7024077800000001 4.072582260000001 1.440439 0.371888 0.588561
12820 -1.27489779 18.520681590000002 -2.64230388 0.749848 0.597659 0.405055
12840 -3.19376322 18.699115680000002 -7.754922720000001 0.355195 1.007383 0.316316
12860 -4.483179810000001 15.54023682 2.00583108 -0.045936000000000005 1.085186 0.38819
12880 -2.23380567 8.05130244 1.8775457100000001 -0.143396 0.669387 0.291902
12900 0.054484740000000004 6.47897526 -0.12199716 -0.14067000000000002 0.4546310000000001 0.182169
12920 1.01069487 6.89600817 0.40131729000000005 -0.498251 0.190467 -0.046453
12940 2.05522443 7.058873790000001 1.18343916 -1.404631 -0.266327 -0.378007
12960 2.5845229800000005 8.609344290000001 1.09138212 -2.231131 -0.6080899999999999 -1.040298
12980 1.24990191 10.30083354 1.8505976400000002 -3.21812 -0.501958 -1.1509459999999998
13000 -0.12573477 9.541009800000001 1.65825297 -3.3840550000000005 0.068714 -0.92851
13020 -0.46448388 7.76420298 1.3187583 -3.091713 0.124054 -0.6359819999999999
13040 -0.40715424 7.88560173 -0.6956074800000001 -2.886193 1.544083 -0.551977
13060 -0.7457463900000001 9.00661986 -2.1356075700000003 -2.91 1.027158 -0.996929
13080 -0.58677534 9.32844672 -2.1944381400000004 -3.028695 -0.943253 -1.247334
13100 -0.43289568 9.61151427 -0.72419382 -2.474851 0.084737 -1.194576
13120 -0.68767119 10.107576540000002 1.9886145300000002 -2.105093 -0.4982720000000001 -1.439074
13140 -0.33410898 10.49676867 3.21172533 -2.112541 -1.825107 -1.823054
13160 0.70757568 11.665836180000001 1.30678029 -2.166727 -2.494945 -1.83112
13180 0.34009308 11.76658488 -0.59815494 -2.067909 -2.658933 -1.666781
13200 -2.02948299 13.03084863 -0.13157172 -1.694643 -2.666616 -1.401381
13220 -2.5456067100000004 12.8585556 0.45295713 -1.147094 -2.3828970000000003 -1.166116
13240 -1.2290949000000002 12.997622159999999 0.26389881000000004 -0.484457 -2.11986 -0.920407
13260 -2.83929849 14.373111690000002 1.0990143 0.124119 -1.775684 -0.671974
13280 -3.3374601000000004 13.716273330000002 -0.42301701 0.622658 -1.334817 -0.532324
13300 0.18516375000000002 13.60520451 3.0915234000000003 1.228093 -0.823048 -0.367449
13320 3.0731100300000005 13.38187005 3.9303765000000004 1.819142 -0.379595 -0.155586
13340 5.487733620000001 12.99207951 -1.8775457100000001 2.197377 -0.004817 0.098676
13360 5.295840210000001 13.433666850000002 -3.36544803 1.916459 0.132628 0.069832
13380 4.34186676 15.176638980000002 -0.21420135 0.518227 -0.527029 0.012841
13400 1.2148704000000001 15.47332281 -0.5740517699999999 -0.631672 -1.674665 -0.238343
13420 0.12917808 13.43171466 2.47644621 -0.322593 -0.64549 -0.801524
13440 0.49232466 11.749064220000001 0.21255327 -0.305421 -0.32960700000000004 -1.222689
13460 0.5017520700000001 10.44947466 -1.7209683 -0.263418 -0.136189 -0.877607
13480 0.36972909000000004 8.355177000000001 -2.22287733 0.237614 -1.011795 0.006161
13500 -0.17872839 6.058499040000001 -1.6509150900000003 1.176185 -1.450108 0.112623
13520 0.35925201 3.89400102 -0.7741855799999999 1.467275 1.035584 0.026013
13540 1.02162321 2.32107543 -0.24952716000000003 -0.95644 1.196795 -0.358591
13560 1.83219408 1.84341672 0.9157929300000001 -0.124096 1.230974 -0.835657
13580 2.8403481600000005 3.0710106900000005 1.10590092 0.8545020000000001 0.185932 0.446906
13600 3.34704447 3.0532055400000004 1.23717834 1.107886 0.041448 0.6614369999999999
13620 2.5664137200000003 3.2383692900000005 1.66214754 4.117861 4.293131 -0.124153
13640 1.59748002 3.7056980700000004 2.2829047200000003 2.638928 3.766314 1.298678
13660 0.18726309 5.28910074 3.4624493100000002 -0.376733 0.21691 0.959559
13680 -0.44966097000000005 7.11799866 5.94369261 0.8806809999999999 -2.251368 1.209718
13700 -0.77044797 10.638680130000001 8.24291136 2.36523 0.527755 1.03386
13720 -1.0324044 15.53439987 10.31340015 2.598069 0.389246 0.838043
13740 -0.14010642 14.5359675 13.732293060000002 1.875918 0.5858180000000001 0.525099
13760 1.84207275 14.75197389 9.290432970000001 1.583398 0.7616189999999999 0.504671
13780 -1.04168466 10.596310740000002 6.90499413 1.887511 1.175241 0.433626
13800 -2.274968430000001 5.132680290000001 8.1468126 1.823871 1.590538 0.5287890000000001
13820 -0.8858626199999999 7.73157492 7.66676025 1.36313 1.7004990000000002 0.602342
13840 3.03434091 13.232483370000002 2.8062191700000003 1.302847 1.442514 0.701596
13860 3.46215501 20.55150855 -7.148085930000001 1.542585 0.611073 0.891275
13880 1.33162902 21.043538910000002 -0.54860463 1.5963120000000002 0.172191 0.8420059999999999
13900 4.323011940000001 -1.32369273 2.48648184 1.308182 0.362831 0.570557
13920 12.8724858 -8.045465490000002 0.52570809 0.924231 0.596421 0.297316
13940 2.0311310700000003 1.87065909 5.68682757 0.447233 1.0179280000000002 0.263534
13960 -10.35890874 18.38133054 -5.403760020000001 -0.018046 0.887986 0.395046
13980 -3.8965516200000003 17.73511641 -13.2402627 -0.201618 0.253241 0.248231
14000 -2.3905302300000004 13.37543469 3.0072456900000004 -0.703394 0.244914 -0.164392
14020 2.23170633 5.93350983 4.94886051 -1.347244 -0.266836 -0.5666800000000001
14040 3.1731033600000003 5.889355020000001 -0.21285737999999998 -2.251698 -0.741969 -1.108637
14060 3.09317148 9.27651258 -1.17475731 -3.144294 -0.546697 -1.481522
14080 1.54119024 9.936637290000002 -1.03314996 -3.234277 -0.025867 -1.115349
14100 0.22423698 9.97720164 0.82493271 -2.9154150000000003 0.5341739999999999 -0.519908
14120 -0.17499078 9.38892537 1.8979014600000002 -2.8255220000000003 2.161032 -0.377155
14140 -0.6310871100000001 7.92242847 1.1380875300000002 -2.867216 1.826885 -0.69428
14160 -0.34518447 7.01980056 -1.02941235 -2.767722 -0.135202 -0.818189
14180 0.37795968 7.922722770000001 -2.21374422 -2.524798 0.7055560000000001 -1.092103
14200 0.94783239 9.26123841 -0.77927697 -1.990436 0.33126300000000003 -1.193645
14220 -0.18202455 9.36782406 -0.08532738000000001 -1.794784 -0.955502 -1.385046
14240 -2.07333369 9.61885215 1.5283195200000002 -1.901342 -2.095049 -1.367238
14260 -2.67239115 11.28069558 3.2989852800000006 -1.775777 -2.769079 -1.016189
14280 -0.94379067 11.17470834 1.53011475 -1.601783 -2.444934 -0.7098770000000001
14300 -1.55512044 12.666956490000002 -0.04505733 -1.179828 -1.963276 -0.581497
14320 -3.2260871700000004 13.345494570000001 1.2150273600000001 -0.457821 -1.77505 -0.326731
14340 -3.1750457400000003 12.861557460000002 1.9353266100000002 0.31045900000000004 -1.536763 -0.11016199999999997
14360 -2.5685130600000003 14.900310900000001 0.42571475999999997 1.022034 -1.228504 -0.026538
14380 -2.9431765800000003 15.207030360000001 -2.11016043 1.783557 -0.835822 -0.0527
14400 1.97634222 17.38813671 3.51663975 2.08791 -0.589625 -0.345719
14420 8.32494258 15.358516380000001 0.8795744100000001 1.477666 -0.216467 -0.6933590000000001
14440 9.517956300000002 14.281947360000002 -3.21127407 -0.589589 -0.207783 -0.540099
14460 8.01927279 13.6766115 0.94752828 -0.951077 0.493575 -0.5947979999999999
14480 5.00528763 14.277464190000002 3.28357377 -0.6924140000000001 0.12928599999999998 -0.827533
14500 1.7169265800000002 14.428047690000001 -1.28567898 -0.68774 -1.7688 -1.156217
14520 -0.9530709300000001 11.994559470000002 1.3129213499999999 -0.506454 -1.937988 -0.828926
14540 -1.10963853 8.75289402 0.023946210000000002 0.120681 -1.068304 -0.146271
14560 -0.17124336 8.346946410000001 -1.54568322 1.22476 0.705206 0.005515
14580 0.20462679 7.1917992900000005 -1.83174282 1.060009 2.729743 -0.246058
14600 0.18037647 4.64918463 -2.30460444 -0.8580180000000001 0.853037 -0.525174
14620 0.98510058 2.6463456 -1.6127443799999999 0.452855 0.773292 0.430529
14640 2.28439584 2.16420372 -0.13127742 1.292873 0.286377 1.054453
14660 2.7536768100000004 2.7675972 0.50654916 3.5201910000000005 3.651534 0.468563
14680 3.2162085 2.45639457 1.1335945500000002 3.464585 4.4866220000000006 1.336637
14700 2.05417476 2.4665675400000002 1.7254612800000002 1.07069 1.416223 0.817513
14720 0.8319664800000002 3.78876915 2.48468661 1.323203 -0.649859 0.726852
14740 -0.32167971 6.1270611299999995 3.75478731 2.14875 0.69188 0.937066
14760 -0.88465599 9.57499164 7.386988860000001 2.155357 0.791775 0.991464
14780 -1.9205037 15.474970890000002 11.60312085 1.746154 0.907045 0.75879
14800 -1.2406216500000002 14.81499333 15.66807093 1.522618 1.182968 0.682099
14820 -1.35138636 14.10995844 11.23848315 1.486484 1.06863 0.535647
14840 1.58220585 12.25591749 5.9959308600000005 1.4652969999999998 1.23849 0.4338
14860 3.1786362 6.52792716 5.38655328 1.370651 1.60503 0.494627
14880 5.18521284 6.89915718 7.12682766 1.245859 1.406134 0.524988
14900 2.2848471000000004 8.83387557 3.1696600500000005 1.299296 1.159987 0.495767
14920 1.6013745900000003 17.09849646 -3.2334250500000006 1.369604 0.7322810000000001 0.567308
14940 2.89617687 22.30197552 0.9033734700000001 1.529826 0.412749 0.6820689999999999
14960 7.6392137700000005 1.9749884400000002 2.38184838 1.4808940000000002 0.470342 0.70729
14980 9.819731520000001 -3.7769481000000003 -1.93382568 1.001242 0.423602 0.557653
15000 0.8201454300000001 4.321363860000002 3.7049427 0.713064 0.6587609999999999 0.341695
15020 -5.8207929300000005 17.51852142 -7.26304932 0.296971 0.907305 0.35235700000000003
15040 -3.7380220200000003 17.154923580000002 -8.496480240000002 0.052197 0.5121020000000001 0.294538
15060 -3.79355643 13.578717509999999 1.40751918 -0.228167 -0.035041 0.16936700000000002
15080 0.28874754 7.38234873 2.38993182 -0.686738 -0.052486 -0.131848
15100 2.54635227 6.50652174 1.09392291 -1.595815 -0.405904 -0.472099
15120 3.1174218000000002 7.444916910000001 -0.14550192 -2.437997 -0.458732 -0.915885
15140 2.15507061 8.095761360000001 -0.53288901 -3.13537 0.045658 -0.972677
15160 0.26375166 9.31019031 -0.9515699999999999 -3.206773 -0.153275 -0.7133430000000001
15180 -0.79005816 9.86283666 0.43874244 -2.857686 0.392012 -0.449889
15200 -0.82463841 8.56518948 1.31067486 -2.798037 1.46491 -0.542714
15220 -0.27513126000000004 8.21402091 0.5070004200000001 -2.776707 0.92807 -0.842047
15240 -0.5752584000000001 9.25331193 -0.8041257 -2.5798080000000003 -0.34039200000000003 -0.8166140000000001
15260 -0.24174783000000002 9.04419216 -1.4964370200000001 -2.278278 0.8608370000000001 -0.711361
15280 0.56627244 8.93821473 -0.99258561 -2.084617 0.465013 -0.993648
15300 -0.20522520000000002 10.532398590000001 -0.10193571 -1.922741 -0.40243 -1.322555
15320 -1.3668076800000002 9.8680752 1.7435705400000001 -1.915023 -1.329115 -1.355497
15340 -1.674567 11.27844909 3.31815402 -1.76511 -1.924994 -1.121882
15360 -1.31112612 12.138707609999999 1.44644526 -1.404829 -1.981601 -0.8650559999999999
15380 -1.68324885 12.72234375 -0.46463103000000006 -0.968484 -2.072143 -0.712341
15400 -2.99571894 12.770697240000002 0.9199916100000001 -0.39556 -1.868293 -0.505638
15420 -1.74507147 14.07896865 2.46372264 0.148523 -1.355732 -0.219415
15440 -0.9617527800000001 14.181806880000002 0.73227726 0.7965949999999999 -0.817621 -0.019025
15460 -1.5229338300000004 15.153438330000002 -1.6242711300000001 1.46018 -0.424297 0.14533900000000002
15480 0.05703534 14.059211310000002 2.08860786 1.792027 -0.365994 0.195652
15500 3.3223428900000003 12.98040561 2.34652257 1.183657 -0.555079 0.057049
15520 6.364767240000001 12.41922456 -4.29321897 -0.796694 -0.496615 -0.325395
15540 6.00147351 12.53388384 -2.3423337 -1.567947 -0.423923 -0.518883
15560 4.03231221 13.387707 2.38139712 -1.011554 -0.254657 -0.706425
15580 2.57449716 13.655951640000001 1.4615624699999998 -0.603434 -0.733971 -1.074701
15600 2.90995011 12.0948471 0.34967745000000006 -0.4573 -0.966537 -0.585205
15620 1.7121393 9.73410984 1.03793724 0.12687 -1.587019 0.095855
15640 0.40835106000000004 9.76164651 -0.29219085 0.922362 -0.8520129999999999 0.21370100000000006
15660 -0.42676443000000003 8.71682265 -0.9430353 1.148235 1.244394 -0.233924
15680 -0.34652844000000005 7.5163239 -0.9457330500000001 -0.8680709999999999 0.924382 -1.307274
15700 0.01182105 5.4066049199999995 -0.8556183900000001 0.7874979999999999 0.752057 -0.940839
15720 1.8083852100000002 3.7901229300000003 -0.50879565 1.540755 1.012302 0.987956
15740 2.5553382300000003 3.17459448 0.01631403 1.711436 1.639477 0.908228
15760 2.3472681300000002 2.8445370300000006 0.36958194 3.9124 5.444482 1.170827
15780 2.35176111 2.40684426 1.21966749 1.92488 2.217042 1.475137
15800 1.54403514 2.17796715 2.1592594800000002 0.811769 -1.07474 0.862693
15820 0.28216503000000004 3.7020978 3.2555760300000003 1.830207 -0.070201 0.783062
15840 -0.41882814000000007 5.9384540700000015 5.104829700000001 2.134648 0.947315 1.007143
15860 -0.93315663 10.63253907 8.82310419 2.052044 0.25458000000000003 0.8888809999999999
15880 -2.37586428 17.0169165 11.4643584 1.679491 0.372289 0.813489
15900 -0.13682007 14.127018030000002 13.79561661 1.80934 1.019397 0.579626
15920 1.5751720800000002 12.903318630000001 9.50822478 1.81543 1.159993 0.31350100000000003
15940 0.6679138500000001 8.506064610000001 6.26238027 1.636872 1.791238 0.317854
15960 -0.6331864500000001 3.98036826 5.773489110000001 1.496298 1.765538 0.472866
15980 1.8853250400000001 7.16095665 5.704789679999999 1.371798 0.7175819999999999 0.777782
16000 3.61977228 12.38853888 7.45330446 1.362977 -0.253025 0.820625
16020 2.7304761600000003 24.844884480000005 1.28013633 1.46516 0.02099 0.672505
16040 -0.78690915 27.06821307 1.1508111 1.552448 0.5040020000000001 0.486625
16060 5.869293570000001 -5.38744599 -0.87567984 1.283907 0.7162470000000001 0.389406
16080 11.960430480000001 -9.43891713 -3.7308411 0.6238600000000001 0.8079810000000001 0.398564
16100 3.23717247 0.75982374 6.94405755 0.226716 1.006365 0.415832
16120 -6.15445065 19.80995103 -8.4479796 -0.112961 0.679441 0.414947
16140 -3.18657249 19.27107792 -11.91492189 -0.085325 0.162653 0.15729200000000002
16160 -4.31701803 13.95053613 4.3963613100000005 -0.5088189999999999 0.078128 -0.182047
16180 -0.10148445 6.61340169 4.275256860000001 -1.221255 -0.264957 -0.346817
16200 2.90351475 5.887854090000001 0.25836597 -2.1961470000000003 -0.57435 -0.717494
16220 3.75748506 6.969357540000001 -0.15462522000000004 -3.213071 -0.191466 -1.013508
16240 2.1571601400000002 8.40248082 0.10956789 -3.3096330000000003 0.07777200000000001 -0.8607040000000001
16260 -0.17198892 10.697500889999999 0.67329954 -3.112445 -0.173258 -0.593017
16280 -1.69747335 11.029961790000002 0.07768538999999999 -2.815459 1.250443 -0.44108
16300 -1.1154754800000002 8.37134388 1.03914387 -2.828837 1.854311 -0.659864
16320 0.6385721400000001 6.564449790000001 -1.13074965 -2.732398 0.064139 -0.8822909999999999
16340 1.4636520000000002 6.996747060000001 -2.22811587 -2.392701 0.5617939999999999 -0.953195
16360 0.55744344 9.51885882 -0.68976072 -2.1046 0.596904 -0.925591
16380 -1.03974228 9.81643536 0.06107706 -1.901962 -0.73923 -1.297409
16400 -1.45437174 10.25427528 -0.32901759 -2.017391 -1.614013 -1.415667
16420 -0.44352972000000007 10.647057870000003 1.8799393500000001 -1.957473 -2.464556 -1.3543379999999998
16440 -0.20133063 11.078158319999998 3.9016332000000005 -1.630718 -2.297688 -1.010438
16460 -0.23261472000000002 11.515252680000001 1.5018227100000001 -1.322366 -2.160809 -0.876001
16480 -2.48632488 12.44512296 -0.89678115 -0.704725 -2.056931 -0.748974
16500 -4.538262960000001 13.510900980000002 -0.051198389999999996 -0.013837 -1.700166 -0.523483
16520 -2.70742266 13.04297379 1.6697797200000002 0.590863 -1.081999 -0.325635
16540 0.18067077 14.94252333 1.08255312 1.137046 -0.664966 -0.12793800000000002
16560 -1.4895504000000002 13.877196570000002 -0.80472411 1.677779 -0.43157 -0.089209
16580 0.42855966000000006 14.39810757 2.38438917 1.967215 -0.5065689999999999 -0.232369
16600 3.5820528300000003 13.6794564 3.30318396 1.421332 -0.586046 -0.396314
16620 6.57657495 13.71238857 -3.44642958 -0.422746 -0.30327 -0.249324
16640 6.362373600000001 13.751451990000001 -2.1405518100000007 -0.553995 0.237842 -0.65579
16660 4.909787280000001 13.679299440000001 3.2998878000000005 -0.8554200000000001 -0.8478629999999999 -1.14575
16680 2.36702547 13.656402900000002 0.9231308100000001 -0.727638 -1.7214029999999998 -1.2526959999999998
16700 0.9430353 12.56681601 0.22019526000000003 -0.33146 -1.341229 -0.233469
16720 0.03458025 9.29132568 1.0071044100000002 0.401424 -0.338331 0.078013
16740 -0.14265702 8.81157744 -1.19302353 1.7589830000000002 1.69894 0.116932
16760 -0.15433092 7.6173570900000005 -1.4934449699999999 -0.468458 1.358647 -0.763451
16780 -0.38634723000000004 6.96277503 -1.5947822700000003 0.13451300000000002 -0.371851 -0.630971
16800 0.29278926000000005 5.022052919999999 -0.57330621 0.7378899999999999 0.641112 0.737133
16820 1.9682587800000002 3.66602643 -0.72089766 1.6526439999999998 0.661553 0.427303
16840 2.53213758 3.7247000400000005 0.30536568000000003 3.927988 4.798858 0.375937
16860 2.70083034 3.6178299000000003 0.92702538 2.456972 3.758997 1.42133
16880 2.68436916 3.3217444800000004 1.5230809799999998 0.5655319999999999 -0.623938 1.028106
16900 1.8425141999999999 2.7801638100000003 1.60121763 1.468247 -0.755341 0.8722110000000001
16920 0.66447054 3.4197856200000003 2.6776296900000003 2.25482 0.514724 0.6592279999999999
16940 -0.7339253400000001 5.75119098 4.1472756 2.1724080000000003 -0.105692 0.570785
16960 -1.5471841500000003 8.70844491 7.60119021 1.804433 0.574392 0.5139319999999999
16980 -1.27085607 13.011238440000001 12.353958630000001 1.697559 1.398562 0.428808
17000 0.03622833 14.828315310000002 16.130004210000003 1.783937 1.358968 0.398484
17020 2.59784496 17.55758484 10.06147935 1.756344 1.738925 0.508899
17040 1.8959590800000001 12.30112197 6.3063879300000005 1.459823 1.873708 0.626296
17060 0.42616602000000003 3.3441995700000002 8.35996428 1.281749 1.494791 0.700314
17080 1.1199684600000002 5.7212508600000005 7.136706330000001 1.34164 0.926342 0.812555
17100 2.0956416300000003 12.30485958 1.9483444800000003 1.488031 0.4869979999999999 0.798118
17120 3.5612458200000003 23.13094995 -11.22485706 1.517399 0.694185 0.642097
17140 0.37137717000000003 22.1242968 3.3154562700000003 1.102063 0.929609 0.470115
17160 6.2354322 -2.8990217700000005 3.4239843000000003 0.729467 0.908288 0.26457800000000004
17180 8.251593210000001 -5.00020605 -2.6985838500000003 0.329785 0.879373 0.382532
17200 -2.7413946900000004 6.90260049 4.258942830000001 0.07434500000000001 0.415354 0.4935060000000001
17220 -5.929772219999999 15.304021830000002 -8.048761650000001 -0.087926 0.004265 0.341211
17240 -2.160162 17.42032332 -6.0893416799999995 -0.573874 0.244954 -0.020346
17260 -1.2807347400000002 12.95795052 1.5106615200000002 -1.424588 0.069191 -0.349734
17280 1.9622648700000003 7.32382227 2.06914482 -2.111607 -0.353944 -1.030175
17300 3.2073795000000005 6.758442540000001 -0.18067077 -3.057537 -0.303727 -1.312448
17320 2.5515908100000004 7.419175470000001 -0.8345170799999999 -3.182696 0.29672 -1.112198
17340 1.23747264 8.29485531 0.65743677 -2.914829 -0.009382 -0.7200340000000001
17360 0.88929612 9.980193690000002 0.36927783000000003 -2.808217 1.595885 -0.52052
17380 0.17603064 9.549387540000001 0.48873420000000006 -2.931661 1.409858 -0.778586
17400 -0.38529756 8.15698557 0.0058369500000000005 -2.854581 -0.412107 -0.7596890000000001
17420 -0.34024023 7.924518 -1.5527169900000002 -2.432887 0.759598 -0.834089
17440 -0.13785993 8.22569481 -1.2638223 -2.160614 0.892423 -0.986181
17460 0.43439661 9.22576545 -0.51867432 -1.889664 -0.423762 -1.344729
17480 -0.12379239 10.361606490000002 -0.33560010000000007 -1.950871 -1.517361 -1.401439
17500 -1.46275929 10.759627620000002 0.51373008 -1.949837 -2.336052 -1.262582
17520 -2.58407172 10.261309050000001 2.82028671 -1.6617669999999998 -2.224468 -0.912473
17540 -1.72201797 11.37170295 2.17796715 -1.319997 -2.345004 -0.636466
17560 -1.06832862 11.27485863 -0.48708612000000007 -0.788992 -2.285582 -0.5057149999999999
17580 -2.3137375500000004 12.6271377 -0.30565998000000005 -0.108077 -1.807208 -0.313565
17600 -1.84027752 12.751528500000001 1.91033073 0.5918680000000001 -1.404385 -0.158572
17620 -0.69814827 15.160324950000001 1.62157338 1.330839 -0.8971680000000001 -0.036556
17640 -2.35609713 13.96715427 -0.10612458 1.787005 -0.55774 -0.06692000000000001
17660 -1.25169714 14.291227620000003 -0.9755260200000001 1.454383 -0.107778 -0.148868
17680 2.04953463 13.856232600000002 4.5553225500000005 0.326023 0.173319 -0.201975
17700 5.619462300000001 13.15539639 -0.64725399 -0.482233 -0.8956069999999999 -0.187023
17720 6.655457159999999 13.075611660000002 -4.59664227 -0.441417 -0.541456 -0.608071
17740 5.855373180000001 12.784019220000003 1.6271160300000003 -0.681481 -0.8992530000000001 -0.966076
17760 2.99767113 14.11235208 2.61820071 -0.377087 -1.085582 -0.987212
17780 2.4830385300000004 13.65789402 -0.8137100700000001 -0.0606 -0.779219 -0.354074
17800 2.00208366 11.8460655 2.1844123200000003 0.722407 -0.016301 -0.27908
17820 0.66701133 10.153830690000001 0.37721412000000004 1.553781 1.330946 -0.6510130000000001
17840 0.15672456 9.54355059 -1.34286147 -0.125192 1.088778 -0.972215
17860 -0.20896281000000003 7.74384723 -1.55990772 0.114515 0.488718 -0.30427
17880 -0.17678601 6.014197080000001 -2.20985946 0.39509 0.619837 1.02639
17900 0.39233133000000003 3.800894310000001 -0.9068167800000001 2.1340060000000003 2.0229 0.56138
17920 1.4010838200000002 3.3036254100000004 -0.62345493 4.074544 4.373564 0.577264
17940 2.12408082 3.16322469 0.10837107 1.875937 3.113225 0.913898
17960 2.01944736 2.55742776 1.5459873300000002 0.6392979999999999 0.125634 0.793721
17980 0.9803133 1.86047631 2.1026754000000003 1.592179 -0.017376 1.098594
18000 -0.22902426 2.6608644000000004 2.6676038699999998 2.043428 0.454006 1.107551
18020 -0.9548661600000001 5.416336439999999 4.211197560000001 1.996798 0.25497800000000004 0.8372200000000001
18040 -0.72703872 8.57416563 7.38429111 1.554404 0.7436229999999999 0.767274
18060 -0.07380063 14.178069270000002 10.76022603 1.530474 1.1238709999999998 0.535884
18080 1.86197724 14.22776673 12.5775972 1.570723 0.982356 0.459434
18100 3.5471782800000002 11.81552697 9.95639463 1.412839 1.334001 0.570044
18120 2.66356215 13.08803112 5.94952956 1.258259 1.400426 0.609472
18140 -0.6391705499999999 8.53315983 6.856042230000001 1.292142 1.044752 0.548207
18160 -1.28613024 5.29658577 8.4448404 1.413497 0.544574 0.583879
18180 0.88945308 9.96074046 8.21043045 1.560604 0.13356300000000002 0.6762319999999999
18200 0.06287229000000001 17.69799537 -2.53707201 1.606884 0.411637 0.627061
18220 1.8832355100000002 21.53317563 -6.712943760000001 1.1565219999999998 0.542413 0.547904
18240 5.9938315200000005 4.62672954 3.46723659 0.659553 0.6672859999999999 0.387244
18260 11.216626470000001 -3.1581333000000003 1.0910780100000002 0.280858 0.932727 0.402418
18280 4.11000741 1.81153422 3.7820394900000003 0.017134 0.557976 0.308121
18300 -6.11403345 15.45146613 -4.3581906 0.014979 0.100781 0.091843
18320 -4.37659416 18.58969494 -9.54026424 -0.378756 0.297108 -0.178215
18340 -3.6458178300000004 13.714929360000001 1.45018287 -1.085692 -0.232476 -0.32882
18360 0.83960847 7.108865550000001 2.0261868300000003 -1.899596 -0.488525 -0.858675
18380 3.0217644900000002 5.99083947 0.15462522000000004 -2.733022 -0.392646 -1.202177
18400 2.6331707700000004 7.75042974 0.13367106 -3.204829 0.30882 -0.922224
18420 0.75293712 9.174567060000001 -0.08622009 -2.994134 0.35333000000000003 -0.514885
18440 0.35491599000000007 9.86658408 0.20103633 -2.805965 1.5844200000000002 -0.319664
18460 -0.35431757999999997 9.5034375 0.52719921 -2.732648 2.332423 -0.693988
18480 -0.4090966200000001 8.376876720000002 0.97163145 -2.641344 0.327172 -0.938608
18500 -0.56282913 7.915090590000001 -0.11824974 -2.358264 0.469632 -1.112002
18520 -0.8454454200000001 8.535553470000002 -1.50078285 -1.973664 0.8346979999999999 -1.098033
18540 -0.50265459 8.57791305 -1.19302353 -1.7626689999999998 -0.318071 -1.245701
18560 0.05957613 9.102865770000001 -0.41643450000000004 -1.947719 -1.434656 -1.30752
18580 -0.65129571 10.045606770000001 -0.018707670000000003 -1.935913 -2.38687 -1.087232
18600 -1.2231108000000002 10.04081949 1.96197057 -1.715309 -2.363341 -0.7695270000000001
18620 -1.31965101 10.726391340000001 2.9572539300000003 -1.416518 -1.930482 -0.585329
18640 -0.48679182000000004 11.31093 0.85277349 -0.906796 -1.614283 -0.447578
18660 -1.6889386500000003 12.11759649 -0.8494871400000001 -0.310906 -1.297547 -0.25260900000000003
18680 -3.7788904800000003 12.801078810000002 0.05598567000000001 0.241184 -0.957367 -0.021658
18700 -2.6912557800000005 12.53598318 1.8564444 0.885727 -0.7982060000000001 0.109759
18720 -0.44652177000000004 14.165041590000001 0.77239035 1.453568 -0.455232 0.161356
18740 -2.63272932 14.13181512 -0.99348813 1.675288 0.31261700000000003 0.023052
18760 -0.8640059400000001 14.433580530000002 0.06122421 0.890066 1.177512 -0.06793099999999999
18780 3.40017543 15.12454788 3.9540284100000003 -0.097466 0.177079 0.023661
18800 7.59670704 13.53949713 -1.49718258 -0.435594 -0.59175 -0.290704
18820 8.29380564 13.726750410000001 -3.4031772900000004 -0.366692 -0.555579 -0.8703139999999999
18840 6.823855620000001 13.77764469 1.6408892700000002 -0.6154430000000001 -0.93258 -1.213399
18860 4.0978822500000005 14.535820350000002 1.97739189 -0.415057 -0.861188 -0.8595780000000001
18880 1.6178357700000001 13.88946888 -0.6259957199999999 0.6959069999999999 -1.14654 -0.260725
18900 -0.33994593000000006 11.19342582 1.93458105 1.781896 -0.4768850000000001 -0.036081
18920 -0.27408159 8.812175850000001 -0.13756563000000002 1.900986 1.461939 -0.144555
18940 -0.5578947 8.22868686 -1.44673956 -0.678198 1.564757 -0.17765799999999998
18960 -0.43439661 6.908133330000001 -1.8558361800000003 -0.987152 -0.236718 -0.418926
18980 0.1938456 4.721180220000001 -1.33447392 0.791615 0.358086 0.60648
19000 1.32923538 3.25647855 -0.94827384 1.443319 0.407665 0.696426
19020 2.36178693 3.11876577 0.0580752 3.86818 5.5136910000000015 0.153482
19040 3.18447315 3.4473321 0.32497587 2.585946 4.4582690000000005 1.197008
19060 3.4126047 3.03434091 0.8900514900000001 0.102158 -0.046947 0.728233
19080 1.78084854 2.53512963 1.4223420900000001 1.3017219999999998 -0.681743 0.726743
19100 -0.12783411 3.6827917200000004 1.8628797600000002 2.115446 1.021545 0.842408
19120 -0.70039476 6.10685253 3.75853473 1.957916 0.250447 0.938435
19140 -0.9907903800000001 9.127273050000001 8.07315912 1.577271 0.582793 0.740934
19160 -0.39787398 13.117824090000001 13.32334359 1.608413 1.299777 0.700709
19180 -0.38215836 13.117667130000001 12.35366433 1.569697 0.8127449999999999 0.518397
19200 -1.36635642 11.44220742 9.42724323 1.519806 1.095261 0.507004
19220 -1.33028505 12.6328275 5.4546543000000005 1.3238219999999998 1.498242 0.60019
19240 -2.31313914 9.302558130000001 5.44163643 1.226505 1.180183 0.570008
19260 -1.55720997 3.2927068800000003 7.89308676 1.387891 0.976274 0.5404180000000001
19280 -0.03981879 6.23887551 8.01358299 1.533189 0.448957 0.682046
19300 2.41447644 10.514730779999999 4.24756323 1.605468 0.076271 0.845398
19320 4.45443651 19.36014291 -2.30520285 1.39087 0.463927 0.7910590000000001
19340 5.55734538 26.25060843 0.58109535 0.966275 0.504574 0.585079
19360 6.43482045 4.585861080000002 3.0662234100000005 0.545605 0.811104 0.48454
19380 10.22239278 -8.991796950000001 -0.97941078 0.175308 0.837777 0.528921
19400 3.0777501600000003 -0.31285071000000003 4.81503249 0.073417 0.214952 0.260884
19420 -8.48854395 16.9594299 -4.1848479 -0.26052800000000004 0.133236 -0.059675
19440 -2.6941006800000005 18.45452295 -13.414802220000002 -0.999629 -0.133466 -0.388167
19460 -4.05326637 16.084201320000002 3.48071553 -1.6472380000000002 -0.819815 -1.079746
19480 -0.13172868000000001 7.38160317 3.73383315 -2.52285 -0.535555 -1.343668
19500 2.03202378 6.129307620000001 0.0059841 -3.136678 0.386873 -1.05324
19520 3.64746591 6.58181349 -0.69380244 -3.039269 0.247097 -0.549248
19540 2.83045968 8.29844577 0.66566736 -2.909338 1.337777 -0.355321
19560 0.6620769 9.9170271 0.93255822 -2.978951 1.7310880000000002 -0.616958
19580 -1.4114137500000001 10.853479890000003 -0.73662309 -2.952613 0.086796 -0.76315
19600 -1.8585339300000001 8.60785317 1.7351927999999999 -2.493031 0.433832 -0.834091
19620 -1.09003815 7.66540647 0.60025428 -2.286998 0.8446790000000001 -0.925046
19640 -0.59081706 8.64392454 -2.09399355 -2.09628 -0.216888 -1.218251
19660 -0.47780586 8.84195901 -1.2478025700000002 -2.132643 -1.191468 -1.223665
19680 0.5312409300000001 8.566984710000002 -0.31060422000000004 -2.080107 -2.068434 -1.208288
19700 0.46044216 9.27635562 0.023504760000000003 -1.732852 -1.873845 -0.8877809999999999
19720 -0.8747773200000001 9.66076047 0.97911648 -1.309053 -1.61197 -0.6768529999999999
19740 -2.00343744 10.78357383 2.14863525 -0.840521 -1.6069719999999998 -0.468488
19760 -1.2975000300000004 11.572886430000002 1.0340524800000002 -0.321409 -1.487173 -0.241758
19780 -1.4105210400000001 12.01716171 -1.0612948500000001 0.294578 -1.18021 -0.017794
19800 -2.69574876 12.55394529 0.71625753 0.962148 -0.793519 0.203222
19820 -2.46058344 13.772563110000002 1.2829812299999999 1.525631 -0.426208 0.29962300000000003
19840 -2.9337491700000005 14.06475396 -0.88001586 1.782612 -0.273487 0.246743
19860 -3.24600147 16.9098894 -2.6207513100000006 1.182789 -0.222914 0.107892
19880 1.0837499400000001 17.01856458 3.6203706900000006 -0.21998 -0.144773 -0.101764
19900 5.7392129700000005 14.34931263 3.7214136900000003 -0.628013 0.003367 -0.563071
19920 7.60479048 12.461132880000001 -3.4188929100000003 -0.740103 -0.77391 -1.091628
19940 6.80260716 12.17298375 -2.45115603 -0.649758 -1.320835 -1.326373
19960 4.2728632200000005 13.490093970000002 1.84267116 -0.143189 -1.1527969999999998 -0.6319100000000001
19980 1.84401513 14.316527610000001 0.77943393 0.569593 -1.145307 0.072744
20000 2.31703371 12.63103227 0.6310871100000001 1.303348 0.10324 -0.041235
20020 0.94333941 10.746756900000001 0.6987466800000001 0.36849 1.357472 -0.396544
20040 0.83645946 9.747431820000001 -0.95381649 -0.968705 0.191704 -1.012209
20060 0.19100070000000002 7.2908901 -1.3847697899999998 0.373665 0.440088 -0.089821
20080 -0.33186249000000007 6.125413050000001 -1.5176952900000003 0.529103 -0.455359 0.993453
20100 0.16705449 4.13784819 -0.55864026 3.215742 3.878022 0.30377600000000005
20120 1.12460859 3.53833947 -0.06765957 3.237559 4.446229 1.245372
20140 1.89236862 3.68593092 0.19504242000000002 0.644026 0.10693 0.672
20160 2.6719398900000004 3.7223064000000003 0.63587439 1.419928 -0.43217 0.549924
20180 2.42435511 2.9412342 1.7262068400000001 2.26808 1.011527 0.8178489999999999
20200 0.7286868000000001 2.32361622 2.42226558 2.1927 0.06943099999999999 0.9809
20220 -0.3210813 3.4965783000000004 2.8168434 1.872572 0.093721 0.778875
20240 -0.57779919 6.073616250000001 4.42973493 1.762152 1.002475 0.855988
20260 -0.82493271 8.59497264 7.734861270000001 1.7879599999999998 1.043837 0.613629
20280 -1.37324304 12.99552282 11.36167713 1.731723 1.048551 0.549136
20300 -0.89978301 13.7577402 13.20509385 1.541133 1.706098 0.646307
20320 2.23919136 14.81004909 9.90265545 1.311986 1.53745 0.662014
20340 -0.47496096000000004 12.2511204 6.55801443 1.384878 1.190774 0.714242
20360 -2.18231298 4.797070379999999 7.4124360000000005 1.405226 0.402882 0.859604
20380 2.0261868300000003 5.7959442 7.2018251100000015 1.526669 0.056520000000000015 0.791462
20400 2.50997679 10.5361362 4.6411011900000005 1.499826 0.522976 0.5823729999999999
20420 3.42757476 18.17161236 -1.69073388 1.043151 0.752418 0.34388
20440 0.49531671000000005 26.99426529 -0.8791231500000001 0.7226100000000001 0.783768 0.241188
20460 5.1702525900000005 2.75712012 0.8298769500000001 0.260671 0.733513 0.42176
20480 11.00766366 -7.85581857 -2.0520852300000003 0.1103 0.075532 0.462146
20500 2.2221317700000003 0.92987028 8.199796410000001 -0.119486 -0.049338 0.187236
20520 -6.499635120000001 17.91759222 -8.6008194 -0.658096 -0.08668300000000001 -0.129468
20540 -3.6063031500000005 20.92753566 -7.8493734 -1.55725 -0.584146 -0.6863130000000001
20560 -3.4732305 14.31458523 3.3353607600000004 -2.278686 -0.961785 -1.2591629999999998
20580 0.47151765 7.18625664 1.96675785 -2.991795 -0.268242 -1.185984
20600 3.0448179900000003 6.643332000000001 -0.7442552699999999 -3.042929 -0.6284109999999999 -0.84939
20620 3.58983216 7.45838604 -0.32691825 -2.713372 0.42996 -0.474567
20640 1.86377247 8.338411709999999 0.56163231 -2.891864 1.847032 -0.649613
20660 0.9951264000000001 10.15219242 0.63273519 -2.804406 0.5156890000000001 -0.788301
20680 -0.31718673000000003 10.352924640000001 -0.30386475 -2.47928 -0.486837 -0.7783359999999999
20700 -0.7984359000000001 7.693698510000001 1.05201459 -2.39037 0.7296 -0.828412
20720 -0.6373753200000001 7.35211431 -0.17289144 -2.241577 0.12391 -1.070151
20740 -0.03726819 8.191860120000001 -1.47443319 -2.245937 -1.235818 -1.223332
20760 0.18891117000000002 8.796303270000001 -0.10687995 -2.217869 -1.82203 -1.170041
20780 -0.20238030000000004 8.9108154 -0.5352826500000001 -2.050402 -2.345391 -0.971648
20800 -1.8738081000000002 9.86299362 -0.57390462 -1.620668 -2.192174 -0.765881
20820 -3.26590596 9.06619599 1.46170962 -1.148484 -2.1358580000000003 -0.606694
20840 -1.78429185 10.14874911 2.92432176 -0.5915630000000001 -1.879964 -0.347827
20860 0.19339434 10.894191390000001 0.71581608 -0.060002 -1.570712 -0.090273
20880 -0.77463684 11.979442259999999 -0.52570809 0.599823 -1.313684 0.062489
20900 -2.6912557800000005 13.251946410000002 1.0065060000000001 1.246713 -0.945432 0.11780999999999997
20920 -2.4025082400000004 14.32251171 1.32175035 1.692437 -0.438235 -0.03355
20940 -2.8322647200000004 14.17432185 -0.21525102000000002 1.423798 0.439905 -0.155125
20960 -2.11869513 15.322288050000001 -2.11300533 -0.317952 0.024321 -0.211624
20980 0.72479223 15.939003510000001 3.23507313 -0.919427 -0.5547979999999999 -0.8528110000000001
21000 3.9598653600000002 14.768287920000002 1.62831285 -1.08815 -1.07318 -1.340435
21020 6.14771118 13.242960450000002 -4.65457032 -0.603305 -1.496499 -1.3931209999999998
21040 5.75269191 12.66231636 -2.04759225 -0.028205 -1.329428 -0.5165810000000001
21060 4.56116931 13.71762711 2.92537143 0.267208 -0.608123 -0.002695
21080 2.58707358 14.21279667 1.40662647 0.542197 1.484014 -0.224577
21100 2.85561252 12.44976309 -0.31718673000000003 -0.497068 0.61124 -0.8428100000000001
21120 0.7339253400000001 10.209522060000001 0.55953297 0.12074 -0.7142029999999999 -0.519534
21140 0.1907064 9.596240100000001 -1.7061552 0.44709 0.233313 0.938586
21160 -0.16765290000000002 8.01118935 -2.12139288 1.436187 1.913852 0.464778
21180 -0.29443734 6.370300080000001 -2.1263273100000006 4.302785 5.003785 0.751102
21200 1.43626248 4.9716099 -1.4585704199999998 1.897592 2.014887 1.170762
21220 1.9214062200000002 3.87185004 -0.41777847 1.123051 -1.155729 0.600052
21240 1.8669214800000002 3.5292063600000003 0.16031502 1.947484 0.231488 0.627534
21260 1.5751720800000002 2.79873414 0.7171600499999999 2.169128 0.42252 0.8809379999999999
21280 1.71063837 2.5105752 1.21831371 2.060851 -0.438778 0.847102
21300 0.40325967 2.38110282 2.23514964 1.833614 -0.189923 0.6165970000000001
21320 -0.59426037 3.8350233 3.65988537 1.943415 0.862649 0.5017149999999999
21340 -0.62615268 6.0038671500000005 7.096887540000001 1.947184 1.032794 0.307107
21360 0.06720831000000001 9.540862650000001 10.132278120000002 1.729256 1.059824 0.396349
21380 0.62958618 16.040939220000002 11.58381477 1.6454380000000002 1.8008939999999998 0.5593199999999999
21400 2.0101671000000003 15.51089511 10.977576390000001 1.42373 1.597182 0.5462819999999999
21420 1.3924019699999999 12.73731381 7.008273810000001 1.447528 1.262331 0.614175
21440 -0.92672127 7.50030417 7.62888384 1.467777 0.681139 0.750726
21460 0.5688132300000002 3.5811503100000004 9.63725571 1.634088 0.257328 0.830411
21480 1.77096987 9.67288563 9.70117767 1.495103 0.556538 0.717961
21500 3.24091008 17.605487070000002 3.3967321200000002 1.018096 0.6565529999999999 0.363056
21520 2.8388472300000003 25.697962080000003 -5.8323196799999995 0.6637029999999999 0.74345 0.25151100000000004
21540 3.87020196 4.11718833 -0.98210853 0.189676 0.7479859999999999 0.32724200000000003
21560 9.65821968 -7.564373280000001 -2.65906917 0.16656300000000002 0.18532 0.397236
21580 1.6714278 -1.30558347 10.23346827 -0.158349 0.382001 0.245164
21600 -7.394768190000001 14.33180178 -9.858951900000001 -0.603053 0.160903 -0.02151
21620 -2.16135882 22.4399826 -8.54153757 -1.541935 -0.283598 -0.468674
21640 -3.19974732 17.931806910000002 2.21673627 -2.155264 -0.712226 -1.171026
21660 -0.30416886 8.54108631 1.7980650900000001 -3.009358 -0.833918 -1.167222
21680 2.7407962800000005 5.886804420000001 -0.05598567000000001 -3.055571 -0.45645 -0.95118
21700 3.3196451400000004 6.3297357299999994 -1.14945732 -2.876959 0.01547 -0.574523
21720 3.1183145100000003 8.25772446 0.3731724 -2.926557 1.54226 -0.593917
21740 1.8489593700000002 9.30031164 2.22257322 -2.950272 0.818739 -0.789708
21760 1.03614201 10.418033609999998 0.8911011600000001 -2.746226 -0.7067979999999999 -0.950835
21780 0.00329616 8.455170330000001 0.6664129200000001 -2.427895 0.277688 -1.003284
21800 -0.4249692 6.78344823 1.32773445 -2.1615990000000003 0.21898 -1.20431
21820 -0.47990520000000003 7.71241599 -1.2169697400000001 -2.088272 -1.112655 -1.523627
21840 -0.06421626 8.693622 -0.9111528000000001 -2.203115 -2.118264 -1.4269999999999998
21860 0.33066567 9.09388962 0.11480643 -2.050004 -2.600739 -1.317422
21880 0.53169219 9.309591900000001 -0.46702467 -1.750077 -2.219702 -0.962234
21900 -0.70907661 9.815091390000003 -0.36539307000000004 -1.288037 -2.189298 -0.708013
21920 -2.22856713 10.72983465 1.5314685300000002 -0.696293 -2.093018 -0.523474
21940 -1.70121096 11.90369925 2.23335441 -0.121278 -1.849957 -0.267668
21960 -0.9229836600000001 11.45029086 -0.29878317000000004 0.380881 -1.471218 -0.045661
21980 -2.06749674 12.79120014 -0.37197558000000003 0.8956959999999999 -0.935735 0.128165
22000 -1.9134699300000002 13.08698145 1.78862787 1.342914 -0.173521 0.13778900000000002
22020 -1.4198013 14.978898810000002 1.1918169 1.3382120000000002 0.272463 -0.032662000000000004
22040 -3.6604837800000003 14.572794240000002 -1.36037232 0.581701 0.126472 -0.16380999999999998
22060 -2.76205455 15.02366184 -2.55024684 -0.5237350000000001 -0.898551 -0.214015
22080 1.1064993300000001 14.61426111 3.2498960400000003 -0.644936 -0.681524 -0.568721
22100 4.40788806 13.374090720000002 0.9813629700000001 -0.650652 -0.668379 -1.18621
22120 5.40571221 12.08467413 -3.93262299 -0.572481 -1.427744 -1.297922
22140 4.87431432 11.459119860000001 -0.40280841 0.116755 -2.069356 -0.7517659999999999
22160 3.5028665100000005 13.40267706 2.04160815 0.901744 -1.21204 -0.30941
22180 2.02139955 14.474753100000001 -0.29443734 1.565746 1.457369 -0.575248
22200 2.51642196 13.058846370000001 0.8556183900000001 -0.449499 1.288336 -0.7792520000000001
22220 0.9328623300000001 11.477386079999999 0.88960023 -0.566872 0.154953 -0.961285
22240 0.51073803 10.576102140000001 -1.43132805 0.811118 0.31064899999999995 0.73059
22260 0.11945637 8.11716678 -1.5911918100000002 0.723406 -0.106006 0.83947
22280 0.18157329000000003 6.753204 -1.6302552300000002 4.154974 5.459467 0.144872
22300 0.74485368 5.128481610000001 -1.0428814800000001 3.027282 4.056639 1.352293
22320 1.3665035700000001 3.10169637 -0.14878826999999997 0.20987600000000006 -0.154407 0.867992
22340 1.6560064800000003 3.22204545 0.37512459000000004 1.342755 -0.790622 0.746397
22360 2.19353562 2.95814664 0.8952900300000001 2.101477 0.6397609999999999 0.958167
22380 2.2643442 2.58437583 1.5991281 2.19277 -0.264614 0.8680969999999999
22400 0.71506071 2.23859295 2.20895694 1.884554 0.197768 0.58975
22420 0.06646275 4.115393100000001 3.7812841200000005 1.616035 0.778092 0.6191770000000001
22440 0.43289568 6.446190240000001 6.27554529 1.777524 0.700425 0.454831
22460 0.50834439 9.84278502 9.04224978 1.691439 0.7859010000000001 0.46587
22480 0.13950801 12.99178521 10.308760020000001 1.520645 1.324123 0.549445
22500 -0.37077876000000004 12.080328300000001 12.106521 1.358539 1.33429 0.545095
22520 -0.34743096000000007 13.69442646 9.14029092 1.50842 1.200653 0.534563
22540 -1.8696094200000002 12.826231650000002 5.85552033 1.651462 0.860923 0.653502
22560 -1.33432677 6.591839310000001 7.508838870000001 1.54908 0.262173 0.7582399999999999
22580 0.97208271 6.582559050000001 9.383088420000002 1.233082 0.074235 0.612063
22600 2.97057591 12.17268945 7.040754720000001 0.84711 0.569891 0.338472
22620 1.8495577800000003 23.02392285 -6.110295840000001 0.400629 0.887999 0.295422
22640 3.05799282 25.042026240000006 -1.2115840500000001 0.06446 0.703511 0.369154
22660 7.7130144 -4.9752003600000005 0.73452375 -0.04716 0.026604000000000003 0.31369400000000003
22680 13.12770276 -9.920617560000002 -0.04955031 -0.436148 0.218037 -0.068487
22700 0.50908995 1.46979306 10.563829830000001 -1.185509 -0.324969 -0.28880700000000004
22720 -10.081982250000001 17.782420230000007 -10.77684417 -2.0883580000000004 -0.8716659999999999 -0.7847270000000001
22740 -3.26920212 19.907403570000003 -11.08415223 -2.979768 -0.8226030000000001 -1.092255
22760 -3.25738107 15.533644500000001 4.53991104 -3.271147 -0.243667 -0.962572
22780 0.98105886 6.476728770000001 2.46866688 -3.046377 -0.327403 -0.730159
22800 3.5025624000000004 5.47725654 -0.41119596 -2.888013 1.3492540000000002 -0.5795140000000001
22820 3.50241525 7.46887293 -0.6185106900000001 -2.834191 1.585879 -0.925545
22840 1.84267116 8.784482220000001 0.07125002999999999 -2.652002 -0.307044 -1.101308
22860 0.55953297 10.511738730000001 0.8273263500000001 -2.495134 0.548346 -0.964576
22880 -0.4980144600000001 10.61292888 1.19886048 -2.256394 0.223804 -0.996676
22900 -1.1677235400000001 8.56368855 1.24975476 -2.003741 -0.961005 -1.426022
22920 -0.8207438400000001 7.1955369000000005 0.30431601 -1.990614 -1.660697 -1.485923
22940 -0.88914897 8.51594328 -1.5467328900000001 -1.905259 -2.42872 -1.303813
22960 -0.5246584200000001 9.34686009 -0.45790137000000003 -1.580777 -2.30653 -0.973759
22980 -0.09160578000000001 9.41047794 -0.51193485 -1.216159 -2.085216 -0.691621
23000 0.06811083000000001 8.95318479 -0.6191091000000001 -0.628965 -2.059198 -0.514501
23020 -1.3278914099999999 9.118434240000001 1.88173458 0.011651 -1.755423 -0.313863
23040 -1.43132805 10.780277670000002 2.96682849 0.669413 -1.412382 -0.090722
23060 -0.47586348000000006 11.059901910000002 0.6372281700000001 1.341126 -1.065074 0.118623
23080 -1.6661892600000001 12.821287410000002 -0.53857881 1.844505 -0.780632 0.21150500000000005
23100 -2.8851013800000005 13.91042304 1.61618769 1.512059 -0.54791 0.110609
23120 -2.0700473400000003 14.84702298 1.55706282 0.123899 0.805621 -0.17535499999999998
23140 -2.9870370900000003 13.86177525 0.6873670799999999 -0.918022 -0.075879 -0.208209
23160 -3.2495919300000002 15.22200042 -0.94154418 -0.726493 -0.528036 -0.7863359999999999
23180 0.17064495 15.9645978 4.11763959 -0.686469 -1.5989719999999998 -1.269657
23200 4.84916148 14.1252228 0.08726976 -0.462193 -1.6534380000000002 -0.8973479999999999
23220 6.473138310000001 13.67361945 -4.28977566 0.25191 -1.120748 -0.198698
23240 5.39074215 13.357619730000001 0.92387637 1.1595209999999998 0.076224 -0.353057
23260 3.8267927100000003 14.0267304 2.89423449 1.443858 1.628269 -0.583796
23280 2.04728814 14.56905663 -1.47009717 -0.952034 0.719234 -1.347122
23300 1.6874377200000001 11.982885569999999 1.6958252700000003 0.52044 0.635022 -0.746002
23320 0.9159498899999999 9.88619427 -0.08023599000000001 0.503868 -0.951054 1.366721
23340 0.34503732000000004 9.88858791 -0.9060614100000001 2.049187 1.998314 0.655891
23360 -0.25686504 7.594460550000001 -0.86699799 4.286619 5.458867 1.244993
23380 -0.2721294 5.57844669 -2.2478732100000003 1.275352 2.45799 1.190417
23400 0.46418958 2.69754399 -1.2530411099999998 0.633985 -1.384544 0.702683
23420 1.1720595600000001 1.84296546 -0.5848329600000001 1.856072 0.629876 0.712911
23440 1.86391962 2.2526703000000006 0.01122264 2.237405 0.578137 0.800031
23460 2.3245187400000002 2.3831923500000003 0.68317821 2.009627 -0.255276 0.557021
23480 2.01166803 2.05268364 1.4880592800000003 1.672492 0.7947930000000001 0.65587
23500 0.6342263100000001 2.40669711 2.00178936 1.525258 0.973441 0.596929
23520 -0.28769787 3.85717428 3.30527349 1.586035 0.802377 0.433066
23540 -0.5117877000000001 7.01815248 7.0016913 1.540208 1.310582 0.455596
23560 -0.48902850000000003 14.17551867 12.435685740000002 1.257026 1.546592 0.554796
23580 2.00178936 18.699409980000002 14.66874585 1.174157 1.216375 0.621939
23600 2.76116184 14.64494679 11.88722826 1.287331 0.8374969999999999 0.700127
23620 -0.6586335900000001 11.96237286 4.95828792 1.432204 0.364866 0.753019
23640 -3.0508020900000004 6.19426944 4.57044957 1.63675 0.272644 0.7278600000000001
23660 1.5705319500000001 6.70575303 7.550747190000001 1.461868 0.415395 0.612156
23680 2.9536536600000005 10.56473235 9.32246262 0.911928 0.449648 0.515336
23700 1.1710197 19.5821334 1.3546825200000003 0.382613 0.657088 0.513509
23720 0.57884886 28.25404587 -3.6269532 -0.013083 0.673423 0.50111
23740 5.32203291 1.7112367800000001 -0.72733302 -0.105506 0.127899 0.34093
23760 14.414872860000001 -10.479404970000001 -0.83167218 -0.441386 -0.14238199999999998 0.024873
23780 6.2505494100000005 -1.96017534 7.747888950000001 -1.365972 -0.307508 -0.236679
23800 -8.31371013 18.8827785 -5.159618550000001 -2.0041830000000003 -1.246481 -0.897958
23820 -3.53175696 17.6474052 -14.102022150000002 -2.923483 -0.913216 -1.12486
23840 -4.53601647 17.28261054 4.0519224000000005 -3.2786120000000003 -0.522573 -1.004996
23860 -0.76461102 7.831862550000001 3.88816407 -3.129858 -0.556416 -0.663151
23880 2.07947475 6.7657804200000005 -0.30611124000000006 -2.905993 0.720608 -0.530764
23900 2.8547100000000003 7.33579047 -0.6224052600000001 -2.833994 1.239324 -0.8407100000000001
23920 1.67710779 6.91621677 0.9601047 -2.67445 -0.248649 -1.033173
23940 0.7173072 9.111547620000001 0.63079281 -2.595159 0.201136 -0.895395
23960 -0.31239945 10.887010470000002 0.40999914 -2.347969 0.017493 -1.005597
23980 -0.62180685 9.107957160000002 1.4771309400000001 -2.058151 -0.885483 -1.350655
24000 -0.16390548000000002 7.25092416 0.81730053 -2.008048 -1.7150720000000002 -1.459269
24020 0.12529332 7.863450750000001 -0.94094577 -1.899239 -2.458899 -1.487466
24040 -0.57001005 8.9335746 -1.0809050400000002 -1.685974 -2.482973 -1.246664
24060 -0.45475236 8.92309752 -1.05440823 -1.246638 -2.134566 -0.844527
24080 -0.8051753700000001 9.72691911 -0.8915426100000001 -0.623049 -1.882682 -0.7058979999999999
24100 -1.4835663000000001 10.256217659999999 0.00329616 -0.014009 -1.787322 -0.572511
24120 -1.1017120500000002 10.349324370000001 3.1701113100000002 0.523404 -1.433067 -0.385477
24140 -0.57330621 11.813133330000001 3.4822066500000006 1.139815 -0.869073 -0.236616
24160 -0.88046712 12.025245150000002 -0.00104967 1.754617 -0.406353 -0.06840800000000001
24180 -2.8506682800000003 13.289960160000001 -0.33889626 2.027038 -0.103635 -0.082916
24200 -3.1645686600000005 13.963259700000002 1.3931573400000001 1.458141 0.205594 -0.197313
24220 -2.2387401000000002 14.53522194 1.7548029900000002 -0.340192 -0.360382 -0.157875
24240 -3.4645486500000002 14.81769108 -2.89677528 -0.717625 0.02066 -0.547696
24260 -1.3847697899999998 15.31809918 0.71670879 -0.776245 0.009027 -1.050155
24280 1.4287774500000001 14.594199660000001 3.6565990200000003 -0.569515 -0.899803 -1.191756
24300 5.20752078 13.71238857 -1.93173615 -0.317107 -1.188281 -0.665126
24320 5.5302501600000005 13.41795123 -4.18006062 0.603769 -1.519819 -0.072884
24340 4.77850986 13.20119928 1.29316401 1.500285 -0.781324 -0.115638
24360 3.2525839800000003 13.357619730000001 2.80127493 1.353609 1.483724 -0.588514
24380 1.7807013900000002 12.30246594 -1.0336012199999998 -1.225571 1.50357 -1.183395
24400 0.59471163 10.21101318 0.8027817300000001 0.491992 0.766896 -0.93224
24420 -0.06466752 10.19904498 -0.77673618 -0.08644600000000001 -1.652522 1.208605
24440 -0.02185668 9.05242275 -1.0359948600000002 1.610932 1.7806369999999998 0.859275
24460 0.22677777 7.75447146 -1.3897140300000002 4.797530999999998 6.140046 1.483766
24480 0.36733545 6.02168211 -2.0817212400000003 1.485457 2.638628 1.389274
24500 0.9843550200000001 3.4968824100000004 -0.75727314 0.720532 -1.22887 0.591993
24520 1.7525565 2.34353052 0.24668226000000004 1.87716 0.571225 0.709929
24540 2.2933818 3.12445557 0.57974157 2.272511 0.642646 0.8877870000000001
24560 2.7069714000000005 3.74371182 0.97013052 1.968329 -0.37464 0.606024
24580 2.4182238600000003 3.1521492 1.66559085 1.605851 0.505039 0.71346
24600 1.2871701 3.1120263 2.26044963 1.578184 1.015324 0.732909
24620 0.41418801000000005 4.997508300000001 3.8031408000000004 1.7180220000000002 1.034956 0.497783
24640 -0.30565998000000005 7.14524103 7.1772706799999995 1.6623880000000002 1.704176 0.4890600000000001
24660 -0.29713509 11.461817609999999 10.45710684 1.321498 1.694257 0.6009909999999999
24680 -1.51454628 15.40147437 11.66224572 1.304863 1.194237 0.716884
24700 -0.43454376000000006 14.93773605 11.551481009999998 1.52896 0.596485 0.8217639999999999
24720 -0.14115609 13.6968201 6.1011627299999995 1.660693 0.202003 0.790075
24740 -2.23350156 8.22060342 5.181171120000001 1.412749 0.447358 0.653433
24760 -2.0528307900000007 4.452190020000001 7.24389039 0.868035 0.462289 0.322733
24780 -0.14564907000000002 8.32449132 7.3468757700000005 0.479371 0.792049 0.245888
24800 3.13897437 12.81095748 6.59603799 0.06455599999999999 0.775744 0.420336
24820 1.46754657 24.785759610000003 -3.66228882 0.048284 0.63657 0.34028400000000003
24840 -1.08494676 19.67852646 -5.166809280000001 -0.209321 0.57114 0.143084
24860 9.85130991 -5.1654555 -1.20783663 -0.604842 0.124082 -0.135775
24880 16.741333980000004 -9.668392650000001 2.12378652 -1.533688 -0.463193 -0.584823
24900 -0.24144372 6.0299127 14.03062497 -2.207211 -0.879281 -1.17438
24920 -7.63622172 19.45533915 -17.18276436 -3.058561 -0.667391 -1.210508
24940 -5.05423953 20.036581650000002 -8.54603055 -3.237899 -0.4291930000000001 -0.949284
24960 -5.16126663 14.50513467 5.04450801 -3.006752 0.104312 -0.568066
24980 -0.39428352 6.22600479 1.07401842 -2.915296 1.477076 -0.553163
25000 1.9622648700000003 6.64229214 -0.39653001 -2.955963 0.953078 -0.813421
25020 2.88046125 7.259606010000001 -0.63483453 -2.725737 -0.931499 -0.986723
25040 1.9151180100000003 7.12713177 1.57876254 -2.2844900000000004 0.8481860000000001 -1.005149
25060 0.97342668 9.791292330000001 0.8406483299999999 -1.993236 0.209724 -1.166803
25080 -0.4628358 10.45067148 1.19302353 -1.897126 -0.957198 -1.404986
25100 -0.8357139 7.91838675 1.5971759099999998 -1.903301 -1.925234 -1.474292
25120 -0.07514459999999999 7.27427196 -0.31524435000000006 -1.857332 -2.388642 -1.244777
25140 -0.41389371 8.18078463 -1.4837134500000002 -1.507494 -2.241299 -0.833393
25160 -0.59097402 9.10766286 -1.52607303 -1.141284 -2.205088 -0.616169
25180 -0.39847239000000007 10.52056773 -1.0000706400000001 -0.7088909999999999 -2.188173 -0.426232
25200 -1.75674537 9.417070260000001 0.59066991 -0.198866 -1.7496900000000002 -0.233088
25220 -2.4577385400000002 11.260330020000001 2.2817079000000002 0.406097 -1.187522 -0.150534
25240 -0.35521029 12.05817732 1.4422465800000002 1.217703 -0.500219 -0.105153
25260 -0.51867432 12.998367720000001 -0.61731387 1.823953 0.011214 -0.122938
25280 -2.12094162 13.972098509999999 0.79723908 1.64979 0.433648 -0.118287
25300 -2.43348822 12.72054852 1.9413107100000002 0.163529 0.663556 -0.114008
25320 -2.80307016 14.63896269 1.83038904 -0.437526 0.062858 -0.154824
25340 -5.44941576 13.46165478 -1.45781505 -0.276272 -0.330136 -0.583688
25360 -2.35295793 13.729899420000002 -0.16450389 -0.539959 -1.118537 -0.863325
25380 1.2919671900000003 13.758485760000001 4.33198809 -0.528447 -0.892891 -0.8250780000000001
25400 5.35646601 13.005401490000002 1.4606599500000002 0.229913 -1.050281 -0.219238
25420 7.345227690000001 12.317583149999999 -4.151317320000001 0.8677459999999999 -0.955984 0.154701
25440 6.18783408 13.050164520000001 -1.2783410999999998 1.148877 1.484752 -0.135951
25460 4.02737778 15.020659980000001 2.40490188 -0.78137 1.6478279999999998 -0.881375
25480 2.1445935300000003 15.06467745 -0.40311252 0.599342 0.465897 -1.143681
25500 1.45601982 12.871730430000001 2.48677614 0.94566 0.6603060000000001 0.8186760000000001
25520 0.06646275 10.21550616 -0.09805095000000001 0.925811 1.054384 1.120339
25540 0.08607293999999999 9.57199959 -1.1418251400000001 4.238559 5.701632 0.783942
25560 -0.55070397 7.913295360000001 -1.48027014 2.424008 3.207814 1.558538
25580 -0.37512459000000004 5.954768100000001 -1.7378905500000001 0.7663439999999999 -0.436735 0.925652
25600 0.8884034100000001 3.27130146 -0.43934085000000006 2.078193 0.017419 0.76759
25620 1.92289734 2.80007811 -0.37632141 2.366054 0.5794159999999999 0.90134
25640 2.4111900900000003 3.0051463500000004 -0.43589754000000003 2.210585 0.16983 0.899711
25660 3.0276014399999998 2.93315076 0.34398765000000003 1.7971669999999995 1.019158 0.916031
25680 2.7165557700000003 2.50234461 1.37458701 1.70935 1.627856 0.8857959999999999
25700 0.6912616500000001 2.93989023 2.5333344 1.6148 1.218044 0.6218100000000001
25720 -0.90247095 5.208119190000001 3.88546632 1.445432 1.7098970000000002 0.578336
25740 -1.05350571 7.3979172 7.05737286 1.19162 1.305789 0.6240829999999999
25760 -1.08315153 11.57303358 10.539138059999999 1.154556 0.6168399999999999 0.585182
25780 -1.15918884 13.72825134 12.57848991 1.481874 0.262305 0.51742
25800 0.59949891 12.2681898 10.86051366 1.622024 0.559136 0.491313
25820 1.4012407800000002 12.97007568 6.1171824599999995 1.41569 0.827799 0.616646
25840 -1.1424235500000002 10.845543600000001 6.111786960000001 1.006368 0.7522 0.696137
25860 -0.81684927 6.4297290600000006 8.43660981 0.50838 0.548426 0.671555
25880 0.6740451000000001 8.538398370000001 9.230258430000001 0.244555 0.954048 0.429911
25900 2.72957364 13.92898356 9.05317812 0.035802 0.976203 0.132527
25920 1.6985132100000002 23.601722040000002 -5.40002241 0.080163 0.452683 -0.054499
25940 1.43476155 16.05126915 -4.293974340000001 -0.357996 0.4926970000000001 -0.090726
25960 9.73815156 -7.72663068 1.00021779 -0.91217 -0.030876 -0.278729
25980 11.58905331 -5.658231420000001 0.7174543500000001 -1.895273 -0.521273 -0.665254
26000 -2.4120828 9.76539393 5.618118330000001 -2.693972 -0.651937 -1.128933
26020 -6.03260064 20.28282246 -15.957711180000002 -3.391228 -0.202506 -1.028625
26040 -4.65561999 18.459908640000002 -2.6876653200000002 -3.305831 0.027476 -0.8072010000000001
26060 -2.8276245900000005 10.832672879999999 4.30564824 -2.9335400000000003 0.710266 -0.584354
26080 0.97612443 5.8368126600000005 0.78975405 -2.904661 1.795091 -0.703047
26100 2.51417547 5.827228290000001 -0.053739180000000004 -3.015853 -0.621887 -1.171812
26120 3.12266034 6.720870240000001 0.6902119800000001 -2.887815 -0.23845700000000006 -1.265413
26140 2.13875658 8.1183636 1.3534857000000002 -2.176169 0.5481600000000001 -1.194152
26160 0.33724818 10.70858619 -0.01961019 -1.921435 -0.484979 -1.459172
26180 -1.76692815 9.64160154 1.4690475 -1.924289 -1.640718 -1.743995
26200 -1.18133982 7.67394117 0.23845167 -1.863081 -2.170753 -1.648884
26220 -0.67569318 7.864500420000001 -2.10417633 -1.624806 -2.287753 -1.368264
26240 -1.4094713700000001 9.12951954 -2.2107521700000006 -1.415634 -2.401733 -1.018417
26260 -1.05890121 9.584566200000001 -0.69410655 -1.049234 -2.521212 -0.761468
26280 -0.48708612000000007 9.86283666 -0.3902418 -0.38258 -2.285997 -0.48792
26300 0.24997842000000003 10.473420870000002 0.10956789 0.150496 -1.66983 -0.26066
26320 0.66132153 9.42425118 1.19571147 0.651629 -1.053496 -0.047509
26340 -0.0205029 11.98707444 1.21427199 1.252826 -0.539564 0.11306
26360 -2.8746243000000002 12.79838106 -0.8063721899999999 1.852951 -0.076562 0.223481
26380 -4.093242120000001 13.916858399999999 -0.7674559200000002 2.121632 0.264835 0.129848
26400 -2.4111900900000003 13.269457260000001 1.4579720100000002 1.416057 0.534118 0.000661
26420 -0.49636638 14.0295753 0.94783239 -0.782645 -0.7764989999999999 -0.40826
26440 -2.4120828 14.598839790000001 1.83174282 -1.270182 -0.882158 -1.001188
26460 -4.5054779400000005 14.89417965 -1.5343134299999999 -0.908461 -1.018229 -1.385184
26480 0.16330707 13.547874870000001 4.04383896 -0.290845 -1.45622 -1.081206
26500 4.30550109 12.766655520000002 3.3663505500000004 0.7422380000000001 -1.841034 -0.583183
26520 6.46340679 12.015660780000001 -3.1118791500000005 1.620799 -0.805233 -0.367934
26540 5.832623790000001 12.140954100000002 -2.17228716 2.573476 1.454501 -0.465656
26560 2.8151953200000004 14.355443880000001 1.4784749099999999 0.933961 3.078894 -0.33818400000000004
26580 -0.9648919800000001 15.56492859 -1.0731159000000003 -0.996559 0.355094 -0.822469
26600 -0.07409493 12.43524429 3.1042469700000006 0.27520500000000003 0.316128 0.092316
26620 1.02896109 11.249705790000002 0.14115609 1.291409 -0.8360780000000001 0.969355
26640 0.89828208 10.262662830000002 -1.08554517 3.201016 2.028634 0.06783
26660 0.18291726 8.76831534 -1.1723636700000002 3.521145 4.836243 0.969116
26680 -0.6765957 5.85971901 -0.45625329000000003 0.768867 3.028376 0.981049
26700 0.08248248000000001 4.47344829 -0.6976970100000001 0.38964 -1.443979 1.125137
26720 1.11817323 3.4387974000000003 -1.18494009 2.119493 -0.395404 1.138013
26740 1.4329663200000002 3.7693159200000004 -0.46298295 2.325203 1.342878 1.021854
26760 2.6478465300000003 3.35587347 0.81999828 1.90847 1.42841 0.773143
26780 3.25752822 2.88240363 1.34121339 1.350407 1.0929870000000002 0.689558
26800 2.39651433 2.6212025700000003 1.50482457 1.437221 1.045293 0.553493
26820 1.0722231899999999 3.44747925 2.1044706300000002 1.531025 1.715122 0.5297890000000001
26840 -0.11061756 5.08178601 4.07871351 1.293338 1.556049 0.556106
26860 -0.13741848 7.03551618 7.524848790000001 1.3230030000000002 0.8706780000000001 0.629831
26880 0.37587015 11.69113617 9.61001334 1.401886 0.223461 0.710259
26900 -1.37025099 19.160901810000002 11.81688075 1.625515 0.108784 0.6895359999999999
26920 -1.9690043400000001 17.474062500000002 11.15449974 1.637082 0.482909 0.626112
26940 -1.69522686 12.803629410000001 8.23751586 1.07738 0.723839 0.5343
26960 -3.3687441899999997 4.7806092 8.01448551 0.610667 0.993245 0.433486
26980 -0.8319664800000002 6.1343892 7.907154300000001 0.330283 1.449357 0.36685
27000 -0.09430353000000001 7.048995120000001 5.27443479 0.0292 1.051378 0.253094
27020 0.9578582100000002 13.214217150000001 -2.86938576 -0.019463 0.391129 -0.026274
27040 3.0659291100000003 19.52120349 -8.10190242 -0.5395340000000001 0.581133 -0.204271
27060 4.68540315 18.99669222 6.121518480000001 -1.314993 0.056876 -0.295542
27080 8.8555851 -2.36149263 3.8883112200000003 -2.218189 -0.22605 -0.687116
27100 10.742862330000001 -3.72694653 -0.8126604000000001 -3.005307 0.204161 -1.029655
27120 -0.17094906 7.15691493 2.15612028 -3.199025 0.028271 -0.832094
27140 -8.697663720000001 17.8848072 -7.7746800600000014 -2.922453 -0.291612 -0.7304069999999999
27160 -4.42569321 14.87546217 -9.64983213 -2.777061 1.155871 -0.533626
27180 -2.33484867 10.287805859999999 3.9658494600000003 -2.979437 1.103711 -0.9003040000000001
27200 1.8004587300000001 6.32868606 4.31986293 -2.811919 -0.505744 -1.089352
27220 1.7899816499999999 7.5194631 -0.36449055 -2.412463 0.741626 -0.886266
27240 2.36778084 9.43503237 -0.9800091900000001 -2.184953 0.628605 -1.057584
27260 1.20634551 9.48277764 -1.92289734 -1.976293 -0.286889 -1.398921
27280 -0.18965673000000005 10.04770611 0.11106882000000001 -1.971633 -1.528446 -1.541507
27300 -0.7143151499999999 9.53622252 1.35528093 -2.026606 -2.157604 -1.332782
27320 -0.3013239600000001 7.89817815 -0.6797349 -1.966753 -2.49691 -0.981552
27340 0.05283666000000001 7.42934844 -2.5077303000000004 -1.529389 -2.427287 -0.657051
27360 -0.19159911000000002 8.57836431 -1.25664138 -0.807558 -2.084419 -0.446282
27380 -0.47586348000000006 9.52948305 -0.41389371 -0.011693 -1.561174 -0.385846
27400 -1.35303444 11.2244058 -0.46837845000000006 0.802466 -0.958276 -0.280518
27420 -1.29900096 10.29828294 1.55960361 1.512732 -0.414795 -0.144862
27440 -0.6631167600000001 10.79959356 3.4326661500000006 1.928887 -0.052364 -0.032393
27460 0.026496810000000003 12.12523848 1.43072964 1.899933 -0.014199000000000003 0.038927
27480 -0.52824888 12.62010393 -0.53843166 0.8076300000000001 -0.587204 -0.107906
27500 -3.1033444500000003 13.386667140000002 0.48005235 -0.913197 -1.612139 -0.445489
27520 -2.0969856 12.92577372 2.07423621 -0.915073 -1.093507 -0.93648
27540 -1.43865612 15.1920603 1.31756148 -0.6358699999999999 -0.8096810000000001 -1.293816
27560 -3.39718338 13.27663818 -0.9078664500000001 -0.134445 -0.083803 -1.035939
27580 -1.22101146 13.35073311 1.13508567 0.140776 -0.320851 -0.071245
27600 2.50324713 13.66193574 3.6253149300000005 0.8607049999999999 -1.099657 0.391981
27620 5.39358705 13.376935620000001 -3.66722325 1.6018370000000002 0.5941850000000001 0.268937
27640 5.42741193 13.695623280000001 -3.4953814800000003 0.150029 2.107196 -0.4161220000000001
27660 3.08239029 13.25972574 1.281186 0.16833 0.377437 -0.759882
27680 1.1049984000000002 14.538969360000001 1.2552876 0.572008 1.097025 0.355103
27700 1.8347348700000001 13.44039651 1.60840836 1.275302 0.280577 0.921878
27720 2.2686802200000002 10.88237034 0.80187921 3.663823 3.326121 0.469983
27740 1.45152684 9.58920633 -0.46807434000000003 2.5967860000000003 3.379889 1.2679
27760 0.04460607 8.951987970000001 -1.66184343 0.510459 0.6418470000000001 1.016486
27780 -0.07199559 7.04479644 -1.37862873 1.151041 -0.959207 0.980283
27800 0.16570071 5.30916219 -1.93083363 2.004187 0.192392 1.0307
27820 0.74200878 3.38460696 -1.1901786300000001 2.213802 0.260971 0.7489979999999999
27840 1.33447392 2.5970994000000003 0.0606258 1.805251 0.608119 0.603625
27860 2.39651433 2.6800233300000005 1.23343092 1.635434 1.262859 0.585577
27880 2.43259551 3.03793137 2.31194232 1.686219 1.2993290000000002 0.479063
27900 1.24421211 2.77941825 3.1990017600000002 1.6895950000000002 1.624031 0.5278079999999999
27920 0.29818476 3.78817074 3.45407157 1.389039 1.540578 0.612342
27940 -0.50669631 6.108196500000001 4.2073029900000005 1.304002 1.182752 0.659208
27960 -1.1273063400000003 9.2603457 6.128110800000001 1.444884 0.6075729999999999 0.7859109999999999
27980 -1.87575048 13.791417930000001 9.73246176 1.619392 0.329742 0.8494430000000001
28000 -3.0418259400000003 16.00531911 13.91221827 1.470182 0.501111 0.747768
28020 -0.40880232000000005 16.31592333 9.859246200000001 1.056663 0.576034 0.485206
28040 1.40677362 11.20644369 8.50711428 0.7162 0.890943 0.351033
28060 -1.04273433 2.56746339 8.7690609 0.216093 0.907879 0.545139
28080 -0.10552617 5.08013793 5.59372086 0.157841 0.28704 0.541255
28100 3.28132728 10.60634637 2.5824334500000004 -0.129932 0.288187 0.238005
28120 4.04204373 17.81714763 -6.4553233500000005 -0.6845060000000001 0.177723 -0.160969
28140 1.27116018 22.57769538 -1.56005487 -1.635939 0.036828 -0.597928
28160 2.12797539 7.619005169999999 5.6315874599999995 -2.454573 -0.111504 -1.154659
28180 9.28893204 -4.042642140000001 0.28874754 -3.343459 0.11944 -1.128049
28200 4.808597130000001 0.47151765 3.4793617500000003 -3.296699 -0.139552 -0.869949
28220 -5.27712273 13.313916180000001 -5.43384729 -2.947245 0.252324 -0.604159
28240 -4.85695062 17.043707610000002 -9.46691487 -3.025159 1.395784 -0.64142
28260 -4.02078546 15.281723700000002 1.7414810100000002 -3.122091 0.441682 -0.91968
28280 0.13037490000000002 8.24650182 2.3343974100000002 -2.803415 -0.231111 -1.044779
28300 2.8256724 6.48930519 1.3573802700000002 -2.460659 1.087297 -0.97464
28320 3.3843126600000004 7.33370094 0.44891541000000007 -2.224282 -0.061624 -1.306938
28340 1.5590052 8.24740434 -0.89019864 -2.106049 -1.144103 -1.635874
28360 0.73003077 9.549544500000001 0.43484787 -2.089211 -1.972685 -1.700924
28380 -0.27303192 10.087220790000002 0.9394448400000001 -1.98489 -2.447198 -1.409031
28400 -0.46238454000000007 8.63778348 0.93255822 -1.6549459999999998 -2.414989 -0.959183
28420 -0.38709279 7.3549592100000005 -0.9166954500000001 -1.138216 -2.1353 -0.755106
28440 -0.12094749 7.89098742 -1.6985132100000002 -0.385023 -1.758213 -0.603982
28460 0.6053456700000002 8.97308928 -0.5387259600000001 0.352631 -1.262885 -0.438162
28480 0.0073378800000000015 10.328075910000003 -0.10269108 0.997373 -0.786416 -0.270831
28500 -1.61858133 9.8617968 0.20597076000000003 1.51984 -0.455459 -0.105236
28520 -2.43363537 10.45261386 2.04864192 1.7857619999999998 -0.333068 -0.040511
28540 -0.48199473000000004 11.720026620000002 1.74597399 1.434187 -0.423711 -0.244744
28560 -0.33724818 11.936925720000001 -0.77344002 0.087924 -0.5949180000000001 -0.218677
28580 -2.10626586 14.02403265 0.26509562999999997 -0.4356890000000001 -0.603506 -0.28107600000000005
28600 -2.11315248 13.79905011 2.0779836300000003 -0.413977 -0.372275 -0.8484459999999999
28620 -1.8449176500000002 16.499291850000002 0.42406668000000003 -0.511778 -1.178826 -1.261498
28640 -3.00454794 14.61126906 -0.21630069000000005 -0.246869 -1.5620459999999998 -0.762433
28660 -0.11780829000000001 14.636559240000002 0.42241860000000003 0.460809 -1.064367 -0.093694
28680 2.5397697600000004 13.508213040000001 5.53324221 1.053649 0.5940300000000001 -0.015834
28700 4.91009139 12.73476321 -2.86414722 0.6312369999999999 2.073732 -0.456515
28720 5.5103456699999995 12.82413231 -4.7702792700000005 -0.023206 0.241681 -1.009942
28740 3.80359206 12.59077203 1.11128661 0.31764000000000003 0.094235 0.400545
28760 1.2960089099999998 14.22147852 2.38962771 0.490586 -0.463811 1.009218
28780 1.2663630900000002 13.69636884 0.35640711 3.721235 4.358507 0.120821
28800 1.67262462 10.302030360000002 1.12924872 3.203027 3.812798 1.173304
28820 0.7803266400000001 9.60462765 -1.31142042 0.812149 0.300113 0.966688
28840 -0.05538726 8.90303607 -1.19571147 1.458604 -0.411688 0.988139
28860 0.06392196 7.7784274799999995 -1.3739886 2.096167 0.836087 1.150159
28880 0.051198389999999996 5.71406994 -1.5880428 2.163895 0.149107 1.060713
28900 1.3624618499999999 3.23536743 -0.99737289 1.92871 0.242656 0.781213
28920 2.3156799300000004 2.9183278500000003 -0.32677110000000004 1.683427 0.648683 0.68818
28940 2.7526271400000004 2.79019944 0.61297785 1.760615 1.038978 0.520508
28960 3.0728059200000004 2.9087532900000004 1.70570394 1.779521 1.421451 0.494513
28980 2.07633555 2.8337558400000002 2.41642863 1.54376 1.763823 0.593909
29000 0.48753738 3.1563380700000003 2.7641538900000002 1.3843379999999998 1.282493 0.688484
29020 -0.48199473000000004 4.8716165700000005 4.37899761 1.355069 0.7688729999999999 0.753031
29040 -1.54403514 8.07286482 8.15818239 1.3752 0.323275 0.813563
29060 -3.0323985300000005 13.390404750000002 11.41137459 1.51174 0.243206 0.738775
29080 -1.4088729600000003 14.65243182 15.562083690000001 1.295928 0.717629 0.5657439999999999
29100 1.0578515400000001 14.74284078 11.13818571 0.923768 0.751868 0.31847800000000004
29120 -0.41119596 12.719646000000001 5.407203330000001 0.501703 0.817371 0.287672
29140 -1.08614358 6.78912822 6.44589594 0.025986 0.721622 0.401976
29160 0.04355640000000001 6.66085266 9.09358551 -0.068442 0.240942 0.278019
29180 1.4988306599999999 10.229730660000001 5.71511961 -0.530483 0.243429 0.05687100000000001
29200 1.50526602 20.201095350000003 -5.19046119 -1.1853870000000002 0.009246 -0.218732
29220 2.34652257 21.209847840000002 -5.0783427 -2.179811 -0.228331 -0.6825720000000001
29240 8.619075810000002 -0.7866148500000001 0.5007122100000001 -2.9687 -0.197681 -1.269235
29260 10.429864470000002 -3.6143865900000005 2.38574295 -3.390101 -0.046598 -1.123889
29280 -2.33110125 7.5365325 5.4327976200000005 -3.030187 -0.431271 -0.876259
29300 -6.020328330000001 15.00584688 -11.358979380000001 -2.806732 0.578125 -0.6826439999999999
29320 -3.51199962 17.426611530000002 -3.522771 -3.019328 1.026025 -0.8855280000000001
29340 -2.3830452 12.062366190000002 2.9699775 -2.796225 -0.691641 -0.968295
29360 1.56649023 6.1710687900000005 1.3837201200000002 -2.724612 0.243597 -1.011722
29380 2.89498005 6.24381975 -0.8614553400000001 -2.384799 0.808197 -1.04105
29400 2.38170123 8.10504162 -0.09700128 -2.054855 0.010702 -1.425488
29420 0.49816161000000003 9.2805543 0.6765957 -2.0183720000000003 -1.326619 -1.623277
29440 0.20312586 10.026447840000001 0.35640711 -1.928371 -1.9532080000000005 -1.383632
29460 -0.31598991000000004 9.65925954 0.70833105 -1.802018 -2.327443 -1.146193
