time Ax Ay Az Gx Gy Gz
20 -1.6992685800000003 11.74697469 -0.7463448 -3.037686 2.021738 -0.789724
40 -2.8455867 14.1104097 -0.9457330500000001 -2.887089 -0.111443 -1.06154
60 -3.9095694900000004 14.02658325 2.8758211200000003 -2.895185 -0.187524 -1.474901
80 -2.8813539599999998 13.81985712 2.15791551 -2.675475 0.6472859999999999 -1.573781
100 -2.59740351 16.311577500000002 0.5936619599999999 -2.257887 -0.746329 -1.876726
120 -3.96525105 14.74598979 -0.90861201 -2.666009 -2.415739 -1.758865
140 1.47278511 16.983533070000004 2.52494685 -2.810303 -3.323256 -1.658297
160 6.809042520000001 17.140856040000003 -2.6815242599999998 -2.567551 -3.581089 -1.327259
180 8.26116777 17.998269660000002 -3.0291023700000004 -1.948984 -3.305349 -0.757134
200 7.271878320000001 16.2566415 2.3763057300000003 -0.96961 -2.462314 -0.375359
220 6.372095310000001 14.80435929 1.97694063 -0.091458 -1.734459 -0.139422
240 3.17459448 14.56949808 -0.023799060000000004 0.606847 -1.271773 -0.034724
260 -0.16016787000000002 10.14291216 0.92358207 1.363082 -1.075209 -0.029693
280 -0.9824028300000001 8.79510645 -2.5595271 2.112803 -0.734534 -0.093259
300 -0.12783411 8.05968999 -3.07640619 2.830326 -0.025969 -0.221615
320 0.82284318 7.01156997 -3.26411073 2.631303 1.517309 0.027118
340 1.3798353600000002 3.96256311 -1.98576963 -0.586443 -0.498231 -0.103871
360 1.7760612600000003 1.47278511 -1.4100697800000002 -0.818029 -1.222373 -1.29456
380 3.03644025 0.35910486 0.23845167 -0.943634 -1.6926560000000002 -1.5939370000000002
400 3.6098936100000003 0.87013719 0.7921575000000001 -0.432544 -1.403453 -0.8344360000000001
420 2.44920384 0.98390376 0.6454587600000001 -0.073581 -0.718529 0.4629470000000001
440 0.7921575000000001 1.46665386 0.89019864 0.7562979999999999 2.197971 0.332547
460 -0.37691982000000007 1.9893600900000001 2.1754263600000003 1.833793 2.963591 -0.787882
480 -1.27924362 4.56266043 6.427188270000001 -0.2014 -0.635796 -0.93315
500 -1.2530411099999998 6.477778440000001 11.744728200000003 -0.199316 -0.24635 -0.291633
520 4.1356017000000005 15.07515453 13.41181017 0.399396 -0.152336 0.7186939999999999
540 6.61728645 25.09621668 12.68072973 3.830918 4.73789 0.787671
560 1.75704948 15.833026080000002 6.28498251 3.113376 4.53965 1.43346
580 -1.14197229 3.7973038500000005 8.358767460000001 1.672941 0.978012 1.455737
600 -1.6566048900000003 -1.9293425100000001 10.56862692 2.336535 0.626627 1.108309
620 0.33874911 9.31378077 8.72325801 2.372491 0.798944 0.875467
640 2.4614859599999996 15.53993271 -5.15004399 2.100809 -0.541403 0.636005
660 1.6537599900000002 23.824153980000002 -8.91246348 2.130244 -0.352193 0.446893
680 3.64791717 12.76485048 3.32189163 2.284296 1.0953700000000002 0.615961
700 8.418647700000001 -2.24338023 0.5695686 2.112034 1.214253 0.60606
720 2.76594912 0.6515998200000002 4.9909257899999995 1.847646 1.713912 0.823627
740 0.62001162 10.988200620000002 -7.9396352100000005 1.520548 2.103657 0.877458
760 -0.39443067000000004 17.71086609 -2.67748254 1.387373 1.670552 0.877083
780 -2.24069229 16.01728731 -0.86819481 1.292673 0.877912 0.97785
800 -1.9128715200000002 11.69653167 -0.98091171 1.488243 0.228519 0.968298
820 -0.36539307000000004 8.956029690000001 -2.06091423 1.710118 0.6645220000000001 0.7000970000000001
840 0.70892946 7.28849646 -0.35955612 1.332856 0.8983450000000001 0.362809
860 1.33941816 6.405930000000001 2.19099483 0.702527 0.8402379999999999 0.255931
880 2.84109372 7.65927522 1.46500578 0.14163499999999998 0.988865 0.33728
900 2.63572137 8.809478100000002 1.3341796200000002 -0.0686 0.37767 0.450895
920 1.09571814 7.4922207300000006 1.61259723 -0.577141 -0.007395 0.218168
940 0.56028834 6.9231033900000005 -1.28642454 -1.412279 -0.11378599999999997 -0.423121
960 0.00373761 7.4145353400000005 -0.70099317 -2.624369 -0.587121 -0.8817709999999999
980 -1.11204198 8.819062470000002 -0.15178032 -3.294004 -0.530571 -1.388585
1000 -1.2663630900000002 9.877953869999999 -0.37721412000000004 -3.430889 -0.666192 -1.45346
1020 -2.87223066 8.5493169 0.13307265000000001 -2.946123 -0.551762 -1.18637
1040 -1.7661727800000002 9.474399900000002 3.9645054900000005 -2.759144 1.48738 -0.86721
1060 -0.86969574 11.419605180000001 3.36380976 -2.9551540000000003 1.849909 -1.0474370000000002
1080 -1.79522019 12.318632820000001 -1.1946618 -2.690635 0.275163 -0.943159
1100 -3.76032996 13.636047150000001 0.5408253000000001 -2.878204 -0.223628 -1.252546
1120 -3.98381157 13.321244250000001 3.724857 -2.706028 0.50355 -1.566332
1140 -1.6214262300000002 15.384856230000002 1.4706955800000001 -2.374796 -0.933102 -1.6882279999999998
1160 -3.69656496 14.80241691 0.27198225000000004 -2.642624 -2.811433 -1.659918
1180 -0.42122178 16.5108186 0.71087184 -2.488453 -3.142303 -1.634916
1200 5.9433885 16.664541300000003 -0.26480133 -2.247876 -3.544353 -1.201159
1220 8.84630484 18.74162241 -3.24315657 -1.609775 -2.9089240000000003 -0.820434
1240 8.24904261 16.57188585 2.13605883 -0.650233 -2.242506 -0.475959
1260 6.51848994 14.795235990000002 4.0231791 0.204467 -1.38511 -0.114301
1280 4.892423580000001 14.205311640000001 -1.0418318100000001 0.906724 -0.939696 0.043857
1300 0.6185106900000001 12.29303853 -0.7054861499999999 1.6781560000000002 -0.853187 0.118569
1320 -1.1996060400000002 8.594079930000001 -0.20986533 2.476009 -0.690711 0.087615
1340 -0.55235205 8.184826350000002 -2.8108593 3.185716 -0.0672 0.190049
1360 1.0011203100000001 8.301584970000002 -3.1985505 1.388189 1.08476 0.58301
1380 1.4904529199999998 6.305191110000001 -1.4471908199999999 -1.440515 -1.11316 -0.362217
1400 1.5790666500000001 2.7229911300000005 -2.12243274 -1.017365 -0.971349 -1.559056
1420 2.5836302700000005 0.69530337 -0.6673154400000001 -0.8406879999999999 -1.243741 -1.259439
1440 3.45556269 -0.23306598000000003 -0.15193728 -1.040378 0.175352 0.207221
1460 3.2576753700000003 -0.14714019 0.46194309 -1.426427 2.654036 -0.203508
1480 2.1607604100000004 0.5803399800000001 0.65832948 0.673956 0.569555 -1.023652
1500 0.5960556 1.14631812 1.43252487 0.564474 -0.957736 -0.741517
1520 -1.1135331000000002 3.1467537 5.010231870000001 -0.497173 -0.566429 0.622163
1540 -2.2806582300000002 5.7868208999999995 10.722800880000001 2.716259 3.836314 0.776768
1560 2.16973656 12.045905009999998 14.73176529 4.262523000000002 5.268582 1.432007
1580 8.50351401 28.73439252 15.30941733 1.95363 0.581696 1.753034
1600 3.8257430400000003 16.17656247 7.9273629 2.211504 -0.174913 1.063597
1620 0.25072398 4.02812334 6.7062042900000005 2.729073 0.26021 0.759007
1640 0.62929188 5.565723120000001 10.893298680000001 2.462299 0.5123300000000001 0.545313
1660 2.95171128 19.79977806 8.84750166 2.435739 -0.511971 0.444959
1680 -2.84542974 21.066445260000002 -15.97432932 2.6427240000000003 0.046249 0.527942
1700 3.0118858200000003 3.10020525 -1.2283493400000003 2.448355 1.336385 0.674482
1720 10.72504737 -3.17399607 4.036658040000001 2.162817 1.591193 0.603795
1740 0.82942569 3.3838614000000002 5.95326717 2.036324 2.310131 0.7440640000000001
1760 -0.93121425 16.07387139 -10.98296208 1.62131 2.407068 0.838249
1780 -0.2870994600000001 21.43213263 -3.5283136500000003 1.368965 1.85382 0.883129
1800 -1.7724609900000001 15.76686744 0.24983127000000002 1.300122 0.895906 1.000312
1820 -0.5041555199999999 10.71651267 0.59171958 1.528327 0.5099819999999999 0.87635
1840 1.8214128900000002 8.30533239 -0.5405211900000001 1.547113 1.056585 0.564928
1860 2.1472814700000002 7.34343246 -0.47062494000000005 1.220027 1.12899 0.05835
1880 1.7667711900000003 6.42688416 2.14713432 0.720301 0.8471709999999999 0.105427
1900 1.9742428800000003 7.58308095 1.63355139 -0.083832 0.631992 0.533784
1920 2.2324617 9.6856092 0.8295728400000001 -0.272557 -0.007770999999999998 0.580287
1940 1.21307517 7.7306724 1.79417052 -1.063259 0.248106 0.148216
1960 0.45235872000000005 6.17870097 -0.8494871400000001 -2.18322 -0.310094 -0.479529
1980 0.21570228000000002 6.2507063700000005 -1.2091806 -2.7996220000000003 -1.212757 -1.448351
2000 -0.47570652 7.394925150000001 -0.16495515000000002 -3.439471 -0.823234 -1.600734
2020 -0.95516046 9.16109793 -0.9171467100000001 -3.152767 -1.5635709999999998 -1.324318
2040 -2.69933922 9.50044545 -0.42705873000000005 -2.946739 -0.5850920000000001 -0.843432
2060 -3.4154496000000005 9.58382064 2.25626076 -3.276178 0.6793680000000001 -0.818512
2080 -1.94850144 11.67123168 3.92678604 -3.2000900000000003 0.34328600000000004 -0.754525
2100 -0.65189412 11.54848896 0.27587682 -2.868253 -0.8976049999999999 -0.81471
2120 -2.43558756 14.543305380000001 1.0005219 -2.599816 0.667211 -1.2944719999999998
2140 -4.218074370000001 14.244532020000001 3.8673570600000002 -2.2845470000000003 -0.302835 -1.672382
2160 -4.46775849 16.70376168 0.80233047 -2.4504080000000004 -2.025115 -1.862545
2180 -4.50473238 15.15702879 -3.04840845 -2.576033 -2.895087 -1.84308
2200 -0.54247338 17.453853900000002 2.7238838400000005 -2.352691 -3.161525 -1.474778
2220 4.3957629 16.79372919 -1.30678029 -1.853325 -2.8140240000000003 -0.8981
2240 6.74018613 16.32101472 -5.232369510000001 -1.027578 -2.434953 -0.5071899999999999
2260 5.729481450000001 14.43238371 0.72374256 -0.135554 -1.883162 -0.210042
2280 4.834201230000001 15.69665727 4.631369670000001 0.557244 -1.35589 -0.001848
2300 4.23155331 15.75279009 -2.1914460900000003 1.168304 -1.058095 0.12168
2320 3.6574917300000003 12.825780390000002 0.0038945700000000004 1.851712 -0.80328 0.008623
2340 1.35767457 9.77437008 -0.03831786 2.846737 -0.252499 -0.063113
2360 1.4150042100000002 9.596838510000001 -3.03015204 1.51323 0.373755 0.059229
2380 1.1192229 7.088205690000001 -2.7473886 -1.498944 -0.8827139999999999 -0.664159
2400 0.7815234600000001 4.091437080000001 -2.7892969200000004 -1.5058280000000002 -0.7372479999999999 -1.603361
2420 0.99258561 0.45415395000000003 -1.69432434 -0.890725 -1.298644 -1.338767
2440 2.10821805 -1.03046202 -0.9767228400000001 -0.606941 -0.8855190000000001 -0.20393
2460 2.8436345100000002 -0.09849240000000001 0.18427104 -2.32286 0.69187 0.022412
2480 2.86518708 0.5566880700000002 0.79754319 0.358575 1.427879 -1.210689
2500 1.80390204 0.8990276400000001 1.34136054 1.86528 -0.16351300000000002 -0.951366
2520 0.08756406 2.4956149499999998 2.96278677 -0.544351 0.170705 0.938151
2540 -1.38806595 5.5679696100000005 7.6908536100000005 2.54944 4.4347379999999985 0.986344
2560 -0.23306598000000003 7.81569567 11.39250996 4.622489 5.600757 1.4340959999999998
2580 3.53400345 19.955001690000003 13.82465421 2.209935 0.6391680000000001 1.278324
2600 5.419779750000001 25.7891166 11.6553591 2.2323470000000003 -0.282806 0.588522
2620 1.45273347 9.90968922 6.7181823000000005 2.574336 0.799377 0.592729
2640 1.3078299600000003 4.09712688 7.97930685 2.366542 1.1281709999999998 0.866458
2660 4.28139792 10.84419963 13.289361750000001 2.208339 -0.017950999999999998 0.974712
2680 0.86340753 26.303602050000002 5.15617524 2.359507 -0.22991 0.836102
2700 -0.8129547 8.81502075 -16.31502081 2.471111 1.272008 0.769796
2720 8.450078940000001 -5.360654879999999 -3.58834104 2.198824 1.741384 0.57608
2740 12.557388600000001 -3.6465633900000003 12.322380240000001 1.961313 2.075617 0.581471
2760 -1.79522019 10.626702120000001 -3.2310314100000004 1.642202 2.10315 0.632617
2780 -2.50593507 23.282730270000002 -9.76688505 1.517111 1.257104 0.795198
2800 -4.167631350000001 20.179091520000004 -2.3305028400000003 1.483162 0.29136300000000004 0.974591
2820 -3.4708368600000004 11.03160987 0.8394515100000001 1.724484 0.27161 0.910072
2840 0.29818476 5.9417404199999995 1.78338933 1.624718 0.886416 0.694943
2860 1.9428116400000002 5.4107937900000005 -0.27722079 1.113902 0.7027140000000001 0.45767
2880 2.7012816 6.593487389999999 0.27422874 0.477594 0.7935439999999999 0.406107
2900 1.6572033000000002 7.95505653 3.98621502 0.044154 0.5848260000000001 0.496282
2920 0.04011309 9.73066653 2.49815574 -0.05709 0.206608 0.329417
2940 -1.53655011 8.77594752 0.48918546 -0.641865 0.048101 -0.283351
2960 -1.07701047 6.00836013 0.5116405499999999 -1.607101 -0.233798 -0.8772540000000001
2980 0.16615197 5.84819226 -1.66648356 -2.559741 -1.016613 -1.689413
3000 1.125207 7.03551618 -0.89214102 -3.431186 -0.61893 -1.816718
3020 0.8162508599999999 8.99628993 0.5352826500000001 -3.362914 -0.8660610000000001 -1.346975
3040 -0.8906499 9.70266879 0.6257014200000001 -3.10235 -0.008397 -0.53761
3060 -2.0660056200000003 9.139094100000001 0.7581756600000001 -3.30514 1.773958 -0.399237
3080 -1.05949962 10.82085183 3.2805817200000003 -3.339984 1.753073 -0.740217
3100 -0.86056263 11.64129156 1.2982455900000003 -2.93749 -0.123169 -1.015943
3120 -2.81369439 13.24714932 -1.2454089300000002 -2.875163 0.323261 -1.621762
3140 -5.45959854 13.965359040000001 1.29720573 -2.4125330000000003 -0.005490999999999999 -1.860596
3160 -4.90290066 16.78653846 2.0667511800000007 -2.181027 -0.915147 -1.81722
3180 -3.2373196200000005 15.73123752 -0.71536482 -2.482851 -2.678643 -1.705974
3200 -2.23350156 17.42915232 -1.3477959000000002 -2.409872 -3.228737 -1.400316
3220 2.6707430700000003 18.03419388 3.3048320400000004 -1.960305 -3.0822380000000003 -0.8643209999999999
3240 8.87833449 16.19153253 -2.46687165 -1.024946 -2.377223 -0.560657
3260 9.24162822 15.402818340000001 -2.9617371 -0.040717 -1.788213 -0.32700500000000005
3280 7.87467339 14.544502200000002 3.8146675500000002 0.749879 -1.395285 -0.173504
3300 6.20175447 14.692692059999999 3.98471409 1.498876 -1.070109 -0.090708
3320 3.5839952100000003 13.984665120000003 -3.1457040300000005 2.113932 -0.700531 -0.072999
3340 -0.8072747100000001 12.0629646 0.35625996000000004 2.584943 -0.30712399999999995 -0.028552
3360 -1.2284964900000002 9.3446136 -0.71341263 2.393319 0.706735 -0.057896
3380 0.09609875999999999 7.31663154 -2.2817079000000002 -0.675219 0.490297 -0.014959
3400 1.3708494 6.245762129999999 -3.2668084800000003 -1.234832 -1.1779540000000002 -0.8531479999999999
3420 1.6640899200000001 3.40811172 -2.07153846 -1.007482 -1.952015 -1.414589
3440 0.8803199700000001 0.77119353 -1.05335856 -0.363493 -1.39664 -0.999537
3460 1.5949294200000002 -0.028439190000000003 0.52540398 -0.303589 -1.237121 0.08065
3480 2.7622017 0.40715424 1.06039233 0.8027770000000001 0.122945 0.259687
3500 2.5906640400000005 0.91938339 0.9743193900000001 2.804578 3.318655 -0.645892
3520 0.79319736 1.66184343 1.15260633 -0.122823 2.853727 -0.921049
3540 -0.73601487 2.4170270400000002 1.5206873400000003 -1.272504 -1.580755 0.00916
3560 -1.58789565 5.00409081 4.48526934 0.382242 -1.012715 0.11079
3580 -1.31756148 7.8724269 9.42694893 2.329169 3.017999 0.6255609999999999
3600 2.5581831299999997 17.230666590000002 15.375880080000002 5.167665 7.335803 1.034029
3620 6.74093169 26.29910907 15.735426390000002 2.092477 3.609206 1.899676
3640 2.24009388 14.922913140000002 8.09291646 1.615931 -0.260069 1.030704
3660 -1.60870266 2.4996566700000002 8.987156820000001 2.1855290000000003 0.255179 0.623826
3680 -2.04385464 -2.0907072 7.80536574 2.350632 -0.05003 0.6157560000000001
3700 -1.1424235500000002 6.002670330000001 3.8842695000000003 2.275326 -0.546766 0.4940890000000001
3720 1.51215264 13.080104640000002 -7.24628403 2.216505 0.917795 0.327295
3740 2.20551363 29.99567403 -8.93746917 2.282861 1.525488 0.414574
3760 7.19015121 21.589906860000003 8.610845220000002 2.077944 1.831593 0.499277
3780 9.461372220000001 -6.4970845200000005 -1.6193367 1.714362 2.429233 0.80896
3800 7.5803832 -8.51728725 11.541749490000003 1.478046 2.529203 0.789022
3820 -1.2819315599999999 7.24493025 -6.649021800000001 1.586912 2.333748 0.8220790000000001
3840 -0.92208114 17.87103396 -10.692713610000002 1.493607 1.046235 1.0677
3860 -5.1262351200000005 24.56212104 -2.59695225 1.378958 0.17331400000000002 1.015675
3880 -4.648733370000001 12.901219290000002 -0.25492266 1.165162 0.6963229999999999 0.679158
3900 -2.2180900500000007 6.997502430000001 -0.04491018000000001 0.677467 0.802724 0.334852
3920 0.72703872 5.607337139999999 -0.16630893 0.093058 0.99054 0.226912
3940 2.27871585 5.46992847 1.5224825700000002 -0.380727 0.71954 0.210063
3960 3.50212095 7.035074730000001 1.75509729 -0.816608 0.251672 0.108273
3980 3.58174872 9.77063247 0.7363189800000001 -1.521603 0.069482 -0.604649
4000 0.90442314 7.75447146 1.0737143100000002 -2.880629 -0.400849 -0.888072
4020 0.17603064 6.666689610000001 -0.28051695 -3.1714130000000003 -0.887476 -1.485547
4040 -0.39443067000000004 7.11350568 -0.99423369 -2.649608 -0.512763 -1.605228
4060 -1.53250839 7.48353888 -0.18831276000000002 -2.722832 1.029995 -1.33532
4080 -1.7548029900000002 8.46055602 -0.02694807 -2.689916 1.6532830000000005 -1.3893
4100 -2.8234259100000005 8.68044717 -0.20178189000000002 -2.640456 1.602743 -1.048127
4120 -3.55061178 10.027644660000002 1.38326886 -2.796882 -0.221358 -0.82576
4140 -0.668061 11.58142113 2.15581617 -2.816057 -0.319938 -0.931522
4160 -1.12101813 11.41016796 0.39952206 -2.628805 0.043605 -1.16462
4180 -4.100727150000001 11.781702090000001 1.06413975 -2.542704 -1.632708 -1.346673
4200 -5.95117764 12.96259065 0.9749178000000001 -2.455705 -2.158423 -1.288776
4220 -4.69872513 15.69516615 0.96159582 -2.39971 -2.606743 -1.377541
4240 -0.73332693 17.621359650000002 -1.45393029 -2.063566 -3.082737 -0.916316
4260 4.279455540000001 20.60584614 -1.5651462600000001 -1.466835 -2.746889 -0.17443699999999998
4280 8.295748020000001 19.988532270000004 -2.5093783800000002 -0.6865319999999999 -2.27921 0.208565
4300 8.179744770000001 19.04519286 1.41396435 -0.026199 -1.884861 0.385724
4320 6.261477750000001 16.034052600000003 2.7791239500000002 0.77383 -1.7021959999999998 0.365441
4340 4.58212347 13.94065746 -0.2080701 1.835451 -1.6878939999999998 0.13142
4360 2.96309088 13.79127078 -1.8821858400000002 2.404143 -1.263637 -0.16425399999999998
4380 0.70159158 11.804902740000001 1.12431429 1.6216469999999998 0.383408 -0.317108
4400 0.79154928 9.99411408 -1.97079957 -1.19367 -0.210018 -0.256964
4420 1.67291892 6.330039840000001 -2.67179274 -0.705741 -0.559617 -1.164302
4440 1.08074808 5.0807363400000005 -1.99415718 -0.476848 -0.300168 -1.509139
4460 0.8619066000000001 3.6383328 -1.3572233100000002 -0.117216 -0.571566 -1.084332
4480 0.02320065 1.54568322 -1.949247 -0.310504 -0.334016 0.148878
4500 1.03389552 -1.7133361200000001 -1.92425112 -0.261813 0.4767020000000001 0.095837
4520 2.6749417500000003 -1.24735131 -1.50781662 1.159956 2.453964 -1.162609
4540 2.1772215900000003 -0.41643450000000004 -0.33784659 0.655918 -0.4758979999999999 -0.903865
4560 0.6084848700000001 1.34255736 1.30064904 0.24738 0.266281 0.061207
4580 -0.95830947 4.18439664 5.17159656 0.712292 1.572442 0.955814
4600 -1.0822490100000002 7.751185110000001 11.96581617 4.081729 5.09455 0.8883110000000001
4620 -0.94064166 15.395637420000002 15.108086700000001 2.6718 3.5243290000000003 1.578023
4640 3.8428124400000003 23.737335480000002 15.477511680000001 2.096404 0.943568 1.443784
4660 7.296422939999999 12.13316496 10.081530990000001 2.486708 0.46142 1.000611
4680 3.5512200000000007 5.827228290000001 5.01786405 2.253645 0.373628 0.7801100000000001
4700 0.44202879000000006 2.39846652 5.35451382 2.258338 -0.322762 0.700918
4720 2.74260132 9.572293890000001 8.798108310000002 2.2575 0.221523 0.719443
4740 1.05455538 18.31755573 7.051683060000001 2.267441 1.647125 0.645047
4760 -2.6020436399999998 20.334609450000002 -11.618836470000002 2.063272 1.9156990000000005 0.524704
4780 3.5950707000000004 10.55769858 -0.80547948 1.875506 2.724514 0.619564
4800 8.63105382 -2.06660403 0.49023513 1.509481 2.324871 0.7115229999999999
4820 3.22084863 1.4060280600000001 5.2120137600000005 1.354169 1.4032870000000002 0.876125
4840 -1.1365866 11.94290982 -8.769512160000001 1.1904629999999998 0.698194 0.988048
4860 -2.56746339 19.97131572 -3.67501239 1.451825 0.552967 0.8490549999999999
4880 -2.87402589 15.958319400000002 -1.7943176699999999 1.430643 1.017572 0.565233
4900 -1.49164974 11.94890373 -1.0409391000000001 1.097077 0.699808 0.399872
4920 0.795591 8.54273439 -0.9535123800000002 0.527356 0.444069 0.379129
4940 1.94445972 6.595282620000001 0.19819143 0.051075 0.523837 0.557297
4960 2.45190159 5.6018043 3.0548438100000004 -0.023885 0.07621499999999999 0.407796
4980 2.35609713 7.67798289 1.4443459200000002 -0.75339 0.045860000000000005 -0.159145
5000 1.28792547 9.127273050000001 0.27408159 -1.751714 -0.403468 -0.679357
5020 0.22453128 7.52664402 0.70099317 -2.753258 -1.181714 -1.526047
5040 0.3153915 6.674773050000001 -2.40834519 -3.453281 -0.69486 -1.72384
5060 -0.05927202000000001 7.28400348 -0.4784042700000001 -3.306756 -1.197526 -1.354704
5080 -1.4016822299999998 9.24417882 1.47098988 -2.990735 -0.08883300000000001 -0.7653270000000001
5100 -2.07349065 10.12434183 0.25162650000000003 -3.265151 1.76462 -0.762142
5120 -3.0982530600000002 9.34072884 -0.7116174 -3.226238 1.522074 -0.880132
5140 -3.21935751 9.763451550000001 2.66925195 -3.067188 -1.120165 -0.929046
5160 -2.01241359 11.579017680000002 2.8880934300000005 -2.779552 0.6387430000000001 -1.212369
5180 -1.8585339300000001 12.13825635 -1.09227483 -2.496001 -0.064624 -1.3868120000000002
5200 -3.7065907800000004 14.476244220000002 1.0054563300000001 -2.365037 -1.6562740000000002 -1.7342349999999995
5220 -4.23155331 14.213247930000003 1.70944155 -2.271471 -2.831931 -1.6508900000000002
5240 -3.81092994 15.686180190000002 -0.11241279000000001 -2.106538 -3.133999 -1.379091
5260 -3.29629734 16.15140963 -2.7819688499999997 -1.644665 -2.846982 -0.829303
5280 1.14631812 17.82373995 3.95343 -0.952509 -2.265109 -0.422494
5300 7.3248719399999995 15.995881890000001 -1.46500578 -0.178531 -1.723069 0.018053
5320 8.19441072 15.39623583 -3.17174958 0.4333010000000001 -1.111593 0.284325
5340 6.88103811 14.496756930000002 2.5210620900000005 1.049648 -0.8520549999999999 0.380165
5360 4.22990523 15.010035750000002 3.80508318 1.747318 -0.8683379999999999 0.383991
5380 2.08605726 14.75152263 -4.41177282 2.540363 -0.82739 0.112808
5400 -0.18336852 11.92285818 1.30228731 2.757937 0.6330899999999999 -0.07234600000000001
5420 0.32976315 10.29723327 -0.30506157000000006 -0.942651 0.581729 -0.004125
5440 1.14780924 9.63306684 -2.30595822 -1.565092 -0.8531049999999999 -1.350458
5460 1.0910780100000002 7.126974810000001 -2.2499725500000007 -0.878223 -1.196365 -1.884672
5480 1.29885381 4.871175120000001 -1.32265287 -0.040476 -1.180588 -0.963374
5500 0.79110783 0.7478457300000001 -1.28567898 -0.193167 -0.215718 0.034178
5520 1.4892561 -0.5185173599999999 -0.40595742000000007 -0.129483 1.540759 -0.512421
5540 2.3942678400000004 -0.41837688 -0.3501189 0.645763 1.577717 -1.1020530000000002
5560 3.0159275400000007 0.018413370000000002 -0.1272357 0.691077 -0.6352140000000001 -1.052967
5580 2.10088017 0.19908414 0.38784816000000005 -0.260022 -1.392008 0.680425
5600 0.7566747300000001 1.38895866 1.4867055 2.6025400000000003 3.550955 1.107488
5620 -0.81416133 5.16141378 5.61960945 4.922244 5.5349580000000005 1.37859
5640 -0.89273943 7.5694548600000005 11.450585160000003 1.594403 1.96718 1.641927
5660 2.81833452 17.37961182 15.068110950000001 1.836275 -0.094814 1.071556
5680 5.1540857099999995 31.414425660000003 14.41757061 2.292076 0.8963709999999999 0.823506
5700 0.9831582000000001 11.83888458 7.664808060000001 2.279436 0.964465 0.855377
5720 -1.66019535 1.02716586 6.68793807 2.157443 0.158525 0.8427389999999999
5740 1.2073853700000001 4.28573394 8.88837012 2.0891990000000003 0.913902 0.8776139999999999
5760 1.6072115399999998 15.39638298 10.04366439 2.0801 1.706516 0.607342
5780 -4.94317071 26.311979790000002 -12.67983702 1.983696 1.676691 0.424041
5800 3.6425216700000003 13.171259160000002 -5.051100330000001 1.656449 2.0514490000000003 0.496051
5820 11.1375873 -4.60008558 0.6709058999999999 1.556743 1.605958 0.633726
5840 8.74586025 -3.54133152 11.20839588 1.378578 0.851583 0.8278639999999999
5860 -1.38955707 12.782223990000002 -9.970913430000001 1.438469 0.202498 0.859025
5880 -1.09961271 20.57307093 -7.729024320000001 1.76285 0.322258 0.7318819999999999
5900 -3.4886420100000004 17.519718240000003 0.32706539999999995 1.638022 0.622736 0.556505
5920 -1.93712184 10.166858370000002 1.23747264 1.045796 0.282106 0.472688
5940 0.72089766 6.67626417 0.48693897 0.467681 0.738129 0.419996
5960 1.9454995800000001 5.9859050400000005 0.42272271 -0.095503 0.83145 0.481104
5980 1.22924205 6.4396077300000005 1.9693084500000002 -0.25884 0.314264 0.222116
6000 -0.06496182 8.43645285 1.1105410500000001 -0.864298 0.15546300000000002 -0.298929
6020 -1.00171872 10.31145777 -0.01002582 -1.791327 -0.553055 -0.799083
6040 -1.3228000200000003 8.6127876 0.9093575700000001 -2.824081 -1.081146 -1.572604
6060 -0.17289144 6.88523679 -0.49277592000000003 -3.531836 -0.535084 -1.6519549999999998
6080 0.6902119800000001 6.64198803 -0.69006483 -3.261901 -1.367293 -1.296489
6100 -0.38544471 8.127643860000001 0.12693159 -3.007505 -0.127655 -0.632935
6120 -1.5621542100000003 9.41197887 -0.7756865100000001 -3.099063 1.64501 -0.565344
6140 -2.23170633 9.99306441 -0.58528422 -2.982686 1.193865 -0.7989609999999999
6160 -1.8979014600000002 8.888811570000001 1.9576247400000002 -2.552612 -0.507767 -1.340706
6180 -0.1041822 11.178602910000002 4.75262127 -2.7815060000000003 0.318596 -1.335887
6200 0.4656807 11.3223096 0.7249393800000001 -2.58133 -1.001799 -1.379798
6220 -2.4548936400000003 13.193567100000001 -0.82253907 -2.599753 -2.203671 -1.569598
6240 -5.00214843 13.47961689 1.37354715 -2.64469 -2.563091 -1.425242
6260 -4.76369676 16.11997839 0.44472654 -2.285615 -3.035513 -1.078161
6280 -4.205654910000001 14.699578680000002 -1.6816007700000002 -1.756774 -2.777594 -0.5022300000000001
6300 -1.3973462100000003 17.92986453 0.69455781 -0.933188 -2.258596 -0.203382
6320 3.3187524300000004 17.68123008 1.50631569 -0.17088299999999998 -1.930783 0.0076900000000000015
6340 6.808895370000001 17.2309707 -4.6331649 0.438298 -1.594559 0.112995
6360 6.90619095 15.398776620000003 -0.7927559100000001 1.0845790000000002 -1.383877 0.146082
6380 5.78232792 14.8914819 4.991818500000001 1.747752 -0.869123 0.047505
6400 3.95866854 15.132032910000001 0.7192495799999999 2.49437 -0.334295 -0.081493
6420 1.12700223 14.13930015 -1.99729638 2.132447 -0.0278 0.041636
6440 -0.19893699 9.91223982 0.043860510000000005 -0.7689600000000001 -0.793578 -0.14536
6460 0.7006890600000001 9.749227050000002 -2.14698717 -0.996489 -0.041551 -0.998217
6480 1.22879079 7.81210521 -1.7122864500000001 -0.319025 0.093691 -1.572635
6500 0.59635971 4.65187257 -2.2908410100000003 -0.096196 -0.588897 -1.030751
6520 0.613125 1.84551606 -1.6762150800000002 -0.747717 -0.152999 0.28125700000000003
6540 0.56641959 0.33006726 -0.17798283 -0.971934 0.967502 0.251549
6560 1.62097497 0.23381154 0.37182843 0.333832 1.822475 -0.768055
6580 2.66849658 0.82598238 0.17977806 0.868675 -0.342553 -0.868367
6600 2.4224127300000005 1.19197386 0.60923043 0.722508 0.49307 0.210582
6620 1.2250531800000002 2.04235371 1.1720595600000001 1.225356 2.492138 0.952879
6640 0.12977649 3.0894240600000007 2.54410578 4.3395470000000005 5.521863 1.163029
6660 0.23052519000000005 4.970118780000001 6.00775191 2.451517 2.459942 1.812857
6680 0.48873420000000006 8.91875169 10.246643100000002 1.804625 -0.43475 1.127318
6700 -1.12192065 20.651354730000005 16.07970834 2.302146 0.404775 0.940642
6720 4.242923100000001 21.23214597 15.217203330000002 2.32452 0.8744770000000001 0.942333
6740 4.06255644 9.64145439 8.3873538 2.190658 -0.195731 0.693874
6760 2.57030829 3.5063098200000002 5.05708443 2.321507 0.096096 0.595069
6780 3.5524168200000004 9.37141452 7.27127991 2.3652330000000004 1.4713969999999998 0.5498149999999999
6800 3.18223647 17.72434503 5.624406540000001 2.039482 1.628075 0.5452020000000001
6820 -2.50549362 22.99832856 -8.971745310000001 1.757557 2.125148 0.6259170000000001
6840 1.1479662000000002 6.1429238999999995 -1.91990529 1.671671 2.067675 0.687348
6860 8.21761137 -4.05895617 -0.69724575 1.380886 1.19857 0.899007
6880 3.1196584800000005 1.1856856500000001 8.057296350000001 1.358474 0.340725 0.992885
6900 -1.06443405 14.92082361 -9.72722322 1.682757 0.254673 0.919416
6920 -1.9489428900000003 20.670817770000003 -4.7398977 1.56629 0.8985139999999999 0.650722
6940 -3.3608079 15.76147194 -1.1976636600000001 1.131933 0.648446 0.426887
6960 -1.36501245 9.787250610000001 1.39330449 0.458242 0.82637 0.47216
6980 1.344951 7.3551063600000015 0.47046798 -0.027497000000000004 0.8246030000000001 0.536067
7000 2.2065633 6.97145688 -0.23531247000000002 -0.048752 0.197915 0.364738
7020 1.1843416800000002 6.3363280500000005 2.37750255 -0.658885 0.046193 -0.058073
7040 0.7249393800000001 8.0517537 1.51290801 -1.73935 -0.5926520000000001 -0.532682
7060 -0.19114785 9.72691911 0.41358960000000006 -2.582085 -1.452226 -1.42516
7080 -0.39592179 8.63000415 0.8048810700000001 -3.459569 -0.891975 -1.708676
7100 0.49427685 6.4349676 -1.26052614 -3.409387 -1.556928 -1.4308040000000002
7120 0.7661021400000001 5.675752080000001 -0.39847239000000007 -3.13291 -0.80667 -0.948066
7140 -0.52795458 8.590038210000001 -0.43574058 -3.390728 1.248846 -0.8745209999999999
7160 -0.668061 9.78889869 -0.23785326 -3.353575 1.01619 -1.066243
7180 -2.20326714 8.713830600000001 -0.12933504 -2.902633 -1.086557 -0.95144
7200 -1.97694063 10.02106215 2.5518949200000005 -2.762859 0.25013 -1.2801209999999998
7220 -0.58348899 11.500881029999999 3.62276433 -2.512496 -0.118164 -1.569525
7240 -1.18822644 12.334348440000001 -0.87298209 -2.496635 -1.916093 -1.913214
7260 -4.20999093 14.43777921 -0.26240768999999997 -2.686747 -2.6844080000000003 -1.6860259999999998
7280 -5.71840596 14.67697644 3.17295621 -2.418784 -3.179284 -1.505127
7300 -5.835164580000001 16.17042141 0.50789313 -1.956654 -3.120045 -1.003116
7320 -4.77386973 15.323936130000002 -2.90201382 -1.231723 -2.530064 -0.521313
7340 -0.07484049000000001 16.74238365 2.9602459800000003 -0.407731 -2.111391 -0.175331
7360 5.26245678 16.34586345 -0.6372281700000001 0.240262 -1.809845 0.043522000000000005
7380 6.84585945 15.97358376 -5.41543392 0.846649 -1.414893 0.11668599999999997
7400 5.879770649999999 14.89582773 0.8240400000000001 1.546439 -0.974121 0.106054
7420 4.43572884 16.47459027 4.36342914 2.441249 -0.07513500000000001 -0.10997
7440 3.5810031600000003 16.096032179999998 -1.7926695900000003 3.3566300000000004 1.202716 -0.250492
7460 2.34202959 14.13450306 0.25671789 0.948032 1.159589 -0.164711
7480 0.98464932 10.337199210000001 0.01586277 -1.7847650000000002 -1.440886 -1.489039
7500 0.17184176999999998 9.03880647 -3.0388338900000003 -1.372983 -1.384321 -2.137851
7520 0.35715267000000006 6.11223822 -2.6081748900000004 -0.35320300000000004 -1.300681 -1.295485
7540 0.44293130999999997 4.65891615 -2.5101337500000005 0.119683 -0.027722000000000004 0.16858199999999998
7560 0.4363389900000001 1.7088431400000001 -1.5682854600000002 0.25531 2.911719 0.230925
7580 0.9211884300000001 -0.31479309 -0.73137474 0.782224 3.013317 -0.590192
7600 2.14204293 -0.028586340000000002 -0.23636214000000003 -0.365664 -1.681858 -0.800497
7620 2.6099701200000003 0.39098736000000006 -0.22617936000000002 -0.211249 -0.819943 0.36918
7640 1.7807013900000002 0.80113365 -0.46478799 1.165188 1.853573 1.1209870000000002
7660 0.77927697 1.42069401 0.50789313 4.725153 6.796666 0.911988
7680 0.025143030000000004 3.3879031200000003 4.1472756 1.91674 3.299319 1.758908
7700 -0.17244018 6.987015540000001 9.88199559 1.920792 0.207486 1.323859
7720 4.64679099 11.564950140000002 14.22222408 2.433456 0.472297 0.990611
7740 5.126686380000001 30.73378824 12.894931080000001 2.527901 0.418357 0.811879
7760 -0.47017368 18.31186593 8.80199307 2.2688080000000004 -0.44276 0.8635149999999999
7780 -2.03651676 1.9247023800000003 8.63225064 2.180186 -0.140347 0.70548
7800 -2.79034659 -2.09624004 9.967322970000001 2.315584 1.293981 0.737703
7820 0.41134311000000007 10.45335942 9.10182591 2.261613 1.6392779999999998 0.7475649999999999
7840 0.39084021 21.150114750000004 -4.08860199 1.88817 1.825052 0.700922
7860 3.53264967 24.25106556 -7.01470917 1.584332 2.169964 0.7571100000000001
7880 8.195156279999999 3.23267949 0.98524773 1.464895 1.610545 0.8979969999999999
7900 11.99874834 -4.55218335 6.14038311 1.290829 0.8920799999999999 1.165826
7920 -1.91885562 4.00716918 0.7123727700000001 1.4986620000000002 0.35027600000000003 1.146607
7940 -1.77860205 13.862373660000001 -12.207269700000001 1.775838 1.387191 0.8064520000000001
7960 -3.52097577 21.85634646 -1.0380942 1.112946 0.8386239999999999 0.569652
7980 -4.6768782600000005 15.509845440000001 -0.73662309 0.790585 0.5955699999999999 0.35940900000000003
8000 -2.7223927199999998 9.868379310000002 0.09504909 0.180865 0.7616729999999999 0.64122
8020 -0.7352693100000001 7.312148370000001 -0.40071888000000006 0.059476 0.145128 0.683892
8040 1.08554517 6.167625480000001 0.33560010000000007 -0.289995 0.227178 0.182486
8060 2.36493594 5.965098030000001 2.7689411700000006 -0.980344 -0.16423 -0.4371310000000001
8080 2.62823634 7.45718922 1.7295030000000002 -2.236616 -0.939129 -1.100801
8100 1.6685829000000003 10.31475393 0.37766538 -2.881064 -1.146169 -1.7790849999999998
8120 -0.06406911000000001 8.029151460000001 0.8672922900000001 -3.298843 -0.400779 -1.60777
8140 1.1373321599999997 6.55846569 -1.8712575 -2.947674 -1.095204 -1.147229
8160 1.53071316 6.376588290000001 -0.6300374400000001 -2.983088 0.71203 -0.716094
8180 -0.38395359 8.64422865 0.18202455 -3.4780870000000004 1.573711 -1.053941
8200 -1.9746941400000002 11.35433925 -0.28441152000000003 -3.089234 -0.00615 -0.844101
8220 -4.79916972 7.544311830000001 -1.08464265 -2.93326 -0.7224659999999999 -1.13265
8240 -3.60090765 9.13220748 3.56677866 -2.72502 0.682053 -1.434234
8260 0.10373094000000001 11.705654970000001 2.7190965600000006 -2.3702650000000003 -0.916967 -1.730946
8280 -0.55549125 11.602826550000001 -1.2380710499999998 -2.485448 -2.143568 -1.780385
8300 -4.7801579400000005 13.30403751 0.38529756 -2.39638 -2.874012 -1.675209
8320 -6.14083437 13.39160157 2.1999709800000002 -2.225667 -3.4004160000000003 -1.251395
8340 -3.1952543400000004 16.75166391 0.92267955 -1.69026 -3.0522970000000003 -0.8603360000000001
8360 -3.9176529300000005 15.268097610000002 -3.78173538 -1.020599 -2.551063 -0.51447
8380 0.38560167000000006 16.21727397 2.1573171 -0.279145 -1.7655599999999998 -0.190899
8400 5.836959810000001 16.32415392 1.57008069 0.418554 -1.134824 -0.020191
8420 7.7189985000000005 16.722479160000002 -5.08358124 1.247178 -0.902579 0.05687
8440 7.263794880000001 14.99162238 -0.23411565 2.146573 -0.660712 0.063911
8460 4.951548450000001 15.86311335 4.6824111 2.982822 0.052064 0.111567
8480 3.3075199800000004 15.159275280000001 -1.3199551200000001 2.41379 1.480096 0.19763
8500 1.1814967800000005 14.172526620000003 -0.6616256400000001 -1.201226 -0.827248 -0.141927
8520 -1.2626254799999999 10.23182019 0.12618603 -1.117307 -1.142467 -1.570217
8540 0.02140542 9.46062666 -3.14765622 -0.708013 -1.477283 -1.57868
8560 0.55115523 7.21768788 -2.8603998 -0.257824 -1.548253 -0.207052
8580 1.2813331500000003 6.01913151 -2.49306435 -0.509588 0.044662 0.195073
8600 1.7437275 3.00799125 -2.03172948 1.298239 3.530442 -1.419396
8620 1.67023098 1.20304935 -0.8089129800000001 0.743309 0.357227 -0.999394
8640 2.34188244 0.55759059 -0.49951539 -0.177633 -1.238999 -0.889482
8660 2.7988812900000006 0.10673280000000002 0.12768696000000002 -0.204529 -1.424126 0.406321
8680 2.36897766 0.08786817 0.09265545000000001 2.6440200000000003 3.282154 0.627422
8700 0.74904255 0.71491356 0.7511418900000002 3.694593 4.834174 1.069674
8720 -0.36554022 2.3944248 3.4533162 1.699373 1.609845 1.667688
8740 -1.2219041700000002 5.01142869 9.20376162 2.142323 0.448176 1.413761
8760 1.5193433699999999 9.54655245 14.29048206 2.474224 0.8658809999999999 1.097214
8780 5.38055937 27.47716254 15.39054603 2.153066 0.200882 0.909952
8800 0.66132153 20.933372610000003 10.496327220000001 2.153816 -0.254574 0.522776
8820 -2.16884385 6.1472697300000005 7.79339754 2.156471 0.628201 0.338998
8840 -2.66251248 -0.03023442 9.692642970000001 2.183681 1.434623 0.313585
8860 -0.99033912 10.52012628 7.85281671 2.134749 1.541022 0.387882
8880 -3.4561611 17.58468006 -2.6487392400000003 1.855061 2.027678 0.673725
8900 0.82059669 20.817212400000003 -12.39841755 1.462308 1.6503580000000002 0.80072
8920 7.33100319 9.73081368 2.52779175 1.480325 1.164467 0.8164239999999999
8940 9.93319398 -3.1849244100000007 2.7140051700000005 1.546747 0.601416 0.905203
8960 1.78534152 1.6108020000000003 3.7200599100000002 1.623784 0.422145 0.914517
8980 -0.0606258 11.54848896 -9.099128160000001 1.435134 0.517289 0.728275
9000 -0.8647515000000001 17.99154 -2.3622381900000002 0.987598 0.77058 0.37872
9020 -2.0091174300000003 15.89649678 -0.23905008000000003 0.474168 1.082791 0.270048
9040 -0.8990276400000001 12.20502321 -0.20043792 0.101529 0.902499 0.39159
9060 0.36867942 8.8874676 -0.79005816 -0.217302 0.459305 0.145308
9080 0.8539703100000001 7.294029300000001 0.27049113 -0.879016 0.312628 -0.428488
9100 -0.27049113 5.96299869 0.91954035 -2.077913 -0.431913 -1.008475
9120 0.32198382000000003 7.413181560000001 1.3566249000000001 -3.015973 -0.5702229999999999 -1.570326
9140 0.9282222 8.94674943 0.74545209 -3.495138 -0.250594 -1.699065
9160 0.20522520000000002 8.18542476 1.8131823 -3.130932 -0.835572 -1.180888
9180 -0.31030011 7.28864361 -1.32040638 -2.957704 1.213381 -0.6396470000000001
9200 -0.6360313500000001 7.08282 -1.77396192 -3.25543 2.496348 -1.007634
9220 -0.73916388 7.678581300000001 0.20747169000000001 -2.965249 0.74968 -1.088827
9240 -0.060772950000000006 9.39296709 0.8009865 -2.768655 -0.482027 -1.19697
9260 -0.8190957600000001 8.358620310000001 1.0041123600000001 -2.750656 0.570819 -1.300743
9280 -1.8886212 9.98738442 2.28051108 -2.33695 -0.355706 -1.459036
9300 -0.8265807900000001 11.328293700000001 1.20903345 -2.506062 -1.637812 -1.434005
9320 -1.0021699800000001 12.34527678 -0.61297785 -2.432114 -2.734305 -1.4171280000000002
9340 -3.49313499 13.386215880000002 1.31127327 -2.24153 -3.142413 -1.0232370000000002
9360 -4.768788150000001 13.534857 1.1826936000000001 -1.714215 -2.777846 -0.476295
9380 -5.017569750000001 16.75555848 0.74200878 -0.904484 -2.195126 -0.116736
9400 -4.80485952 15.20074215 -1.61469657 -0.089991 -1.601372 0.143497
9420 1.4867055 17.85038391 2.93989023 0.60047 -0.970405 0.262879
9440 7.68367269 17.40924783 -1.3697997299999998 1.45645 -0.629422 0.296195
9460 8.873547210000002 17.1734841 -3.0576887100000003 2.346755 -0.54823 0.26599
9480 7.260204420000001 15.148494090000002 2.0797788600000002 2.926272 -0.582959 0.189966
9500 4.45204287 15.544121580000002 3.3337126800000005 1.900311 0.667083 0.16197
9520 1.6890858000000002 15.34309506 -2.75277429 -2.069073 0.222015 -0.180311
9540 0.26808768000000005 13.085941590000001 1.30648599 -1.235348 -0.586919 -1.336745
9560 0.24264054000000002 9.4169133 -0.34922619 -0.670606 -1.551624 -1.668054
9580 0.6535422000000001 8.23243428 -2.3376935700000003 -0.058521 -1.014927 -0.817366
9600 0.6987466800000001 6.37539147 -1.71768195 -0.448247 -0.358995 0.38723
9620 0.15342840000000002 5.10902838 -1.9464021 -0.320513 1.059051 -0.030301
9640 -0.33619851000000006 2.17812411 -1.73444724 0.353042 1.268679 -1.087678
9660 1.37130066 -0.04011309 -0.7463448 0.996427 -0.401705 -1.104544
9680 2.80471824 -0.02470158 -0.46897686000000005 0.085353 -0.840907 0.8252729999999999
9700 3.42622098 0.18786150000000001 0.15208443 1.677664 3.553319 1.317874
9720 2.5336287 0.36359784 0.65937915 4.726382 6.213799 1.483174
9740 0.73258137 0.95261967 1.20154842 1.667439 1.581374 1.622636
9760 -1.1422764000000003 3.7074933 3.8895080400000004 1.7439639999999998 -0.400561 0.8886370000000001
9780 -2.09190402 6.56624502 9.07337691 2.49125 1.000312 0.764943
9800 -1.4488389000000002 15.57496422 13.809978450000001 2.387398 1.322784 0.931515
9820 2.64395196 27.80662158 17.2887516 2.043989 0.07064 1.073863
9840 3.1263979500000003 15.84290475 9.902959560000001 2.164329 -0.12625899999999998 0.925405
9860 1.13957865 3.88546632 5.61032919 2.284096 1.4441540000000002 0.772541
9880 0.57645522 2.59051689 8.61937992 2.101346 1.516441 0.436819
9900 3.09810591 12.68072973 11.150163720000002 1.936445 1.830317 0.408559
9920 -1.0904796 23.208184080000002 0.46972242000000003 1.749036 1.998931 0.495697
9940 0.31285071000000003 22.06621179 -9.856254150000002 1.466249 1.463317 0.685619
9960 8.322391979999999 -3.1418192700000005 -2.50294302 1.453074 0.667714 0.923692
9980 12.735665730000001 -6.32899017 7.823484810000001 1.526985 0.25627 0.921531
10000 -1.6908810300000003 7.13161494 0.79170624 1.691195 0.989396 0.725186
10020 -1.6257720600000003 17.44487775 -13.820612490000002 1.180518 0.933138 0.584958
10040 -3.43625661 22.63802688 -2.1146534100000003 0.721839 0.414071 0.5193939999999999
10060 -3.9306806100000005 13.12455375 1.74267783 0.11157 0.536076 0.641026
10080 -0.49143195 6.852598919999999 2.40863949 0.097178 0.283141 0.503448
10100 1.15065414 6.02632224 -0.03322647 -0.229555 0.261539 0.062155
10120 1.7613855 6.3920096100000015 -0.17603064 -1.085522 -0.043575 -0.415587
10140 0.23650929 7.3862433 2.87955873 -2.26878 -0.607282 -1.209341
10160 -0.5288472900000001 9.418267080000001 1.6697797200000002 -2.979671 -0.835575 -1.843197
10180 -1.5968816099999998 9.561669660000002 0.23815737 -3.315452 -0.530813 -1.84166
10200 -0.83676357 7.47725067 1.23822801 -3.095505 -1.138728 -1.057407
10220 0.44757144 6.370751340000001 -0.16002072 -3.05606 0.473397 -0.384081
10240 1.20858219 6.4391564699999995 -1.04422545 -3.341293 1.499391 -0.702513
10260 0.6515998200000002 8.196205950000001 -0.20073222000000002 -3.036464 0.058827 -0.8886809999999999
10280 -0.7634142 9.520801200000001 0.75547791 -2.640162 0.10976500000000003 -1.182944
10300 -1.7895303900000001 10.040073930000002 0.62374923 -2.39605 0.571004 -1.387997
10320 -1.10155509 9.671688810000001 1.1891289600000001 -2.293414 -1.055025 -1.638365
10340 -1.3190526 11.58545304 2.09429766 -2.568122 -2.061098 -1.819524
10360 -2.131713 12.30695892 -0.02634966 -2.604087 -3.228208 -1.630273
10380 -3.5031608100000002 14.05038231 -0.13950801 -2.284888 -3.090991 -1.057788
10400 -2.75068476 13.72241439 2.5990417800000003 -1.6587310000000002 -2.7367630000000003 -0.67465
10420 -2.52180765 16.66245177 0.9657945 -0.7061270000000001 -2.2479880000000003 -0.388748
10440 -4.4640208800000005 15.414943500000001 -2.9654845200000004 0.172004 -1.739671 -0.130097
10460 -2.74679019 17.58857463 2.2552110900000004 0.8725510000000001 -1.492171 -0.027244
10480 3.48415884 16.50962178 2.07662985 1.561881 -1.218707 -0.014234
10500 7.47141372 15.78482955 -4.261336470000001 2.11475 -0.7559279999999999 -0.072922
10520 7.08551775 14.125674060000001 -0.567018 2.374644 -0.192024 -0.12524000000000002
10540 5.66961102 14.208607800000001 5.060822040000001 0.6910890000000001 0.654868 0.00292
10560 3.3531757200000003 15.326928180000001 -0.24668226000000004 -1.047345 -0.213674 -0.534744
10580 0.90247095 13.03923618 -0.44188164 -0.660377 -0.803311 -1.533277
10600 0.04819653 9.55971747 0.32407335000000004 -0.551879 -1.827301 -1.296198
10620 0.33351057 8.995995630000001 -2.65053447 -0.692268 -0.81931 0.095559
10640 -0.008230590000000001 7.96089348 -2.5828749 -1.336595 0.930764 0.16466
10660 -0.01047708 5.839353450000001 -3.4027260300000006 0.665042 2.753934 -0.890849
10680 0.25356888000000005 2.15806266 -1.7681249700000001 0.814682 -0.474617 -1.095038
10700 1.4585704199999998 0.34832367 -0.67629159 0.586446 0.153516 -0.004646
10720 2.5418592900000005 0.00673947 0.27288477000000005 0.7238640000000001 1.579683 0.999683
10740 2.75188158 0.29054277 0.8060778900000001 4.446331 5.892601 0.799036
10760 1.5087093300000003 1.5603589800000002 0.97821396 2.50191 3.209792 1.795157
10780 -0.0113796 2.08112283 1.47593412 1.6632330000000002 -0.459164 1.227843
10800 -0.6122224800000001 3.17055276 3.4370021700000004 2.096968 0.285295 0.894497
10820 -1.2590350200000002 5.716012320000001 7.67678607 2.563804 1.119006 1.122084
10840 -0.53244756 10.352326230000001 12.481645590000001 2.255773 0.029115 1.151239
10860 3.4184416500000006 22.195693980000005 18.49583286 2.194985 -0.215743 0.899028
10880 5.58189 20.97438822 11.421096300000002 2.334524 1.266093 0.768849
10900 0.12065319 8.65964016 5.181328080000001 2.315953 1.597538 0.483079
10920 1.0873404 5.752240649999999 7.3468757700000005 1.956794 1.751911 0.550875
10940 4.2032612700000005 12.95376165 9.44505819 1.845891 2.176636 0.726881
10960 -0.09939492000000001 23.300545230000004 -3.2657588100000003 1.634692 0.984434 0.949124
10980 3.12565239 16.743129210000003 -6.76398519 1.566119 0.365112 1.107535
11000 6.561310590000001 -2.8648927800000004 -1.12101813 1.715827 0.551527 0.980156
11020 8.295600870000001 -3.3257862 7.597746900000001 1.6162530000000002 1.087989 0.643351
11040 -3.0555991800000006 8.60590098 -2.78855136 1.034834 1.0591620000000002 0.364794
11060 -1.9740957300000002 18.547482510000002 -9.15196482 0.520654 1.0917709999999998 0.381457
11080 -2.7946924200000005 18.30198726 -1.15918884 -0.033462 0.943845 0.558305
11100 -2.61176535 11.928243870000001 1.33521948 -0.011798 0.431814 0.448017
11120 0.42272271 6.825954960000001 1.85943645 -0.504473 0.5491590000000001 0.035297
11140 1.84162149 6.23289141 -0.22318731000000003 -1.295732 -0.047119 -0.412778
11160 1.11728052 7.55478891 0.71206866 -2.5308330000000003 -0.700334 -1.155505
11180 -0.49067658000000003 8.29320723 3.0220686000000003 -3.252701 -0.750724 -1.780052
11200 -0.8873537400000001 9.57648276 0.46493514 -3.3771760000000004 -1.150711 -1.5454
11220 -0.9216298800000001 8.92309752 -0.40640868 -3.032323 -1.204628 -1.414735
11240 0.5203224 6.812485830000001 1.15349904 -2.9392150000000004 1.179569 -0.990919
11260 1.98172791 6.41281662 -1.39255893 -3.223444 0.918208 -0.918862
11280 1.7350456500000002 7.2489719699999995 -0.03697389 -2.791989 -0.387285 -0.8938799999999999
11300 -1.04826717 9.51137379 -0.32332778999999995 -2.735552 0.205088 -1.228598
11320 -2.69350227 9.202859100000001 -0.33066567 -2.470797 0.154449 -1.315346
11340 -2.21389137 8.111182680000002 1.12132224 -2.331737 -1.423936 -1.7898470000000002
11360 -0.32841918 11.111090490000002 2.8975208400000003 -2.799566 -2.369935 -1.908339
11380 0.44637462000000006 11.351494350000001 -0.25925868 -2.70098 -3.09189 -1.537121
11400 -2.52001242 13.85998002 -0.49366863 -2.333746 -3.069296 -0.84665
11420 -4.8907755 13.53844746 1.7232147899999999 -1.585206 -2.687123 -0.365484
11440 -3.7868267700000002 14.997017880000001 1.75554855 -0.5102220000000001 -2.168392 -0.217634
11460 -3.93771438 15.110774640000002 0.24234624000000002 0.398097 -1.745838 -0.115691
11480 -4.38648264 15.48305433 -2.29188087 1.207958 -1.450535 -0.07409299999999999
11500 1.1047041 18.17879328 3.1317836400000005 1.910536 -1.066375 -0.049382
11520 7.10288145 16.833547980000002 -4.042642140000001 2.3871830000000003 -0.722586 -0.122337
11540 5.197190850000001 17.18756145 -3.1139784900000005 2.243599 0.124665 -0.087037
11560 4.92595416 15.006592440000002 4.36267377 -0.869893 0.055624 -0.102287
11580 4.81982958 14.57369676 3.1380718499999998 -1.284297 -0.099743 -1.114453
11600 4.55682348 13.1158719 -1.26157581 -0.655788 -0.8539680000000001 -1.6560259999999998
11620 2.31344325 9.389229480000001 0.45879408 -0.295077 -1.671448 -1.067073
11640 0.18681183 8.378976060000001 -1.5593093100000002 -0.56317 -1.195023 0.433432
11660 -0.14714019 9.0058743 -3.12101226 -0.05919 0.483567 0.600376
11680 -0.27946728 6.78644028 -3.82768542 1.741009 3.860056 -0.849499
11700 0.19264878 3.70599237 -2.44441656 0.074151 0.202328 -1.109624
11720 0.47660904000000004 0.91205532 -1.43640963 0.137449 0.404339 -0.26875
11740 1.8389237400000003 -0.17947395 -0.09879651 0.566026 -0.29905 0.767047
11760 2.61461025 -0.013469130000000001 0.8297199900000001 3.415035 3.754279 0.70591
11780 2.0242444500000003 1.07686332 1.1567952000000001 3.925894 4.648674 1.170872
11800 0.8732862 1.9205037 1.14153084 1.395404 1.097677 1.607469
11820 -0.023347800000000002 3.1891230900000003 3.1246027200000004 1.514083 -0.448906 1.1894
11840 -0.6185106900000001 6.118075170000001 6.75664731 2.392591 0.655596 1.00825
11860 -0.46433673000000003 9.533976030000002 10.896741990000002 2.584123 0.494266 0.960657
11880 0.29443734 22.093758270000002 17.475112170000003 2.395673 -0.168703 0.683521
11900 6.3714969 22.63712436 14.693898690000001 2.056829 0.632524 0.675854
11920 2.8442329200000005 8.84570643 6.68255238 2.088016 1.613629 0.652382
11940 -0.87881904 -0.6468027300000001 5.47920873 2.069352 1.896293 0.577114
11960 2.40086016 6.29620515 7.39597482 1.821912 2.002261 0.66498
11980 2.3812499700000003 13.696221690000002 2.64395196 1.626571 1.5500200000000002 0.7090609999999999
12000 -0.06856209 20.36305845 -11.105410500000001 1.631419 0.8581219999999999 0.838168
12020 2.1652435800000003 23.723415090000003 5.69355723 1.624329 0.388786 0.997885
12040 6.17810256 0.36284247000000003 0.06615864 1.823083 0.553783 0.8559200000000001
12060 7.095994830000001 -3.57965919 4.84961274 1.433009 0.803558 0.536682
12080 -2.14997922 5.56557597 0.05044302 0.824909 0.893648 0.379563
12100 -2.6586179100000003 15.64666551 -9.16439409 0.190078 0.969033 0.459421
12120 -2.72523762 17.92283076 -2.07468747 -0.117116 0.849208 0.321765
12140 -2.38498758 13.13443242 1.7880294600000002 -0.807415 0.861977 -0.14134000000000002
12160 -0.08427771 7.713612810000001 1.2546891900000001 -1.618251 0.025647000000000003 -0.747341
12180 1.3727917800000002 7.03326969 0.48483963 -2.84648 -0.709712 -1.200427
12200 1.4861070900000002 7.456747770000001 -0.06452037000000001 -3.5024910000000005 -0.620537 -1.619593
12220 0.5203224 6.99854229 2.40055605 -3.330917 -1.566225 -1.57125
12240 0.86909733 8.85364272 1.22550444 -2.821757 -1.223893 -1.042567
12260 0.40640868 9.23205366 0.59411322 -2.832538 0.8409459999999999 -0.8508709999999999
12280 0.36823797 7.75222497 -0.7695454500000001 -2.811518 1.10244 -0.994201
12300 0.59501574 7.19523279 -1.33836849 -2.670634 -0.970221 -0.941423
12320 -0.03907323000000001 7.24867767 -1.21412484 -2.840217 -0.130876 -1.303674
12340 -0.44891541000000007 7.988292810000001 -0.10073889000000001 -2.560838 -0.21049 -1.349691
12360 -2.0022406200000002 8.04082536 -0.41643450000000004 -2.404861 -1.7370830000000002 -1.737614
12380 -2.37915063 9.53292636 1.7036045999999998 -2.702625 -2.255814 -1.7603939999999998
12400 -0.8006823900000002 12.28016781 3.35587347 -2.505653 -2.493243 -1.430769
12420 0.86011137 12.733419240000002 -0.18800865000000003 -2.000509 -2.755116 -0.850066
12440 -1.7304055200000004 14.40140373 1.22520033 -1.313362 -2.725392 -0.35499
12460 -4.01958864 13.79007396 2.62464588 -0.488307 -2.1996740000000004 -0.139461
12480 -4.26118932 17.097142679999997 0.9392976900000001 0.258381 -1.608442 0.011343
12500 -6.76083618 13.749803910000002 -0.28261629000000005 0.991927 -1.190412 0.064002
12520 -3.84565734 16.32384981 0.850527 1.6760849999999998 -0.8478190000000001 0.110002
12540 3.5473254300000003 17.757875610000003 -0.72943236 2.180919 -0.583194 0.096098
12560 5.870637540000001 19.013310360000002 -4.6827152100000005 2.23849 0.52276 0.262794
12580 5.08986945 16.07671629 1.0698295500000001 -0.457198 0.409348 0.05930700000000001
12600 4.20041637 14.251565789999999 5.310810270000001 -1.287583 -1.096715 -1.143108
12620 3.9164561100000004 15.04086858 -1.18538154 -1.266161 -2.358981 -1.7149759999999998
12640 2.7671459400000002 12.0689487 -0.10657584 -0.627904 -1.85359 -0.783949
12660 1.33237458 8.20623177 0.08442486000000002 -1.149485 0.313407 0.409244
12680 0.94379067 9.30734541 -2.7036752400000004 -0.481562 3.413885 -0.300431
12700 1.10724489 7.94771865 -2.68601724 0.8955770000000001 1.018282 -0.744941
12720 0.96399927 4.58765631 -2.08666548 0.20685100000000006 -0.241896 -0.691521
12740 0.9454387500000001 2.18724741 -1.13239773 0.07472899999999999 -0.2523 0.690917
12760 0.82253907 1.2009500100000001 -0.33829785 3.519356 4.864143 0.919929
12780 1.3974933600000001 0.55953297 0.38709279 3.3201080000000003 4.893932 1.368221
12800 1.81811673 0.66222405 0.65473902 1.834556 0.622691 1.461594
12820 1.42908156 1.12940568 1.03419963 2.375457 0.129449 0.7321350000000001
12840 0.5953100400000001 1.5938895600000003 1.69896447 2.513583 0.833592 0.613625
12860 -0.5793001200000001 2.8401912 4.71445056 2.347306 0.217243 0.912356
12880 -1.84281831 5.3706807 9.69294708 2.221981 -0.777552 0.977917
12900 -0.15792137999999997 11.07906084 13.22709768 2.507918 0.366694 0.695369
12920 6.06045123 27.837915480000003 16.14003984 2.584731 1.500201 0.881392
12940 1.4160538800000002 18.980231040000003 8.406365580000001 2.094773 1.354195 0.7894939999999999
12960 -2.1399534 2.7892969200000004 6.7847922 1.836544 1.851385 0.820168
12980 1.9832288400000002 1.21307517 8.23048209 1.740825 2.1585080000000003 0.822311
13000 3.56677866 16.53266547 6.061795200000001 1.687766 1.409253 0.959633
13020 0.6286934700000001 23.65800201 -11.5830594 1.827951 0.540726 1.186051
13040 4.07318067 13.6595421 2.30026842 1.742091 0.123705 1.118688
13060 9.06904089 -1.5489793800000002 0.27946728 1.39326 0.5223939999999999 0.553856
13080 3.4596044100000003 -0.29668383 8.459506350000002 0.8987790000000001 0.948681 0.139658
13100 -2.4908178600000004 11.43891126 -10.053248759999999 0.204923 0.77898 0.288853
13120 -2.9570969700000003 21.44875077 -3.49313499 -0.047824 0.29327800000000004 0.49174
13140 -3.89459943 16.468449210000003 -0.69156576 -0.528526 0.37695 0.230834
13160 -2.70592173 10.70469162 0.44202879000000006 -1.276575 0.14895 -0.443874
13180 -0.28365615 7.660167930000001 0.41837688 -2.426039 -0.322876 -1.067663
13200 1.6426844999999999 7.13655918 -1.0671318 -3.138566 -0.543184 -1.565876
13220 2.9800033200000002 7.484588550000001 2.82627081 -3.431004 -0.7501140000000001 -1.512106
13240 2.4683627699999997 7.3030152600000005 3.31007058 -3.043974 -1.103608 -1.093411
13260 1.71828036 8.94075552 1.13957865 -3.083236 0.766504 -0.931576
13280 -0.06795387 8.3437974 0.54831033 -3.270321 0.963944 -1.126484
13300 -0.6409657799999999 6.9370237800000005 0.41613039 -2.792586 -0.077269 -1.164541
13320 0.12274272000000001 7.12937826 -1.3458535200000001 -2.573079 0.036206 -1.227247
13340 0.34353639 7.8781167 0.25042968 -2.478756 -0.342402 -1.466453
13360 -0.7577244000000001 9.05691573 -0.93899358 -2.380534 -1.7904060000000002 -1.743785
13380 -2.49336846 8.06702787 0.69545052 -2.523464 -3.006415 -2.019895
13400 -3.44254482 10.614881070000001 3.72156084 -2.494466 -3.257585 -1.837773
13420 -1.21367358 11.072919780000001 1.7485147800000003 -2.026078 -2.966244 -1.309309
13440 -0.33141123 12.70452879 -1.7872839 -1.313248 -2.7371790000000003 -0.869857
13460 -2.36553435 14.622040440000001 2.6556258600000002 -0.495327 -2.208907 -0.487739
13480 -3.3434442000000004 14.95450134 3.64447386 0.177262 -1.7705259999999998 -0.14390799999999998
13500 -4.199366700000001 16.2566415 -0.05134554 0.740955 -1.325575 -0.016627
13520 -5.157224909999999 14.34706614 -2.18755152 1.361313 -0.886019 0.07901
13540 -0.70159158 16.92216171 3.65629491 1.93504 -0.471486 0.079282
13560 5.66961102 15.36943491 -0.8515766700000001 2.41717 0.03475 0.13648
13580 6.759197909999999 15.71312826 -4.70680857 1.01367 0.598072 0.339599
13600 5.4688788 14.76814077 1.73564406 -1.352117 -0.970478 -0.422671
13620 3.2606674200000003 15.604747380000001 3.2669556300000004 -1.209482 -1.401299 -1.49789
13640 1.6711236900000002 14.42101392 -0.5587874100000001 -0.6331 -1.400836 -1.314404
13660 1.1277576 12.72578706 -0.50055525 -0.166097 -0.5844689999999999 0.051932000000000006
13680 0.72105462 10.087220790000002 -0.71775846 -0.654196 0.991689 0.321036
13700 0.41149026 9.49145949 -2.20161906 0.831513 3.108716 -0.7801140000000001
13720 0.65503332 8.107739370000001 -3.5334050400000003 0.395592 -0.4740470000000001 -1.140695
13740 1.24376085 4.57853301 -1.52532747 0.302166 0.286476 -0.240743
13760 1.53056601 1.22474907 -1.33117776 -0.090771 -0.06712 1.144586
13780 2.1026754000000003 -0.2718351 -0.25820901 4.143892 5.214372 0.706994
13800 1.9314320400000002 -0.10612458 0.12693159 3.589029 4.613169999999998 1.54992
13820 2.45908251 0.5557953599999998 0.22812174000000002 1.592457 0.422126 1.4783190000000002
13840 2.11075884 1.24495767 0.850527 1.99657 0.005549 0.875994
13860 1.03659327 1.7082447299999999 1.7179762500000002 2.416386 0.810599 0.853326
13880 -0.18935262 3.82289814 4.89631815 2.382896 0.363879 0.974373
13900 -0.8960355900000001 6.34515705 10.430610029999999 2.286551 -0.204666 0.713783
13920 1.58879817 13.6885797 15.33620844 2.386664 0.818155 0.5881890000000001
13940 6.43407489 28.34939907 16.30229724 2.313848 1.6771459999999998 0.55667
13960 1.4994290700000001 15.756086250000001 8.34499422 2.087951 1.7376 0.552878
13980 -1.7036045999999998 2.44022769 7.43803029 1.803312 2.254323 0.7831
14000 1.5498819000000004 2.7970860600000007 9.08430525 1.529589 1.973682 0.872347
14020 2.447114310000001 15.58963017 7.242085350000001 1.515368 1.251202 0.940471
14040 -0.9337550400000001 22.087322910000005 -7.487580600000001 1.56259 0.515385 1.093431
14060 1.77291225 15.956367210000002 -3.10305015 1.5906559999999998 0.713878 0.98121
14080 7.14583944 -0.77943393 0.5502527100000001 1.209826 1.016243 0.556215
14100 9.29342502 -3.0229613100000003 7.820787060000001 0.8834790000000001 0.912336 0.184463
14120 -2.43468504 7.121294820000001 -1.0000706400000001 0.184873 0.8248700000000001 0.28545
14140 -1.5946351200000002 16.45348896 -10.17568737 -0.112373 0.606863 0.449227
14160 -2.64005739 19.49156748 -2.4878258100000004 -0.688479 0.291636 0.126209
14180 -3.0961635300000006 13.68873666 0.79035246 -1.510339 -0.040152 -0.370489
14200 -0.9018725400000001 8.22075057 0.6780868200000001 -2.719569 -0.777991 -1.018923
14220 0.95816232 6.71727978 0.29728224000000003 -3.489381 -0.939453 -1.531499
14240 1.81423197 7.18895439 0.51642783 -3.494806 -1.412504 -1.509566
14260 1.0629429300000002 7.444622610000001 2.32256655 -3.031059 -0.982708 -1.235549
14280 1.14586686 9.44295885 0.96908085 -3.141665 1.181565 -1.047884
14300 0.73736865 9.45808587 0.0928026 -3.252396 1.361351 -1.156778
14320 0.46418958 7.103028600000001 0.65803518 -2.834608 -0.627825 -0.909892
14340 0.48873420000000006 6.805452060000001 -1.48865769 -2.693129 -0.113477 -1.253531
14360 0.14459940000000002 7.56421632 -1.1666738700000001 -2.4775080000000003 0.119075 -1.520446
14380 -0.5665765500000001 8.73164556 -0.08397360000000001 -2.426417 -1.696993 -1.887367
14400 -1.38866436 9.73260891 -0.49471830000000006 -2.62887 -2.638859 -1.937781
14420 -3.6673704000000003 7.62679431 0.9307629900000001 -2.408496 -3.2869300000000004 -1.766632
14440 -3.87978633 11.044333439999999 3.94968258 -1.863065 -3.070877 -1.12537
14460 -1.57083606 11.5799202 0.74978811 -1.159883 -2.603203 -0.674541
14480 -1.8407189700000002 12.86859123 0.11152008000000001 -0.40308 -2.218227 -0.36851
14500 -3.7453599000000004 14.37041394 3.1753498500000004 0.133194 -1.816287 -0.117451
14520 -4.277503350000002 16.861683059999997 1.32698889 0.648918 -1.433732 -0.061996
14540 -4.43527758 14.891629049999999 -0.80966835 1.4477719999999998 -1.005115 -0.049488
14560 -2.26418724 16.901207550000002 0.82194066 2.375135 -0.335774 -0.141076
14580 3.05933679 16.126717860000003 0.85936581 3.000975 0.571579 -0.085524
14600 5.96913975 15.668963640000001 -4.85754903 1.229969 0.7719189999999999 0.100538
14620 6.0595487100000005 15.711480180000002 0.24908571000000002 -1.107338 -0.894633 -0.687046
14640 4.3861785300000005 16.32789153 4.6217853 -1.121836 -1.377057 -1.50906
14660 3.46215501 15.429609450000001 -0.4221243 -0.376683 -1.644154 -1.161682
14680 2.48512806 13.73004657 -1.6051122000000002 -0.178722 -0.903628 -0.308807
14700 0.40430934 9.78634809 0.71820972 -0.59221 0.587217 -0.347788
14720 0.16944813 9.668392650000001 -1.9540342800000001 1.4296879999999998 3.902377 -1.57171
14740 0.74978811 7.9472772 -2.4318401400000003 0.707996 -0.405279 -1.026438
14760 0.98839674 6.21192744 -2.4179197500000003 -0.8859469999999999 -1.02063 0.25897
14780 0.9165483000000001 2.32616682 -1.34360703 0.57589 0.669628 1.204914
14800 1.1656242 -0.21615354000000003 -0.49067658000000003 4.720235 5.290132 0.974773
14820 2.1333610800000002 -0.10612458 0.33545295 2.891044 3.095615 1.506397
14840 2.5833261600000004 0.95651424 0.06856209 1.762951 0.4127520000000001 1.277628
14860 2.0869597800000004 1.4055768 -0.28381311 2.279742 0.326339 0.8615379999999999
14880 0.9818044200000001 1.7504571599999998 0.46058931000000003 2.443022 0.524112 0.812218
14900 0.46837845000000006 2.52974394 3.28162158 2.368927 0.234396 0.8665510000000001
14920 -0.10867518 5.14091088 8.289911069999999 2.415022 0.423072 0.530142
14940 1.2717585900000001 7.434586980000001 12.570857730000002 2.18576 1.442102 0.5721
14960 2.7762790500000003 21.3002568 14.315634900000001 2.04619 1.7811099999999995 0.6305109999999999
14980 1.0627859700000002 26.775423810000003 13.038333660000001 1.915042 2.319347 0.6759069999999999
15000 -0.94827384 8.41535154 8.82624339 1.521886 2.28946 0.765066
15020 -1.5274268100000001 2.08846071 8.54483373 1.516214 1.57545 0.8385799999999999
15040 -0.14400099 10.873237229999999 8.83972233 1.414664 0.979672 0.998868
15060 -0.67748841 17.7547266 4.51551357 1.563323 0.526647 0.940666
15080 0.05957613 13.730949090000001 -16.18598988 1.474674 0.960492 0.68205
15100 9.46406997 9.202260690000001 -0.07559586 1.106654 1.089984 0.320391
15120 12.69854469 0.46942812 6.254139870000001 0.602949 0.826472 0.321483
15140 1.6434300600000002 2.56057677 3.9751297200000004 0.048116 0.8316459999999999 0.573974
15160 -1.6932746699999999 13.53814335 -11.76852726 0.000731 0.27131500000000003 0.347898
15180 -3.5310114 19.71056592 -3.83831946 -0.734038 0.622893 -0.089247
15200 -4.44889386 16.18060419 -0.50684346 -1.6168870000000002 -0.106499 -0.469425
15220 -2.27047545 10.23960933 0.05044302 -2.806693 -0.470954 -1.268821
15240 0.05627997 6.87280752 0.43948800000000005 -3.615514 -0.315686 -1.567362
15260 1.9085355000000002 6.368357700000001 1.09796463 -3.523578 -0.8205520000000001 -1.399431
15280 2.34637542 6.63779916 1.77156828 -3.037691 -0.489741 -1.165725
15300 1.78518456 8.128997640000001 1.1859799500000001 -3.139144 1.804493 -0.985639
15320 1.1274534900000002 9.57379482 0.9669913200000001 -3.049969 1.921341 -1.245812
15340 -0.28006569000000003 7.32112452 0.39143862 -2.814824 -0.950983 -1.364403
15360 0.30985866000000006 6.203098440000001 -2.62763793 -2.770471 0.271249 -1.22679
15380 0.5911211700000002 7.069203720000001 -0.86235786 -2.260141 -0.4164560000000001 -1.518242
15400 -0.32602554 9.10556352 1.23822801 -2.182805 -1.872474 -1.904669
15420 -1.53535329 9.93109464 -0.7342196400000001 -2.416005 -3.163973 -1.872596
15440 -3.73189077 7.888740930000001 -0.5833418400000001 -2.2256 -3.2414240000000003 -1.583815
15460 -3.4196384699999998 10.743912 2.74992939 -1.904517 -3.254038 -1.106197
15480 -0.96758973 12.474611820000002 1.02970665 -1.342801 -2.764269 -0.730092
15500 -1.71842751 13.886172720000001 -0.9711801900000001 -0.46737 -2.315863 -0.405153
15520 -3.54792384 13.975541819999998 2.17976238 0.322724 -1.7441799999999998 -0.198473
15540 -2.91488454 15.00673959 2.8331574300000004 1.038545 -1.118825 -0.029768
15560 -3.02999508 15.764463990000003 0.9457330500000001 1.803034 -0.6573979999999999 0.06577999999999999
15580 -3.6988114500000004 14.973513120000002 -1.2380710499999998 2.372525 -0.4846220000000001 0.054581
15600 0.92193399 16.09498251 4.95589428 2.523853 0.223124 0.08891399999999999
15620 5.54656419 14.718443310000001 -2.16060345 0.175413 1.00423 0.195423
15640 6.02242767 15.072760890000001 -3.99549528 -1.132207 -1.086883 -0.806614
15660 5.113815659999999 15.13263132 3.7959598800000003 -0.8176 -1.680236 -1.6123
15680 2.7205876800000004 16.366964760000002 3.81047868 -0.187662 -1.261626 -0.816884
15700 0.7039852200000001 16.02627327 -3.0228141600000002 -0.426747 0.109821 0.345119
15720 0.5959084500000001 11.49474978 2.56371597 0.245474 2.138291 -0.017049
15740 -0.47615778 9.568703430000001 -0.50145777 1.046067 3.15157 -0.76051
15760 -0.22423698 9.17202627 -2.25416142 -0.165349 -1.340299 -0.8753790000000001
15780 -0.43559343 7.748781660000001 -3.2620212 -0.067787 -0.379897 0.223272
15800 0.5665765500000001 4.52284164 -1.24151436 1.202066 1.349164 0.956317
15820 1.01638467 1.3771376100000001 -2.07858204 4.5004339999999985 6.228258 0.728481
15840 1.85778837 0.7240466700000001 -0.79799445 2.203985 3.192446 1.596545
15860 2.50413984 -0.07409493 -0.054190440000000006 1.7395459999999998 -0.260518 1.301829
15880 2.6789834700000004 0.28546119000000003 0.45221157000000006 2.359903 0.178819 0.919971
15900 2.0401072200000003 0.7921575000000001 0.5924651400000001 2.420728 0.356868 1.096424
15920 1.13179932 1.13838183 1.21666563 2.151218 -0.616345 1.217566
15940 0.02544714 3.03523362 4.58481141 2.140546 0.190568 0.8361700000000001
15960 -1.4867055 5.9917419899999995 11.302101 2.253632 1.588981 0.811667
15980 -0.13546629000000002 14.955698159999999 15.471527580000002 2.143032 1.947024 0.613883
16000 4.4626671 30.71732706 15.402965490000001 1.938405 2.536566 0.6800649999999999
16020 2.0555285400000005 13.10928939 8.99075709 1.590625 2.40528 0.779285
16040 -0.7328756700000001 0.9015782400000001 6.581666340000001 1.497596 1.331164 0.939176
16060 0.8930435400000001 5.04061344 8.43645285 1.372264 0.696994 1.130325
16080 2.70592173 16.08120927 7.524848790000001 1.532168 0.577492 1.039728
16100 -2.09145276 23.74003323 -12.803472450000001 1.393684 0.995869 0.696394
16120 3.8872615500000003 20.1924135 1.9878689700000003 1.104631 0.693492 0.374296
16140 8.597670390000001 -3.03343839 0.33455042999999995 0.416208 0.6139359999999999 0.353566
16160 7.13431269 -3.96465264 9.12502656 -0.013464 0.402638 0.552729
16180 -3.38326299 8.14217247 -6.03125667 -0.156363 0.079694 0.451732
16200 -2.21105628 18.17355474 -8.435560140000002 -1.022242 0.564458 0.121391
16220 -3.9158577000000006 18.75883896 -1.0553009400000002 -1.902103 -0.142963 -0.427573
16240 -3.42862443 12.475955790000002 -0.28081125 -2.868309 -0.607266 -1.226348
16260 -0.71940654 8.188426620000001 -0.11436498 -3.442191 -0.493992 -1.6161299999999998
16280 1.81751832 6.3797373 -0.40730139000000004 -3.169569 -1.249434 -1.545959
16300 3.166668 6.6366023400000005 2.37615858 -2.838818 -0.494291 -1.265811
16320 2.25880155 6.97698972 2.97041895 -3.049678 1.351106 -1.168167
16340 1.18853055 9.83634966 0.2576106 -2.999474 0.271429 -1.073498
16360 -0.5150740500000001 8.99808516 0.10178856 -2.597741 -1.0880459999999998 -1.375529
16380 -0.09834525 7.20871173 -0.73662309 -2.681559 0.25842 -1.55837
16400 0.79035246 7.07892543 -2.2960795500000004 -2.183192 -0.648965 -1.781257
16420 -0.5524992000000001 7.886504250000001 0.55608966 -2.0593220000000003 -2.2763310000000003 -2.248324
16440 -1.94505813 9.55208529 0.09040896000000001 -2.401259 -2.6414470000000003 -2.020577
16460 -3.2364171 8.26192314 -0.15328125 -2.182844 -3.313649 -1.674223
16480 -3.21366771 9.79173378 1.6543584000000002 -1.813378 -3.699353 -1.177629
16500 -1.9865151900000002 12.14200377 3.0620345400000004 -1.212514 -3.168632 -0.6870029999999999
16520 -1.1166821100000002 11.967464249999999 -0.49098069000000005 -0.354098 -2.309618 -0.200339
16540 -2.3454729000000003 14.28464511 0.9755260200000001 0.302137 -1.55341 0.063921
16560 -2.98433934 12.94433424 3.7077876000000005 0.993224 -1.041671 0.162096
16580 -2.4628299300000003 15.720613290000001 1.02566493 1.736277 -0.439252 0.182538
16600 -4.534074090000001 13.664182230000002 -0.24608385000000002 2.440013 -0.065625 0.176293
16620 -2.5481475 14.403198960000001 0.42272271 2.501327 0.5508350000000001 0.20691
16640 3.7052468100000002 15.366442860000001 1.09975986 -0.953601 -1.116496 -0.216738
16660 5.397030360000001 16.01594334 -4.8497697 -1.516435 -1.774272 -1.466442
16680 5.06456946 16.361127810000003 -0.26225073 -0.776733 -1.421203 -1.42434
16700 3.84805098 16.59104478 4.51311012 0.020226 -1.00031 -0.279519
16720 2.69634717 16.717534920000002 -1.3680045 -0.416684 0.730558 0.149977
16740 0.8872065900000001 14.48568144 0.7581756600000001 1.045475 3.091518 -0.92708
16760 0.08772102000000001 10.22449212 0.6185106900000001 0.435995 0.239418 -1.108212
16780 0.5686660799999999 9.98782587 -1.9237998600000001 0.315935 -0.6269680000000001 -0.659287
16800 0.8232846300000001 8.15473908 -2.9362899600000003 -0.357547 -1.218056 0.952986
16820 0.72658746 4.09997178 -2.17572066 2.638005 2.934838 0.907699
16840 1.3216032000000002 2.03936166 -2.1076196400000002 3.872581 4.605278 0.881067
16860 1.59972651 0.56627244 -1.45213506 1.664235 1.465624 1.268112
16880 1.7143857900000001 -0.16765290000000002 -0.13307265000000001 1.839164 -0.183165 1.052461
16900 2.1016257300000003 -0.5110421400000001 0.66671703 2.273466 -0.025563 0.957017
16920 1.77665967 0.5953100400000001 0.47900268000000007 2.171488 -0.264381 1.094411
16940 0.90247095 1.47577716 1.3030426800000001 2.181956 -0.957214 0.920183
16960 0.32631984 3.1172648400000003 5.03582616 2.184295 -0.268884 0.6116699999999999
16980 0.23545962 6.625526850000001 9.67408245 2.2175580000000004 1.159687 0.573752
17000 3.12266034 12.495261870000002 12.338694270000001 2.035462 1.488366 0.588082
17020 3.2879097900000005 31.424304330000002 13.56164811 1.806592 1.896933 0.644712
17040 0.5290042500000001 15.165563490000002 9.1533186 1.568816 1.921226 0.6366109999999999
17060 -0.8123562900000001 1.8788896800000001 9.54146106 1.54571 1.158146 0.742113
17080 -2.6179064100000002 2.17272861 9.803113380000001 1.638987 0.308911 0.97993
17100 -0.1038879 16.010557650000003 7.620054840000001 1.60261 0.129746 1.06109
17120 -1.22969331 21.325105530000002 -9.07322976 1.504631 0.495009 0.911455
17140 2.92820652 20.38745592 -2.07318654 1.066196 0.427508 0.5901489999999999
17160 7.79758641 0.29967588 -0.85547124 0.566731 0.653814 0.373794
17180 9.87227388 -2.9632380300000003 6.50712015 -0.038321 0.5169199999999999 0.500066
17200 -1.71034407 5.20542144 -0.31629402 -0.182282 0.10592 0.309444
17220 -3.1433103900000003 14.73820065 -8.94419883 -1.0346799999999998 0.457665 -0.067634
17240 -3.8977484400000004 17.88750495 -0.5965068599999999 -1.893549 -0.344566 -0.63449
17260 -3.07026513 12.67833609 0.06586434000000001 -3.04643 -0.361621 -1.230043
17280 -2.00552697 8.85468258 0.17184176999999998 -3.5043660000000005 -0.564067 -1.620747
17300 0.0634707 6.830143830000001 0.43200297000000004 -3.105159 -1.668182 -1.578088
17320 2.22242607 7.04510055 0.56028834 -2.863126 -0.438829 -1.261779
17340 2.80142208 7.343873909999999 3.08912976 -3.133361 1.441058 -1.212664
17360 3.01802688 8.141269950000002 2.93913486 -2.9866330000000003 -0.113508 -0.99173
17380 1.14032421 8.632996200000001 1.6534656900000002 -2.680025 -1.171591 -1.191195
17400 -1.0225257300000001 7.77003993 0.59681097 -2.455977 0.830778 -1.563937
17420 -1.31201883 7.279363350000001 -2.39562162 -1.906873 -0.479216 -1.846843
17440 -0.4176313200000001 7.37740449 -2.8342071 -2.073525 -2.040084 -2.175019
17460 -0.24743763 8.27539227 -0.51807591 -2.444876 -2.552059 -1.959039
17480 -0.68093172 10.308760020000001 0.9286734600000001 -2.336405 -3.206952 -1.583565
17500 -1.72396035 8.799452279999999 1.0093509 -1.950495 -3.396034 -0.987764
17520 -1.6807080600000002 11.24327043 2.46552768 -1.104214 -2.803538 -0.441023
17540 -0.72389952 11.762239050000002 1.72141956 -0.20106 -1.885435 -0.11756099999999997
17560 -1.9417619700000002 12.168942030000002 -0.7548795 0.466729 -1.282215 0.033745
17580 -4.2150823200000005 13.782284820000001 2.08157409 1.249196 -0.9568 0.028112
17600 -3.32488368 13.27544136 2.30266206 2.176194 -0.560354 -0.017196
17620 -2.617308 15.65863371 1.0524658500000001 3.1435150000000003 0.153842 -0.17158800000000002
17640 -4.84332453 13.298494860000002 0.49143195 2.743602 0.582858 -0.01897
17660 -0.06301944 15.501467700000001 1.2115840500000001 -0.8835 -1.128909 -0.6360439999999999
17680 4.19637465 16.316070480000004 -4.201466040000001 -1.499881 -1.634847 -1.4494129999999998
17700 4.82910984 17.954713260000002 -2.6607172500000003 -0.772722 -1.613379 -1.321516
17720 4.27810176 17.3149443 3.77275923 -0.020517 -0.961308 -0.67296
17740 4.007022030000001 16.805550240000002 1.0496209500000002 -0.8421879999999999 0.500057 0.352399
17760 3.3040766700000006 15.90951465 -1.7215667100000003 0.576018 2.73282 -0.329559
17780 2.4730029000000004 11.49265044 2.82717333 0.509215 0.220556 -1.515737
17800 1.6640899200000001 8.89420707 -0.46807434000000003 -0.381949 -0.5738489999999999 -0.816986
17820 1.16397612 9.38069478 -2.8430361000000004 -0.106417 -0.217518 0.674652
17840 0.18710613 5.95940823 -2.5523461800000002 3.167999 4.9838830000000005 1.1170790000000002
17860 0.25820901 4.04758638 -2.5080344100000005 3.473695 5.1351580000000006 1.382871
17880 0.7111759500000001 1.67606793 -2.5533860400000004 2.278138 0.6876680000000001 1.344968
17900 1.5343134299999999 -0.02170953 -0.5382845100000001 2.566234 0.250627 0.8988870000000001
17920 2.29727637 -0.7240466700000001 0.6797349 2.4253240000000003 0.438733 0.866683
17940 2.6270395200000003 -0.022307940000000002 0.49667049 2.273559 -0.14314200000000002 1.056512
17960 1.44958446 0.9139977 0.8075690100000001 2.583743 -0.030942 1.233724
17980 0.43843833 1.9249966800000002 2.46851973 2.912811 1.960976 0.985642
18000 0.35640711 4.546042290000001 7.66496502 2.83822 2.847662 0.424237
18020 0.49651353 6.75904095 10.2873546 2.179218 3.012692 0.750571
18040 -0.48139632000000004 17.87133807 11.83274352 1.868246 2.818203 0.905677
18060 -2.8548669600000003 26.61705117 12.45021435 1.464139 1.743451 0.961915
18080 -0.45056349000000007 9.26064 9.59819229 1.003961 0.975836 0.982117
18100 -1.6777160100000001 -0.7825731300000001 10.31340015 1.312574 0.804304 0.986629
18120 1.6546625100000003 4.1848479 9.98109621 1.404952 0.8522870000000001 0.8953459999999999
18140 1.3130685 19.21269861 -3.79505736 0.94677 0.5393859999999999 0.687448
18160 3.47696811 26.94442068 -12.431496870000002 0.5819840000000001 0.698823 0.825701
18180 4.30025274 17.19728316 7.5254472 0.23651 0.839082 0.6821020000000001
18200 10.07554689 -4.27630653 -1.5075125100000002 -0.317818 0.8231569999999999 0.084319
18220 4.73839677 -3.4063164900000005 7.280256060000001 -1.558807 0.398536 -0.543374
18240 -1.06653339 9.19103805 -9.3386295 -2.800472 -0.372573 -1.368248
18260 -3.38191902 22.721696370000004 -3.5814544200000005 -3.092167 -1.027865 -2.408826
18280 -4.99361373 19.456840080000003 -1.5232281300000001 -2.924636 -1.184388 -2.571961
18300 -3.2198087699999998 10.55485368 -1.39345164 -2.839096 -1.261425 -1.497702
18320 -1.32265287 6.996904020000001 -0.42437079 -3.2803720000000003 0.027366 -0.535695
18340 1.2680111699999999 5.538932010000001 0.46268865000000003 -3.806017 0.605503 -0.269847
18360 3.0356848800000003 6.3876637800000005 3.2449518000000004 -3.618011 0.100348 -0.112995
18380 4.80007224 9.139398210000001 2.5572806100000003 -3.959518 -0.599038 -1.272437
18400 2.86803198 9.75087513 -3.13986708 -3.59145 0.30395 -2.031597
18420 0.5472606600000001 7.98664473 -2.4043034700000003 -3.088416 -1.805619 -2.120451
18440 0.26225073 8.08139952 -1.4633577 -3.31509 -2.776607 -1.793915
18460 0.6707587500000001 6.69991608 2.3067037800000003 -2.896529 -3.2982730000000005 -1.437809
18480 -0.40325967 7.177869090000001 1.5619972500000001 -2.177111 -3.3181830000000003 -0.81319
18500 -2.47974237 9.57528594 -3.0740027400000005 -1.519986 -2.852632 -0.324224
18520 -3.6778474800000005 9.52813908 1.90553364 -0.698591 -2.132087 0.190132
18540 -3.61797705 10.298587050000002 2.1951837000000003 0.14259000000000002 -1.401651 0.345691
18560 -3.5408900700000006 13.7230128 0.24997842000000003 1.004309 -0.877943 0.233535
18580 -5.38878996 16.75316484 0.69545052 2.016766 -0.594163 0.051168
18600 -6.273907020000001 14.636559240000002 4.61639961 3.244107 0.00098 -0.392879
18620 -4.42958778 16.082111790000003 1.5786153900000002 3.185927 1.588234 -0.34084000000000003
18640 -5.6476071899999996 15.382011330000001 -2.79558513 0.907526 -0.248379 0.32071500000000003
18660 -1.8507546000000001 19.87985709 -0.67135716 -1.367036 -1.611147 -0.832152
18680 6.551579070000001 19.83255327 -1.21187835 -1.611425 -1.582152 -1.742953
18700 8.5723704 16.69448142 -1.3995927 -0.938607 -0.805106 -1.110066
18720 9.04733136 15.154036740000002 1.8045004500000001 -0.256383 -0.173408 -0.101981
18740 8.76187998 15.34354632 3.3551181 -0.106622 -0.058034 -0.312591
18760 7.419175470000001 16.35708609 -2.74918383 2.936111 2.499485 -1.298744
18780 2.70292968 15.1547823 -0.43424946000000003 0.497398 1.193464 -0.519347
18800 -0.36943479 11.355840180000001 -1.99071387 -0.385545 0.301248 0.390027
18820 0.47526507 9.16080363 -4.538861370000001 0.529289 0.837734 1.297309
18840 0.7059276 5.700443850000001 -2.3366439000000003 4.896674 5.854957 0.498855
18860 0.5695686 2.153569680000001 -1.9270960200000002 3.977163 4.683452 0.954337
18880 0.4300605900000001 -2.0071750500000003 -1.8788896800000001 1.6738509999999998 2.126172 0.97464
18900 2.45280411 -2.4007032 -1.6685829000000003 2.32709 0.632949 0.6018979999999999
18920 2.17991934 -1.39584528 -1.01264706 2.274759 0.8833700000000001 0.626848
18940 1.1078433 -0.99872667 -0.52556094 2.157439 0.292207 0.978232
18960 -0.35446473 -0.31658832000000003 0.27812331 2.354314 0.539135 0.861786
18980 -1.12027257 0.04969746 2.68736121 2.142808 1.575691 0.768181
19000 -1.16801784 1.85838678 8.41924611 1.995803 1.626161 0.528876
19020 2.7041265 4.290972480000001 16.28987778 2.070663 2.302653 0.453757
19040 7.626038940000001 21.986427060000004 16.459325910000004 1.816871 2.671708 0.556197
19060 -0.90890631 37.12400262 9.14103648 1.512812 1.875328 0.707849
19080 0.10088604 12.782223990000002 3.1992960600000004 1.429952 1.273721 0.977233
19100 3.47218083 -2.04025437 8.444241990000002 1.593864 1.039492 1.068409
19120 3.8172083400000005 3.00619602 9.09434088 1.505313 1.383349 0.935959
19140 3.2925499200000004 13.1705136 9.17681355 1.018249 1.116104 0.790825
19160 -4.09083867 21.003268860000002 -14.988179070000001 0.466923 1.181797 0.558291
19180 7.8083577900000005 20.71272609 -2.8437816600000003 0.039434 1.495406 0.558107
19200 12.53643444 0.028439190000000003 1.2162241800000002 0.024871 0.714156 0.405183
19220 8.44469325 -5.9579073000000005 9.755515260000001 -0.163216 0.059999 0.055399
19240 -4.21823133 8.84121345 -4.850368110000002 -0.8047880000000001 -0.508925 -0.4365310000000001
19260 -3.5979156 17.98779258 -9.01290807 -1.805766 -1.003379 -1.124415
19280 -4.06225233 19.212394500000002 -1.7335447199999998 -2.4914810000000003 -1.595958 -1.789675
19300 -3.63847995 12.884306850000002 -0.08487612 -3.217083 -0.7472979999999999 -1.86847
19320 -1.8293491800000001 7.20780921 0.77239035 -3.211014 -0.113027 -0.917454
19340 -0.01482291 4.91532993 0.01018278 -3.112768 1.278315 -0.493399
19360 2.48244012 5.72589099 2.3667311700000004 -3.286575 2.428369 -1.030197
19380 2.6165624400000005 7.592508360000001 1.3720462199999999 -2.997258 1.643888 -0.905394
19400 1.7348886900000002 10.23960933 -0.15313410000000002 -3.038691 -0.329467 -1.019591
19420 0.07260381 8.5752153 1.13584104 -2.900931 0.72723 -1.656643
19440 -0.42616602000000003 6.066886590000001 -0.28994436 -2.400892 -0.57728 -1.936694
19460 -0.03831786 6.71009886 -2.30460444 -2.397769 -2.031232 -1.710482
19480 -0.020208600000000004 7.90267113 0.12319398000000001 -2.456009 -3.190722 -1.54276
19500 -0.8994789 9.11020365 0.99648018 -2.3180560000000003 -3.626549 -1.097926
19520 -1.7691746400000001 10.209522060000001 0.16256151000000002 -1.680823 -3.019478 -0.551596
19540 -2.0568725100000003 9.449551170000001 0.96115437 -0.803875 -2.14437 -0.375677
19560 -1.49703543 11.687545710000002 2.40579459 0.076976 -1.335383 -0.18469
19580 -1.6712708400000003 10.724301810000002 0.2891988000000001 0.950956 -0.850397 -0.214458
19600 -4.36896198 12.365936640000001 -1.7042030099999999 1.874204 -0.381328 -0.302614
19620 -7.425306720000001 13.495783770000001 -0.27722079 2.790494 0.000267 -0.35438600000000003
19640 -5.91061329 14.463226350000001 0.9247788900000001 3.235558 0.186672 -0.203034
19660 -3.96540801 14.62638627 -1.6115475600000002 1.421047 0.8973909999999999 -0.27323400000000003
19680 -1.4934449699999999 18.10799451 -1.07117352 -1.137515 -0.411091 -0.371682
19700 6.275996550000001 19.248769980000002 2.5908111899999997 -0.797296 -1.302342 -0.762338
19720 11.64279249 16.980541019999997 -0.74829699 -0.6822199999999999 -2.177875 -0.8928719999999999
19740 11.21647932 15.900381540000001 -1.9464021 -0.103799 -1.516825 -0.7401270000000001
19760 9.059613480000001 15.21855711 3.09601638 -0.491631 -0.829501 0.072404
19780 6.079904460000001 14.45978304 3.8740965300000005 1.675968 2.486238 -0.091892
19800 4.49291133 14.00008644 -3.24509895 3.413381 2.659976 -0.024431
19820 -0.9216298800000001 12.535531920000002 0.5333402700000001 0.53485 1.506102 -0.945707
19840 -2.28903597 9.08176446 -1.2006557100000002 -1.278285 -0.7783899999999999 -0.03891
19860 -1.5639494400000002 6.50502081 -2.65098573 0.196888 -0.420105 -0.07393
19880 -0.66911067 5.18970582 -3.01009059 1.724564 1.800776 0.520349
19900 -0.42272271 2.79019944 -2.24234037 3.942921 6.326321 1.196615
19920 0.26944146 -0.31838355 -0.98165727 2.843911 3.875665 2.810435
19940 2.59260642 -0.13696722 -0.47570652 2.459364 0.304213 1.708852
19960 3.7175191200000004 1.0674261 0.3715243200000001 2.541626 -0.021075 0.40234
19980 3.37682763 1.1817910800000002 0.90112698 2.173829 0.494929 0.618095
20000 1.4835663000000001 1.5473313000000002 2.0303757 2.119023 0.48511 0.457492
20020 -0.19040229 1.89236862 2.89827621 1.892838 1.529482 0.55285
20040 -1.79551449 4.2487600500000005 5.723203050000001 2.006107 2.755332 0.791352
20060 -2.9840450400000003 9.27531576 7.90162146 1.835051 3.075925 0.953185
20080 -0.98464932 20.947734450000002 15.310761300000001 1.515618 2.84641 0.81772
20100 5.22098991 20.43789894 13.167217440000002 1.257702 1.922788 0.78185
20120 3.0021543000000004 11.55327624 7.43204619 1.124619 1.11545 0.862072
20140 -0.17693316 6.69273516 7.2036203400000005 1.389558 0.937764 0.844922
20160 -3.28926357 -0.06735546 9.56256237 1.603479 1.174001 0.723268
20180 -1.1132388 2.60742933 7.284454740000001 1.083078 0.918308 0.6483899999999999
20200 0.9548661600000001 4.05895617 -5.59760562 0.619075 0.936978 0.644057
20220 6.14607291 16.547037120000002 -10.201281660000001 0.277223 1.153993 0.483294
20240 2.40849234 43.117539840000006 12.07763055 0.089151 0.6335350000000001 0.26473
20260 1.79596575 8.14875498 -5.59970496 -0.634618 0.16459 -0.116807
20280 6.08185665 -5.893249590000001 2.6460513000000003 -1.527541 -0.185677 -0.726141
20300 1.81378071 -0.04699970999999999 2.80052937 -2.759623 -0.8783219999999999 -1.467728
20320 1.18613691 11.530674000000001 -11.430827820000001 -3.460874 -0.400204 -1.877027
20340 -0.52615935 22.597305570000003 -5.42202624 -3.456685 -0.953805 -1.700031
20360 -1.94654925 22.063072589999997 -3.2010912900000004 -2.949789 -0.5373100000000001 -1.067842
20380 -2.23784739 10.636580790000002 -1.2084350400000001 -3.535189 1.354955 -0.910917
20400 -0.25566822 5.89608468 -0.9918400500000001 -3.5361830000000003 0.8703629999999999 -0.937009
20420 2.8445370300000006 3.53295378 0.56897019 -2.817845 -0.037397 -0.724661
20440 4.9769955900000005 5.157224909999999 2.6309242800000003 -3.436831 0.563505 -1.274548
20460 3.6109432800000003 11.02966749 1.2457130400000003 -3.272251 -0.37877 -1.806302
20480 -0.29414304 10.07210358 -2.96084439 -3.012522 -1.952063 -2.060981
20500 -2.5276446 6.759197909999999 -2.6659557900000004 -2.920493 -2.738964 -1.958917
20520 -2.89707939 6.91007571 -0.43813422 -2.765137 -3.345267 -1.521221
20540 -1.52413065 7.78426443 1.0886843700000002 -2.268376 -3.614294 -0.742945
20560 -1.9260463500000002 9.11335266 -0.34802937000000006 -1.468735 -3.097758 -0.340643
20580 -1.92394701 9.24807339 -0.15582204 -0.366207 -2.283385 -0.090431
20600 -1.8088364700000001 9.333390960000001 4.26388707 0.66822 -1.624583 -0.037048000000000005
20620 -2.03636961 12.691510920000002 3.4934391 1.4711610000000002 -1.115614 -0.142118
20640 -3.11441994 12.97487277 -1.2278980800000001 2.290395 -0.489841 -0.433095
20660 -5.42815749 13.620625830000002 1.12865031 3.122053 0.815435 -0.433232
20680 -4.0342644000000005 14.730715620000002 3.37309002 1.311043 0.86595 -0.04109
20700 -2.3436776700000004 16.88803272 0.13457358 -1.755219 -2.3466150000000003 -0.655528
20720 -4.20490935 15.603854670000002 -2.32062417 -1.307083 -2.076 -1.584234
20740 0.86265216 17.32796217 2.8213363800000004 -0.991184 -1.965493 -1.255293
20760 6.1173296100000005 18.04183587 -3.4377477300000003 -0.433778 -0.8317180000000001 -0.222018
20780 7.1696385000000005 18.4170978 -4.6033817400000006 -0.334854 0.8266479999999999 0.5574180000000001
20800 6.61908168 16.32625326 3.2935995900000004 2.009151 3.644274 -0.66682
20820 5.485192830000001 15.96923793 4.68315666 0.360362 1.134835 -1.188936
20840 5.097050370000001 14.83355385 -2.54336022 -0.235712 -0.121243 -0.377505
20860 2.6381150100000004 11.781554940000001 -1.06398279 0.611051 -1.138893 0.829327
20880 -0.22797459 9.51870186 -3.0807422100000004 3.190284 4.302752 0.93651
20900 -0.86265216 8.0312508 -3.2277352500000003 4.630467 5.657309 1.138182
20920 -1.26052614 6.590789640000001 -3.01458357 1.764817 2.278048 1.542307
20940 -0.29429019 3.3425514900000004 -3.1057380900000005 1.998406 0.489938 0.952298
20960 0.51791895 -0.20087937 -2.7514303200000003 2.584603 0.474533 0.8335670000000001
20980 2.6571267900000004 -1.5176952900000003 -1.2633710399999998 2.434619 0.013183000000000002 0.984798
21000 2.9544090300000003 -1.6069074300000001 0.19578798 2.446753 0.054874 0.937828
21020 1.5200889300000002 -0.65803518 1.06907418 2.27969 1.452534 0.812024
21040 -0.46433673000000003 1.3894099199999999 1.60376823 2.225716 1.992944 0.779976
21060 -1.46470167 3.75059844 3.6633286800000002 2.052824 2.039009 0.599248
21080 -0.64725399 6.1628382 8.31820311 1.779136 2.527299 0.737716
21100 4.34157246 12.50649432 14.520251880000002 1.549488 2.001819 0.7453310000000001
21120 6.63240366 27.616817700000002 17.37077301 1.547439 1.063459 0.976187
21140 -0.38424789000000004 21.17930931 9.405994770000001 1.622969 0.44158 1.11638
21160 -1.24107291 4.21703451 9.26767377 1.666741 0.929189 0.884257
21180 0.96429357 -3.5118426600000006 9.28728396 1.307973 1.076373 0.61878
21200 1.4060280600000001 7.55209116 6.71952627 0.834226 0.752356 0.540042
21220 0.53573391 17.18845416 -5.529651750000001 0.177042 0.606224 0.624301
21240 2.24937414 29.27521782 -3.0979587600000005 0.106394 0.310241 0.378496
21260 5.433405840000001 9.46152918 1.00351395 -0.668288 0.432499 0.047121
21280 12.15741528 -6.79092345 0.03262806 -1.581762 -0.095024 -0.439284
21300 2.41642863 -0.74365686 8.25009228 -2.554326 -0.613378 -1.302127
21320 -3.4018235100000003 13.346544240000002 -11.88318654 -3.379205 -0.360599 -1.729092
21340 -3.89669877 21.175267590000004 -3.6208219500000003 -3.428515 -1.115634 -1.48171
21360 -4.61190663 15.93855225 -0.42466509 -3.098448 -1.135196 -0.8726290000000001
21380 -2.0689976700000003 8.8615692 -0.19399275000000002 -3.4946900000000003 0.611448 -0.693901
21400 -0.7562234700000001 6.13843092 0.32467176000000003 -3.354284 0.972058 -0.951892
21420 0.61102566 5.99428278 1.03659327 -3.280239 -0.941946 -0.82394
21440 1.8887683500000003 6.56609787 2.93584851 -3.122392 -0.699789 -1.045338
21460 1.8754463700000001 8.803494 1.47443319 -2.861218 -0.186736 -1.43514
21480 1.26815832 10.093214700000003 0.04969746 -2.781356 -1.836576 -2.10438
21500 -0.21884148000000003 7.13895282 0.2228832 -2.759251 -2.111611 -2.075031
21520 0.4128440400000001 6.039192959999999 -2.15132319 -2.413656 -2.946283 -1.701943
21540 0.5611810500000001 7.422020370000001 -0.9285165000000001 -1.895268 -3.137783 -1.14901
21560 0.20716758000000002 9.94367106 0.93600153 -1.16126 -2.472019 -0.7121069999999999
21580 -1.40138793 9.862091099999999 -0.2633004 -0.395876 -1.82189 -0.388195
21600 -3.9204978300000004 9.39431106 0.33904341000000005 0.183876 -1.42352 -0.08128099999999999
21620 -3.4756241400000003 12.24079047 3.02850396 0.8438100000000001 -1.158967 0.054380999999999985
21640 -1.51485039 13.249994220000001 0.6595263 1.623041 -0.6129939999999999 0.039896
21660 -2.1592594800000002 14.94476982 0.34772526 2.525392 0.392131 -0.085412
21680 -4.180207770000001 14.689552860000001 2.70637299 2.507442 0.483607 -0.035448
21700 -4.559668379999999 17.297874900000004 1.20454047 -0.289641 -1.082302 -0.019864
21720 -4.8178773900000005 15.27962436 -2.03157252 -1.429019 -1.870971 -1.070465
21740 -3.0514005 16.17132393 0.29144529 -1.087705 -2.017812 -1.673575
21760 3.6546468300000003 15.80473404 2.0246859 -0.123206 -1.795031 -1.213129
21780 6.670574370000001 15.330371490000001 -5.21096409 0.294716 -0.926725 -0.271287
21800 6.5927418300000005 14.388680160000002 -0.06751241999999999 1.768346 2.844876 -0.34808
21820 4.42375083 13.79621502 4.35025431 2.329499 3.990253 -0.619093
21840 2.3164353 14.77547865 -1.6108020000000003 -2.088588 -2.281182 -0.479547
21860 3.38041809 14.033921130000001 -2.54934432 0.182677 0.490606 -0.03674
21880 1.8498520800000002 11.55416895 1.0538098200000001 1.444887 0.153575 0.567508
21900 0.49157910000000005 11.221560900000002 -2.27766618 4.215873 4.939877 0.558297
21920 0.46882971 8.0460639 -2.5631175600000002 3.450244 3.880527 1.071326
21940 0.98270694 4.42375083 -1.87335684 1.471415 0.739028 1.188648
21960 1.74776922 1.82320812 -2.39950638 2.080059 -0.5194770000000001 0.765087
21980 1.7923752900000003 0.14220576000000001 -1.17535572 2.545733 0.184711 0.8838729999999999
22000 2.2061120400000007 -0.23905008000000003 0.05149269000000001 2.579782 -0.11023 1.085315
22020 2.28859452 -0.09071307 0.28186092 2.60043 1.266563 0.953372
22040 0.57540555 -0.24788889 0.7595196300000001 2.374692 2.260297 0.6588970000000001
22060 -0.6378265799999999 0.3752717400000001 1.86542055 2.066779 2.045403 0.586519
22080 -0.30670965 2.48004648 5.59551609 1.775307 2.400493 0.750671
22100 1.18224234 4.995261810000001 10.37342754 1.553647 2.318839 0.84964
22120 3.1850813700000002 10.90781748 12.78342081 1.609849 1.514424 0.8339719999999999
22140 1.9263406500000002 26.161101990000002 15.237559080000002 1.4168120000000002 0.930871 0.946602
22160 -2.59590258 24.43773024 9.48741777 1.616296 0.8463370000000001 0.8679879999999999
22180 -2.4845296500000003 6.0493659300000004 7.844890230000001 1.490986 1.167497 0.582554
22200 0.8008393500000001 -2.9044074600000003 8.85094497 1.165047 0.870007 0.402265
22220 2.01106962 4.4074368 7.27307514 0.621904 0.729632 0.280079
22240 1.8070412400000002 12.60618354 -4.13709282 0.196041 0.709845 0.5356390000000001
22260 4.65516873 24.583977720000004 -12.723991830000001 -0.198798 0.11931300000000003 0.437498
22280 6.568344360000001 23.52523347 10.96349904 -1.119544 0.407466 -0.22732800000000006
22300 7.45494273 -5.3293707900000005 -4.15670301 -2.130932 -0.40056 -0.811265
22320 4.45907664 -5.64805845 7.006184280000001 -3.268869 -0.632935 -1.386142
22340 -4.48961517 8.71637139 -7.63352397 -3.538814 -0.777375 -1.527779
22360 -4.04474148 20.85837516 -7.981700490000001 -3.068457 -1.009153 -1.249664
22380 -5.56303518 19.678830570000002 -1.4542245900000002 -3.045459 0.631171 -0.687584
22400 -1.8838339200000003 10.511444430000001 0.7741855799999999 -3.302344 1.39576 -0.927503
22420 0.9930368700000001 5.510639970000001 0.00523854 -2.807819 1.414807 -0.791614
22440 2.6783850600000005 4.82311593 1.0084483800000001 -2.743163 -0.069595 -0.995427
22460 3.3825174300000005 6.208189830000001 2.16210438 -3.07612 0.062829 -1.321593
22480 3.3864120000000004 8.92114533 0.72943236 -2.766986 -1.284566 -1.899888
22500 1.5651462600000001 10.32373008 -1.3229471700000002 -2.92923 -2.288405 -1.938191
22520 0.21106215 7.56706122 -1.08150345 -2.731217 -3.0435220000000003 -1.884566
22540 0.52795458 6.14098152 -2.19174039 -2.257778 -3.496949 -1.325203
22560 -0.36284247000000003 7.618259610000001 0.59905746 -1.442335 -3.460003 -0.8826510000000001
22580 -1.3867121699999998 8.82220167 0.97192575 -0.424261 -2.633818 -0.582838
22600 -2.26478565 8.951536710000001 -0.97027767 0.32879899999999995 -1.910009 -0.292221
22620 -4.3060995 7.95460527 0.44382402 1.03517 -1.6048 -0.240677
22640 -4.1339536200000015 11.41181604 4.2487600500000005 1.70707 -1.473769 -0.290631
22660 -1.8230609700000002 12.55124754 1.4865583500000001 2.399285 -0.761667 -0.482193
22680 -1.19121849 12.63462273 -0.24100227 2.593126 0.923705 -0.144372
22700 -3.11142789 13.93032753 2.6939437200000005 -0.885324 -1.218266 0.398097
22720 -4.0490775 15.03997587 1.13823468 -1.551191 -1.760798 -1.076801
22740 -3.83726979 15.74350983 0.36119439 -1.1606 -1.748482 -1.564402
22760 -4.70576871 15.3716814 -0.91490022 -0.602846 -0.82649 -0.583196
22780 2.3770611 17.7635556 0.36898353 -1.748981 0.5455939999999999 0.140908
22800 6.72880653 18.141819390000002 -3.74640957 -0.520446 3.062294 -0.786293
22820 7.50119688 16.50721833 -0.8884034100000001 1.388475 0.365219 -1.159404
22840 6.0376920300000005 15.995734740000001 4.66594992 0.879237 0.756297 -0.217018
22860 5.363342820000001 15.33142116 2.08351647 0.106091 1.36227 1.026625
22880 3.9520860300000002 13.59128412 -2.9073995100000003 4.336103 6.341268 0.8478969999999999
22900 0.38065743 10.021356449999999 -1.1135331000000002 2.846512 2.857619 1.920861
22920 -1.07446968 9.824822910000002 -3.02835681 2.272473 0.151804 1.357366
22940 -0.8434932300000001 7.965533610000001 -2.6568226800000003 2.414948 -0.048813 0.788187
22960 -0.36733545 6.5015775 -2.9509657200000006 2.57701 0.477631 0.8644879999999999
22980 0.9098088300000001 2.59470576 -3.35991519 2.393309 0.253379 1.15939
23000 1.83143871 -0.44188164 -1.5437408400000001 2.560571 0.006431999999999999 0.96539
23020 2.2499725500000007 -1.44509148 0.09520605 2.636286 1.298738 0.602136
23040 1.8498520800000002 -0.51028677 0.38051028000000003 2.336645 1.842934 0.6356649999999999
23060 0.6556317300000001 0.25162650000000003 0.25102809000000004 1.924155 2.139569 0.60463
23080 -0.62704539 1.7055567900000002 1.39075389 1.86921 2.87211 0.744313
23100 -1.88907246 4.8002193900000005 6.43795965 1.598048 2.247233 0.8692700000000001
23120 0.12768696000000002 5.401817639999999 12.4386876 1.508682 1.5256610000000002 1.041554
23140 5.97632067 18.431018190000003 16.01400096 1.607127 0.7079810000000001 1.109519
23160 5.87827953 26.439813900000004 13.676758650000002 1.618528 0.987421 0.74925
23180 0.7577244000000001 10.61292888 6.5331657 1.318619 1.080451 0.389181
23200 0.67449636 3.70404999 6.85484541 0.787013 0.695937 0.30477600000000005
23220 4.6217853 13.25238786 9.6133095 0.100177 0.381624 0.6475529999999999
23240 2.7756806400000005 25.156391220000003 6.6231234 -0.124041 0.212489 0.5148119999999999
23260 -1.6486686 13.311365580000002 -13.37184423 -0.87121 0.6737529999999999 0.097737
23280 6.6621966299999995 -1.8510489 -2.60248509 -1.779469 0.080322 -0.428071
23300 10.020012480000002 -3.81227391 8.62656084 -2.955531 -0.34370900000000004 -1.259342
23320 -2.6179064100000002 6.70335939 -2.9485720800000004 -3.492904 -0.31311100000000003 -1.784427
23340 -2.4827344200000003 21.078266310000004 -8.486748720000001 -3.267225 -0.978203 -1.623901
23360 -4.038149160000001 20.76676938 -2.22572223 -3.00131 -0.79311 -1.255881
23380 -4.13065746 12.6792288 -0.36808101 -3.326713 0.5730930000000001 -0.837957
23400 -0.89888049 7.33370094 0.98689581 -3.3292900000000003 0.389262 -0.684983
23420 1.12132224 5.570667360000001 -0.05703534 -2.971641 -0.818751 -0.997131
23440 2.3972697000000003 6.707852370000001 0.04250673 -2.978521 0.422518 -1.312827
23460 2.7057745800000004 8.03364444 2.82746763 -2.568267 -0.434302 -1.5833959999999998
23480 1.23822801 9.39102471 1.36635642 -2.540031 -1.897597 -1.972293
23500 0.54936 9.92720988 0.20851155000000002 -2.620328 -2.989965 -2.053707
23520 0.22108797000000002 6.821913240000001 1.2958519500000003 -2.47602 -3.318803 -1.729675
23540 0.8918467200000001 6.251746230000001 -1.5362558099999999 -1.977874 -3.501718 -1.174758
23560 0.19100070000000002 7.16095665 -1.1060480700000002 -1.099364 -3.024676 -0.555006
23580 -1.2049917300000001 8.36610534 -0.8015849100000001 -0.048007 -2.114599 -0.217679
23600 -2.45609046 8.92848321 -0.01571562 0.777672 -1.523606 -0.075937
23620 -4.571489430000001 8.891813430000001 1.70376156 1.462734 -1.256492 -0.069358
23640 -3.92004657 12.032877330000002 2.5833261600000004 2.222345 -0.950609 -0.232154
23660 -0.9746235 13.06677285 -0.5001138 3.255285 -0.125708 -0.15656199999999998
23680 -0.9657945 15.25881735 0.8253839700000001 1.8942 0.668533 0.337114
23700 -2.7476829 14.0848056 4.48691742 -2.145945 -1.778057 -0.508366
23720 -2.93958612 15.569421570000001 1.61917974 -2.044684 -1.623287 -2.0023
23740 -2.9773055700000004 14.56516206 -0.19534653000000002 -0.630058 -1.197494 -1.551788
23760 -3.64342419 14.813050950000001 -1.15065414 -0.270005 -0.395842 -0.14238399999999998
23780 0.5245112700000001 16.07941404 2.6220952800000004 0.070185 0.338963 0.15388
23800 4.8153366 15.74575632 -5.11995672 2.426669 4.580532 -0.998389
23820 5.95970253 16.52218839 -2.13366519 -0.314662 -0.6534840000000001 -0.6743399999999999
23840 5.242248180000001 15.541129530000001 5.007239820000001 -0.478387 -0.851434 -0.048184
23860 5.126539230000001 15.77823723 1.00920375 1.828245 0.745434 0.610019
23880 3.4512266700000005 13.821505200000002 -1.62217179 4.676079 4.989761 1.003692
23900 0.07753824000000002 8.93118096 0.56792052 2.979268 3.298729 1.784491
23920 -0.45355554 9.760008240000001 -3.1214635200000003 1.755409 0.5698489999999999 1.6907759999999998
23940 -0.32557428000000005 9.070836120000001 -2.94393195 2.493016 0.266199 1.0639299999999998
23960 0.22543380000000002 7.765998210000001 -3.23672121 2.465582 0.168845 0.659007
23980 1.7929737 3.38864868 -3.0102377400000004 2.385996 -0.15399100000000002 0.476199
24000 2.9011211100000005 -0.47106639 -2.09714256 2.323204 0.201583 0.321481
24020 2.5159707 -1.5256315800000002 -0.23321313 2.247942 1.653187 0.47826
24040 2.21434263 -0.53034822 0.85920885 2.162897 2.103512 0.6234350000000001
24060 1.1784949200000001 0.3176379900000001 1.0464719400000002 1.822269 2.505385 0.852345
24080 0.25866027 0.86685084 1.3377700800000003 1.437417 2.335211 0.8520120000000001
24100 -0.8240400000000001 3.7221592500000003 5.50719666 1.2591629999999998 1.643248 0.890109
24120 1.02446811 5.915694870000001 11.495348190000001 1.443354 0.935967 0.980964
24140 6.746768639999999 17.28215928 15.36165558 1.710535 0.900436 0.844007
24160 3.5747149500000006 36.679128930000005 14.748981839999999 1.435735 1.080889 0.444478
24180 0.58423455 12.374020080000001 8.11357632 1.060496 0.879814 0.171855
24200 -1.79522019 -3.70254906 7.869582 0.27262 1.0125959999999998 0.416145
24220 1.51021026 1.3690541699999998 7.086714570000001 -0.079085 0.856275 0.6521020000000001
24240 0.52540398 13.766274899999999 3.6245595600000002 -0.325415 0.46785 0.233204
24260 -2.4969589200000004 17.77418964 -16.94132064 -1.174626 0.222445 -0.263795
24280 6.8832846000000005 22.98320154 5.92932096 -2.441518 -0.436725 -0.821934
24300 9.01949058 1.48431186 2.1125540700000003 -2.999205 -1.243009 -1.7018060000000002
24320 4.2688215 -2.74469085 4.416717060000001 -3.343061 -0.6566420000000001 -1.520157
24340 -0.77613777 8.48585601 -8.0457696 -3.083246 -1.687686 -1.248897
24360 -1.46141532 17.688116700000002 -6.7936212000000005 -3.155716 0.5418850000000001 -1.173212
24380 -2.8421433900000004 18.23552451 -0.89873334 -3.441459 1.614218 -1.092193
24400 -2.17677033 13.64262966 -0.71536482 -3.045418 0.205854 -0.8857280000000001
24420 -0.36329373000000004 9.06200712 -0.5074418700000001 -2.783866 -1.164117 -1.105404
24440 1.23732549 6.87115944 0.9813629700000001 -2.751807 0.568517 -1.522938
24460 1.83203712 4.9570911 1.16801784 -2.373777 -1.218558 -1.964524
24480 3.3492811500000004 6.6842004600000005 1.3894099199999999 -2.536497 -2.478414 -1.9149080000000005
24500 2.88046125 9.667794240000001 1.06802451 -2.428014 -3.0846 -1.7317759999999998
24520 0.6405145200000001 8.17315245 0.6749476200000001 -2.135799 -3.185231 -1.329023
24540 -0.12663729 6.7837425300000005 -1.52487621 -1.6673330000000002 -2.92353 -0.8475229999999999
24560 -0.59276925 6.82341417 -0.8253839700000001 -0.888584 -2.311032 -0.448694
24580 -0.78975405 8.733136680000001 -0.45116190000000006 0.052674 -1.7168310000000002 -0.143778
24600 -1.83188997 9.76898439 -0.8539703100000001 0.95183 -1.40409 -0.011848
24620 -3.9381558300000004 8.537201549999999 0.86639958 1.7979060000000002 -0.996498 0.155909
24640 -3.11561676 11.830948290000002 4.52419542 2.596209 -0.783755 0.074686
24660 -0.49786731 11.542642200000001 1.8293491800000001 3.305461 -0.453485 -0.015854
24680 -1.9604696400000001 13.549522950000002 -0.45505647 0.370771 0.8435540000000001 0.2472
24700 -4.64723244 14.66649936 3.4383461400000006 -1.731208 -0.8434280000000001 -0.69681
24720 -4.75411239 15.986905740000003 1.7462682900000002 -1.409139 -0.851575 -1.8674580000000005
24740 -4.58377155 14.365773810000002 -1.3953940200000001 -0.31217399999999995 -1.266436 -1.370018
24760 -2.58886881 16.03330704 -0.32527017 -0.045321 -0.024702 0.089446
24780 3.92573637 16.11803601 2.68900929 0.211958 0.302287 0.145303
24800 7.81045713 15.391291590000002 -4.579425720000001 1.804972 4.191665 -0.981937
24820 4.91562423 16.91257734 -2.08965753 -0.35018 -0.629235 -0.580616
24840 4.565809440000001 16.99431426 4.2807995100000005 -0.739132 -0.14460499999999998 0.039888
24860 4.518358470000001 16.64209602 1.31950386 0.945097 0.460446 0.982366
24880 4.549789710000001 13.87255644 -2.9422838700000002 5.147088 5.689687 1.118248
24900 1.9134699300000002 10.26445806 1.4561767799999998 3.392719 3.506815 1.869365
24920 -0.12933504 9.34326963 -2.18171457 1.300497 0.399065 1.371624
24940 -0.29653668000000005 7.447310550000001 -3.4684334100000003 2.007975 -0.06269 0.881502
24960 -0.3182364 5.26439916 -2.94661989 2.354108 0.449827 0.818102
24980 0.7201521000000001 2.93779089 -2.58886881 2.433381 0.399974 0.695874
25000 1.19242512 -0.12529332 -2.1609075600000005 2.303061 0.5210199999999999 0.37541
25020 1.99639386 -0.27587682 -1.08299457 2.115349 1.690516 0.581972
25040 2.73091761 -0.07753824000000002 -0.01377324 2.039324 2.148669 0.626787
25060 2.70322398 -0.10657584 0.6364728 1.700289 2.574349 0.761674
25080 1.2891222900000001 0.7324244100000001 1.18478313 1.599136 2.4052290000000003 0.7846850000000001
25100 -0.043114950000000006 2.8741730400000005 3.8703491100000003 1.363332 1.58843 0.921885
25120 -1.3274401500000002 6.135438870000001 8.59467834 1.239778 0.77675 1.01393
25140 1.3090267800000002 11.673625320000001 13.66269111 1.576734 0.5547300000000001 0.832834
25160 6.85694475 33.66843993 17.03113119 1.435318 1.02959 0.486202
25180 5.13895869 20.389996710000002 10.84749579 1.098184 0.819625 0.272608
25200 0.96115437 2.71220994 5.91165315 0.443453 0.494568 0.344295
25220 -2.1574642500000003 -2.4923187900000006 6.80933682 0.003361 0.366287 0.5710529999999999
25240 2.17123749 10.16595585 7.29582453 -0.216436 -0.288448 0.393032
25260 -2.7075698100000003 17.262853200000002 -3.3302791800000002 -1.035518 -0.169915 -0.033721
25280 1.5925357800000002 21.22121763 -11.87629992 -2.308875 -0.391142 -0.614899
25300 6.48077049 8.70080292 3.8475997200000003 -2.982688 -1.341064 -1.437714
25320 9.85027005 -4.13515044 5.129384129999999 -3.5422160000000003 -1.221884 -1.452458
25340 1.1335945500000002 1.57816413 2.86175358 -3.212442 -1.332111 -1.346395
25360 -1.1081474100000002 14.068795680000001 -14.3389827 -3.119073 0.522988 -1.274413
25380 -2.9421269100000007 21.185146260000003 -5.116807710000001 -3.23748 1.72711 -1.2618280000000002
25400 -4.0058154 16.93593495 -0.13501503 -2.86843 0.575209 -0.965081
25420 -1.52472906 9.85311495 0.37482048 -2.700965 -0.806177 -0.913003
25440 0.7369173900000001 7.0425597600000005 1.01623752 -2.856445 -0.0037 -1.125557
25460 2.41358373 6.13364364 1.06354134 -2.576214 -1.53877 -1.632243
25480 2.17976238 5.8805260200000005 1.48027014 -2.635778 -1.939351 -1.837244
25500 2.20671045 8.163273779999999 0.6679138500000001 -2.578703 -2.907228 -1.7351919999999998
25520 0.46089342000000005 9.44416548 0.53903007 -2.2001060000000003 -2.888298 -1.203802
25540 -0.4596966 7.72887717 -0.8074218599999999 -1.68412 -2.694042 -0.6802229999999999
25560 0.06287229000000001 6.91891452 -1.75225239 -0.893379 -2.395305 -0.415505
25580 -0.40969503 8.23946805 1.0440783 0.037477 -2.019288 -0.150975
25600 -0.92088432 9.7115076 0.6717986100000001 0.8175819999999999 -1.423622 -0.07258200000000001
25620 -2.64844494 9.03400938 -0.5655268800000002 1.506959 -0.647417 -0.042055
25640 -4.82057514 8.565336630000001 1.12865031 2.150855 -0.258812 -0.012418
25660 -4.76204868 11.539355850000002 4.24098072 2.64597 -0.47054 -0.240493
25680 -2.7372058200000002 13.138474140000001 0.63677691 1.921998 0.854899 -0.204519
25700 -1.54104309 14.521301550000002 -0.00748503 -1.65655 -0.406684 -0.490682
25720 -2.3736177900000004 13.88243511 3.53998755 -1.002669 -0.901588 -1.435129
25740 -3.75614109 15.04595997 2.15207856 -0.524558 -1.4821 -1.332769
25760 -2.9752160400000003 15.718062690000002 -2.91189249 0.135866 -0.964156 -0.09716
25780 0.60234381 16.587454320000003 2.7345178800000003 -0.534565 0.432576 0.444365
25800 3.90387969 15.637385250000001 -2.21120343 0.941687 4.001734 -0.422634
25820 5.97586941 15.96071304 -5.63727726 0.569447 -0.28159 -0.935697
25840 5.7552327000000005 16.66783746 2.04878907 0.857035 0.726846 -0.29191100000000003
25860 4.03410744 17.463134160000003 5.479503030000001 -0.651359 -1.156822 1.345029
25880 4.20969663 15.003149130000002 -2.19608622 3.56426 5.210801999999998 0.770247
25900 3.5703789300000004 11.96148015 -0.44248005 4.570041000000002 5.241325 1.588014
25920 1.24031754 9.45149355 0.32138541 1.307492 1.357438 1.725094
25940 -0.17543223 9.33069321 -2.16853974 1.734643 -0.4755 0.989081
25960 -0.39607875000000003 6.02931429 -2.16389961 2.341825 0.665609 0.6799390000000001
25980 -0.1850166 4.405935870000001 -2.0441489400000004 2.3735150000000003 0.6461180000000001 0.73146
26000 0.057329639999999994 1.2946551300000002 -1.9203565500000002 2.283827 -0.019725 0.554362
26020 1.4265309600000002 -0.08083440000000001 -1.31711022 2.13405 1.000568 0.478301
26040 2.2866423300000003 1.06608213 0.10014048 1.9704 1.674175 0.531842
26060 2.398309560000001 1.32040638 0.6765957 1.871117 1.883373 0.516994
26080 1.9693084500000002 1.33222743 0.96219423 1.624741 2.334052 0.713384
26100 1.4449443300000002 1.7771011200000002 1.31261724 1.38598 2.01063 0.8146800000000001
26120 0.40071888000000006 3.55225986 3.4373062800000005 1.395575 1.402963 0.92128
26140 -1.72501002 6.18259554 8.87115357 1.493792 0.813087 1.030612
26160 -1.16413308 12.367427759999998 13.4947341 1.525367 0.594025 0.9072
26180 5.11396281 29.495265930000002 18.441799380000003 1.229586 0.848189 0.740302
26200 4.044290220000001 15.592475069999999 9.07547625 0.874872 0.687587 0.451747
26220 0.65533743 3.5384964300000004 5.36080203 0.371632 0.573029 0.4985850000000001
26240 1.0440783 2.18006649 6.25100067 0.044645 0.606592 0.646877
26260 3.9727360800000002 14.372209170000001 10.684934279999998 -0.220852 0.123947 0.36363
26280 -1.8552377700000002 26.57034576 -6.92953875 -0.8961620000000001 0.098515 -0.149528
26300 1.5274268100000001 19.455496110000002 -4.02677937 -2.1553880000000003 -0.290058 -0.718642
26320 6.67581291 -3.16621674 -0.79005816 -2.898524 -1.169689 -1.47687
26340 11.98572066 -8.32583529 5.553450810000001 -3.606182 -1.007407 -1.486294
26360 -1.7624351699999998 4.859648370000001 4.754563650000001 -3.259671 -1.851875 -1.3279
26380 -2.6695462500000002 17.07140124 -13.588439220000001 -3.091078 0.253952 -0.886108
26400 -3.4170976800000004 20.908818180000004 -4.0739262300000005 -3.370459 1.906161 -1.167915
26420 -4.39785243 15.266155230000003 1.9064361600000002 -3.087197 0.170726 -1.122052
26440 -1.2846293100000001 7.713455850000001 1.06773021 -3.036407 -1.283808 -1.057876
26460 0.65039319 6.177357000000001 -0.13666311 -2.871245 0.106709 -1.283899
26480 1.6031698200000002 6.411914100000001 0.36523611 -2.483685 -1.243548 -1.747343
26500 1.55840679 6.929842860000001 1.81782243 -2.634332 -2.510681 -2.019168
26520 1.38522105 9.26303364 1.15260633 -2.553648 -2.876085 -1.819447
26540 0.5273561700000001 9.577081170000001 0.88795215 -2.1955720000000003 -3.224305 -1.362505
26560 -0.10328949000000001 6.72311673 0.16705449 -1.549595 -2.854634 -0.8628120000000001
26580 -0.22048956 6.58690488 -1.9064361600000002 -0.702192 -2.199602 -0.504151
26600 -0.51343578 7.994875320000001 -1.894311 0.098573 -1.7753259999999995 -0.207476
26620 -0.6661186200000001 9.17920719 0.13561344 0.643833 -1.368771 -0.052501
26640 -1.5825099599999999 10.286756190000002 -0.11211849 1.23813 -1.012288 0.06122
26660 -3.0389810400000004 8.61488694 0.32542713 2.068942 -0.684621 -0.016718
26680 -3.21845499 10.957662090000001 2.89213515 2.949584 -0.053116 -0.196178
26700 -1.46290644 11.97659736 1.05515379 1.686643 1.137264 -0.01745
26720 -1.26427356 12.82203297 -0.09774684000000002 -1.877494 -1.3679 -0.481379
26740 -3.6080983800000004 14.180914170000001 1.57547619 -1.836336 -1.516469 -1.723243
26760 -3.6109432800000003 15.526159470000003 2.3620910400000006 -0.653814 -1.410818 -1.464087
26780 -4.30594254 15.012576540000001 0.08292393 0.3004 -1.076034 -0.499655
26800 -3.82244688 15.97447647 -1.5230809799999998 0.123407 -0.334741 0.22027600000000006
26820 0.30985866000000006 15.613282080000001 3.1421135700000002 1.963417 3.988216 -0.591737
26840 5.286108690000001 15.80353722 -3.96375993 0.8741620000000001 2.0767330000000004 -0.61826
26860 6.176454479999999 15.56373177 -3.63024936 -0.679693 -1.356316 -0.154697
26880 5.384149830000001 15.363754920000002 3.16142946 0.448671 -0.349568 0.715018
26900 3.6137881800000002 15.919393320000001 2.65637142 3.5783410000000004 4.048736 0.986548
26920 3.8293335 14.767395210000002 -2.83929849 4.3107 4.689474 1.289944
26940 2.1977343 12.25231722 1.44389466 1.300222 1.3363120000000002 1.420627
26960 0.07784234999999999 10.402622100000002 -0.7429014899999999 1.6455970000000002 -0.212612 1.124854
26980 -0.20118348 9.792783450000002 -3.34733877 2.264019 0.642714 0.878114
27000 -0.27557271000000005 5.22473733 -1.9895170500000001 2.289743 0.622572 0.831318
27020 0.49262877000000005 3.65435253 -2.67777684 2.147913 0.29951700000000003 0.491046
27040 1.0976703300000001 0.60563997 -1.77261795 1.983884 1.2420639999999998 0.422463
27060 2.00208366 -0.08487612 -0.4281084 1.963778 2.084391 0.516315
27080 2.5261436700000006 0.36613863 0.15447807000000002 1.881411 2.276417 0.518698
27100 2.77508223 0.61761798 0.39397941000000003 1.564562 2.381511 0.6189
27120 1.5763689 0.65832948 0.8583161400000001 1.292429 1.703673 0.669142
27140 0.98270694 2.01960432 2.6834666400000002 1.186643 0.8300629999999999 0.781686
27160 -0.49935843 5.832623790000001 6.846614820000001 1.358672 0.456442 0.826095
27180 0.52824888 7.56212679 12.37162644 1.478451 0.690655 0.7593340000000001
27200 4.76594325 22.35796119 15.04042713 1.15452 0.420632 0.634572
27220 0.31838355 30.305679840000003 13.36705695 0.838305 0.371382 0.43801
27240 -0.35745678 9.15660495 8.23827123 0.284042 0.389795 0.576188
27260 -2.6882637300000005 -1.64672622 8.70185259 0.17013 0.09662 0.464673
27280 0.9737209800000001 3.3247365300000005 8.54483373 -0.0994 0.048991 0.088974
27300 0.9648919800000001 13.414655070000002 5.43190491 -0.8194819999999999 -0.050413 -0.268442
27320 -0.26599815 18.92379411 -16.49255238 -1.97633 -0.384099 -0.533537
27340 7.54326216 22.40061507 2.8999242900000004 -2.870165 -0.459532 -1.140024
27360 9.322168320000001 1.8407189700000002 3.86166726 -3.568112 0.062276 -1.289778
27380 7.349122260000001 -3.9775331700000005 4.535565210000001 -3.188772 -1.235355 -1.05473
27400 -1.22070735 7.928412570000001 -5.9023728900000005 -2.847811 -0.595354 -1.026462
27420 -2.22063084 16.744924440000002 -10.665618390000002 -3.135684 1.747418 -1.10091
27440 -4.495000860000001 18.7931151 -1.01893527 -2.801816 -0.730156 -1.188338
27460 -3.59657163 12.088411740000003 0.9713273400000001 -2.752967 -1.417732 -1.11234
27480 -0.30790647 7.770942450000001 0.8002311300000001 -2.52212 0.468476 -1.213558
27500 1.81557594 6.6984249600000005 1.01324547 -2.055453 -1.2710860000000002 -1.625744
27520 2.4568458300000002 6.396198480000001 1.2451146300000002 -2.2771630000000003 -2.463328 -1.916321
27540 1.6687300500000002 6.838384230000001 1.7781507900000002 -2.36729 -2.6150830000000003 -1.7169990000000002
27560 0.63842499 9.090897570000001 1.13689071 -2.11403 -2.988637 -1.227642
27580 -0.96340086 8.90722494 0.37886220000000004 -1.710645 -3.015194 -0.797501
27600 -1.07701047 7.1301238200000014 -1.2826869300000001 -1.050346 -2.464907 -0.456036
27620 -0.8818209 7.837699500000001 -1.70869599 -0.2073 -1.710314 -0.216105
27640 -1.3407621299999999 9.13011795 0.58049694 0.49789 -1.081704 -0.052820000000000006
27660 -1.1539503 9.85056435 0.5858826300000002 1.212548 -0.566774 0.026288
27680 -1.44120672 8.647515 -0.44157753 1.905409 -0.284539 -0.02585
27700 -1.98876168 10.603648620000001 2.7204405300000003 2.565931 0.037721 -0.202179
27720 -1.86347817 13.170660750000001 2.8957256100000004 1.416003 1.456707 -0.014409
27740 -2.21045787 13.712535720000002 -1.35513378 -1.272483 -0.699588 -0.302821
27760 -4.27541382 15.34579281 0.27228636 -1.307034 -1.247639 -1.478473
27780 -3.26770119 14.05712178 4.20969663 -0.419732 -1.451453 -1.361987
27800 -0.86070978 17.1068742 1.738332 0.371714 -0.831448 -0.454605
27820 -2.97969921 13.771964700000002 0.7246450799999999 0.803743 0.118608 0.277859
27840 -2.092051170000001 13.193115839999999 1.22160987 2.133754 3.597176 -0.186258
27860 2.6406558 12.67534404 3.75793632 1.375802 3.513238 -0.648644
27880 4.950351629999999 13.285771290000001 -6.492601350000001 -0.877634 -1.272532 -0.422174
27900 4.07243511 14.335833690000001 -3.4160480100000004 0.211824 0.275861 0.6260359999999999
27920 2.99466927 15.43290561 5.713912980000001 2.068571 1.491575 0.82225
27940 2.57165226 17.0169165 -1.2952535399999998 5.159432 5.364459 0.655143
27960 2.12213844 14.68491273 -0.18815580000000004 2.364761 3.954133 1.719538
27980 1.54553607 9.46452123 1.19886048 0.5281779999999999 -0.252469 1.404452
28000 0.45370269 9.14942403 -2.7087666300000004 1.831191 -0.567563 1.017647
28020 0.01362609 8.283024450000001 -2.38978467 2.3816610000000003 0.958739 1.132768
28040 -0.07155414 5.194198800000001 -1.7253141300000001 2.272424 0.509944 0.7736569999999999
28060 1.24196562 2.5372191600000003 -2.09714256 1.834888 0.926949 0.499806
28080 2.2709267100000003 0.28905165000000005 -1.85838678 1.877101 1.793855 0.520355
28100 2.7442395900000003 0.21840003000000002 -0.45221157000000006 1.867425 2.049415 0.555211
28120 2.9069580600000005 1.38447549 0.9394448400000001 1.527062 2.222457 0.7331409999999999
28140 2.7146035800000003 1.32549777 1.22625 1.311842 1.671009 0.828485
28160 1.52951634 1.59972651 1.54493766 1.328822 0.804465 0.932263
28180 0.5550498 3.5215741800000004 4.34427021 1.538039 0.610841 0.9532
28200 -0.60040143 6.10670538 8.887918860000001 1.480045 0.869368 0.8210729999999999
28220 0.71087184 11.85594417 14.75840925 1.012874 0.701343 0.621472
28240 2.33559423 28.788730110000003 15.53574384 0.749232 0.794349 0.502007
28260 0.22632651000000004 20.766916530000003 9.835143030000001 0.033806 0.788862 0.629476
28280 -2.5692586200000003 3.81107709 6.82071642 -0.076677 0.230737 0.439276
28300 -1.78893198 -0.67704696 6.88523679 -0.611751 0.186252 0.040354
28320 2.30610537 8.95393035 7.66660329 -1.483716 -0.053020000000000005 -0.372423
28340 1.05949962 12.25142451 -0.97088589 -2.752594 -0.277258 -1.003772
28360 2.7704421 19.282447710000003 -16.627273110000004 -3.331232 -0.402069 -1.523605
28380 5.2852061699999995 18.80853642 7.45135227 -3.393181 -0.826099 -1.457265
28400 9.039100770000001 -1.68114951 4.43632725 -2.819637 -0.090244 -1.093143
28420 7.34807259 -4.55472414 5.2693433999999995 -3.110026 1.207543 -1.178019
28440 -4.335137100000001 9.72871434 -5.521862610000001 -3.31502 1.354429 -1.236255
28460 -3.18223647 17.158671000000002 -13.456121940000001 -2.904615 -1.138295 -0.798632
28480 -5.5670769 19.16209863 -0.17289144 -2.8525080000000003 -0.392117 -0.964799
28500 -3.53684835 11.22590673 1.9473046200000002 -2.472514 0.116632 -1.446701
28520 0.20118348 5.76825057 1.12715919 -2.275879 -1.641188 -1.85434
28540 2.5740459 6.50757141 0.86669388 -2.358369 -2.348567 -1.773894
28560 2.36493594 7.1757795600000005 0.14369688 -2.104676 -2.658184 -1.555944
28580 1.6049650500000001 8.35907157 1.39359879 -1.779093 -2.855111 -1.07699
28600 0.23725485000000002 9.73051938 1.1744532 -1.224053 -2.5819 -0.618401
28620 -0.45819567 7.76749914 0.05089428 -0.395979 -2.000121 -0.305714
28640 0.12649014 6.574181310000001 -1.6673860800000002 0.4400520000000001 -1.396714 -0.080594
28660 -0.26449722000000003 8.053548930000002 -1.6001679600000003 1.155418 -0.935158 0.025292
28680 -0.74545209 10.472822460000001 0.14220576000000001 1.734568 -0.645654 0.118697
28700 -1.52458191 10.567871550000001 0.08412075 2.388075 -0.5106539999999999 -0.108715
28720 -2.81863863 8.35907157 0.74829699 2.44296 1.055918 -0.310097
28740 -3.0400307100000004 11.941869960000002 3.46395024 -0.07497100000000001 0.359574 0.187023
28760 -2.00837187 12.28749588 1.0985630400000002 -1.64568 -1.003888 -1.136115
28780 -3.60061335 14.36128083 -0.21345579 -1.130208 -1.6548650000000005 -1.824956
28800 -4.35219669 14.26922379 2.4029496900000002 -0.008326 -1.384285 -1.200034
28820 -3.6215675100000007 15.78722319 2.94587433 0.547179 -0.786836 -0.042171
28840 -3.4009308000000007 14.481188460000002 0.7105677300000001 0.761893 0.505476 0.004674
28860 -1.8522457200000002 14.566957290000001 -1.1223621000000001 1.253125 2.845573 -0.608053
28880 4.00312746 15.155831970000001 1.674567 -0.274154 0.599688 -1.077315
28900 7.75447146 14.90614785 -3.5054073000000003 0.144655 -0.610865 -0.275945
28920 6.77775843 15.380520210000002 -1.11173787 0.549708 -1.339465 1.223329
28940 3.77948889 16.44569982 4.48886961 5.0260669999999985 5.470909 0.523752
28960 3.06098487 15.5857356 -0.2456424 4.1905410000000005 4.443361 1.668639
28980 3.2876154900000003 14.022992790000002 -2.4035481 0.256597 0.558227 1.634388
29000 1.4575207500000003 10.63029258 1.7730594000000002 1.38286 -1.153578 1.434009
29020 0.05209110000000001 9.76164651 -2.20776012 2.503287 0.511961 1.400177
29040 0.28470582000000005 7.353458280000001 -2.72703285 2.630092 0.453979 1.138354
29060 0.32093415000000003 4.414921830000001 -1.2957048 2.162223 0.547075 0.6414479999999999
29080 0.68721993 2.66880069 -1.75794219 1.922538 1.573787 0.636322
29100 0.94618431 0.8535288600000001 -1.6543584000000002 1.915266 2.011963 0.555593
29120 1.7283061800000001 0.33170553 -0.49935843 1.665749 2.552783 0.590545
29140 2.34382482 0.42855966000000006 0.5882762699999999 1.599638 1.719532 0.699041
29160 2.1427983000000004 0.4713705 0.93405915 1.13462 0.309844 0.917653
29180 0.7339253400000001 0.8587674 0.93405915 1.301659 0.318291 0.791691
29200 -0.32841918 2.56955292 2.89827621 1.597131 1.012797 0.5493100000000001
29220 -1.1723636700000002 6.06389454 7.6628656799999995 1.539913 0.991067 0.438912
29240 2.37989619 10.913056019999999 15.360311610000002 0.873664 0.385188 0.417943
29260 2.69754399 28.92629574 14.87217582 0.324662 0.547704 0.479061
29280 -0.85681521 22.11785163 10.09785483 -0.09275 0.504361 0.491156
29300 -1.19496591 5.80223241 7.222180860000001 0.004646 0.115971 0.031931
29320 -1.7612383500000002 0.15223158 7.822729440000001 -0.63253 0.23552 -0.273912
29340 1.3090267800000002 9.07263135 8.37493434 -1.56094 -0.063835 -0.531046
29360 -0.09595161 15.819998400000001 4.08126411 -2.717498 -0.6380020000000001 -0.864196
29380 -1.35812583 22.460642460000003 -13.047172470000001 -3.454317 -0.159131 -1.430773
29400 6.212084399999999 12.660521130000001 0.48753738 -3.4872410000000005 -0.652031 -1.482714
29420 12.7253358 -4.95634554 3.4798130100000004 -2.924491 -0.796557 -1.259613
29440 7.2069165 -3.56258979 9.14373423 -3.092625 1.134786 -0.847724
29460 -4.597534980000001 11.57977305 -8.7690609 -3.151796 1.041184 -0.831994
29480 -2.71206279 17.298326160000002 -15.00599403 -2.955219 -1.993372 -0.839551
29500 -5.230868580000001 17.69724981 0.04939335000000001 -2.820203 0.570882 -1.256364
29520 -2.0630135700000003 10.75348656 2.2836502800000003 -2.104898 0.325866 -1.608907
29540 2.2902327900000006 5.6495495700000005 0.03967164 -2.104435 -1.7757599999999998 -1.915996
29560 3.3247365300000005 6.71727978 0.42301701 -2.319991 -2.50045 -1.919777
29580 1.7396857800000003 7.616611530000001 0.15792137999999997 -2.3201650000000003 -2.98834 -1.655302
29600 0.41119596 8.744516280000001 0.13457358 -1.818948 -3.183053 -1.083258
29620 -0.69156576 9.11963106 0.5794472700000001 -1.209707 -2.739505 -0.644804
29640 -0.31569561 7.68277017 0.15657741000000003 -0.428865 -2.014694 -0.362541
