time Ax Ay Az Gx Gy Gz
20 -5.70254319 15.29669376 1.66543389 0.860833 0.234327 -0.204727
40 -5.88605886 17.683927830000002 1.03165884 0.625109 0.641562 0.190483
60 -5.7666123 15.509698290000001 -0.8852544000000001 0.403336 0.7485569999999999 0.26570900000000003
80 -1.99609956 10.945684080000001 -5.59671291 0.193324 0.73341 -0.026295
100 0.30641535000000003 10.11266793 -7.08072066 -0.102123 0.488247 -0.531177
120 -1.5590052 9.881848440000002 -4.094134830000001 -0.274782 0.28317 -0.7778109999999999
140 -4.8383901 8.38646109 -1.5825099599999999 -0.084631 0.394133 -0.72001
160 -5.47995429 6.54783165 -1.1472108300000001 0.223261 0.543334 -0.470223
180 -4.577630490000001 7.068899610000001 -1.87065909 0.167689 0.470452 -0.045365
200 -3.306470310000001 8.22943242 -1.88472663 -0.169396 0.434752 0.38282
220 -2.213449920000001 8.31341583 -1.35513378 -0.446404 0.496642 0.596586
240 -1.1195172 8.58824298 -0.33036156 -0.459655 0.544986 0.5067010000000001
260 -0.45460521000000004 8.82923544 0.48603645 -0.256383 0.287067 0.361037
280 -0.14954364 8.38600983 0.7741855799999999 -0.040864 -0.159187 0.150538
300 -0.6837766200000001 6.886433610000001 0.43529913000000003 0.201232 -0.385039 -0.055785
320 -1.82051037 5.789057580000001 -0.22213764000000003 0.37975 -0.134 -0.118953
340 -3.8737924200000005 5.94967671 -0.85920885 0.552292 0.088901 -0.066759
360 -5.12159499 5.345380710000001 -1.3379172300000002 0.654147 0.22162 -0.044853
380 -5.6773903500000005 4.87431432 -1.45242936 0.8606360000000001 0.067575 -0.328428
400 -5.60958363 4.877904780000001 -0.92882061 0.104956 0.5193399999999999 -0.760506
420 -5.70433842 5.52785652 0.15313410000000002 -0.221204 0.5429189999999999 -1.045894
440 -4.74602895 7.13072223 0.9629496000000001 -0.002696 0.353229 -0.951189
460 -3.5061626700000006 8.507408580000002 1.10439999 0.37056 -0.338592 -0.894284
480 -3.38969835 8.107739370000001 1.04661909 0.440355 -0.750838 -0.692443
500 -5.463640260000001 8.625962430000001 1.11982131 -0.108534 -0.78546 -0.616116
520 -6.94345914 10.428069240000001 1.71244341 -0.849208 -0.6357430000000001 -0.6513909999999999
540 -7.094650860000001 10.73686842 1.99519704 -1.344901 -0.421455 -0.530146
560 -7.0346234700000005 11.107804139999999 0.29668383 -1.593094 -0.220666 -0.178556
580 -7.44566247 13.79576376 -0.20507805 -1.099268 -0.110995 0.20504
600 -8.120168640000001 15.17828706 -1.43910738 0.030372000000000007 -0.803247 0.5129199999999999
620 -6.80260716 13.88587842 -5.88486204 0.531775 -0.12206 0.4920479999999999
640 -3.64416975 13.51809171 -6.24666465 0.641921 -0.199667 0.35725300000000004
660 -0.7116174 10.3539645 -5.95357128 0.245369 -0.259533 0.221032
680 -0.41208867000000005 7.9077527100000005 -5.53294791 -0.1521 -0.671297 0.174986
700 -2.114055 9.02862369 -5.2377552 -0.383311 -1.075309 0.177094
720 -2.2360521600000003 10.624906890000002 -3.9742370100000004 -0.12445 -1.258941 0.320142
740 -2.5828749 12.344678370000002 -1.60032492 0.4130140000000001 -1.342726 0.294094
760 -3.9906981900000003 12.12658245 0.7463448 0.645031 -1.372792 0.152611
780 -5.417238960000001 10.11042144 0.6563871 0.514939 -1.273715 -0.002249
800 -5.759274420000001 7.869434850000001 -0.40012047 0.432483 -0.8972629999999999 -0.033217
820 -5.43010968 5.34597912 -3.30991362 0.525556 -0.6205470000000001 -0.050013
840 -7.738010280000001 4.950655740000001 -0.7997896800000001 0.362161 -0.6011350000000001 -0.233845
860 -6.38167968 4.7809035 -1.45242936 -0.199256 -0.948354 -0.295006
880 -4.659063300000001 5.48579124 -0.6611743800000001 -0.310902 -1.132026 -0.087247
900 -3.0012615900000004 5.06606058 -0.34787241 0.105745 -0.349953 0.57589
920 -1.83743262 4.7204346600000004 1.03135473 0.086685 0.398031 0.818353
940 -1.86871671 3.9300821999999997 3.1302925200000002 -0.346469 0.606325 0.786219
960 -2.04564987 3.8553790500000003 3.6914735700000003 -1.084999 0.578856 0.570656
980 -2.8952743499999998 4.4626671 2.69828955 -1.089825 0.328929 0.20561
1000 -3.87020196 5.373525600000001 1.13898024 0.43648 1.013756 0.516633
1020 -4.058661870000002 6.2128299600000005 -0.39952206 1.17507 1.533475 0.97512
1040 -3.06308421 8.01178776 -0.54816318 0.713403 0.810052 1.134124
1060 -3.18283488 10.12854051 0.3589577100000001 -0.146526 -0.205322 0.589966
1080 -5.498966070000001 11.701318950000001 1.4004854100000002 -0.646135 -0.6687960000000001 -0.28780300000000003
1100 -8.92234215 12.056225130000001 2.6634150000000005 -0.233132 -0.719042 -0.6010479999999999
1120 -8.795861819999999 11.412571410000002 1.6486686 0.412703 -0.675333 -0.636117
1140 -6.03709362 12.96753489 1.79357211 0.729213 -0.440255 -0.557295
1160 -5.44357881 12.744494730000001 2.38603725 0.780334 0.155662 -0.176347
1180 -4.75530921 16.71423876 2.81385135 0.607785 0.639274 0.244844
1200 -6.48316413 16.454832930000002 1.45886472 0.25264000000000003 0.811443 0.387421
1220 -4.71474486 13.26630825 -3.3452394300000003 -0.07322100000000001 0.769616 0.207874
1240 -1.53895356 11.516155200000002 -6.990164550000001 -0.334907 0.522936 -0.213449
1260 -0.37751823000000007 9.68111622 -4.72821399 -0.390046 0.38539 -0.6665840000000001
1280 -2.17004067 8.52836274 -1.3959924300000002 -0.021761000000000003 0.538034 -0.796667
1300 -3.6544996800000003 7.09614198 -0.48244599000000005 0.378423 0.856096 -0.497313
1320 -4.5896085 7.13251746 -1.1618865900000004 0.309106 0.864009 -0.019244
1340 -4.25205621 8.46130158 -1.2039420600000001 -0.041215 0.8596889999999999 0.298781
1360 -3.27353814 8.6765526 -1.1322407700000001 -0.232773 0.974421 0.5440550000000001
1380 -2.56402008 7.98693903 -0.89124831 -0.406511 0.860692 0.6305810000000001
1400 -2.00268207 8.35742349 -0.58394025 -0.405058 0.624537 0.5454359999999999
1420 -1.27564335 8.53270857 0.0925083 -0.18141 0.244626 0.253724
1440 -0.71955369 7.81195806 0.48962690999999997 0.219081 0.000629 -0.080724
1460 -0.64964763 6.364011870000001 0.7220944800000001 0.409344 0.151901 -0.246231
1480 -1.2657646800000002 5.558542200000001 0.8747773200000001 0.521062 0.15548499999999998 -0.17388399999999998
1500 -2.7783685800000004 5.5101887099999995 0.5438173500000001 0.638885 -0.045991 -0.241169
1520 -4.45742856 5.17848318 -0.01631403 0.726897 -0.079887 -0.6314810000000001
1540 -5.2314669899999995 4.56206202 -0.15792137999999997 0.413538 0.194887 -1.141427
1560 -4.95559017 4.973709240000001 0.2311236 0.160555 0.769324 -1.2518200000000002
1580 -4.80694905 5.9579073000000005 0.62211096 -0.003517 1.110681 -0.960711
1600 -4.1561046 8.00236035 0.45130905 0.475584 0.74442 -0.625746
1620 -3.8160115200000004 8.27015373 0.2721294 0.569051 0.208132 -0.593428
1640 -4.4120769300000005 8.83208034 0.55414728 -0.079442 -0.064042 -0.4320350000000001
1660 -5.99712768 9.6884541 1.5756233400000001 -1.020899 -0.196992 -0.467282
1680 -6.693480720000001 10.520871840000002 1.94250753 -1.74741 -0.313157 -0.357908
1700 -6.625075590000001 10.143657720000002 1.07760888 -1.935842 -0.403167 -0.063212
1720 -7.14478977 11.71478808 -0.06541308000000001 -1.384405 -0.309612 0.304784
1740 -7.548206400000001 13.85653671 0.25581537 -0.355902 -0.20388 0.4111770000000001
1760 -8.20833111 14.394664259999999 -0.93405915 0.536011 0.025268 0.408568
1780 -6.95737953 14.972169150000001 -3.3849110700000002 0.986301 0.162643 0.296169
1800 -3.8555360100000002 13.576912470000002 -4.975651620000001 0.797874 0.21777600000000005 0.258463
1820 -0.8282288700000001 10.56607632 -6.0444315 0.155319 -0.114357 0.22449
1840 -0.19564083 8.281533330000002 -6.42822813 -0.331573 -0.66664 0.231411
1860 -1.97139798 8.83088352 -5.572011330000001 -0.349905 -1.132313 0.284222
1880 -2.4658219800000003 11.35015038 -3.98650932 -0.053684 -1.4624780000000002 0.276032
1900 -3.2494447800000006 12.800186100000001 -1.20110697 0.213715 -1.6600400000000002 0.16599
1920 -4.03919883 11.926448640000002 0.9276237900000001 -0.269715 -1.763625 -0.15024300000000002
1940 -4.7981200500000005 10.010879370000001 0.20477394000000002 -0.083214 -1.284148 -0.337562
1960 -5.541776909999999 6.21642042 -0.7925989500000001 0.357325 -0.531708 -0.275629
1980 -6.807541590000001 5.538784860000001 -0.15522363 0.62575 -0.15223299999999998 -0.034958
2000 -6.961725360000001 4.8696741900000005 -0.41389371 0.247436 -0.3657 0.129315
2020 -6.317610570000001 4.6169980200000005 -0.7707520800000001 -0.5077510000000001 -0.981163 0.184649
2040 -4.31612532 4.74977637 -1.44405162 -0.737045 -0.835993 0.30998000000000003
2060 -2.6391646800000004 4.89736782 -0.8834591700000001 -0.446985 -0.026623 0.916651
2080 -2.0568725100000003 5.17788477 0.97342668 -0.409049 0.4935600000000001 1.067937
2100 -2.03247504 5.529347639999999 2.74947813 -0.9595 0.649265 0.968821
2120 -1.93023522 4.62867192 2.8241812800000003 -1.275511 0.412508 0.7767729999999999
2140 -2.7810663300000003 4.5653581800000005 2.37586428 -0.829158 0.7698189999999999 0.81148
2160 -4.417011360000001 5.110970760000001 1.3395653100000002 0.215693 1.282166 1.249683
2180 -4.63421457 6.626870820000001 1.73474154 0.692327 0.962191 1.467067
2200 -4.169730690000001 6.96022443 0.39457782 0.237918 0.165019 0.882734
2220 -3.06921546 8.67535578 0.14909238 -0.097449 -0.18566 -0.106197
2240 -3.2260871700000004 12.35096658 1.3814736300000001 0.187434 -0.5421729999999999 -0.707295
2260 -5.974074180000001 13.67780832 2.93989023 0.502602 -0.8324239999999999 -0.856409
2280 -6.975047340000001 14.15066994 2.43573471 0.479155 -0.686963 -0.715754
2300 -7.63981218 13.661641440000002 2.1914460900000003 0.307659 -0.324322 -0.412974
2320 -5.78262222 13.50461277 2.10222414 0.02442 0.202352 -0.008634999999999999
2340 -4.577934600000001 16.46351478 2.3942678400000004 -0.284488 0.4480020000000001 0.365975
2360 -5.165308350000001 17.028590400000002 0.98151012 -0.493965 0.583041 0.344043
2380 -2.97565749 14.466669660000003 -2.71190583 -0.405001 0.631797 0.062591
2400 -0.9574069500000001 10.38315906 -4.23019953 -0.148604 0.800755 -0.320394
2420 -2.12079447 9.055414800000001 -3.15693648 0.230875 0.8223729999999999 -0.460913
2440 -3.7510497000000003 8.74870515 -1.6735173300000001 0.513584 0.8298639999999999 -0.448266
2460 -5.3328141 6.721625610000001 -2.03352471 0.451783 0.59058 -0.22940500000000005
2480 -4.7345022000000005 6.53450967 -3.0148778700000003 0.212415 0.490382 -0.006622
2500 -3.48175539 7.1916423300000005 -1.95642792 0.248181 0.6341 0.25195300000000004
2520 -2.2688273700000003 7.256015550000001 -0.50669631 0.396316 0.8201780000000001 0.476008
2540 -0.49681764000000006 8.07406164 0.86295627 0.382342 0.841353 0.520748
2560 0.06406911000000001 9.04853799 1.9110762900000002 0.329864 0.566557 0.28893
2580 0.20507805 9.178314480000001 2.38663566 0.355977 0.341986 -0.050295
2600 -0.30670965 8.19754992 1.72232208 0.356681 0.367016 -0.182781
2620 -1.28747421 6.49424943 1.3892627700000002 0.510727 0.500536 -0.140216
2640 -2.51117361 6.73134732 1.00066905 0.593448 0.335351 -0.194974
2660 -4.66145694 6.80290146 0.21794877000000001 0.475765 0.252601 -0.4445850000000001
2680 -5.87244258 6.22914399 -0.5146326 0.520884 0.438179 -0.804499
2700 -5.9442910200000005 6.37539147 0.08262963000000001 0.662798 0.742101 -0.740872
2720 -5.40466254 6.3740475000000005 0.72509634 0.94496 0.786242 -0.56911
2740 -3.6004662000000005 5.35885965 0.97222986 1.112214 0.243485 -0.581133
2760 -2.2841015400000004 6.13184841 1.59433101 0.30255 -0.591476 -0.732065
2780 -2.8951272 7.66795707 1.95883137 -0.458763 -0.795112 -0.563002
2800 -3.82409496 9.362134260000001 1.9752925500000003 -1.328059 -0.868291 -0.689689
2820 -5.55105717 9.63411651 1.7119921500000002 -1.696493 -0.704045 -0.684996
2840 -5.8348702800000005 10.384807140000001 1.40258475 -1.24252 -0.459825 -0.08179700000000001
2860 -5.7431075400000005 12.222229950000001 -0.30386475 -0.504534 -0.199528 0.250968
2880 -7.321870080000001 13.94904501 0.31225230000000004 0.091511 -0.17538099999999998 0.355514
2900 -8.85378987 14.494804740000001 0.040711500000000005 0.567605 -0.072823 0.402505
2920 -8.245599299999999 14.28569478 -0.7123727700000001 0.6856260000000001 -0.013224 0.31459000000000004
2940 -6.439911840000001 13.42288566 -2.83944564 0.260497 -0.124667 0.3139
2960 -2.9307571200000004 11.287425240000003 -4.94003151 -0.299637 -0.4451729999999999 0.23135
2980 -0.7207505100000001 8.46265536 -7.879617629999999 -0.554137 -0.845758 0.195902
3000 -1.1123362800000003 6.64976736 -8.20548621 -0.35138 -1.267419 0.23952
3020 -3.36604644 9.45957699 -4.8800041200000015 0.233748 -1.441864 0.200033
3040 -2.9654845200000004 11.75595084 -1.94505813 0.67152 -1.339313 -0.249966
3060 -2.67313671 13.242362040000001 1.08239616 0.923363 -1.559547 -0.005439
3080 -3.82529178 12.14588853 1.66708197 0.813195 -0.994225 -0.091322
3100 -4.636461060000001 9.254950200000001 -0.050295870000000006 0.5338970000000001 -0.582662 -0.207032
3120 -5.21395614 7.00857792 -0.8544215700000001 0.161082 -0.666668 -0.188164
3140 -6.20534493 5.84594577 -1.09796463 -0.283008 -0.918832 -0.146078
3160 -6.674616090000001 5.20318476 -1.43252487 -0.471966 -1.180132 0.094356
3180 -5.07654747 4.97280672 -1.5164984700000002 0.194465 -0.4592850000000001 0.667449
3200 -2.8445370300000006 5.238059310000001 -1.0449808200000001 0.571422 0.395725 0.974498
3220 -2.09578878 5.230868580000001 0.2225889 0.14885 0.6707489999999999 1.028878
3240 -1.21322232 4.7626470900000015 2.12692572 -0.830074 0.545134 0.790397
3260 -1.35558504 4.32151101 3.2977884600000005 -1.270813 0.431974 0.699869
3280 -1.09152927 4.98688407 3.06337851 -1.182963 0.416189 0.841508
3300 -3.9612093300000004 4.08739536 2.43947232 -0.164576 1.878927 0.99523
3320 -4.64034582 5.86959768 1.6796583900000002 0.292186 1.599695 1.164353
3340 -4.70740698 6.75499923 0.0782838 -0.217489 0.5304449999999999 0.735942
3360 -4.203555570000001 8.65619685 -0.67509477 -0.817321 -0.544497 -0.055218
3380 -4.386924090000002 11.60926191 0.28201788000000005 -0.568408 -0.61319 -0.674028
3400 -5.80402764 13.18249161 2.08980468 0.182045 -0.47547 -0.866584
3420 -7.4862366300000005 12.9940317 2.9993094000000005 0.702484 -0.180486 -0.760777
3440 -5.64311421 11.58351066 0.96563754 0.939526 0.513712 -0.343404
3460 -4.32810333 11.24640963 1.5425440200000002 0.889858 1.114837 0.154338
3480 -3.56827959 15.985404810000002 2.36343501 0.5678890000000001 1.196906 0.422244
3500 -4.255352370000001 18.15334614 1.86976638 0.20142 1.08089 0.182688
3520 -5.03582616 17.06346495 0.36943479 -0.124354 0.740997 -0.315875
3540 -2.6252442900000004 12.10487292 -2.8102608900000003 -0.324176 0.529101 -0.6983550000000001
3560 0.9580053600000001 8.19246834 -6.7835953799999995 -0.200553 0.7247279999999999 -0.709492
3580 -0.8451413100000001 9.108261270000002 -4.448148300000001 0.151828 0.948712 -0.551358
3600 -4.57897446 10.08468 -1.92889125 0.254435 0.905237 -0.158548
3620 -6.570433889999999 8.550670680000001 -0.92971332 0.156921 1.096285 0.36716
3640 -6.7041049500000005 7.306007310000001 -1.3178557800000001 -0.07056 1.357873 0.681429
3660 -4.5414021600000005 8.15788809 -1.20334365 -0.417794 1.320441 0.7527590000000001
3680 -2.9635421400000004 8.18362953 -0.6717986100000001 -0.501843 1.025032 0.641455
3700 -1.3031898300000002 8.06612535 -0.16765290000000002 -0.32511 0.337727 0.27289800000000003
3720 -0.06242103000000001 7.83126414 0.62135559 0.100932 -0.007201999999999998 -0.150973
3740 0.7921575000000001 7.791298200000001 1.1364394500000001 0.362733 0.105675 -0.367207
3760 0.95231556 7.04180439 1.04812002 0.671797 0.093694 -0.303075
3780 -0.31090833 5.6046492 0.78616359 0.8691209999999999 -0.119127 -0.266173
3800 -2.85740775 5.435642520000001 0.36523611 0.914358 0.013614 -0.466853
3820 -4.5333187200000005 5.035531860000001 -0.59322051 0.73839 0.384249 -0.826411
3840 -5.50719666 4.841235 -1.0279114200000001 0.579151 0.315485 -1.074195
3860 -6.0273621 4.96622421 -0.40835106000000004 0.152419 -0.078658 -1.23904
3880 -5.487890580000001 5.29029756 0.051041430000000006 -0.111374 -0.600841 -1.227395
3900 -4.39156422 7.578440820000001 0.37960776 -0.1219 -1.094778 -1.0398969999999998
3920 -3.4055709300000006 9.55163403 0.94199544 -0.306832 -1.124165 -0.989876
3940 -2.9494647900000004 9.386982990000002 1.21981464 -0.533254 -0.776755 -0.8263290000000001
3960 -4.78734867 9.67902669 1.9315791900000001 -0.8873129999999999 -0.440116 -0.5226529999999999
3980 -6.70381065 10.5620346 2.4170270400000002 -1.194768 -0.363779 -0.165976
4000 -7.77034404 10.179434790000002 2.01960432 -0.788003 -0.282074 0.094202
4020 -8.34604389 10.475814510000001 -0.30775932000000006 0.06069500000000001 -0.326778 0.414245
4040 -9.74188917 13.055403060000002 0.37347651000000004 0.688027 -0.396751 0.585359
4060 -9.462127590000001 13.58020863 -1.55811249 0.8822909999999999 -0.36127 0.601625
4080 -6.818774040000001 12.8203947 -5.884714890000001 0.403419 -0.446466 0.477681
4100 -3.37443399 13.192370280000002 -7.849971810000001 -0.177196 -0.961253 0.24675300000000006
4120 -0.3526695 9.847719450000001 -7.587721080000001 -0.376483 -1.467305 0.164825
4140 -0.15418377 8.9742861 -6.56849151 -0.149118 -2.018324 0.301715
4160 -0.78272028 10.63388304 -4.215386430000001 0.46351 -2.446547 0.299066
4180 -1.8585339300000001 12.32791308 -1.7275606200000002 1.07996 -2.264481 0.055311
4200 -2.4219614700000003 14.29437663 1.3162175100000002 1.163594 -1.797885 -0.284398
4220 -4.392761040000001 13.11647031 2.05971741 0.865979 -1.208279 -0.419692
4240 -6.19172865 9.39581199 0.39742272 0.5055810000000001 -0.8333659999999999 -0.091541
4260 -6.08918472 5.863456620000001 -1.78144695 -0.249192 -0.714575 -0.106579
4280 -6.977293830000001 4.16703294 -2.5813837800000003 -0.733969 -1.0324 0.140406
4300 -7.6746867299999995 3.49014294 -2.00478141 6.3e-05 -0.31674800000000003 0.622112
4320 -6.42539304 3.84565734 -1.56289977 0.5798270000000001 0.950267 1.083873
4340 -3.9005933400000004 4.80844998 -1.1225190600000001 0.16271 1.1065459999999998 0.992097
4360 -1.99729638 5.153330340000001 -0.032785020000000005 -1.022071 0.63178 0.866925
4380 -1.0524658500000001 5.1106764600000005 1.8359316900000002 -1.697464 0.315887 0.7963819999999999
4400 -0.8752285799999999 4.12646859 3.3362632800000003 -0.8681049999999999 1.106764 1.031898
4420 -1.37758887 3.7941646500000004 3.1472049600000003 0.435389 2.14455 1.181747
4440 -2.5102809 5.401817639999999 2.06495595 0.403329 1.250514 1.010685
4460 -5.072947200000001 5.42711763 0.5084915400000001 -0.386338 -0.273351 0.228388
4480 -5.0495994 7.56107712 0.042065280000000004 -0.95387 -1.138173 -0.655751
4500 -4.25624508 9.64938087 0.9714843000000001 -0.4667060000000001 -0.949571 -1.089493
4520 -3.7703557800000005 13.523026140000002 2.5313822100000003 0.319425 -0.818872 -1.15574
4540 -5.857315560000001 14.67128664 3.75853473 0.785327 -0.182277 -0.917225
4560 -7.123384350000001 11.951591670000001 3.07715175 1.012386 0.8531489999999999 -0.310215
4580 -5.3997183 13.079202120000001 0.5601313800000001 0.776662 1.412108 0.237556
4600 -5.06397105 13.82570388 0.4858893000000001 0.270169 1.4460540000000002 0.445483
4620 -5.3551122300000005 17.0892162 1.1907770400000002 -0.200571 1.026254 0.075264
4640 -5.98650345 15.475118040000002 1.6093010700000001 -0.651108 0.363354 -0.524169
4660 -3.23956611 11.250304200000002 -2.48423535 -0.702862 0.325805 -0.679375
4680 0.48828294 9.73275606 -7.367977080000001 -0.200564 0.621909 -0.5715600000000001
4700 0.85741362 10.22313834 -5.57141292 0.269246 0.746985 -0.289633
4720 -3.13567821 10.755880200000002 -2.59559847 0.298886 0.964289 0.219838
4740 -6.6145985099999995 9.31303521 -0.5041555199999999 -0.008085 1.222488 0.651061
4760 -6.734947590000001 8.25324129 -0.68767119 -0.12423900000000003 1.463861 0.862516
4780 -4.9713156000000005 8.057443500000002 -1.2376296 -0.027346 1.46123 0.903789
4800 -3.99818322 7.5796376400000005 -0.65039319 -0.019194 1.180754 0.7076520000000001
4820 -2.35894203 7.27651845 0.27707364 0.085289 0.5597489999999999 0.338505
4840 -0.60354063 7.48069398 0.8439444899999999 0.4002 0.186403 -0.075424
4860 0.08861373 7.317828360000001 1.28388375 0.6311140000000001 0.334449 -0.268417
4880 0.6125265900000001 7.623645300000001 1.30723155 0.862384 0.25279 -0.294471
4900 -0.15701886 5.77304766 0.7735871700000001 0.904167 -0.004914 -0.353669
4920 -2.67134148 5.016215970000001 0.39084021 0.937148 0.043477 -0.7615609999999999
4940 -4.511766150000001 4.576580820000001 -0.45221157000000006 0.931602 0.397465 -0.8357610000000001
4960 -5.66346996 4.63166397 -0.82373589 0.894233 0.362557 -0.864819
4980 -6.45113448 4.737347100000002 -0.14923953 0.361646 -0.038853 -0.985529
5000 -6.415063110000001 5.16949722 0.92642697 -0.166802 -0.74256 -0.903929
5020 -4.60592253 6.512211540000001 1.9357778700000001 -0.54081 -0.963435 -0.7556390000000001
5040 -2.57494842 8.419540410000002 1.96601229 -0.889324 -0.7815340000000001 -0.6546890000000001
5060 -2.16210438 8.84151756 1.66947561 -1.116549 -0.489058 -0.605377
5080 -4.187545650000001 9.1450782 1.37474397 -1.331492 -0.242603 -0.24720300000000006
5100 -6.95393622 9.877953869999999 1.5338621700000001 -1.291116 -0.241722 0.029747000000000006
5120 -7.87077882 10.67295627 1.75090842 -0.699331 -0.288532 0.29992800000000003
5140 -7.890840270000001 10.95856461 0.07125002999999999 0.10771300000000003 -0.225018 0.4999
5160 -9.15272019 13.5698787 0.060772950000000006 0.650775 -0.14201 0.5826359999999999
5180 -8.96890041 14.098578840000002 -0.08846658 0.694732 -0.12923900000000002 0.547675
5200 -7.5636179100000005 12.82652595 -3.57576462 0.247256 -0.400764 0.372914
5220 -4.42449639 12.98475144 -6.379580340000001 -0.195642 -0.823643 0.21547
5240 -0.55713933 10.267450110000002 -7.469314379999999 -0.290161 -1.168596 0.248366
5260 -0.22572810000000001 8.20458369 -7.193594520000001 0.02809 -1.443999 0.379129
5280 -2.2649426100000003 10.16356221 -5.29149438 0.628722 -1.610455 0.459381
5300 -2.3373894600000003 11.690989020000002 -3.5548104600000006 1.120428 -1.430956 0.432676
5320 -2.75891535 13.60655829 -0.91160406 1.322541 -0.875598 0.170593
5340 -3.4729263900000005 14.163844769999999 1.26741276 1.067419 -0.529273 -0.168122
5360 -4.86862452 11.880792900000001 0.78272028 0.511696 -0.564475 -0.473198
5380 -5.513180760000001 7.486678080000001 -0.20387142 -0.074447 -0.930766 -0.27279200000000003
5400 -6.43690998 4.818328650000001 -0.63273519 -0.757178 -1.539137 -0.189187
5420 -7.33324968 3.5028665100000005 -1.0990143 -0.322678 -0.8656 0.428281
5440 -6.64812909 3.3480843300000003 -1.50841503 0.5525180000000001 0.7280439999999999 1.002782
5460 -4.644985950000001 4.1876928 -1.6603425000000003 0.541942 1.026197 1.0429190000000002
5480 -3.16337184 5.00184432 -0.7896069 -0.359895 1.039548 0.8838459999999999
5500 -2.2686802200000002 5.06576628 1.0496209500000002 -1.149188 0.628789 0.659874
5520 -1.4388032700000002 4.5574218900000005 3.0449651400000004 -1.070516 0.442702 0.773894
5540 -0.85801203 4.25984535 4.05087273 -0.155498 1.12332 1.068901
5560 -1.9142154900000001 3.48610122 3.6739627200000005 0.238958 1.097286 1.110146
5580 -3.0801438000000005 4.392761040000001 2.04714099 -0.291073 0.243196 0.439899
5600 -3.93860709 5.9402493000000005 -0.38888802 -0.942085 -0.480457 -0.244178
5620 -4.12242687 8.35697223 -1.6229271600000001 -0.664658 -0.451898 -0.699476
5640 -4.68480474 10.477609740000002 -0.51373008 -0.002168 -0.364165 -0.835966
5660 -5.20003575 13.771807740000002 1.91796291 0.370021 -0.053770000000000005 -0.725874
5680 -7.988587110000001 15.35162976 4.14697149 0.600338 0.7525189999999999 -0.362103
5700 -7.77363039 13.166619030000001 1.94685336 0.597688 1.353548 0.118877
5720 -5.047500060000001 11.821668030000001 1.70704791 0.342756 1.432996 0.18536
5740 -2.72897523 13.786630650000001 1.48476312 -0.182677 1.001464 -0.133951
5760 -2.7795654000000005 17.67943485 0.2832147 -0.7448170000000001 0.528184 -0.637199
5780 -4.54110786 15.61657824 -1.94490117 -0.925249 0.599675 -0.776351
5800 -2.4623786700000005 11.670633270000002 -5.5741106700000005 -0.374629 1.214082 -0.656856
5820 0.6361785000000001 9.736954740000002 -7.329512070000001 0.262513 1.60675 -0.305737
5840 -0.8934948 10.927721970000002 -5.494924350000001 0.170872 1.447283 0.224734
5860 -5.0686111799999995 12.14753661 -3.0024584100000005 -0.304116 1.303594 0.605092
5880 -6.309232830000001 9.51525855 -1.8375797700000003 -0.597796 1.339372 0.703407
5900 -5.904766530000001 7.62215418 -0.99782415 -0.386629 1.362973 0.745445
5920 -3.15019701 8.117323740000002 -0.29922462000000005 0.008357 1.055292 0.623616
5940 -1.35513378 7.685163810000001 -0.02080701 0.291404 0.552851 0.286542
5960 -0.023504760000000003 7.30586016 0.28156662 0.498845 0.235305 -0.135686
5980 1.08643788 7.362287280000001 0.58737375 0.488675 0.148783 -0.334335
6000 1.21847067 7.21335186 0.5860297800000001 0.7021270000000001 0.017713999999999997 -0.242946
6020 0.7695454500000001 6.955584300000001 0.26853894 0.8630459999999999 -0.070009 -0.289779
6040 -1.11204198 5.36873832 0.35475903000000003 1.089541 0.121309 -0.6441600000000001
6060 -3.4820595 5.2974882899999995 0.37032750000000003 0.941395 0.5756319999999999 -1.176684
6080 -4.27510971 4.18903677 -0.27602397 0.483428 0.479368 -1.215011
6100 -5.37158322 4.25056509 -1.00980216 -0.179702 -0.040653 -1.131382
6120 -6.461611560000001 5.40047367 -0.61686261 -0.08895 -0.8563850000000001 -1.01113
6140 -6.447838320000001 5.986954710000001 0.88001586 -0.305542 -1.044286 -0.720778
6160 -5.522912280000001 7.935299189999999 1.8056972700000002 -0.847808 -0.843298 -0.6959810000000001
6180 -4.04383896 7.77259053 1.37458701 -1.141761 -0.606391 -0.811569
6200 -4.291276590000001 7.92467496 1.03689738 -1.562364 -0.408866 -0.559455
6220 -5.91016203 8.823996900000001 1.5676870500000002 -1.520914 -0.426971 -0.06455599999999999
6240 -7.045993260000001 9.914633460000001 1.95687918 -0.671187 -0.417602 0.31845
6260 -7.17353307 9.993966930000001 2.19862701 0.282252 -0.289669 0.532181
6280 -6.49050201 10.5216174 0.71206866 0.906596 -0.230107 0.547148
6300 -8.18931933 13.40327547 0.7607164500000001 0.888383 -0.3447 0.448891
6320 -9.13220748 14.83310259 -0.83960847 0.232136 -0.729677 0.321955
6340 -6.516998820000001 14.204114820000001 -6.349198770000001 -0.27642100000000003 -1.2112 0.23463
6360 -2.9554587 14.97530835 -8.260118100000001 -0.31034 -1.562919 0.308551
6380 -0.34114275 10.52520786 -8.14366359 0.040138 -1.771395 0.457613
6400 -0.86384898 8.312366160000002 -7.3928258100000015 0.717174 -1.895092 0.434727
6420 -2.85635808 10.76531742 -5.01008472 1.325997 -1.678127 0.261376
6440 -3.32727732 12.146791050000001 -2.92312494 1.4485290000000002 -0.992771 -0.206527
6460 -3.3575215500000004 13.43111625 0.44921952000000004 1.204146 -0.810549 -0.009778
6480 -4.3123779 12.75857208 1.5500290500000002 0.8096439999999999 -0.542756 -0.036378
6500 -5.284460610000001 9.580828590000001 0.68916231 0.006682 -0.828089 -0.179422
6520 -5.75373177 6.120625770000001 -0.12603888 -0.698956 -1.332851 0.120739
6540 -6.706351440000001 4.0835106 -0.7667103599999999 -0.25414000000000003 -0.635371 0.602584
6560 -7.01202123 3.0473587800000006 -1.39180356 0.436093 0.932993 0.99957
6580 -5.854774770000001 3.45526839 -1.8510489 0.096499 1.34958 1.011619
6600 -3.5721741600000003 4.29082533 -1.4112666 -1.053801 0.354263 0.76451
6620 -2.43259551 4.40878077 0.19235448000000002 -2.122427 -0.401133 0.388408
6640 -1.63519947 4.12811667 2.0871069300000005 -1.194581 0.221219 0.8577
6660 -1.2407688000000001 3.4070620500000004 3.70075383 0.904274 1.830608 1.229221
6680 -1.45467585 3.76571565 3.9413048400000004 0.8879790000000001 0.973332 0.909739
6700 -2.7051761700000005 4.36791231 2.85711345 -0.12844 -0.369995 0.197198
6720 -3.5833968 6.2206092900000005 1.2000573 -0.74273 -0.729561 -0.459316
6740 -5.241502620000001 5.879623500000001 -0.40864536 -0.226753 -0.223922 -0.814214
6760 -3.5079579000000005 9.227109420000001 -0.30850488000000004 0.447487 -0.113936 -0.931422
6780 -3.4009308000000007 12.36653505 0.9804604500000001 0.728424 0.27891900000000003 -0.850915
6800 -6.221217510000001 15.07769532 2.7732870000000003 0.802269 1.047987 -0.36748
6820 -8.19845244 14.86064907 4.1195819700000005 0.6786260000000001 1.282049 0.080009
6840 -5.61572469 12.047700240000001 1.2868758 0.188469 1.012899 0.14743299999999998
6860 -2.672244 12.26668887 0.32722236 -0.490233 0.617236 -0.21786
6880 -3.74880321 17.544714120000002 1.2603789900000002 -0.967902 0.418521 -0.725142
6900 -7.09060914 18.292707 1.1972124 -0.7521399999999999 0.746798 -0.688805
6920 -6.033051899999999 11.726314830000002 -3.02999508 0.243629 1.457608 -0.288586
6940 -1.8631740600000002 7.99322724 -7.188503130000001 0.874051 1.730231 0.251716
6960 0.7512890400000001 10.413844740000002 -6.736291560000001 0.484292 1.641309 0.714852
6980 -4.007022030000001 11.95503498 -3.2190534 -0.147671 1.505357 0.8954139999999999
7000 -6.92864604 10.877426100000001 -0.09071307 -0.432523 1.466034 0.8528819999999999
7020 -6.55890714 9.641003130000001 0.6191091000000001 -0.295205 1.324167 0.780316
7040 -3.89385387 9.25570557 -0.48753738 -0.053152 0.8691 0.353165
7060 -1.6724676600000001 7.944432300000001 -0.95097159 0.101757 0.168596 -0.15867
7080 -0.35446473 6.549930990000001 -0.4628358 0.260954 -0.159601 -0.539561
7100 0.64635147 6.69482469 0.06780672000000001 0.747323 -0.22188400000000005 -0.570267
7120 0.9458802000000001 7.05767697 0.5342427900000001 0.95838 -0.095464 -0.400176
7140 0.6497947800000001 6.9903117 0.8677435499999999 1.177275 0.307854 -0.750609
7160 -0.66775689 5.06142045 1.12221495 0.640621 0.693466 -1.079591
7180 -2.8081615500000003 3.9700481400000003 0.8675963999999999 -0.284921 0.17959 -1.239221
7200 -4.27810176 3.3256390500000004 -0.0038945700000000004 -0.598784 -0.697571 -1.123853
7220 -5.089114080000001 3.44912733 -1.14197229 -0.071142 -1.091113 -0.934861
7240 -5.623052760000001 4.60293048 -1.1199684600000002 -0.184141 -0.785179 -0.8869040000000001
7260 -5.45929443 6.202352879999999 0.41119596 -0.55913 -0.211719 -0.913759
7280 -4.03874757 8.76786408 1.90179603 -1.198874 -0.106232 -0.8980670000000001
7300 -2.891988 9.67692735 1.8925157700000002 -1.849978 -0.358554 -0.371385
7320 -3.8393691300000006 10.56937248 1.28747421 -1.407049 -0.589852 0.07638500000000001
7340 -6.5452908600000015 11.119929299999999 1.2626254799999999 -0.202015 -0.474525 0.560014
7360 -8.21985786 11.020985640000001 1.04871843 0.793866 -0.193211 0.741798
7380 -8.75589588 10.52251992 0.11929941000000001 1.189483 -0.082406 0.661098
7400 -10.242895680000002 10.92982131 -1.9709467200000002 0.8235969999999999 -0.207344 0.5209020000000001
7420 -8.93162241 14.09678361 -0.65832948 0.004372 -0.7484460000000001 0.417596
7440 -5.974378290000001 14.034666690000002 -4.60621683 -0.487839 -1.339955 0.381801
7460 -1.21637133 13.39698726 -6.74257977 -0.326589 -1.6637689999999998 0.500847
7480 0.30985866000000006 10.551861630000001 -6.27779178 0.257112 -1.873543 0.506261
7500 -0.53288901 9.857303820000002 -6.0713697600000005 0.937542 -1.824244 0.375287
7520 -1.98531837 11.374096590000002 -5.80493016 1.365346 -1.430319 0.061576
7540 -4.2011619300000005 13.06738107 -4.26418137 1.140455 -0.976617 -0.249292
7560 -4.996007370000001 14.806762740000002 -0.95830947 0.337637 -0.7018310000000001 -0.338573
7580 -5.441332320000001 14.39841168 0.6911145000000001 -0.162471 -0.789828 -0.010805
7600 -5.813906310000001 10.384807140000001 0.039367530000000005 -0.564539 -1.0459040000000002 0.173654
7620 -6.332129370000001 4.95873918 -0.10642868999999999 -0.553355 -0.908505 0.43527
7640 -6.94196802 2.8035214200000005 -0.14325543000000002 0.295287 0.509319 1.045063
7660 -6.612047909999999 2.40954201 -0.7491897000000001 0.349508 1.248046 0.8757159999999999
7680 -5.398227179999999 3.1741530300000003 -1.20723822 -0.532204 0.993932 0.719263
7700 -3.48251076 4.23798867 -1.35393696 -1.690133 0.416425 0.689483
7720 -1.84476069 4.47928524 -0.5623778700000001 -1.562377 0.243014 1.053793
7740 -1.05440823 4.12632144 0.8961827400000001 0.112394 1.694145 1.143748
7760 -0.77673618 3.0798495000000004 2.7476829 0.6239239999999999 1.573974 0.915671
7780 -1.06323723 3.1570836300000003 3.5199261 -0.014092 0.385946 0.199165
7800 -2.30012127 4.2804954 2.85231636 -0.5000439999999999 -0.587781 -0.427892
7820 -4.03201791 6.749466389999999 1.25483634 -0.1183 -0.495075 -0.765039
7840 -5.54701545 8.16252822 0.16375833 0.450565 -0.359039 -0.911859
7860 -5.50315494 9.18130653 0.43424946000000003 0.769972 -0.002336 -0.881243
7880 -4.56835023 13.499825490000003 1.64522529 0.8506309999999999 0.733124 -0.523768
7900 -6.20324559 15.246240929999999 2.36792799 0.605698 1.259574 -0.096728
7920 -7.026834330000001 14.556176100000002 3.2576753700000003 0.156595 1.260232 0.127666
7940 -4.32690651 12.16475316 1.55287395 -0.330057 0.945609 -0.157341
7960 -3.2437549800000003 11.99844423 1.2946551300000002 -0.7265510000000001 0.567493 -0.6264390000000001
7980 -3.0734043300000002 18.57637296 0.89199387 -0.80466 0.662944 -0.718974
8000 -5.98530663 18.34240446 0.2860596 -0.404527 0.997828 -0.6300819999999999
8020 -4.61326041 14.28330114 -2.76489945 0.06920499999999999 1.081202 -0.312823
8040 -0.42841251 9.42335847 -7.66540647 0.300849 1.191075 0.24733400000000005
8060 0.64725399 10.166858370000002 -6.793169939999999 0.18553 1.309271 0.625596
8080 -4.0058154 10.81695726 -3.3419530800000006 -0.19281 1.203894 0.665817
8100 -6.737037120000001 9.14552946 -0.5780934900000001 -0.27849 1.058541 0.592766
8120 -5.76257058 7.94517786 0.09789399 -0.055999999999999994 0.690224 0.33307800000000004
8140 -3.22908903 8.741377080000001 -0.53558676 0.212749 0.213866 -0.120565
8160 -2.10926772 8.31311172 -0.88166394 0.454588 0.082106 -0.413536
8180 -0.82493271 7.3685754900000004 -0.43963515000000003 0.569016 0.157282 -0.397878
8200 0.33305931000000005 7.25436747 0.23232042000000003 0.7960109999999999 0.018447 -0.241223
8220 0.10612458 6.52373829 0.5104339200000001 0.928508 0.099865 -0.204082
8240 -0.0038945700000000004 6.41326788 0.7789826700000001 0.884166 0.5467920000000001 -0.575637
8260 -1.1651729400000002 4.95919044 0.69590178 0.5201859999999999 0.918927 -0.880964
8280 -3.6956624400000004 5.135368230000001 0.62180685 -0.073567 0.599112 -0.8409040000000001
8300 -5.1263920800000005 4.6189404 -0.12633318000000002 -0.264122 -0.181377 -0.7653909999999999
8320 -6.151458600000001 4.04563419 -0.58394025 0.090911 -0.8901870000000001 -0.706455
8340 -6.511760280000001 4.34980305 -0.41208867000000005 0.110307 -0.771251 -0.62956
8360 -5.582341260000001 5.20542144 0.15253569 -0.273397 -0.521418 -0.703063
8380 -4.92056847 8.23827123 1.09287324 -0.8740000000000001 -0.228677 -0.662768
8400 -4.1387409 9.055267650000001 1.57876254 -1.462275 -0.093212 -0.197033
8420 -3.9594141000000005 9.43668045 1.60002081 -1.256356 0.015583 0.388583
8440 -5.699992590000001 10.441391220000002 2.3022108000000006 -0.454464 0.353016 0.823177
8460 -6.80679603 10.76561172 2.3397831 0.303632 0.585404 0.925383
8480 -7.14734037 10.394832959999999 2.24054514 0.666212 0.3092 0.685783
8500 -8.31206205 10.08946728 0.21644784 0.507985 -0.085235 0.361512
8520 -9.8478666 13.45282578 -0.47361699000000007 0.06314700000000001 -0.705172 0.201102
8540 -8.550817830000002 14.7614013 -1.07117352 -0.168558 -1.2136 0.208681
8560 -5.640122160000001 13.35642291 -5.53922631 -0.113716 -1.424328 0.378113
8580 -2.32511715 12.883257180000003 -7.48967994 0.173599 -1.448272 0.522224
8600 0.16226721000000002 9.42290721 -7.128622890000001 0.7231 -1.471353 0.489773
8620 -1.5612516900000002 9.020393100000001 -5.91958944 1.085281 -1.355558 0.256077
8640 -3.3362632800000003 10.26730296 -5.61496932 0.841842 -1.131336 -0.193496
8660 -4.05985869 11.766879180000002 -4.64438754 0.098344 -0.763877 -0.332688
8680 -4.342916430000001 12.84673455 -1.58475645 -0.518005 -0.8376309999999999 -0.002545
8700 -4.2529587300000005 11.55297213 0.6104272500000001 -0.774047 -1.097521 0.209644
8720 -4.4364744 9.0178425 0.95561172 -0.247063 -0.78015 0.305854
8740 -4.72268115 6.48930519 0.50355711 0.362959 0.398088 0.830965
8760 -5.17384305 4.67208117 -0.27557271000000005 0.143087 0.6225310000000001 0.8376879999999999
8780 -5.07399687 3.9420504 -1.10619522 -0.46302 0.53541 0.7726770000000001
8800 -4.64019867 4.327200810000001 -1.5606532800000001 -1.1118860000000002 0.625441 0.6654800000000001
8820 -3.7347356700000005 5.056181909999999 -1.59702876 -1.240852 0.641918 0.6528079999999999
8840 -3.22744095 5.055142050000001 -0.558189 -0.29976 1.4385139999999998 0.959599
8860 -2.7580128299999997 4.16882817 0.7481400300000001 0.7096020000000001 1.606968 1.114916
8880 -2.3918742 2.77178607 2.11735116 0.547061 0.599463 0.662146
8900 -2.52929268 3.2470511400000004 2.45549205 -0.341242 -0.608529 -0.172519
8920 -3.18193236 5.28895359 1.97873586 -0.482646 -0.7234659999999999 -0.87625
8940 -4.421504340000001 7.792799130000001 1.01489355 0.289774 -0.6350180000000001 -1.020519
8960 -5.56019028 9.29431773 0.42317397000000007 0.866994 -0.505428 -0.894876
8980 -5.345684820000001 11.46959694 0.20492109000000003 0.974615 0.077521 -0.51672
9000 -4.1851422000000005 14.520251880000002 0.6114769200000002 0.8296680000000001 0.873801 0.011085
9020 -6.668779140000001 14.94163062 2.0014852500000004 0.545027 1.231481 0.32055900000000004
9040 -6.77072466 12.60529083 1.78697979 0.10281300000000003 0.95563 0.15759
9060 -5.01980643 11.73439827 1.22430762 -0.32918400000000003 0.455358 -0.368215
9080 -5.80672539 12.26833695 2.77881984 -0.6184029999999999 0.247154 -0.797257
9100 -4.9832838 15.88241943 1.5549634799999998 -0.386815 0.526411 -0.77036
9120 -5.2676953200000005 16.08764463 -0.82299033 0.148196 0.881496 -0.522455
9140 -3.4178432400000003 12.70498005 -3.9763265400000005 0.31140300000000004 0.8535370000000001 -0.066217
9160 0.7171600499999999 9.281898270000001 -6.830742240000001 0.018704 0.795024 0.433878
9180 1.0759608 10.412343810000001 -4.917723570000001 -0.4624140000000001 0.784115 0.6484489999999999
9200 -3.1031973 11.24985294 -1.7266581 -0.76957 0.8118029999999999 0.650541
9220 -5.19929019 8.87489118 -0.66028167 -0.477952 0.761242 0.521251
9240 -5.22698382 6.39275517 -1.73593836 -0.033042 0.420191 0.176556
9260 -3.89715003 7.024293540000001 -2.37301938 0.407546 0.300748 -0.17165899999999998
9280 -3.2099202900000003 6.897352140000001 -1.9237998600000001 0.590665 0.329366 -0.29433000000000004
9300 -2.2227301800000006 6.56055522 -0.93719835 0.659582 0.031771 -0.258216
9320 -0.7717919400000001 6.826102110000001 -0.01856052 0.7077060000000001 -0.022406 -0.337927
9340 0.50714757 7.52455449 0.40266126 0.628218 0.117116 -0.793724
9360 0.87253083 7.485186960000001 0.5926221000000002 0.516609 0.377601 -1.102485
9380 -0.19774017000000002 6.1472697300000005 0.7059276 0.303385 0.456993 -1.058143
9400 -2.3640334200000006 5.4727733700000005 0.43888959000000005 0.171308 0.017656 -0.8331069999999999
9420 -3.9116688300000004 4.95963189 -0.53543961 0.229219 -0.581418 -0.7860020000000001
9440 -4.83045381 4.631222520000001 -1.8764960400000001 -0.12987200000000002 -0.758861 -0.589593
9460 -5.67798876 4.767140070000001 -1.8764960400000001 -0.76489 -0.749424 -0.5342210000000001
9480 -6.20534493 5.672151810000001 -0.48783168000000005 -1.233897 -0.672086 -0.553619
9500 -5.63338269 8.21611044 1.0054563300000001 -1.426119 -0.449831 -0.290327
9520 -4.0692861 9.36751995 1.66454118 -1.125432 -0.166683 0.035081
9540 -3.4886420100000004 9.573637860000002 1.6646883300000002 -0.366434 -0.046802 0.299807
9560 -4.90650093 10.290650759999998 2.0998305 0.334995 -0.008379000000000001 0.472368
9580 -5.9242295700000005 11.036701260000001 2.35310508 0.707172 -0.017248 0.502753
9600 -7.08896106 10.281066390000001 0.79754319 0.625812 -0.107397 0.473458
9620 -9.099275310000001 11.897705339999998 -1.96720911 0.129657 -0.455743 0.371094
9640 -9.458380170000002 15.07530168 -0.56282913 -0.272768 -0.932935 0.174479
9660 -9.25735365 14.25905082 -2.9011211100000005 -0.325291 -1.336043 0.062465
9680 -6.61744341 13.79965833 -6.05864619 -0.069505 -1.689314 0.00702
9700 -2.5747914599999997 11.93737698 -6.97968747 0.415433 -1.832555 -0.023592
9720 -0.18516375000000002 9.735306660000001 -7.481439540000001 0.830239 -1.651803 -0.03054
9740 -1.06039233 8.92623672 -6.61699215 0.8675309999999999 -1.198085 -0.040475
9760 -2.1806649 10.261466010000001 -4.95185256 0.646054 -0.642239 -0.057689
9780 -2.53991691 11.651170230000002 -2.42495352 0.45061 -0.363869 0.028183
9800 -3.12010974 12.2220828 0.46718163 0.088236 -0.602911 0.18085
9820 -4.06883484 10.87802451 1.1132388 -0.507115 -1.053699 0.208248
9840 -4.41162567 8.084685870000001 0.050148719999999994 -0.478446 -1.160973 0.369887
9860 -5.39957115 5.66317566 -0.69290973 0.320376 0.069626 0.957139
9880 -6.442001370000001 4.46880816 -1.1373321599999997 0.370413 0.75773 1.1958879999999998
9900 -6.753056850000001 3.95268444 -1.44838764 -0.262347 0.5317270000000001 0.98666
9920 -5.3678358 4.31268201 -1.5344605800000002 -1.070427 0.690946 0.76503
9940 -3.3876088200000005 5.022357030000001 -1.11682926 -1.316132 0.490984 0.634315
9960 -2.29008564 5.05962522 0.09624591 -0.523019 0.923502 0.74185
9980 -1.88128332 5.09944401 1.6396924500000003 0.602477 1.630184 0.996634
10000 -1.6733701800000003 4.8118932899999995 2.96727975 0.485437 0.796191 0.802469
10020 -2.32616682 4.644985950000001 3.42547542 -0.393667 -0.399461 0.070401
10040 -3.3968890800000002 5.41573803 3.05844408 -0.802606 -0.728517 -0.668039
10060 -4.766688810000001 6.1611901200000005 1.89565497 -0.08014500000000001 -0.432943 -0.884493
10080 -5.23506726 6.68539728 0.52076385 0.739002 -0.246177 -0.8811469999999999
10100 -4.06435167 8.005950810000002 -0.45879408 1.056543 0.31448400000000004 -0.705527
10120 -3.74521275 10.35097245 0.25686504 1.00393 1.190539 -0.227385
10140 -5.45240781 13.41585189 2.03187663 0.636335 1.504289 0.21723
10160 -7.75776762 13.018576320000001 2.8891431 0.15058 1.247975 0.26757600000000004
10180 -7.20107955 12.749134860000002 0.91265373 -0.330589 0.749911 -0.235074
10200 -5.491932300000001 12.61921122 2.03726232 -0.705382 0.434644 -0.7222609999999999
10220 -4.996007370000001 15.35312088 2.2788630000000003 -0.653266 0.665508 -0.692283
10240 -4.85410572 17.00493849 1.57472082 -0.055462 1.186707 -0.48154
10260 -4.58750916 16.350052320000003 -0.43993926 0.348925 1.366875 -0.06768099999999999
10280 -2.69230545 12.40305768 -3.10200048 0.089299 1.351748 0.476387
10300 0.8562168 8.96530995 -6.4973886300000006 -0.431361 1.346222 0.710971
10320 0.5198711400000001 9.68665887 -4.41147852 -0.778302 1.316477 0.7246090000000001
10340 -3.44793051 10.528504020000002 -1.6281657 -0.646414 1.167116 0.6659010000000001
10360 -5.93231301 8.315956620000001 -1.17461016 -0.241452 0.692096 0.292256
10380 -6.37749081 6.52957524 -1.7326422000000001 0.244196 0.292723 -0.15463
10400 -4.52135052 7.95266289 -1.4388032700000002 0.497411 0.16697 -0.361003
10420 -3.1991489100000003 8.042777549999998 -0.82163655 0.6188229999999999 0.241688 -0.237405
10440 -1.79881065 7.367525820000001 -0.45460521000000004 0.650007 -0.038089 -0.095824
10460 -0.21001248 7.650593370000001 -0.17872839 0.698974 0.05914700000000001 -0.212042
10480 0.7375158 7.922124360000001 0.42272271 0.739445 0.33766 -0.6319279999999999
10500 1.3503465000000001 7.669752300000001 0.8714909700000001 0.644759 0.719861 -1.0240479999999998
10520 -0.35700552 5.322631320000001 0.8780734800000001 0.028676 0.621831 -1.016476
10540 -2.9789536500000002 5.13132651 0.46508229 -0.240296 -0.17796099999999998 -0.841073
10560 -4.42075878 4.650077340000001 -0.6412698900000001 0.12133900000000003 -0.793246 -0.733073
10580 -5.047657020000001 4.2212233800000005 -1.5751720800000002 0.027803 -0.763853 -0.54362
10600 -5.71002822 5.10573222 -1.3822290000000002 -0.38127 -0.35775300000000004 -0.5128149999999999
10620 -5.715718020000001 6.4674485100000005 -0.10597743000000001 -0.864475 -0.148142 -0.564529
10640 -4.862189160000001 8.77864527 1.061442 -1.549504 -0.13405999999999998 -0.295867
10660 -3.5328066300000005 8.861127750000001 1.00246428 -1.48096 -0.079735 0.177765
10680 -3.5631882 8.772357060000001 0.86011137 -0.610691 -0.025631 0.544833
10700 -5.304070800000001 9.462726 1.9263406500000002 0.26365700000000003 -0.046091 0.6406970000000001
10720 -6.45292971 10.694057579999999 2.4411204 0.8968870000000001 -0.067945 0.495598
10740 -7.31154996 9.890079029999999 2.01496419 1.068217 -0.128457 0.294978
10760 -8.50336686 10.40830209 -0.56492847 0.658454 -0.5482130000000001 0.127079
10780 -9.72691911 13.014387450000001 0.38140299 0.199636 -1.098173 0.061554
10800 -9.34881228 13.99724154 -1.4365665900000002 0.061026 -1.456016 0.159321
10820 -6.414759000000001 14.55857955 -5.2605144 0.170456 -1.7421080000000002 0.213863
10840 -2.2936761 14.092889040000001 -6.66578709 0.400514 -1.849354 0.194243
10860 -0.26913735 11.11513221 -6.56010396 0.6783060000000001 -1.698238 0.257946
10880 -0.060321690000000004 8.44169139 -6.138136620000001 0.748639 -1.182173 0.07938300000000001
10900 -2.5252509599999997 9.77826465 -5.297929740000001 0.46697 -0.710446 -0.161402
10920 -3.1424176800000003 11.65162149 -4.138897860000001 0.133994 -0.703019 -0.131691
10940 -3.6137881800000002 12.994777260000001 -1.26487197 -0.269663 -1.104914 0.023033
10960 -4.311181080000001 12.287044620000001 0.66132153 -0.639977 -1.478145 -0.092307
10980 -4.820280840000001 9.976004820000002 0.33590421000000004 -0.169098 -0.224491 0.607993
11000 -5.11546374 6.871610700000001 -0.46418958 -0.030174 0.547532 1.095083
11020 -5.60300112 4.826863350000002 -0.5956141500000001 -0.581607 0.572921 1.08479
11040 -5.777236530000001 3.5833968 -0.6427610100000001 -1.19502 1.019437 1.042545
11060 -5.33415807 3.5075066400000003 -1.00530918 -0.894064 0.931473 0.934733
11080 -4.07871351 4.26582945 -1.42698222 -0.204829 1.801871 0.852974
11100 -3.0849310800000005 4.826264940000001 -1.0225257300000001 0.032844 1.414733 0.757922
11120 -2.63945898 4.69274103 0.04909905 -0.052233 0.528601 0.5213180000000001
11140 -2.13905088 4.54290309 1.42114527 -0.336984 -0.476988 -0.038062
11160 -2.08037727 4.47225147 2.4212159100000004 -0.126336 -0.668388 -0.573661
11180 -2.7854121600000004 4.810245210000001 2.60862615 0.525277 -0.5395340000000001 -0.860899
11200 -3.6245595600000002 5.99038821 1.93517946 0.941777 -0.18104 -0.829607
11220 -4.27974984 7.564373280000001 0.6195603599999999 0.957806 0.398127 -0.491611
11240 -4.1061128400000015 8.78493348 -0.61118262 0.737913 0.8985209999999999 0.03605
11260 -3.96600642 10.85991525 -0.06960195000000002 0.45682 1.1292870000000002 0.378826
11280 -5.5760530500000005 13.273351830000001 1.5024211200000002 0.160774 1.159452 0.284853
11300 -7.575301620000001 12.780723060000001 2.24966844 -0.164933 0.877974 -0.169988
11320 -7.20826047 13.81626666 0.14564907000000002 -0.446449 0.509742 -0.812416
11340 -6.177357000000001 14.380596720000002 1.64253735 -0.493443 0.396332 -0.915148
11360 -5.14196055 17.15312835 1.90763298 -0.135345 0.660956 -0.801891
11380 -4.81653342 17.149086630000003 1.03046202 0.214786 0.867975 -0.395922
11400 -3.57291972 15.1661619 0.32407335000000004 0.137349 0.930507 0.282846
11420 -0.11241279000000001 11.79547533 -5.31140868 -0.314346 0.867215 0.7839729999999999
11440 0.8735805000000001 9.43951554 -6.354731610000001 -0.619818 0.823408 0.81501
11460 -1.43805771 9.196875 -3.43460853 -0.345064 0.873885 0.741021
11480 -5.76989865 8.254281149999999 -1.3953940200000001 0.048488 0.580627 0.47709
11500 -7.094798010000001 6.41146284 -1.4480933400000002 0.304305 0.128601 0.076736
11520 -5.88141873 6.54244596 -2.15311842 0.381699 -0.076986 -0.25895
11540 -4.31866611 7.77273768 -1.7438746500000002 0.39764 -0.114233 -0.282291
11560 -2.7300249 8.18213841 -1.13613534 0.674025 -0.4618680000000001 -0.166684
11580 -0.9894464100000001 8.69092425 -0.15358536 1.019273 -0.340478 -0.18686
11600 0.59141547 8.75529747 0.8134059600000001 0.942921 0.048202 -0.6162489999999999
11620 1.64852145 8.3207439 1.1334474 0.559063 0.376195 -1.054117
11640 1.14916302 5.97991113 0.85936581 -0.222863 0.350465 -0.868334
11660 -0.50939406 4.19472657 0.33440328 -0.431296 -0.255726 -0.675665
11680 -3.53669139 4.98284235 -0.39861954000000005 0.088104 -0.8410200000000001 -0.7449939999999999
11700 -5.037778350000001 4.65591429 -1.33073631 0.104747 -0.909364 -0.7180850000000001
11720 -5.817349620000001 3.96854721 -1.82110878 -0.363862 -0.807269 -0.801605
11740 -6.32539971 3.8116755 -1.12910157 -0.8817200000000001 -0.758206 -0.900357
11760 -6.68150271 5.68742598 0.28470582000000005 -1.485355 -0.537234 -0.4925229999999999
11780 -5.7062808 8.88896853 1.2769971300000003 -1.322849 -0.373774 0.312774
11800 -3.96435834 9.05691573 1.1511054 -0.344787 -0.205425 0.787271
11820 -4.30400016 9.078772410000001 0.89019864 0.548349 -0.07258400000000001 0.891616
11840 -5.92273845 10.398276270000002 1.3781872800000001 1.023822 -0.156362 0.65149
11860 -7.0720388100000005 11.48052528 1.57337685 0.92117 -0.299556 0.319807
11880 -7.436980620000001 10.604698290000002 1.12940568 0.367534 -0.7303430000000001 0.104984
11900 -9.143135820000001 11.0390949 -1.0681814699999999 -0.129437 -1.243869 0.01885
11920 -9.24372756 14.031223379999998 -0.91190817 -0.24850300000000006 -1.524024 0.11879
11940 -8.34798627 14.63506812 -3.15798615 -0.033917 -1.715515 0.134421
11960 -4.85470413 14.190037470000002 -6.04921878 0.367353 -1.795316 0.029436
11980 -1.65301443 12.67863039 -6.5369033100000005 0.787804 -1.526242 0.041642
12000 0.45489951000000006 9.40344417 -6.1851363300000015 0.976008 -0.959092 0.039025
12020 -0.0464013 8.408916180000002 -5.793099300000001 0.920276 -0.516904 0.062638
12040 -2.5469506800000006 10.11596409 -5.66257725 0.5462819999999999 -0.453635 0.016148
12060 -3.53669139 11.305387350000002 -4.731215850000001 -0.227488 -0.817131 -0.052885
12080 -4.31926452 12.504846240000001 -0.9225324 -0.589935 -1.331991 0.077703
12100 -5.51917467 11.37304692 1.0380942 -0.185745 -0.538956 0.674509
12120 -6.26551947 8.793468180000001 0.5707654200000002 0.200074 0.693924 1.049502
12140 -5.703592860000001 5.9201878500000005 -0.34083863999999997 -0.21402 1.03571 1.183972
12160 -5.38684758 4.41416646 -0.83227059 -1.545684 0.556349 0.737314
12180 -5.142558960000001 3.75255063 -1.19481876 -2.005297 -0.097235 0.7456229999999999
12200 -4.29816321 4.51640628 -1.5597605700000001 -0.168407 1.164432 0.656424
12220 -3.1753498500000004 5.28281253 -1.3684557600000002 0.8999540000000001 1.449676 0.8579379999999999
12240 -2.30820471 5.07744018 -0.27932013 0.5804239999999999 0.71112 0.948519
12260 -1.9154123100000002 4.5087741 1.3627659600000002 -0.232812 -0.279175 0.485841
12280 -1.5968816099999998 4.07243511 2.9722239900000003 -0.634881 -0.5855560000000001 -0.334833
12300 -1.9699068600000003 4.46072472 3.87634302 -0.05103 -0.459185 -0.741114
12320 -3.44254482 4.91487867 3.22249671 0.662133 -0.487757 -0.8738969999999999
12340 -4.6030776300000005 6.02228052 1.39464846 0.996058 -0.134661 -0.753444
12360 -4.827314610000001 7.1917992900000005 -0.30850488000000004 1.0111450000000002 0.573001 -0.31413800000000003
12380 -4.2227145 8.89480548 -0.91175121 0.741653 0.930928 0.186654
12400 -4.74423372 11.18743191 -0.004492980000000001 0.265248 0.938437 0.320049
12420 -7.172336250000001 13.227843240000002 1.52518032 -0.13432 0.942298 -0.032056
12440 -8.27853147 13.07740689 1.34121339 -0.375707 0.6128140000000001 -0.542862
12460 -6.6464810100000005 12.21235128 1.33521948 -0.50772 0.41936 -0.800977
12480 -4.07722239 13.551622290000001 0.9668441700000001 -0.216002 0.609736 -0.710521
12500 -5.063519790000001 17.89019289 2.69574876 0.075518 0.6854560000000001 -0.452209
12520 -6.46535898 19.021099500000002 2.3890293000000002 -0.06565700000000001 0.565962 -0.018275
12540 -6.15789396 14.11115526 -1.15813917 -0.18299 0.775518 0.425017
12560 0.03697389 9.23609538 -7.222180860000001 0.036239 1.234633 0.7720640000000001
12580 0.22842585 10.691369640000001 -5.99937417 0.120799 1.352357 0.829119
12600 -1.68714342 9.89157996 -2.08621422 -0.093803 1.141822 0.651633
12620 -4.41327375 8.849601 0.11197134000000002 -0.270679 0.609063 0.30284
12640 -5.02025769 7.74669213 -0.9096616800000001 -0.091973 0.090199 -0.099034
12660 -3.94594497 8.026012260000002 -2.19668463 0.21930300000000005 0.012389 -0.35740700000000003
12680 -2.45145033 8.21266713 -2.1288681 0.492192 0.213775 -0.339735
12700 -1.8467128800000001 8.00700048 -1.4745803400000002 0.6559689999999999 -0.034366 -0.232519
12720 -1.29675447 8.30143782 -0.7123727700000001 0.989854 -0.15546500000000002 -0.341127
12740 -0.6197075100000001 8.491388850000002 0.34518447 1.087487 -0.17134100000000002 -0.717507
12760 0.03143124 7.700290830000001 0.98660151 1.095122 -0.036689 -1.096845
12780 -0.17274429 6.1034092200000005 0.92403333 0.617707 0.108587 -1.315079
12800 -1.21651848 4.50533079 0.66088008 0.122619 -0.276679 -0.97728
12820 -3.62620764 4.79947383 0.04371336 0.239359 -0.973327 -0.822816
12840 -5.36873832 4.90799205 -1.00681011 0.031479 -1.190808 -0.6018
12860 -6.7479654600000005 5.38878996 -1.5172440300000003 -0.667261 -0.808587 -0.475779
12880 -7.27891209 5.30481636 -0.6655202100000001 -1.209923 -0.5083260000000001 -0.501319
12900 -5.77304766 4.58496837 0.83540979 -1.392255 -0.350571 -0.36713
12920 -3.42502416 6.03664236 1.89730305 -1.178914 -0.180413 0.051817
12940 -1.88921961 9.23698809 1.5798122100000003 -0.452237 0.045291000000000005 0.254225
12960 -1.5763689 10.21206285 1.16577135 0.228163 0.056476 0.330534
12980 -3.37309002 10.18212273 1.06368849 0.693348 0.026233 0.297502
13000 -5.29688988 10.4809059 1.17925029 0.6355029999999999 -0.013032 0.309967
13020 -6.6128032800000005 10.270442160000002 1.48027014 0.122575 -0.165829 0.337559
13040 -7.979905260000001 10.16207109 -0.55923867 -0.329075 -0.496563 0.320941
13060 -10.243651049999999 12.34572804 -0.06541308000000001 -0.457963 -0.912689 0.333392
13080 -10.358006220000002 13.04791803 -0.6768900000000001 -0.160718 -1.203638 0.374297
13100 -9.633213990000002 13.95981639 -3.2635123200000002 0.43749 -1.304671 0.346559
13120 -6.659351730000001 14.207999580000001 -6.016286610000001 0.919493 -1.194193 0.272872
13140 -2.92028004 12.188405070000002 -7.022645460000001 0.970127 -0.989267 0.13089
13160 -0.33919056000000003 9.4860738 -7.29388215 0.7811239999999999 -0.661125 0.019122
13180 -0.34503732000000004 8.26431678 -6.25100067 0.6096630000000001 -0.431187 -0.058214
13200 -1.69417719 9.772280550000001 -4.59005976 0.407398 -0.627326 -0.11706
13220 -1.6938730800000001 11.55207942 -2.153569680000001 -0.1293 -1.132451 -0.138321
13240 -1.93922118 12.41188668 0.9695321100000001 -0.707234 -1.503305 0.13051400000000002
13260 -3.5224767000000003 11.75505813 1.4596102800000001 -0.008761 -0.33066 0.911556
13280 -4.56430851 9.49729644 0.019011780000000002 0.350373 0.509948 1.372323
13300 -5.329812240000001 6.49439658 -1.2350790000000003 -0.102756 0.561656 1.355204
13320 -6.633002070000001 5.10977394 -1.62367272 -0.853576 1.026774 1.042784
13340 -7.52410323 4.60352889 -1.77965172 -1.171386 0.7584930000000001 0.743942
13360 -6.711589980000001 5.013371070000001 -1.63654344 -0.710303 1.005225 0.7137319999999999
13380 -4.31612532 5.604796350000001 -1.0731159000000003 0.254745 1.347217 0.932611
13400 -2.60668377 5.550753060000001 0.26599815 0.318364 0.7357239999999999 0.883632
13420 -1.76587848 5.3130469499999995 1.86347817 -0.19149 -0.230877 0.36001700000000003
13440 -1.5027252300000002 4.74079041 3.1886718300000005 -0.394873 -0.880215 -0.381917
13460 -1.91796291 4.01779341 3.2665043700000003 0.288921 -1.022824 -0.74229
13480 -3.0072456900000004 4.052226510000001 2.71879245 0.992861 -0.872778 -0.7802939999999999
13500 -4.154015070000001 4.90964013 1.82051037 1.276286 -0.310915 -0.609187
13520 -4.8705669 5.44028265 0.6586335900000001 1.211176 0.360791 -0.166122
13540 -4.64019867 6.75724572 -0.87388461 0.947881 0.8234440000000001 0.246984
13560 -4.35309921 9.60357798 -0.7969447800000001 0.586577 0.839993 0.417491
13580 -5.08043223 12.228675120000002 0.7095278700000001 0.179323 0.547775 0.05503
13600 -7.0853706 14.844933450000003 2.2617936 -0.293587 0.167098 -0.506466
13620 -6.869962620000002 14.015654910000002 0.44277435000000004 -0.5783119999999999 0.095949 -0.848058
13640 -6.09802353 13.59771948 1.5766730100000002 -0.389126 0.466845 -0.790596
13660 -5.66482374 14.392123470000001 2.12498334 0.014561 0.77031 -0.5734520000000001
13680 -5.095255139999999 16.08001245 1.66693482 0.103197 0.771356 -0.113499
13700 -4.3722581400000005 16.59928518 -0.14699304000000002 0.025897000000000003 0.973953 0.436904
13720 -2.44546623 14.15786067 -3.2332779 -0.324499 1.132852 0.6970350000000001
13740 -0.48902850000000003 9.759252870000001 -5.9737798799999995 -0.80323 0.96195 0.69391
13760 -1.0811993400000002 9.983342700000001 -5.38400268 -0.891978 0.53779 0.549624
13780 -4.5173088 9.93453795 -3.3129154800000005 -0.599454 -0.046493 0.158242
13800 -6.63076539 7.5456558000000005 -2.8636959600000003 -0.035094 0.07650599999999999 -0.187282
13820 -6.93044127 5.58204696 -2.7388539 0.5856899999999999 0.447476 -0.25606
13840 -5.370082290000001 6.85678779 -2.06839926 0.97037 0.131775 -0.2284
13860 -3.7919181600000003 7.619750730000001 -1.29869685 0.942727 -0.012339 -0.395051
13880 -1.91122344 7.702380360000001 -0.56313324 0.559577 -0.098242 -0.6913779999999999
13900 -0.32856633 7.991284860000001 0.29443734 0.423148 0.114333 -0.985296
13920 1.1156324400000002 8.14440915 0.7530842700000001 0.260963 0.208139 -1.126486
13940 1.7028590399999999 7.838749170000001 0.85322475 0.262488 -0.107309 -0.830174
13960 0.8610138900000001 6.585551100000001 0.4504163400000001 0.480136 -0.649908 -0.659179
13980 -1.22998761 5.9894955 -0.06960195000000002 0.418369 -0.898711 -0.457398
14000 -3.89490354 5.89968495 -0.5415708599999999 -0.218433 -0.832723 -0.423475
14020 -5.40391698 5.24928195 -1.22220828 -1.016211 -0.900813 -0.552874
14040 -6.27001245 4.87221498 -1.30184586 -1.382763 -0.8799239999999999 -0.397364
14060 -5.705682390000001 4.56430851 -0.8890018199999999 -1.047562 -0.468182 -0.025945
14080 -4.467160080000001 6.004759860000001 -0.4939727400000001 -0.200675 -0.157264 0.340631
14100 -3.4937334000000004 9.183248910000001 0.07304525999999999 0.5401090000000001 -0.054364 0.605251
14120 -2.72957364 9.75461274 1.06503246 0.903823 -0.087542 0.595016
14140 -4.17826539 9.434129850000001 1.95852726 0.8034899999999999 -0.228348 0.463104
14160 -6.51101472 10.33840584 2.88256059 0.286723 -0.689392 0.323353
14180 -7.070243580000001 10.45545876 1.9570263300000001 -0.163224 -1.236961 0.185247
14200 -7.864343460000001 10.52401104 -0.69036894 -0.192597 -1.594814 0.190842
14220 -9.72707607 13.40657163 -0.8346642300000001 0.11337 -1.883505 0.192281
14240 -10.21251411 14.29691742 -2.65053447 0.540966 -1.960523 0.16759200000000002
14260 -8.81007651 14.342573159999999 -5.401219230000001 0.91858 -1.7232759999999998 0.183813
14280 -5.05005066 12.644658360000001 -6.539149800000001 0.972479 -1.239369 0.06927
14300 -1.7173778400000002 10.4029164 -6.32868606 0.609891 -0.7067359999999999 -0.14759
14320 -0.28291059 7.87751829 -6.368504850000001 0.076251 -0.6468109999999999 -0.28492199999999995
14340 -1.52982045 8.348143230000002 -5.107380300000001 -0.493908 -1.09275 -0.160147
14360 -1.71408168 10.638523170000001 -3.9431000700000003 -0.5850270000000001 -1.531858 -0.027761
14380 -2.4766031700000006 12.64779756 -1.97244765 0.028037 -0.468359 0.417403
14400 -3.9808195200000003 13.136080500000002 0.5441214600000001 0.224641 0.525165 0.873633
14420 -5.280124590000001 11.054064960000002 0.6209043299999999 -0.535483 0.482797 0.938881
14440 -5.3055717300000005 7.344178020000001 -0.61686261 -1.543831 0.245328 0.725975
14460 -6.16851819 5.4256167 -1.3793841 -1.086869 0.25040500000000004 0.658658
14480 -6.8752011600000005 4.54440402 -1.67650938 0.483079 1.523521 0.86775
14500 -5.982756030000001 4.41791388 -1.9243982700000002 0.866577 1.718907 0.957773
14520 -3.9104720100000003 4.85544969 -1.67516541 0.497853 0.97076 0.825833
14540 -2.33349489 5.154527160000001 -0.5999501700000001 -0.35943600000000003 -0.3369 0.113289
14560 -1.66947561 4.70531745 0.94513464 -0.754379 -0.8864719999999999 -0.636521
14580 -1.06787736 4.19352975 2.2290183900000002 -0.111896 -0.944852 -0.97913
14600 -1.4735404799999998 3.8815815600000003 2.8599485400000004 0.689277 -0.72923 -0.983424
14620 -2.30371173 4.211197560000001 2.45159748 1.144333 -0.129891 -0.7428
14640 -3.6920719800000006 5.461089660000001 1.4688905399999999 1.253433 0.668804 -0.239929
14660 -4.605471270000001 7.37980794 0.36748260000000005 0.923633 1.101661 0.222957
14680 -4.82371434 8.94434598 -0.42601887000000005 0.375389 1.098491 0.425299
14700 -4.6407970800000005 10.90362861 -0.36269532000000004 -0.030223000000000007 0.931979 0.060551
14720 -5.926024800000001 13.43455956 1.04916969 -0.391794 0.41768 -0.481835
14740 -8.306676359999999 12.98130813 1.8154287900000001 -0.543794 0.231975 -0.7956479999999999
14760 -7.558085070000001 12.302318790000001 0.42361542 -0.275269 0.454511 -0.735305
14780 -6.36716088 13.76013384 0.86070978 -0.001449 0.557207 -0.547654
14800 -6.3191115 16.75271358 2.21569641 -0.048151 0.49202 -0.190042
14820 -6.8374817100000005 16.30200294 1.9893600900000001 -0.096344 0.656589 0.254859
14840 -5.49686673 13.63544874 -0.47242017000000003 -0.029127 0.942829 0.542313
14860 0.22692492 9.70955541 -5.01396948 -0.10573 0.977237 0.5289159999999999
14880 1.601973 10.169850420000001 -4.61190663 -0.111884 0.667775 0.401082
14900 -0.18381978000000002 10.460393190000001 -2.00298618 -0.169209 0.258792 0.16406099999999998
14920 -3.0292495200000005 10.080491129999999 -0.36763956000000003 -0.089672 0.194319 -0.031854
14940 -4.8617379 8.243362620000001 -1.43446725 0.232223 0.536475 -0.095205
14960 -5.137761870000001 7.5657172500000005 -2.33708535 0.600479 0.824902 -0.08232
14980 -4.387081050000001 7.343275500000001 -2.55983121 0.717923 0.554124 -0.13456400000000002
15000 -3.8345720400000003 6.88852314 -1.74956445 0.894943 0.419639 -0.488873
15020 -2.76999084 7.20512127 -1.14272766 0.742024 0.62324 -0.921764
15040 -1.40392872 7.82632971 -0.16930098000000005 0.304004 0.5986560000000001 -1.054047
15060 -0.43274853 7.47500418 0.7491897000000001 -0.429119 0.154695 -0.749883
15080 0.11061756 7.007822550000001 0.9369040500000001 -0.185994 -0.6893229999999999 -0.614643
15100 -0.24473988000000002 5.594760720000001 0.66715848 0.21794 -0.927484 -0.281436
15120 -2.3393318400000003 5.326977149999999 0.36688419000000005 0.055458000000000014 -0.584605 -0.105686
15140 -4.14053613 5.328919530000001 -0.37886220000000004 -0.432355 -0.47926 -0.18614
15160 -5.34882402 5.31110457 -1.2380710499999998 -0.987782 -0.47059 -0.27442
15180 -6.33482712 5.34343833 -0.98719992 -1.418514 -0.29790300000000003 0.07059
15200 -6.30084528 4.90650093 -0.04999176 -0.991927 0.025132 0.435283
15220 -5.195101320000001 6.02796051 0.7699967099999999 -0.183183 0.270636 0.6766949999999999
15240 -4.04952876 8.72700543 0.95276682 0.5241319999999999 0.189637 0.605895
15260 -3.47457447 9.5062824 1.11293469 0.844143 -0.061921 0.367035
15280 -4.75545636 10.13213097 2.03591835 0.569662 -0.297831 0.193436
15300 -5.473518929999999 11.239679970000001 3.0551479200000005 0.042939 -0.775071 0.116661
15320 -6.0257238300000004 11.600275950000002 3.35407824 -0.26967 -1.180142 0.187636
15340 -6.507718560000001 11.066641380000002 1.29450798 -0.217703 -1.326909 0.34842
15360 -8.199502110000001 12.512929680000001 -0.12094749 0.171853 -1.44792 0.435686
15380 -9.50702796 13.983174 -2.6490433500000004 0.696965 -1.429403 0.411556
15400 -8.8268418 13.54413726 -6.831046350000001 0.95446 -1.365351 0.154763
15420 -5.88725568 13.59412902 -7.535924280000001 0.657188 -1.212465 -0.257707
15440 -3.5654346900000005 9.67662324 -6.45771699 0.131937 -0.948035 -0.395242
15460 -1.9091339100000002 7.44551532 -6.4179080100000006 -0.297709 -0.946157 -0.226262
15480 -3.35976804 8.664878700000001 -5.5283077800000004 -0.611414 -1.262125 -0.059269
15500 -2.99302119 10.15279083 -4.73330538 -0.102725 -0.378256 0.6417689999999999
15520 -2.6617669200000003 11.844417420000001 -2.22182766 0.325192 0.47211 1.0004540000000002
15540 -2.83765041 12.223279620000001 0.97402509 -0.232154 0.499017 0.8822270000000001
15560 -3.71048535 10.7498961 1.22594589 -0.937856 0.566705 0.81739
15580 -3.75688665 7.90341669 0.6336279 -1.047877 0.614715 0.89454
15600 -4.46326551 5.662871550000001 -0.39053610000000005 -0.587621 1.42696 0.902056
15620 -5.05304271 4.57703208 -1.4711370300000002 0.06535099999999999 1.406688 0.876732
15640 -5.53998168 4.52718747 -1.99744353 0.245366 0.7905310000000001 0.561517
15660 -4.93793217 5.114561220000001 -1.8965574900000002 0.030666 -0.019449 0.0419
15680 -3.79072134 5.45675364 -1.2344805900000002 0.0928 -0.299651 -0.535215
15700 -2.97296955 5.04211437 0.29593827000000006 0.539434 -0.435348 -0.820342
15720 -2.2390442100000003 4.17542049 1.9247023800000003 0.8772840000000001 -0.515351 -0.820016
15740 -1.85240268 3.53833947 2.81729466 0.87575 -0.145582 -0.582287
15760 -2.2956282900000002 3.87125163 2.7057745800000004 0.673655 0.413756 -0.158194
15780 -3.5094490200000004 4.97115864 1.61573643 0.415613 0.845549 0.242169
15800 -4.808597130000001 6.782241600000001 0.46044216 0.200855 1.05174 0.279929
15820 -5.41827882 8.50456368 -0.28396026 -0.033647 0.941231 -0.118946
15840 -4.7503747800000005 10.890002520000001 -0.04190832 -0.279692 0.676027 -0.716392
15860 -5.64670467 13.86985869 1.63086345 -0.419971 0.580454 -0.936235
15880 -7.28415063 13.651762770000001 2.09578878 -0.233815 0.789287 -0.841199
15900 -6.016286610000001 14.86364112 0.71341263 -0.058391 0.914391 -0.5773510000000001
15920 -5.89997925 14.864985090000001 1.1443659300000002 -0.011981 0.889569 -0.005496
15940 -4.80067065 17.35655832 1.16113122 -0.14786 0.888855 0.556508
15960 -4.76099901 17.111514330000002 0.09834525 -0.520471 0.8306040000000001 0.79433
15980 -2.8993160700000002 14.69943153 -2.58871185 -0.718137 0.754637 0.782365
16000 0.46328706 10.309515390000001 -6.03469998 -0.481164 0.540663 0.5407390000000001
16020 -0.06660990000000001 9.254803050000001 -4.80995091 -0.066035 0.11704 0.092324
16040 -3.5334050400000003 9.38562921 -2.49725322 0.415702 0.109401 -0.279247
16060 -6.06763215 7.95026925 -1.7232147899999999 0.7064729999999999 0.184237 -0.331791
16080 -5.76870183 6.40098576 -3.0199692600000003 0.903345 -0.29519 -0.22298
16100 -4.36716675 6.818774040000001 -3.3326728200000004 0.955679 -0.432191 -0.373058
16120 -3.0735612900000002 7.56212679 -2.3682222900000003 0.7280310000000001 -0.232615 -0.800056
16140 -1.9217005200000001 7.947120240000001 -1.1573936100000002 0.59818 0.114842 -0.997961
16160 -0.56641959 8.42941908 0.26315325 0.317729 0.396047 -0.7481800000000001
16180 0.65204127 8.692719480000001 1.0856923200000002 0.235817 0.125144 -0.596717
16200 1.3481000100000002 8.10025434 0.9981282600000001 0.319989 -0.461765 -0.68404
16220 0.7277842800000001 6.202951290000001 0.42391953000000004 -0.123151 -0.838066 -0.501851
16240 -1.25543475 5.0488538400000005 -0.17423541000000003 -0.819918 -0.8473959999999999 -0.494955
16260 -3.9938472 5.50195812 -0.94453623 -1.182368 -0.91272 -0.627726
16280 -5.158421730000001 5.210218530000001 -2.02034988 -1.257425 -0.555345 -0.42361
16300 -5.716757879999999 4.69484037 -2.18889549 -1.011297 -0.145879 0.061489
16320 -5.46947721 4.035608370000001 -1.09377576 -0.391785 0.08189400000000001 0.372104
16340 -5.387750100000001 5.473371780000001 0.5092371000000001 0.209566 0.199365 0.57698
16360 -4.86128664 8.864119800000001 1.27160163 0.523931 0.137469 0.598483
16380 -3.61049202 9.24372756 1.4229405000000002 0.445498 -0.08768200000000001 0.4946060000000001
16400 -4.474645110000002 9.40314987 1.3696525800000003 0.032697000000000004 -0.465903 0.331974
16420 -6.407421120000001 10.268941230000001 2.06660403 -0.314289 -0.935896 0.15175999999999998
16440 -7.34432517 10.987896509999999 1.78039728 -0.344413 -1.327416 0.052706
16460 -7.99068645 10.530750509999999 -1.0728215999999997 -0.060925 -1.5005540000000002 -0.051914
16480 -9.584870310000001 13.09386807 -1.14287481 0.351793 -1.576408 -0.08845800000000001
16500 -10.024054200000002 14.005177830000001 -0.7309332900000001 0.618338 -1.427999 -0.136993
16520 -9.07712433 13.909226220000003 -3.45840759 0.6524340000000001 -0.903179 -0.076538
16540 -5.906865870000001 13.18443399 -6.056105400000001 0.519515 -0.553362 -0.06296
16560 -1.8618300900000002 11.83843332 -6.905886840000001 0.236597 -0.774191 -0.004833
16580 0.50444982 9.103022730000001 -6.959930129999999 -0.28525900000000004 -1.116166 -0.079611
16600 -1.25514045 8.76981627 -6.58690488 -0.448505 -1.20887 0.067851
16620 -2.35415475 10.55710017 -5.1522904800000004 0.212858 -0.201406 0.6309279999999999
16640 -2.41657578 11.83528431 -3.19585275 0.462988 0.438998 1.16917
16660 -2.7334682100000003 12.22342677 0.31658832000000003 -0.131832 0.580505 1.195812
16680 -4.04967591 10.71770949 1.04527512 -0.98753 0.558917 0.943103
16700 -4.6622025 7.86135141 0.05583852 -1.12349 0.425179 0.673133
16720 -5.28910074 5.66602056 -0.70323966 -0.6370520000000001 0.8994969999999999 0.450528
16740 -5.826933990000001 4.53227886 -1.2114270900000004 0.255564 1.759397 0.686397
16760 -5.626800179999999 4.104013500000001 -1.5619972500000001 0.481864 1.449122 0.826176
16780 -4.47823557 4.63990437 -1.5492736800000002 0.17108099999999998 0.7498739999999999 0.670009
16800 -3.0277584 5.05214019 -0.99438084 -0.445495 -0.170873 -0.039212
16820 -2.40145857 4.78794708 0.19654335 -0.5151220000000001 -0.622977 -0.670439
16840 -2.19592926 4.5075772800000005 1.7594431200000002 0.086773 -0.5985 -0.919434
16860 -2.18126331 4.53706614 2.8542685500000005 0.710067 -0.2759 -0.8823790000000001
16880 -2.69080452 5.199888600000001 3.33581202 1.023875 0.256714 -0.615951
16900 -3.7570338 5.661821880000001 2.6812201500000006 0.990368 0.88551 -0.125608
16920 -4.5435015000000005 5.9029713 0.8586104400000001 0.68083 1.256749 0.27767800000000004
16940 -4.21568073 6.83298873 -0.29728224000000003 0.252793 1.2686540000000002 0.335562
16960 -4.38423615 8.60185926 -0.24009975 -0.071212 0.988907 -0.020993
16980 -5.64431103 11.40688161 1.16413308 -0.391863 0.551196 -0.570669
17000 -7.896078810000001 12.56547204 2.05297794 -0.464003 0.471175 -0.743054
17020 -7.46467425 14.02014789 0.69889383 -0.18179 0.730635 -0.604683
17040 -5.49358038 13.805495280000002 1.17056844 0.004173 0.792987 -0.374865
17060 -4.4161186500000005 16.60137471 1.42548129 0.036495 0.8326309999999999 0.071827
17080 -5.27727969 17.544262860000003 2.93105142 0.125048 1.095562 0.575241
17100 -5.517075330000001 16.618444110000002 2.0070279 -0.159356 1.126773 0.7419939999999999
17120 -3.6588455100000004 12.75467751 -0.80996265 -0.574032 0.882476 0.656089
17140 0.23770611 8.84151756 -5.03238285 -0.50805 0.524542 0.333337
17160 -0.13277835000000002 9.147030390000001 -4.62103974 -0.149776 0.057338 -0.089782
17180 -1.81572309 9.935891730000002 -2.21718753 0.283435 0.053651 -0.342056
17200 -4.35489444 9.864190440000002 -1.2693649500000002 0.590588 0.27837 -0.328448
17220 -5.5401288300000004 8.15698557 -2.12378652 0.835003 0.183288 -0.20591
17240 -5.559591870000001 7.40285163 -2.5105752 0.8008390000000001 0.131397 -0.25308400000000003
17260 -4.177666980000001 8.06971581 -2.26898433 0.636911 0.31245100000000003 -0.632612
17280 -3.39074802 7.767047880000001 -1.5964303499999999 0.396173 0.545767 -0.961468
17300 -2.42495352 7.5258984600000005 -0.77658903 0.224435 0.611222 -0.664718
17320 -1.13883309 7.394022629999999 0.14220576000000001 0.258391 0.051056 -0.470415
17340 0.12678444 7.48114524 0.85037985 0.496609 -0.48403 -0.59732
17360 0.7018858800000001 6.70950045 0.7599708900000002 0.1551 -0.562403 -0.415871
17380 -0.03831786 4.92056847 0.40775265 -0.481838 -0.389484 -0.482498
17400 -2.30715504 4.74468498 0.10733121 -1.039117 -0.377372 -0.630616
17420 -4.5580203 5.04990351 -0.58992435 -1.484967 -0.288614 -0.329401
17440 -5.847741 5.010231870000001 -1.41904593 -1.232147 -0.08251599999999999 0.125027
17460 -6.49514214 4.88524266 -1.2772914300000002 -0.418116 0.16717 0.381425
17480 -5.80957029 4.864288500000001 -0.5084915400000001 0.24085 0.249431 0.550429
17500 -4.788388530000001 7.41377997 0.27468 0.513622 0.164351 0.544966
17520 -3.90179016 9.90894366 0.6375224700000001 0.320265 -0.031486 0.402861
17540 -3.5929811700000003 9.859246200000001 0.89797797 -0.158878 -0.388431 0.304899
17560 -5.22742527 10.24334694 1.97184924 -0.468932 -0.865282 0.209341
17580 -6.193366920000001 11.550725640000001 2.4234624 -0.37959 -1.1713 0.20288
17600 -6.972948000000001 10.802291310000001 2.0158569 0.021581 -1.392192 0.216647
17620 -8.290960740000001 10.33585524 -0.72718587 0.468136 -1.512996 0.20283
17640 -9.604176390000001 12.947473440000001 -0.78721326 0.750584 -1.430515 0.110693
17660 -9.890677440000001 14.11713936 -1.3594698 0.655241 -1.086032 -0.172425
17680 -7.9694281799999995 13.640834430000002 -4.53152349 0.23168200000000005 -0.8280200000000001 -0.391495
17700 -4.19218578 12.39347331 -6.298598790000001 -0.182195 -0.833834 -0.177529
17720 -0.53364438 9.86897772 -6.5129571 -0.59865 -1.133823 0.078456
17740 0.0085347 7.62409656 -6.9757929 -0.6046239999999999 -1.294475 0.298674
17760 -2.4168700800000003 9.11813994 -6.290819460000001 0.299336 -0.004306 0.816082
17780 -2.42181432 11.29416471 -4.648282110000001 0.241605 0.752066 1.1255620000000002
17800 -2.36508309 13.39743852 -1.66258899 -0.354639 0.475333 1.050181
17820 -3.41918721 12.967083630000001 0.5762982600000002 -1.053005 0.580964 0.814431
17840 -4.06060425 10.80378243 0.37077876000000004 -1.388927 0.448576 0.64668
17860 -4.10446476 7.3272655800000015 -0.8198413200000001 -0.6174810000000001 0.977318 0.685574
17880 -5.265900090000001 5.35286574 -1.51514469 0.6223609999999999 1.822763 1.038187
17900 -5.998628610000001 4.297859100000001 -1.71947718 0.541637 1.033244 0.8794700000000001
17920 -5.689966770000001 4.154015070000001 -1.6780103100000001 -0.195355 -0.200796 0.300131
17940 -4.37780079 4.40024607 -1.49823225 -0.6768069999999999 -1.078951 -0.521433
17960 -3.21606135 4.544247060000001 -0.6554845799999999 -0.180158 -1.104701 -0.905695
17980 -2.72672874 4.235438070000002 0.9018725400000001 0.546898 -1.039932 -0.949838
18000 -2.13605883 3.9145137300000004 2.06061012 0.968593 -0.569114 -0.7744439999999999
18020 -2.0915999100000002 3.8529854100000005 2.4039993600000003 1.055591 0.224623 -0.34436
18040 -2.76085773 4.330644120000001 2.16360531 0.911514 0.8764290000000001 0.08215599999999999
18060 -3.7672165800000004 5.74280343 1.28208852 0.528209 0.985721 0.255595
18080 -4.71549042 7.484588550000001 0.15237873000000005 0.163658 0.842981 0.037451
18100 -4.85874585 9.56780091 -0.16540641000000003 -0.194467 0.479551 -0.407897
18120 -4.70396367 11.75939415 0.47720745000000003 -0.463225 0.187735 -0.724526
18140 -6.16987197 13.874351670000001 1.46096406 -0.277021 0.335073 -0.70205
18160 -7.781713830000001 12.86574633 2.4780942900000005 0.029308 0.555876 -0.5079130000000001
18180 -6.246811800000001 11.92570308 0.5944173300000001 0.070362 0.591421 -0.109225
18200 -4.72013055 13.393848060000002 1.68399441 0.099896 0.779984 0.39494
18220 -5.57994762 15.37767531 2.8916838900000004 0.005647999999999999 0.99325 0.689906
18240 -5.19405165 16.70031837 0.79679763 -0.318196 0.881394 0.704879
18260 -5.628742560000001 16.249607730000005 -1.1726579700000002 -0.449197 0.5447609999999999 0.553776
18280 -2.2080544200000003 9.983185740000001 -4.6985779800000005 -0.289546 0.058986 0.151726
18300 1.4244414300000001 8.876392110000001 -7.3688796000000005 0.144803 -0.018911 -0.191244
18320 -1.1539503 10.20098736 -3.9917478600000003 0.484854 0.295613 -0.28648
18340 -4.57389288 9.998459910000001 -1.58011632 0.7754260000000001 0.206988 -0.220244
18360 -5.66511804 7.5299401800000005 -1.4691946500000002 1.012793 -0.182545 -0.249065
18380 -5.362450110000001 6.84092502 -1.8895237200000001 1.049296 -0.040511 -0.63462
18400 -4.040101350000001 7.77752496 -1.4209981200000001 0.741789 0.285632 -1.208685
18420 -3.12984126 7.348671 -0.79859286 0.338021 0.228247 -1.160157
18440 -1.7139345300000002 7.429201290000001 -0.23785326 -0.07598099999999999 -0.035283 -0.700171
18460 -0.5096883600000001 7.7210978400000005 0.27901602 0.251449 -0.764035 -0.691609
18480 0.26525259 7.98140619 0.77298876 0.274376 -0.931069 -0.498955
18500 0.20133063 7.375010850000001 0.8134059600000001 -0.294358 -0.8411040000000001 -0.393016
18520 -0.66581451 5.69491101 0.34383069000000005 -0.873345 -0.641559 -0.508411
18540 -2.55563253 5.413942800000001 0.017363700000000003 -1.350547 -0.453544 -0.492757
18560 -4.3932123 5.2696377000000005 -0.5626819800000001 -1.521089 -0.194876 -0.030671
18580 -5.601048929999999 4.95215667 -1.15050699 -0.8396040000000001 0.091122 0.31769000000000003
18600 -6.039045810000001 4.467160080000001 -0.8098155 0.053924 0.137417 0.486242
18620 -5.487890580000001 4.430333340000001 0.14160735 0.607189 -0.021934 0.429422
18640 -4.450846050000001 6.77940651 0.61941321 0.699762 -0.229372 0.27651
18660 -3.84520608 9.45658494 0.84260052 0.306346 -0.46214 0.219581
18680 -3.6604837800000003 9.72273024 1.09198053 -0.216339 -0.920502 0.213313
18700 -5.1534873 9.97241436 2.06660403 -0.460689 -1.382062 0.232494
18720 -6.4116198 10.967687910000002 2.9087532900000004 -0.285649 -1.583028 0.25427
18740 -7.022645460000001 10.512484290000002 2.63032587 0.1973 -1.702791 0.215068
18760 -8.13153843 10.542130109999999 -0.69231132 0.7998149999999999 -1.5163799999999998 0.228652
18780 -10.011036330000001 13.93257402 -1.64957112 1.163116 -1.15545 0.229659
18800 -9.55163403 15.238765710000001 -1.6253208000000001 1.033069 -0.784825 0.099021
18820 -7.7667535800000005 13.84321473 -5.52740526 0.650382 -0.771534 0.037578
18840 -4.244718330000001 12.76845075 -7.44506406 0.220494 -0.782713 0.008952
18860 -0.70128747 9.6568659 -6.9353757 -0.12714 -1.163095 0.063627
18880 -0.6982954200000001 7.480389870000001 -5.59312245 -0.126056 -1.116291 0.345586
18900 -2.85231636 8.05595238 -5.45001417 0.37721 0.009318 1.070845
18920 -3.1151753100000006 9.51121683 -4.34007153 0.274048 0.368477 1.11987
18940 -3.22100559 11.810435580000002 -1.4079704400000002 -0.356943 0.466592 0.8408040000000001
18960 -3.9112175700000003 12.55095324 0.96144867 -0.951941 0.685175 0.507356
18980 -5.0308917300000005 11.20734621 1.02716586 -1.050773 0.418602 0.390571
19000 -4.69648845 8.529559560000001 -0.19759302 -0.188018 1.04 0.622264
19020 -5.201085419999999 6.389311860000001 -1.33447392 0.624488 1.516229 0.970228
19040 -6.01119522 4.97041308 -1.86332121 0.431717 1.037842 0.890446
19060 -6.140235960000001 4.544247060000001 -1.85045049 -0.299201 0.105657 0.210351
19080 -5.04600894 4.97280672 -1.3364163 -0.549003 -0.459233 -0.564063
19100 -3.55570317 4.870125450000001 -0.4252635 0.009858 -0.58665 -0.885804
19120 -2.5863182100000004 4.18604472 1.09781748 0.733116 -0.4100430000000001 -0.922639
19140 -2.06046297 3.69461277 2.7255319200000003 1.071721 0.046322 -0.790535
19160 -2.11675275 3.6318974400000004 3.5663372100000004 1.054064 0.578375 -0.362983
19180 -3.1856797800000005 3.85583031 3.306470310000001 0.784888 1.015097 0.146255
19200 -3.9610621800000003 4.8419805600000005 1.7208211500000001 0.386565 1.150894 0.364421
19220 -4.71474486 6.041135340000001 0.51628068 0.026905 1.085085 0.084255
19240 -4.7862990000000005 7.38728316 -0.38110869 -0.359321 0.789226 -0.4511060000000001
19260 -4.848268770000001 10.066413780000001 -0.16466085 -0.697984 0.572377 -0.806775
19280 -5.45555682 12.47820228 0.8640059400000001 -0.583206 0.777306 -0.738938
19300 -7.5616755300000005 13.66059177 2.1445935300000003 -0.167053 1.011463 -0.516278
19320 -6.3914112 13.057943850000001 1.02537063 0.0054670000000000005 0.901517 -0.078029
19340 -4.24157913 12.722942160000002 2.2113505800000004 0.019385 0.8953629999999999 0.38248
19360 -4.64244516 15.130531979999999 3.1741530300000003 -0.17286600000000002 1.0825790000000002 0.616974
19380 -4.53048363 16.45229214 2.0420496000000004 -0.460751 1.124053 0.618115
19400 -4.2887358 16.46007147 -0.11211849 -0.45469 0.95609 0.525437
19420 -3.5202302100000002 12.99463011 -2.8904870700000003 -0.224331 0.416329 0.242522
19440 -1.0033668 10.139910299999999 -6.085447110000001 0.016027 -0.070061 -0.075642
19460 -1.27998918 10.01252745 -5.060979000000001 0.225616 -0.149937 -0.262083
19480 -3.3479371800000006 10.4433336 -2.9624924700000004 0.6446149999999999 -0.19515 -0.240938
19500 -5.041820070000001 8.6529105 -2.33753661 0.897552 -0.215051 -0.27867
19520 -5.544621810000001 6.643332000000001 -2.30445729 0.948198 -0.032504000000000005 -0.684475
19540 -4.98224394 6.741981360000001 -1.67576382 0.478315 0.219855 -1.048071
19560 -3.5784623700000004 7.4640758400000005 -1.2826869300000001 -0.12055 0.236486 -0.958272
19580 -2.40534333 7.44042393 -1.00380825 0.05492 -0.060323 -0.412941
19600 -1.1602385100000001 7.482793320000001 -0.23232042000000003 0.723932 -0.309686 -0.437859
19620 -0.04745097 7.765399800000001 0.46897686000000005 0.458967 -0.341994 -0.387325
19640 0.7111759500000001 7.63547616 0.59905746 -0.288851 -0.412542 -0.477916
19660 0.5174775 6.71967342 0.41748417 -1.171027 -0.6141260000000001 -0.716692
19680 -0.7288339500000001 5.640122160000001 0.03831786 -1.912704 -0.690125 -0.515608
19700 -3.36500658 5.9345595 -0.34398765000000003 -1.780015 -0.415216 0.15046800000000002
19720 -4.992122610000001 5.48848899 -1.1668210200000002 -0.7264510000000001 0.047392 0.499066
19740 -6.113886300000001 5.22473733 -1.5491265300000001 0.272803 0.357495 0.6712229999999999
19760 -6.3063879300000005 4.54679766 -0.7011403200000002 0.8258260000000001 0.365458 0.598163
19780 -5.95057923 5.13971406 0.5882762699999999 0.745783 0.15138900000000002 0.388507
19800 -4.9255029 8.064634230000001 1.1921210100000001 0.176788 -0.298819 0.248377
19820 -3.6080983800000004 8.99793801 1.05740028 -0.301079 -0.8825280000000001 0.114396
19840 -4.06554849 9.18010971 1.0557522 -0.386915 -1.28149 0.059828
19860 -5.914655010000001 10.02061089 1.5482338199999999 -0.17713299999999998 -1.581666 0.086247
19880 -7.188503130000001 10.85707035 1.8166256100000002 0.225489 -1.757659 0.059375
19900 -8.18977059 10.44302949 0.49576797 0.724308 -1.582745 0.1075
19920 -9.78589683 12.218943600000001 -1.3469031900000001 0.936699 -1.101934 0.096617
19940 -10.002197520000001 15.242650470000001 -1.9911553200000003 0.644251 -0.588888 -0.078067
19960 -8.28496683 15.581095470000001 -4.46282406 0.161226 -0.566805 -0.119925
19980 -5.353317 14.6714436 -5.46543549 -0.370653 -0.902756 -0.094368
20000 -2.35909899 11.46211191 -5.638474080000001 -0.748037 -1.489712 -0.036431
20020 -0.11840670000000002 8.52447798 -5.707781730000001 -0.129374 -0.799253 0.451978
20040 -1.01893527 7.375314960000001 -5.680235250000001 0.499215 0.551188 1.053911
20060 -2.2080544200000003 9.46990692 -5.31768708 0.12281 0.467799 0.922134
20080 -2.42765127 11.08564335 -3.17669382 -0.822052 0.28258 0.641238
20100 -3.4786161900000003 11.912528250000001 -0.37422207 -1.3690209999999998 -0.047307 0.22978
20120 -4.7342079 11.11962519 0.6342263100000001 -0.6413449999999999 0.464586 0.257707
20140 -4.86518121 8.97623829 0.13816404 0.8529329999999999 1.519687 0.7069
20160 -5.3432911800000005 6.38377902 -0.57330621 1.022471 0.941092 0.863718
20180 -5.95955538 4.97086434 -1.06653339 0.325936 -0.216664 0.6189180000000001
20200 -5.96599074 4.28199633 -1.6507679400000002 -0.46546 -0.986116 -0.211359
20220 -4.81727898 4.4000989200000005 -1.7265109500000002 -0.335443 -0.977364 -0.647365
20240 -3.24241101 4.72701717 -1.15829613 0.293847 -0.711489 -0.815294
20260 -2.30340762 4.5373604400000005 0.27288477000000005 0.722066 -0.111251 -0.775684
20280 -2.01705372 4.05342333 2.01675942 0.879851 0.66984 -0.441229
20300 -1.9778333399999999 3.9716864100000007 3.0329969400000003 0.786068 1.172113 0.040308
20320 -2.5604296200000003 4.25325303 3.14990271 0.444727 1.21166 0.302792
20340 -3.8290392 5.17758066 2.04025437 -0.012096 0.991323 0.122559
20360 -4.997508300000001 6.48481221 0.80861868 -0.5223800000000001 0.6256010000000001 -0.416784
20380 -5.12414559 8.05849317 -0.347274 -0.8286629999999999 0.473694 -0.79047
20400 -4.74932511 9.98528508 -0.19444401 -0.635736 0.753921 -0.70616
20420 -4.982086980000001 13.047613920000002 0.8345170799999999 -0.154275 1.082484 -0.439368
20440 -7.57140705 13.4745255 2.38139712 0.024858 1.041668 0.021271
20460 -7.924518 12.34407996 1.83548043 -0.187524 1.057415 0.5293100000000001
20480 -4.985834399999999 12.77218836 1.0904796 -0.491953 1.099524 0.652111
20500 -5.99428278 14.14318491 2.48753151 -0.5319619999999999 1.136213 0.5695319999999999
20520 -6.14786814 16.78968747 2.4896210400000003 -0.26108000000000003 0.998307 0.456233
20540 -5.94893115 16.30064916 0.79903431 -0.020688 0.592583 0.211672
20560 -4.27046958 12.579990839999999 -2.73211443 0.163683 0.339244 0.002845
20580 0.74365686 9.74862864 -6.7954164299999995 0.279975 0.27836500000000003 -0.058221
20600 0.23531247000000002 9.76898439 -5.27862366 0.471666 0.257228 -0.00024
20620 -2.7735813000000005 10.10503575 -1.72246923 0.805956 0.10689 0.009766
20640 -4.88569392 8.477772569999999 -0.7262931600000001 0.899741 0.212466 -0.099742
20660 -5.1203981700000005 7.198676100000001 -1.36291311 1.040425 0.362183 -0.631993
20680 -3.9582172800000004 8.13588426 -1.3154621400000002 0.533671 0.639494 -1.075996
20700 -2.9273138100000002 8.1382779 -1.02805857 -0.333179 0.41614 -0.9461
20720 -1.9489428900000003 7.694149770000001 -0.89768367 -0.26518600000000003 -0.215214 -0.561325
20740 -0.8855585100000001 7.77018708 -0.77403843 0.496784 -0.621696 -0.536254
20760 0.1907064 8.05504986 -0.01018278 0.378964 -0.526209 -0.337441
20780 0.1966905 7.232059530000001 0.6586335900000001 -0.220682 -0.322694 -0.362187
20800 -0.34293798000000003 5.8923470700000005 0.7500922200000001 -1.00537 -0.336461 -0.501178
20820 -1.91556927 5.039573580000001 0.5680676700000001 -1.876865 -0.293931 -0.258424
20840 -3.9234898800000004 5.098845600000001 -0.12065319 -1.7665799999999998 -0.13353199999999998 0.292275
20860 -4.98029175 4.34097405 -1.0005219 -0.732924 0.155573 0.6238640000000001
20880 -5.9064146100000015 4.36252662 -1.0837499400000001 0.34381300000000004 0.262398 0.681454
20900 -6.67312497 5.2750332 -0.17169462000000002 0.978476 0.016041999999999997 0.467218
20920 -6.24786147 7.07219577 0.9274668300000001 0.980413 -0.274855 0.218708
20940 -4.83494679 8.84315583 1.36950543 0.4807270000000001 -0.661679 0.15162
20960 -3.5435780100000005 8.669518830000001 1.54508481 0.044395 -1.125704 0.154508
20980 -4.525686540000001 8.92668798 1.9390642200000001 -0.083345 -1.453698 0.237358
21000 -5.7176604 9.506135250000002 2.50953534 0.027328 -1.692951 0.29932600000000004
21020 -6.339163139999999 9.942327090000001 2.38484043 0.381124 -1.821867 0.263506
21040 -7.112308860000001 9.58231971 2.4584841 0.825974 -1.651677 0.207643
21060 -8.427771 10.19275677 -0.36883638 0.8837379999999999 -1.30289 0.047367
21080 -9.28039734 13.51000827 0.39802113000000006 0.345082 -1.0008629999999998 -0.15654
21100 -8.539889490000002 14.468013630000002 -3.2715957600000003 -0.111094 -0.9002020000000001 -0.158788
21120 -5.958809820000001 15.27977151 -6.611753610000001 -0.336434 -1.241156 -0.21333600000000005
21140 -3.9294739800000005 13.9806234 -6.76383804 -0.308559 -1.376831 -0.141396
21160 -1.15035984 9.894876120000001 -6.18453792 0.054984000000000005 -0.112881 0.474819
21180 -0.7716447900000001 7.58188413 -5.989191389999999 0.243744 0.56957 0.941008
21200 -3.0496052700000003 9.0147033 -5.30496351 -0.285667 0.597616 0.780245
21220 -3.45706362 10.86635061 -3.9977319600000003 -1.016334 0.453871 0.598001
21240 -3.6564420600000003 12.20636718 -0.8749342800000001 -0.648405 0.388801 0.5675399999999999
21260 -4.33992438 11.66748426 0.62135559 0.613867 1.376256 0.818646
21280 -4.00282335 10.011634740000002 0.34203546 0.929388 1.195711 0.939654
21300 -4.24996668 7.13341998 -0.35461188 0.519756 0.403769 0.6066590000000001
21320 -5.05962522 5.07744018 -0.66222405 -0.360011 -0.7745449999999999 -0.198075
21340 -5.71856292 4.06913895 -0.94618431 -0.495582 -1.049051 -0.696462
21360 -5.59910655 4.14653004 -1.40782329 0.166232 -1.1613870000000002 -0.882907
21380 -4.7801579400000005 4.684961700000001 -1.6807080600000002 0.81223 -1.00825 -0.844407
21400 -3.58983216 4.57913142 -1.17669969 1.0519040000000002 -0.31255700000000003 -0.537045
21420 -2.744838 3.9971335500000005 -0.04041720000000001 1.002028 0.518512 -7.5e-05
21440 -2.1338123400000004 3.6884815200000003 1.5473313000000002 0.77318 1.009965 0.373711
21460 -2.11001328 4.01704785 2.6716455900000002 0.403482 1.074306 0.321908
21480 -2.5938032399999997 5.05753569 2.59800192 -0.042208 0.720658 -0.09629
21500 -3.67380576 7.23760218 1.7338488300000001 -0.374705 0.273341 -0.6310819999999999
21520 -4.84901433 8.864865360000001 0.5749542900000001 -0.297589 0.230901 -0.740516
21540 -5.1085771200000005 9.2202228 -0.09984618 0.043153 0.4497060000000001 -0.609161
21560 -4.717442610000002 11.88633555 0.3617928 0.124309 0.500526 -0.335195
21580 -6.95438748 12.98594826 1.9170603900000003 0.044311 0.716313 0.115828
21600 -8.848551330000001 12.48269526 2.0191530600000003 0.014936 1.044818 0.573469
21620 -7.61855391 13.23518112 1.53161568 -0.15195 1.208389 0.838081
21640 -6.22315989 14.78655414 1.6985132100000002 -0.384351 0.967558 0.7929689999999999
21660 -5.838755040000001 16.894615230000003 1.61573643 -0.356054 0.490615 0.427378
21680 -5.196298140000001 15.350580090000001 -0.18561501000000002 -0.100606 -0.099669 -0.029417
21700 -3.43685502 11.91133143 -3.6443169 0.261388 -0.084836 -0.322805
21720 0.8006823900000002 9.36467505 -6.08454459 0.5659109999999999 0.22316 -0.353119
21740 0.63273519 9.68321556 -3.4437416400000003 0.684326 0.047784 -0.28797399999999995
21760 -2.4662732400000005 10.0644714 -1.2832853400000002 0.757779 -0.003654 -0.541632
21780 -4.454740620000002 8.76128157 -1.2301445700000002 0.617686 0.28056 -0.898692
21800 -4.81564071 8.08723647 -2.4189694200000003 0.391165 0.546076 -1.034143
21820 -4.284988380000001 8.76352806 -2.45040066 -0.065706 0.404429 -0.647251
21840 -4.18499505 8.01403425 -1.84176864 0.036544 -0.219623 -0.519687
21860 -3.3434442000000004 7.28220825 -0.8693916300000001 0.038482 -0.743722 -0.525412
21880 -2.0074791600000004 7.20197226 -0.06780672000000001 -0.242415 -0.6114539999999999 -0.325649
21900 -0.55624662 7.4705112 0.56253483 -0.7577649999999999 -0.416709 -0.361545
21920 0.01377324 7.127426070000001 0.4197306600000001 -1.204138 -0.311659 -0.404322
21940 -0.18650772000000002 5.799387510000001 -0.01571562 -1.429449 -0.18044 0.009474
21960 -1.32504651 4.91128821 -0.06900354 -0.985296 -0.007576999999999999 0.350982
21980 -3.63204459 5.137467570000001 -0.16944813 -0.24299 0.191214 0.6101489999999999
22000 -4.83045381 5.09540229 -0.8916995700000001 0.383445 0.31439 0.698756
22020 -5.39837433 5.3126055 -0.7851139200000001 0.6984239999999999 0.22227 0.552592
22040 -5.03029332 5.087318850000001 -0.18666468 0.470813 -7.5e-05 0.409213
22060 -3.83233536 5.67334863 0.52570809 0.002132 -0.44212 0.27191
22080 -3.3260805 8.43300954 1.01968083 -0.234222 -0.883078 0.193912
22100 -3.0287982600000003 9.77617512 0.8134059600000001 -0.121323 -1.162576 0.195059
22120 -4.4656591500000005 9.80775351 0.8381075400000001 0.25776 -1.3215709999999998 0.200047
22140 -6.392608020000001 10.323131670000002 1.3498952400000002 0.670876 -1.267629 0.205
22160 -7.2242802 11.27275929 1.3066331400000002 0.789458 -1.04626 0.15427000000000002
22180 -7.7585131800000005 11.514801420000001 -0.99213435 0.467088 -0.768588 -0.007503
22200 -8.60336019 13.58455446 -0.57315906 0.010067 -0.526721 -0.156283
22220 -9.433835550000001 14.10397434 -1.2760946100000001 -0.352524 -0.743785 -0.17135699999999998
22240 -7.91523774 13.58530002 -4.3875225 -0.6744140000000001 -1.170817 -0.194422
22260 -4.3960572 13.675414680000001 -6.1309458900000005 -0.594716 -1.023899 0.024932
22280 -1.82051037 11.131299089999999 -6.9006483 0.129702 0.034372 0.6150899999999999
22300 -0.3715243200000001 8.220152160000001 -6.988967730000001 0.161447 0.631263 1.035426
22320 -2.23574805 8.6588946 -5.589227879999999 -0.828161 0.64042 0.935566
22340 -2.7970860600000007 10.49527755 -4.21478802 -1.2986950000000002 0.364039 0.663442
22360 -3.0084425100000005 12.07733625 -1.6369947000000002 -0.924627 0.683531 0.36227
22380 -3.3876088200000005 12.175534350000001 0.9617527800000001 0.407746 1.625901 0.638493
22400 -3.9609150300000002 10.78072893 0.6848262900000002 0.927906 1.098686 0.696213
22420 -4.421504340000001 7.655979060000001 -0.34712685000000004 0.48998 0.367885 0.548813
22440 -5.52396195 5.281762860000001 -0.76386546 -0.341841 -0.6122449999999999 -0.042196
22460 -6.09262803 4.13485614 -1.2317926500000003 -0.529123 -0.718427 -0.49843
22480 -5.5323495 4.02902586 -1.6437341699999999 -0.045734 -0.4613600000000001 -0.734665
22500 -4.17975651 4.635411390000001 -1.6136469 0.457614 -0.033819 -0.72956
22520 -3.1091814 5.09554944 -0.7384183200000001 0.812308 0.523363 -0.515221
22540 -2.7530784 5.06786562 0.85936581 1.032779 1.208514 -0.218661
22560 -2.3716656 4.95963189 2.06749674 0.814463 1.351909 0.074459
22580 -2.2050623700000003 4.86952704 2.52630063 0.34302 1.25286 -0.054757000000000014
22600 -2.74319973 5.079235409999999 2.30550696 -0.204381 0.909857 -0.382881
22620 -3.49478307 6.00671205 1.3099292999999999 -0.6846180000000001 0.57082 -0.695585
22640 -4.054168890000001 7.18296048 0.23321313 -0.760518 0.604901 -0.627793
22660 -3.68533251 8.49558753 -0.62898777 -0.523354 0.8674870000000001 -0.433124
22680 -3.3326728200000004 10.51578045 -0.053739180000000004 -0.418101 0.842498 -0.13646
22700 -4.781060460000001 12.87428103 1.93008807 -0.394136 0.8377690000000001 0.225841
22720 -6.89855877 12.53912238 2.96653419 -0.156024 1.123587 0.470693
22740 -7.76749914 13.08788397 1.31142042 -0.056017 1.134661 0.545084
22760 -7.29253818 14.22716832 0.91609704 -0.014349 0.874732 0.509389
22780 -5.1262351200000005 17.15702292 1.24421211 -0.013725 0.343941 0.313521
22800 -5.798043540000001 17.79215175 1.55735712 -0.093618 -0.127708 0.049716
22820 -4.8737159100000005 14.8277169 -0.64650843 -0.021824 0.029241000000000007 -0.100603
22840 -1.02521367 8.52821559 -5.3968734 0.417433 0.203464 -0.094553
22860 1.3102235999999998 8.7864246 -6.5940858 0.6852729999999999 0.099662 -0.208985
22880 -0.97836111 9.565407270000001 -3.52396782 0.775644 0.07762999999999999 -0.6377510000000001
22900 -4.05043128 9.801171 -1.26771687 0.853023 0.299396 -1.017782
22920 -5.18925456 8.17195563 -1.36126503 0.904937 0.362442 -1.111504
22940 -4.70396367 8.131685580000001 -1.57232718 0.801491 0.159344 -0.848115
22960 -3.0994498800000003 8.55531081 -1.2350790000000003 0.4139640000000001 -0.551136 -0.793296
22980 -2.10611871 7.8405444 -0.7920005400000001 -0.19356 -0.819779 -0.485274
23000 -1.15244937 7.60568319 -0.25521696000000005 -0.656077 -0.699835 -0.242968
23020 -0.29054277 7.50284496 -0.10298538000000002 -0.8830399999999999 -0.447335 -0.053665
23040 0.20597076000000003 7.5258984600000005 0.04550859 -0.921582 -0.271194 0.153075
23060 -0.28725642 6.43331952 -0.04685256 -0.732795 -0.259164 0.177879
23080 -1.1214693900000001 5.270393070000001 -0.24923286000000003 -0.251813 -0.24190100000000006 0.23890100000000006
23100 -3.10379571 5.38655328 -0.6039918900000002 0.345223 -0.215704 0.362679
23120 -4.5463464 5.148690210000001 -1.1139843600000001 0.740367 -0.307861 0.422173
23140 -5.980215240000001 5.25811095 -1.1627793 0.639521 -0.450183 0.403491
23160 -6.91666803 5.64431103 -0.2989303200000001 0.148993 -0.675211 0.35976
23180 -6.33736791 5.610633300000001 0.43140456000000005 -0.237516 -1.047496 0.288103
23200 -4.81713183 6.84466263 0.71536482 -0.217195 -1.31903 0.24266
23220 -3.9957895800000003 8.256684600000002 0.66401928 0.080348 -1.592739 0.234406
23240 -4.072131000000001 9.06949215 0.72569475 0.477837 -1.708058 0.223444
23260 -5.62694733 10.216555829999999 1.44673956 0.8564069999999999 -1.530328 0.204496
23280 -6.560702370000001 11.01814074 2.23170633 0.777979 -1.34084 0.039199
23300 -6.9382206 11.14282584 1.18657836 0.159553 -1.047866 -0.229347
23320 -8.17375086 12.23810253 -0.51628068 -0.463307 -0.973374 -0.202815
23340 -8.9711469 14.17223232 0.03517866 -0.8437120000000001 -1.232418 -0.094045
23360 -8.9367138 13.711191750000001 -2.5400640600000006 -0.739804 -1.485766 0.035192
23380 -6.521786100000001 12.906457829999999 -5.72065245 0.338285 -0.095205 0.6038939999999999
23400 -3.2121667800000004 10.905570990000001 -7.522160850000001 0.7005859999999999 0.578785 0.904663
23420 -1.21412484 8.864414100000001 -9.011564100000001 0.13021300000000002 0.473972 0.70426
23440 -2.21149773 9.00093006 -7.05003498 -0.7238359999999999 0.444519 0.551986
23460 -3.1290956999999997 10.34872596 -3.9550780800000003 -0.9740000000000001 0.218937 0.438365
23480 -2.92537143 12.17613276 -0.8647515000000001 -0.6097279999999999 0.643439 0.524755
23500 -2.6596675800000003 13.29325632 1.00231713 0.31246 1.615325 0.7019340000000001
23520 -2.19099483 11.219020109999999 0.18965673000000005 0.311207 1.0180360000000002 0.620438
23540 -2.7892969200000004 7.8005784600000005 -0.8333202600000001 -0.217992 -0.003687 0.311471
23560 -4.154309370000001 5.823343530000001 -1.28986785 -0.680087 -0.64623 -0.307297
23580 -5.56932339 4.47075054 -1.48161411 -0.375555 -0.633185 -0.636336
23600 -6.0760197 3.8835239400000003 -1.49538735 0.18835 -0.409795 -0.779029
23620 -5.24643705 4.42165149 -1.5075125100000002 0.471207 0.201321 -0.669946
23640 -4.23260298 4.94047296 -1.1006623800000002 0.657262 1.069791 -0.366385
23660 -3.6036054 5.1799743000000005 0.23650929 0.676964 1.591119 0.046487
23680 -2.8672864200000006 5.02220988 1.47098988 0.430714 1.55831 0.20611
23700 -2.3556556800000004 4.77671463 2.47644621 -0.038315 1.232557 0.024858
23720 -2.53662075 4.86128664 2.7140051700000005 -0.529908 0.876922 -0.389385
23740 -3.07520937 6.00042384 1.9976004900000002 -0.833398 0.686446 -0.710659
23760 -3.84729561 8.190369 0.8177517900000001 -0.642927 0.852867 -0.66895
23780 -4.10881059 9.35673876 -0.15297714 -0.30411 0.913885 -0.5042909999999999
23800 -3.8737924200000005 11.01649266 0.0009025200000000001 -0.326844 0.7059310000000001 -0.162353
23820 -5.029537950000001 12.61247175 1.22684841 -0.25056 0.8251940000000001 0.315523
23840 -7.229970000000001 11.25524844 3.0743068500000006 -0.022189 1.187314 0.668099
23860 -7.71780168 10.52251992 1.24211277 -0.012736 1.250809 0.765292
23880 -6.0616480500000005 11.45822715 1.5874443900000004 0.0187 1.02844 0.669656
23900 -4.23634059 15.08338512 1.21127994 0.002306 0.35346 0.316825
23920 -3.6830958300000005 17.29847331 0.16794720000000002 0.152772 -0.04703 -0.092876
23940 -4.71220407 17.14939074 -0.55204794 0.388771 0.09441 -0.236687
23960 -1.90718172 13.361367150000001 -3.0220686000000003 0.771197 0.287673 -0.147738
23980 1.28657169 10.20383226 -6.2980003799999995 0.910064 0.046605 -0.189188
24000 -0.02365191 9.54639549 -4.70965347 0.949852 0.088016 -0.456018
24020 -3.12804603 9.668098350000001 -2.1519216 0.801589 0.370462 -0.8964549999999999
24040 -5.448218939999999 7.4904255 -1.39165641 0.5369470000000001 0.431701 -1.0628879999999998
24060 -6.00671205 6.096071340000001 -1.5796650600000002 -0.158671 0.168017 -0.8526969999999999
24080 -4.46910246 7.27397766 -0.8789760000000001 -0.152804 -0.5621229999999999 -0.751307
24100 -3.0620345400000004 7.988439960000001 -0.24160068 0.027343 -0.914924 -0.592568
24120 -1.7016622199999998 8.43525603 -0.17588349 -0.154407 -0.829751 -0.4230310000000001
24140 -0.6562399500000001 8.61069807 -0.28994436 -0.5676829999999999 -0.638853 -0.384502
24160 0.04565574000000001 8.84735451 0.07543890000000002 -1.056459 -0.530121 -0.245982
24180 -0.10747836000000001 7.9876944 0.36090009000000006 -1.405268 -0.375959 0.131671
24200 -1.0145894400000002 5.723801460000001 -0.06990606 -0.993795 -0.12517799999999998 0.463236
24220 -2.82657492 4.83808599 -0.34009308 -0.228816 0.126824 0.716084
24240 -4.89736782 4.87326465 -0.8243343 0.408268 0.136418 0.6948850000000001
24260 -6.24021948 4.34800782 -1.28477646 0.6387729999999999 -0.101996 0.443632
24280 -7.23610125 4.247720190000001 -0.64290816 0.362168 -0.393062 0.212405
24300 -6.768321210000001 4.07167974 0.39936510000000003 -0.118483 -0.923339 0.038812
24320 -5.30092179 5.24195388 1.2049917300000001 -0.36662 -1.326102 0.009821
24340 -4.29576957 8.084685870000001 1.34330292 -0.269533 -1.448345 0.126023
24360 -3.45407157 9.08625744 0.98464932 0.117628 -1.409479 0.19384
24380 -4.6250814600000005 10.08797616 1.58355963 0.610103 -1.153855 0.310183
24400 -6.036799320000001 10.54421964 2.562372 0.8604459999999999 -0.752096 0.322099
24420 -6.60621096 10.670856930000001 2.65847076 0.5691149999999999 -0.506273 0.106105
24440 -7.109012700000001 10.221941520000001 0.6894664200000001 0.030261 -0.410149 -0.021696
24460 -9.420955020000001 12.59151759 -0.26539974000000005 -0.421372 -0.570156 -0.109035
24480 -9.73006812 14.46891615 -0.21390705000000002 -0.754774 -1.0849030000000002 -0.031656000000000004
24500 -8.31206205 14.146481070000002 -4.63810914 -0.297284 -0.734531 0.13025599999999998
24520 -4.839282810000001 13.457161800000002 -6.86711772 0.394006 0.610167 0.781772
24540 -2.02199796 11.71359126 -7.33355379 0.02332 0.647105 0.923346
24560 -0.50250744 8.9597673 -7.130575080000001 -0.813213 0.801542 0.856416
24580 -2.44995921 8.83717173 -5.73772185 -1.185116 0.769275 0.723536
24600 -3.26441484 10.291700429999999 -4.18095333 -0.8453149999999999 0.921244 0.520617
24620 -3.5941779900000004 12.33614367 -1.63759311 0.274336 1.587063 0.609837
24640 -3.89041056 12.43553859 0.8619066000000001 0.686651 0.967836 0.594283
24660 -4.428243810000001 10.2469374 0.7845155100000001 0.25055700000000003 0.085036 0.361632
24680 -4.17182022 7.22727225 -0.26569404 -0.289318 -0.542291 -0.265177
24700 -4.77222165 5.35451382 -0.72524349 -0.018226 -0.434075 -0.655459
24720 -5.29015041 4.23843993 -0.81445563 0.579505 -0.47092 -0.750582
24740 -5.38265871 4.14892368 -1.1539503 0.848284 -0.177072 -0.675373
24760 -4.63990437 5.002746840000001 -1.4052825 0.8198979999999999 0.4694430000000001 -0.35807
24780 -3.51289233 5.719004370000001 -1.0186311599999998 0.651015 1.0510700000000002 0.05768
24800 -3.2280393600000004 5.18596821 0.40325967 0.399039 1.199254 0.24801
24820 -2.7503806500000003 4.68929772 2.12527764 0.129957 1.185024 0.044255
24840 -2.33289648 4.59484704 3.49717671 -0.225675 0.864347 -0.438519
24860 -2.7678915 4.501740330000001 3.64596498 -0.491492 0.535154 -0.734783
24880 -3.2841721800000006 5.20137972 1.9696027500000002 -0.367625 0.646225 -0.646466
24900 -3.53864358 6.54828291 0.17963091 -0.089179 0.872302 -0.415143
24920 -3.5058585600000005 8.159830470000001 -0.67165146 -0.119864 0.8654270000000001 -0.001946
24940 -3.55166145 10.249183890000001 0.14550192 -0.211383 0.913916 0.471643
24960 -4.63570569 12.17687832 2.11735116 -0.167711 0.982776 0.795531
24980 -6.781201740000001 13.118118390000003 3.7411710300000003 -0.225743 0.949711 0.856057
25000 -7.27786242 12.94582536 1.6994157300000001 -0.229169 0.709735 0.6651279999999999
25020 -6.84107217 13.93302528 1.7254612800000002 -0.015022 0.214298 0.234629
25040 -5.81165982 16.551078840000002 2.30266206 0.284437 -0.100147 -0.243576
25060 -5.099149710000001 17.1880029 1.11472992 0.4712270000000001 -0.042474 -0.442103
25080 -4.4559374400000005 15.29803773 -0.5364892800000001 0.714364 -0.195034 -0.33018200000000003
25100 -1.4173978500000002 10.721309760000002 -4.579729830000001 0.8165600000000001 -0.434207 -0.281092
25120 0.47450970000000003 8.724758940000001 -6.4235880000000005 0.826569 -0.070173 -0.483382
25140 -1.7432762400000001 9.314830440000001 -3.3405993 0.835469 0.364807 -0.8438680000000001
25160 -5.129236980000001 9.33248844 -0.9601047 0.632666 0.720537 -1.18223
25180 -5.68682757 7.23925026 -1.46410326 0.041901 0.53622 -1.196803
25200 -5.1524376300000005 6.87879162 -2.30940153 -0.213589 -0.225877 -1.1356540000000002
25220 -3.97737621 8.10145116 -1.509759 -0.216777 -0.7241989999999999 -0.92353
25240 -2.80935837 8.28467253 -0.77599062 -0.5480649999999999 -0.5060359999999999 -0.582156
25260 -1.4552742600000002 8.474476410000001 -0.08471916 -0.818612 -0.158814 -0.333459
25280 -0.15567489 8.627757660000002 0.47226321000000004 -1.057546 0.102005 -0.083361
25300 0.6469498800000001 8.267907240000001 0.8238830400000001 -1.372596 0.236502 0.121501
25320 0.722997 7.080573510000001 0.53288901 -1.108571 0.345427 0.358214
25340 -0.52540398 5.22368766 0.04864779000000001 -0.409658 0.422774 0.65569
25360 -3.12505398 4.981635720000001 -0.5653699200000001 0.165685 0.37446 0.783684
25380 -4.92401178 4.61475153 -1.34105643 0.43563 0.228185 0.633001
25400 -6.268511520000001 4.79063502 -1.75495014 0.192021 -0.094895 0.387091
25420 -7.06335696 4.99900923 -1.22729967 -0.13197799999999998 -0.704391 0.17516900000000002
25440 -5.888305350000001 4.91682105 -0.29414304 -0.175484 -1.224764 0.076187
25460 -4.281250770000001 6.402182580000001 0.85816899 0.044187 -1.521534 0.041783
25480 -3.44029833 8.85543795 1.57547619 0.462548 -1.600206 0.171924
25500 -3.56139297 9.47993274 1.5483809699999997 0.863966 -1.476162 0.238662
25520 -5.710773780000001 10.095755490000002 1.7218708200000001 0.92617 -1.106017 0.06129800000000001
25540 -7.110817740000001 10.945684080000001 1.84581036 0.5282560000000001 -0.720847 -0.277397
25560 -7.46362458 10.550811959999999 1.3780303200000001 -0.042008 -0.571982 -0.247388
25580 -8.315054100000001 10.91559681 -1.10874582 -0.413481 -0.847571 -0.005007
25600 -9.19328454 12.88744605 0.29878317000000004 -0.477138 -1.264849 -0.027349
25620 -9.12577212 13.261373820000001 -1.1000639700000001 -0.074682 -0.468377 0.24470100000000006
25640 -6.296352300000001 13.257027990000001 -5.5212642 0.287972 0.372612 0.8732030000000001
25660 -2.1791639700000003 14.32236456 -7.12158912 -0.010419 0.887258 0.836276
25680 -0.16585766999999998 11.579017680000002 -7.33684014 -0.935746 0.98131 0.7623939999999999
25700 0.6316855199999999 9.492960420000001 -6.458619510000001 -1.289005 0.726838 0.769867
25720 -1.1975067000000001 10.840462020000002 -4.959788850000001 -0.697525 1.045477 0.759703
25740 -2.2998171600000004 12.442876470000002 -2.6258427 0.483285 2.255578 1.080458
25760 -3.01802688 13.15643625 0.82912158 0.5705520000000001 1.902828 0.77494
25780 -4.19113611 11.23698222 1.2177153 -0.085009 0.640167 0.089385
25800 -4.77386973 7.916140260000001 -0.35311095000000003 -0.817341 -0.58399 -0.567914
25820 -5.63697315 5.300029080000001 -1.51185834 -0.562699 -0.723221 -0.8682629999999999
25840 -6.86637216 4.24487529 -1.75121253 0.119641 -0.483256 -0.996264
25860 -6.920562600000001 3.4823538000000003 -1.4756300100000002 0.567546 0.16095299999999998 -0.781385
25880 -5.28476472 3.65210604 -1.45946313 0.7068270000000001 1.228143 -0.316035
25900 -3.6863821800000003 4.52808018 -1.21038723 0.483917 1.938682 0.142969
25920 -3.07490526 4.7635398 -0.060174540000000006 -0.068863 1.78993 0.25894
25940 -2.85351318 4.43018619 1.37175192 -0.609115 1.200574 -0.006861
25960 -2.3981624100000003 4.2487600500000005 2.28754485 -0.812593 0.8365610000000001 -0.440446
25980 -2.5723978200000004 4.049381610000001 2.86429437 -0.6670520000000001 0.8692340000000001 -0.744983
26000 -2.99347245 4.966675470000001 2.5863182100000004 -0.28887 1.1696959999999998 -0.553651
26020 -3.9023885700000003 7.114555350000001 1.75061412 -0.005631000000000001 1.312514 -0.2848
26040 -4.645142910000001 8.872203240000001 0.70353396 -0.166497 1.291219 0.117891
26060 -4.492460070000001 10.391389649999999 0.01018278 -0.357062 1.357184 0.5694020000000001
26080 -4.049832870000001 13.161527640000001 0.69724575 -0.517441 1.405178 0.6942699999999999
26100 -6.67566576 12.89284155 1.9699068600000003 -0.649799 1.336615 0.638954
26120 -8.401725450000002 12.322076130000001 2.02034988 -0.498856 0.958939 0.384119
26140 -7.307204130000001 11.709402390000001 2.71220994 -0.13263699999999998 0.332031 -0.067582
26160 -4.34980305 14.470711380000001 1.5027252300000002 0.298014 0.052111000000000005 -0.502186
26180 -3.56394357 18.250945830000003 0.60009732 0.547057 0.135475 -0.519781
26200 -4.04893035 17.895431430000002 -0.84095244 0.71439 0.084985 -0.293153
26220 -3.4012251000000004 14.280750540000001 -2.51492103 0.7131 -0.014835 -0.105027
26240 1.3967478000000002 9.258246360000001 -6.25130478 0.784992 0.426441 -0.230072
26260 2.48423535 10.225836090000001 -5.355259380000001 0.712176 0.791004 -0.75875
26280 -1.4952402 10.83925539 -3.2729397300000005 0.448365 1.145711 -1.054808
26300 -4.89586689 8.844058350000001 -1.6340026500000002 -0.178053 1.121332 -0.809188
26320 -5.52874923 6.81892119 -1.12087098 -0.074521 0.366965 -0.860909
26340 -3.71886309 8.09456454 -1.42683507 -0.085021 -0.140851 -0.931903
26360 -3.1862781900000003 8.563247100000002 -1.5349118400000004 -0.588511 -0.154835 -0.728167
26380 -2.4900723 8.09651673 -1.06443405 -0.838432 0.134276 -0.617051
26400 -1.58729724 7.77378735 -0.7722432 -1.192281 0.477468 -0.353976
26420 -0.7424600400000001 8.50845825 -0.46642626 -1.731235 0.676638 0.121636
26440 -0.4326013800000001 7.77168801 0.023504760000000003 -1.591071 0.753011 0.347912
26460 -0.79859286 5.04376245 0.19968255000000001 -0.929532 0.70526 0.526714
26480 -1.9925091000000001 3.5802576000000004 0.04041720000000001 -0.27620700000000004 0.532626 0.507998
26500 -4.5810738 4.080214440000001 -0.23127075 0.356557 0.371367 0.326754
26520 -5.90716998 4.28484123 -0.90306936 0.454737 0.220387 0.169537
26540 -6.173609580000001 4.62418875 -0.86999004 0.07085 -0.299904 0.078859
26560 -5.51513295 5.397030360000001 -0.15342840000000002 -0.17284000000000002 -0.909309 0.04055
26580 -4.06763802 7.4062949399999995 0.85637376 -0.08705 -1.273982 0.053367
26600 -3.48879897 9.36871677 0.83960847 0.196197 -1.514069 0.174226
26620 -3.2555760300000003 9.155712240000002 0.20611791 0.544176 -1.523611 0.127531
26640 -4.6448388000000005 9.26678106 0.786762 0.92962 -1.458902 0.128004
26660 -6.0376920300000005 10.34183934 1.78429185 1.131398 -0.901721 -0.057171000000000013
26680 -6.7079995199999995 10.36025271 2.38199553 0.746672 -0.515083 -0.241952
26700 -7.2043659 9.20361447 1.3690541699999998 0.149642 -0.80843 -0.158152
26720 -9.14119344 10.20667716 -0.29833191000000003 -0.389948 -1.348173 -0.044793
26740 -8.79854976 13.188926970000002 0.9768699900000001 -0.565891 -1.382383 0.137756
26760 -7.6092736499999996 14.364429840000001 -1.11623085 -0.17497200000000002 -0.059545000000000015 0.6558109999999999
26780 -4.47314418 15.28845336 -4.83629076 0.147067 0.738971 1.019164
26800 -1.79716257 14.431343850000001 -7.005134610000001 -0.230488 1.113648 0.888928
26820 1.0135397700000002 10.90107801 -7.94936673 -0.931664 1.172002 0.756837
26840 0.92358207 8.803042740000002 -7.910146350000001 -1.000451 0.8205969999999999 0.5164569999999999
26860 -2.00403585 10.15937334 -5.582939669999999 -0.31295100000000003 1.043521 0.6491600000000001
26880 -2.4608777400000004 11.689046640000003 -2.15880822 0.142413 1.062983 0.715341
26900 -2.7117586800000004 12.66785901 1.2826869300000001 -0.019523 0.495163 0.330378
26920 -3.6565990200000003 11.51585109 1.15559838 -0.518051 -0.334023 -0.20188
26940 -4.02049116 8.70020451 -0.7595196300000001 -0.597731 -0.539279 -0.484184
26960 -5.2058727 6.177200040000001 -1.3930003800000001 -0.039457 -0.399955 -0.644969
26980 -5.913605340000001 4.91518278 -1.3075356599999999 0.5052409999999999 0.15548499999999998 -0.692083
27000 -6.354888570000001 3.8636194500000003 -1.15619679 0.6917810000000001 1.018019 -0.5028100000000001
27020 -5.64670467 3.56528754 -1.20080286 0.534251 1.727538 -0.111713
27040 -4.60008558 3.8275382700000002 -1.20694392 0.14161500000000002 1.764004 0.16644
27060 -4.00791474 4.07243511 -0.18800865000000003 -0.292399 1.484642 0.07510399999999999
27080 -3.5628939 3.86795547 1.1612881800000001 -0.689267 1.143329 -0.273335
27100 -3.11981544 3.5223295500000003 2.08186839 -0.956721 0.94604 -0.786629
27120 -3.1216106700000004 3.87813825 2.79274023 -1.009412 0.996673 -0.882133
27140 -2.8225332 5.39358705 2.6987408100000003 -0.606424 1.365191 -0.6821699999999999
27160 -4.34007153 6.2945570700000015 1.4934449699999999 -0.265426 1.567357 -0.386286
27180 -4.352952060000001 9.10646604 -0.65787822 -0.456398 1.498212 0.02053
27200 -3.93936246 10.920236940000002 -1.4416481700000001 -0.547381 1.555666 0.383016
27220 -3.89474658 13.445193600000001 -0.38395359 -0.335224 1.655588 0.518966
27240 -6.22181592 14.06011383 1.7181234000000003 -0.096045 1.666602 0.487507
27260 -7.100330850000001 12.773090880000002 2.13845247 0.145241 1.3169540000000002 0.337953
27280 -6.05280924 11.613597930000001 2.2614993 0.1188 0.657526 0.1004
27300 -5.18581125 12.90451545 2.45639457 -0.110741 0.223279 -0.06301699999999999
27320 -4.367019600000002 16.464260340000003 0.70264125 -0.086757 0.27670300000000003 -0.123806
27340 -3.75882903 17.35581276 -1.1085986700000001 0.284555 0.242553 -0.163898
27360 -2.53872009 15.36435333 -3.5188862400000005 0.684546 0.5527989999999999 -0.306779
27380 -0.29653668000000005 11.134143990000002 -5.291043120000001 0.8504139999999999 0.796374 -0.8891819999999999
27400 0.64620432 9.73949553 -4.97894778 0.277715 0.847147 -1.367538
27420 -1.8661661100000002 9.949508009999999 -3.2386635900000003 -0.688389 0.617851 -0.997978
27440 -4.949606070000001 8.47253403 -2.23005825 -0.432967 -0.470582 -0.756586
27460 -5.910907590000001 7.056028889999999 -1.62637047 -0.164455 -0.793197 -0.763911
27480 -4.89317895 7.90655589 -0.90950472 -0.587779 -0.53688 -0.5599609999999999
27500 -3.2419597500000004 9.22337181 -0.75083778 -1.077306 -0.016411000000000002 -0.555502
27520 -1.4864112000000003 9.17577369 -0.74844414 -1.540706 0.050541 -0.646419
27540 0.13831119 9.16109793 -0.7815234600000001 -1.924891 0.076402 -0.121434
27560 1.00590759 9.21603393 -0.43619184 -1.4765469999999998 0.416821 0.405759
27580 0.88196805 7.78426443 -0.32287653 -0.5457989999999999 0.607176 0.74637
27600 -0.04027005 5.4603441 -0.5623778700000001 0.180091 0.488416 0.7782979999999999
27620 -1.39150926 3.8257430400000003 -0.6209043299999999 0.533022 0.125201 0.46183
27640 -4.18230711 4.719090690000001 -0.6286934700000001 0.291311 -0.313744 0.151988
27660 -5.580241920000001 4.912936290000001 -0.8659483200000001 -0.189843 -0.854017 0.080953
27680 -6.06658248 4.973709240000001 -0.80472411 -0.346575 -1.29136 0.095374
27700 -6.42224403 5.584882050000001 0.01466595 -0.164302 -1.427839 0.234623
27720 -5.2120137600000005 5.12713764 1.1216165400000002 0.227762 -1.420144 0.367674
27740 -4.18738869 5.878573830000001 1.78384059 0.633679 -1.188856 0.251641
27760 -4.18604472 7.85745684 1.38132648 0.922234 -1.239176 0.330633
27780 -4.281250770000001 9.06140871 0.9813629700000001 1.028432 -0.724661 0.242053
27800 -5.76226647 10.36280331 1.0428814800000001 0.731962 -0.5040020000000001 0.195902
27820 -6.95588841 11.166183450000002 1.3265376300000002 0.126869 -0.71425 0.018893
27840 -6.99810084 10.63732635 1.36097073 -0.383311 -1.3914879999999998 -0.14083099999999998
27860 -8.744663430000001 11.244015990000001 -0.8214894 -0.493309 -1.117463 0.158219
27880 -9.79069392 14.135699879999999 0.041309910000000005 0.047036 0.278229 0.975259
27900 -8.20519191 14.790144600000001 -4.146078780000001 0.089147 0.960538 1.071887
27920 -4.0778208000000005 15.83931429 -7.4384815500000006 -1.1006209999999998 0.6801550000000001 0.825722
27940 -0.7457463900000001 13.842017910000001 -7.425306720000001 -1.770919 0.33432199999999995 0.778754
27960 0.29278926000000005 9.83200383 -6.04921878 -0.709615 1.082337 0.876008
27980 -2.388735 8.873547210000002 -5.79146103 0.496649 1.431008 1.08054
28000 -3.8148147000000003 10.31863869 -4.38363774 0.623853 0.975723 0.807478
28020 -4.344868620000001 11.65236705 -2.24547957 -0.047153 0.05621 0.103216
28040 -4.44111453 11.550725640000001 0.050295870000000006 -0.426304 -0.384322 -0.489594
28060 -4.73464935 10.034080020000001 0.89648685 0.036577 -0.288558 -0.596511
28080 -4.72313241 7.38070065 0.34083863999999997 0.662694 -0.235801 -0.7460289999999999
28100 -5.662871550000001 5.18312331 0.026496810000000003 0.996453 0.241177 -0.7026479999999999
28120 -5.8905518400000005 4.09083867 -0.53034822 0.939487 0.952714 -0.370673
28140 -5.44941576 3.9686943600000006 -1.35827298 0.476387 1.320306 0.012318
28160 -4.72627161 4.573441620000001 -1.80555012 -0.07474199999999999 1.279232 0.105729
28180 -3.9700481400000003 4.77566496 -1.08839007 -0.467486 0.998253 -0.149823
28200 -3.2986909800000004 4.10850648 0.33664977 -0.632929 0.7291569999999999 -0.643084
28220 -2.86549119 3.4747216200000004 1.94850144 -0.610213 0.728295 -0.713427
28240 -2.9056042800000004 3.1153224600000002 3.1654711800000004 -0.306062 0.8992 -0.559834
28260 -2.61640548 4.25669634 3.3184483200000003 -0.144016 0.883784 -0.308718
28280 -4.07138544 4.996605779999999 2.38094586 -0.312594 0.903677 0.190007
28300 -4.46850405 7.54177104 0.8677435499999999 -0.4707310000000001 1.065395 0.643757
28320 -4.20864696 8.66068983 -0.01781496 -0.492948 1.258742 0.79611
28340 -3.78817074 10.89659484 0.5084915400000001 -0.438754 1.204249 0.790149
28360 -4.79572641 12.78177273 1.83174282 -0.281439 0.7777189999999999 0.4926930000000001
28380 -7.553444939999999 13.8735963 2.22782157 -0.068661 0.181222 0.02813
28400 -7.594460550000001 14.54196141 1.4681449800000002 0.296935 -0.032667 -0.346124
28420 -5.385503610000001 14.733560520000001 0.75832281 0.638889 0.257242 -0.41461
28440 -4.63346901 17.56357875 0.9216298800000001 0.8778549999999999 0.232102 -0.19606
28460 -5.15318319 17.7228441 0.89124831 0.785537 0.027254 -0.037277
28480 -4.07123829 13.34788821 -1.91885562 0.8649610000000001 0.174772 -0.233464
28500 0.49786731 9.199121490000001 -5.63457951 0.907858 0.484306 -0.687555
28520 0.78481962 9.47021103 -4.14488196 0.743654 0.8612920000000001 -1.04704
28540 -2.09489607 9.98184177 -2.1623986800000004 0.126224 0.536071 -0.966546
28560 -5.20512714 8.289911069999999 -1.2957048 -0.018358000000000003 -0.240138 -0.669596
28580 -5.20542144 6.93867186 -1.69432434 0.280326 -0.533834 -0.475921
28600 -3.8459516400000004 8.347691970000001 -1.90105047 -0.012985 -0.264307 -0.225147
28620 -2.84348736 9.48517128 -1.52877078 -0.541204 -0.15764 -0.334727
28640 -1.94625495 9.29552436 -1.0377900899999999 -1.226216 -0.399354 -0.565665
28660 -0.76296294 9.14239026 -0.18681183 -1.86943 -0.469053 -0.4269270000000001
28680 -0.01092834 8.58704616 0.7023371400000001 -1.449892 -0.167791 0.06059
28700 0.38245266 7.22622258 0.8066763 -0.317323 0.222444 0.324374
28720 -0.35251254000000004 4.6129563000000005 0.42870681 0.5523710000000001 0.350087 0.416812
28740 -2.05118271 3.6128856600000003 -0.04266369 0.8517520000000001 0.166185 0.326203
28760 -4.372709400000001 4.22331291 -0.60623838 0.524683 -0.080429 0.211003
28780 -5.676193530000001 4.11149853 -1.2271525200000002 -0.082116 -0.576543 0.128352
28800 -6.76712439 4.76788563 -1.11742767 -0.371842 -1.004608 0.06919299999999999
28820 -6.777003060000001 5.520969900000001 -0.34009308 -0.24273000000000006 -1.234108 0.07359299999999999
28840 -5.3729271899999995 6.84451548 0.86430024 0.14039100000000002 -1.504728 0.017863999999999998
28860 -3.4935862500000003 9.33712857 1.20694392 0.526641 -1.62476 0.129674
28880 -2.15521776 9.63621585 1.11383721 0.7357630000000001 -1.358212 0.157499
28900 -3.1457040300000005 9.33234129 1.68279759 0.7956409999999999 -0.8959229999999999 0.11566400000000003
28920 -5.58339093 9.38443239 2.5551910799999997 0.80902 -0.528456 0.117423
28940 -6.740333280000001 9.74638215 2.59949304 0.408038 -0.670149 -0.064657
28960 -7.635623310000001 9.247023720000001 1.35992106 -0.394201 -1.124492 -0.300415
28980 -9.42215184 10.22284404 -0.5448670200000001 -0.779482 -1.570799 -0.24378200000000005
29000 -9.326651490000001 12.475955790000002 0.7536826799999999 -0.233354 -0.385757 0.49986
29020 -8.6415309 13.562697779999999 -2.10432348 0.26908000000000004 0.818578 1.251718
29040 -5.9082098400000005 14.956747830000001 -4.9314968100000005 -0.403509 1.071753 1.125987
29060 -2.8755170100000003 14.10127659 -6.40682271 -1.602286 0.584082 0.7774760000000001
29080 -1.07835444 11.38023765 -6.475531950000001 -1.56255 0.300997 0.67343
29100 -1.15200792 9.06260553 -5.827228290000001 0.079825 1.455982 0.791313
29120 -2.0881566 9.115147890000001 -5.22533574 0.820225 1.449258 1.031502
29140 -1.98143361 10.37148516 -4.09757814 0.421526 0.7880159999999999 0.771054
29160 -1.98007983 11.19866436 -1.7351927999999999 -0.438344 -0.288952 -0.08708099999999999
29180 -3.07789731 11.23248924 0.09116433 -0.496511 -0.5334939999999999 -0.686447
29200 -4.49260722 10.234517940000002 0.38125584000000007 0.17016099999999998 -0.525428 -0.8836940000000001
29220 -5.0786370000000005 7.7884533000000005 0.23395869 0.718271 -0.407788 -0.940905
29240 -5.642515800000001 5.586530130000001 -0.13217994000000002 0.997486 0.229472 -0.7068989999999999
29260 -6.187382820000001 4.69573308 -1.02506652 0.964747 1.097676 -0.147424
29280 -5.9823145800000015 4.87087101 -1.70840169 0.569041 1.543709 0.274393
29300 -4.928651909999999 5.40571221 -1.75899186 -0.022624 1.388192 0.251232
