time Ax Ay Az Gx Gy Gz
20 -4.0797631800000005 4.92820065 8.50920381 -2.20079 3.512804 -0.104264
40 -5.861062980000001 10.67848911 6.529869540000001 -1.649831 1.015618 -0.802242
60 -2.54890287 13.311365580000002 8.070314220000002 -1.019109 -0.504262 -1.415457
80 1.2946551300000002 15.088623660000001 7.6272357600000005 -1.185179 -1.309286 -1.35256
100 2.78481375 14.029722450000001 4.575236850000001 -1.939076 -2.935038 -0.930591
120 4.913681850000001 11.58051861 -7.92107469 -2.242868 -2.26637 -0.32041
140 1.3338755100000002 8.15504319 -3.4328133000000003 -0.75253 0.71473 -0.395005
160 -1.01473659 8.46160569 -2.6084790000000004 0.715199 1.495342 -0.010807
180 -0.66057597 9.23908743 -1.58220585 0.558478 0.213043 0.5836720000000001
200 -2.9485720800000004 7.58742678 4.474645110000002 0.911377 -0.8374030000000001 0.299064
220 -2.73915801 5.2027335 -1.0115973900000002 2.059542 -0.864561 0.234479
240 -2.93449473 4.99900923 -0.38560167000000006 3.2831360000000003 0.195888 0.380536
260 -4.07198385 6.26073219 -0.94348656 3.987178 -0.755703 0.644115
280 -2.8916838900000004 9.915379020000001 0.9018725400000001 4.180977 -0.350564 0.658836
300 -0.20687328 10.73762379 0.18067077 4.125054 0.191188 0.825462
320 1.4055768 12.485540160000001 -2.14383816 3.548275 -0.6707270000000001 0.819333
340 0.67329954 13.81073382 -1.9526903100000002 2.7018720000000003 -0.911406 -0.062213
360 1.20454047 12.99073554 -2.9271666600000006 2.143494 -0.45212 -0.946916
380 2.85246351 14.19797376 -2.82657492 2.118392 0.20517800000000005 -0.398868
400 1.8794880900000002 14.74463601 -1.75764789 1.668791 2.390079 -0.014907
420 0.32766381 15.601461030000001 -1.6266647700000003 1.336945 3.151606 0.042688
440 -0.07020036 15.05389626 -5.407654590000001 2.188414 1.310884 0.085177
460 1.76453451 13.36495761 -4.07363193 1.694506 -1.583312 0.739188
480 -0.06870924 13.368695220000001 -3.07461096 1.913585 -1.573027 0.907348
500 -1.99624671 14.97575961 5.128187310000001 1.816121 -1.749151 0.8139569999999999
520 -2.21000661 15.01512714 7.536228390000001 1.057021 -1.984663 0.694657
540 -4.492008810000001 15.68708271 3.1698072 0.38165 -2.070409 0.612069
560 -7.437735990000001 18.93637053 2.0648088000000007 -0.244812 -1.977273 0.508229
580 -9.86478885 18.06862698 2.0619639 -0.985416 -1.7342349999999995 0.312601
600 -9.61180857 11.03565159 1.12505985 -1.613313 -1.2693370000000002 -0.051303
620 -5.86376073 7.72737624 2.6429022900000003 -2.236799 -1.224157 -0.152924
640 -1.7305526699999998 6.444100710000001 3.0114345600000005 0.246988 -0.495432 0.337782
660 1.5208344900000001 6.526730340000001 3.6443169 1.628845 -1.422439 0.791934
680 6.46191567 7.124434020000001 3.8464029 1.059926 -0.816257 0.742318
700 1.5555618900000003 4.8243225600000015 3.1963040100000004 0.290065 -0.287266 0.457457
720 -0.37646856 2.65263381 2.3682222900000003 -0.661081 0.099195 0.009142
740 -1.26815832 1.29345831 3.0519989100000005 -1.053551 0.859821 -0.453909
760 -2.48498091 1.0557522 3.3138081900000005 -1.067683 2.597858 -0.318435
780 -3.3015358800000003 1.23747264 3.22280082 -0.180127 -0.283347 0.151861
800 -3.5022681 0.71850402 2.70966915 1.037268 1.850058 -0.816588
820 -4.21687755 2.7482813100000003 1.37354715 -0.873389 3.783791 -0.8227979999999999
840 -4.78195317 7.57454625 -3.9161520000000003 -2.493053 3.021353 -1.091644
860 -3.2275881000000006 15.892150950000001 -17.45595324 -2.912515 0.922739 -1.255323
880 0.06840513000000001 28.69518195 -23.021372250000002 -1.672546 -0.529808 -0.854899
900 -1.8672157800000002 14.302911330000002 -9.051677190000001 -1.0999290000000002 -1.552207 -0.618853
920 -0.8587674 4.72971492 -8.22958938 -2.272539 -2.58417 -0.208047
940 -1.7082447299999999 3.97349145 -4.56880149 -4.640564 -3.854445 -0.169549
960 -7.82572149 9.12906828 2.4776430300000003 -2.520235 -0.546995 0.446705
980 -7.249276080000001 13.04432757 1.14167799 -1.23827 1.048564 0.722807
1000 -7.688312820000001 23.049369990000002 -3.26889801 -1.222879 1.26324 0.836939
1020 -9.896072940000002 13.3902576 -2.7087666300000004 -2.219711 2.145409 0.605588
1040 -2.79843003 1.99475559 12.62205612 -2.316584 3.513868 0.262395
1060 -2.63032587 3.7664710200000004 7.56961182 -1.6451080000000002 2.918904 -0.184011
1080 -2.7369115200000005 6.5650482000000006 6.227652870000001 -1.509107 1.627017 -0.640741
1100 -2.45235285 13.361514300000001 8.63105382 -1.579835 0.062438 -1.189364
1120 -0.61432182 15.31240938 7.626343050000001 -1.3918549999999998 -0.915839 -1.263709
1140 0.53812755 13.419893609999999 4.336932330000001 -1.927753 -2.92908 -0.8322430000000001
1160 3.06652752 10.681932419999999 -7.5458127600000005 -2.313503 -3.141323 -0.43515
1180 0.9123496200000001 7.9965234 -3.4775665200000003 -1.175795 -0.5338109999999999 -0.285267
1200 -2.45908251 8.255183670000001 -2.28395439 0.9703 1.804044 -0.440983
1220 -1.81078866 9.21603393 -1.7899816499999999 1.064948 1.38277 0.397704
1240 -3.2945021100000003 9.6511761 -0.2573163 0.997891 -0.478046 0.400689
1260 -4.104768870000001 7.38384966 1.5458401800000001 1.836495 -2.466259 0.308681
1280 -2.34891621 5.4169348500000005 0.6081807600000001 3.328646 -1.044365 0.409149
1300 -1.80988614 5.893249590000001 1.04812002 3.980692 -0.38027 0.801685
1320 -2.8975208400000003 7.19479134 0.47646189000000005 3.822 -0.27136 0.610294
1340 -1.2620270700000003 9.57767958 1.8724543200000003 3.907574 0.713777 0.5968100000000001
1360 -0.3793134600000001 11.62572309 -0.8044298100000001 3.764311 -0.12598099999999998 0.534929
1380 -0.38620008 14.21294382 -2.1342636 2.921152 -1.579984 -0.6217090000000001
1400 -1.32833286 13.648770720000002 -3.39374007 2.282386 -1.660365 -1.011696
1420 1.2493035 13.53366018 -4.28948136 1.5752540000000002 -0.14823599999999998 -0.259067
1440 3.32413812 14.21653428 -2.27841174 0.994763 3.850022 0.439986
1460 3.20154255 14.84522775 -1.4088729600000003 0.620656 4.621832 0.8925139999999999
1480 2.4788496600000003 15.61552857 -2.62823634 2.092375 1.127974 0.620988
1500 1.8100332900000002 13.258823220000002 -5.1162093 2.537041 -1.152888 0.528741
1520 1.5852077100000002 14.38628652 -3.3183011700000002 2.319541 -1.421281 0.702754
1540 -1.92889125 15.547564890000002 -1.07086941 2.082823 -2.030201 0.537374
1560 -2.47151178 14.239734930000001 7.904466360000001 1.343559 -2.097579 0.445771
1580 -4.149522090000001 15.25133232 7.12682766 0.736672 -2.074097 0.427615
1600 -7.862999490000001 18.6482214 2.50399269 0.015869 -1.7456060000000002 0.423227
1620 -10.89105219 18.79581285 1.738332 -0.6867310000000001 -1.493511 0.327198
1640 -10.83222162 12.46757805 1.8883269 -1.371701 -1.198538 0.148983
1660 -7.68981375 8.579109870000002 2.2043168100000003 -1.751996 -0.7194619999999999 0.020731
1680 -2.21314581 6.52927113 2.6798761800000004 0.787153 -0.105621 0.42224
1700 1.0472175000000001 7.3070569800000005 3.54283245 1.219923 -1.833911 0.682783
1720 4.295318310000002 8.04741768 3.6297981000000004 0.917226 -1.351115 0.622366
1740 2.17856556 5.91585183 2.89602972 0.292106 -0.657538 0.344714
1760 -0.41853384000000005 3.11082948 2.3725681200000004 -0.424546 0.015444 0.235228
1780 -1.26755991 2.01944736 2.8533660300000006 -1.38037 0.580756 -0.180233
1800 -1.8299475900000002 0.94094577 2.7125140500000002 0.291707 4.090884 -0.042729
1820 -2.7165557700000003 0.86011137 2.9532122100000002 -0.056398 0.321702 0.051537
1840 -2.95381062 0.42870681 2.63272932 -1.459435 2.992559 -0.116578
1860 -2.6041331700000003 1.5971759099999998 2.08636137 -3.284689 4.4663010000000005 -1.31267
1880 -2.9541049200000002 5.460196949999999 -1.3757936400000002 -3.585146 4.11227 -1.760832
1900 -2.8847972700000004 12.17044296 -10.5617403 -2.864815 0.613654 -1.257798
1920 -2.34097992 25.68957453 -25.3840617 -1.133096 -1.220408 -0.980569
1940 1.05605631 18.994298580000002 -14.094389970000002 -0.397205 -2.017453 -0.7650359999999999
1960 0.33964182000000004 8.347093560000001 -7.899070860000001 -3.494194 -1.705313 -0.747545
1980 -1.21023027 6.070928310000001 -5.284911870000001 -3.117779 -0.913383 -0.382735
2000 -5.35870269 9.6448977 -0.83975562 -1.140398 -0.565268 0.357022
2020 -6.99420627 14.95704213 -2.6499360600000004 -1.20818 -0.798743 0.726453
2040 -8.45172702 17.605487070000002 1.6384956300000002 -1.738107 -0.222725 0.993342
2060 -13.942158390000001 8.44453629 -1.2344805900000002 -1.923207 2.717131 0.963712
2080 -5.836067100000001 -0.5626819800000001 11.30853636 -2.100355 4.77061 0.411846
2100 -4.27420719 4.14143865 6.57447561 -2.103725 3.524119 -0.087577
2120 -5.537431080000001 8.4565143 6.04143945 -1.985382 0.502987 -0.719539
2140 -4.371355620000001 12.85048197 7.367977080000001 -1.485658 -0.999257 -1.366807
2160 0.0076321800000000006 15.025152960000002 8.976983850000002 -1.2651709999999998 -2.092741 -1.430095
2180 1.73144538 14.141988090000002 5.32877238 -1.848311 -3.551507 -1.090468
2200 5.14016532 13.082047020000001 -7.4483602200000005 -2.000444 -2.635056 -0.5051829999999999
2220 3.1552884 9.22292055 -3.87484209 -0.224191 0.957021 -0.438627
2240 0.20642202000000004 7.89353802 -2.0061253800000003 1.150598 1.892646 -0.110825
2260 -0.79574796 8.21251998 -1.2322341 0.818729 1.286437 0.72512
2280 -0.55204794 9.429195420000001 0.6306358500000001 0.719403 -1.220434 0.6144069999999999
2300 -3.75793632 7.58667141 2.5584774300000004 2.114779 -2.886259 0.404098
2320 -2.8629504 5.620060710000001 2.3186817900000003 3.087672 -1.29475 0.362921
2340 -2.91279501 6.639290280000001 -0.29593827000000006 4.02141 -0.269067 0.396971
2360 -4.2212233800000005 7.769745629999999 -1.31830704 4.261231 -0.006023 0.475221
2380 -3.19151673 8.24396103 0.51148359 4.242857 -0.045318 0.727244
2400 -0.57165813 10.344988350000001 -0.14564907000000002 3.46104 -1.065847 0.604518
2420 0.14744430000000003 13.64157999 -2.5035414300000003 2.565482 -1.873952 -0.59177
2440 -0.16989939 14.78356209 -2.6280891900000003 2.188643 -1.356573 -0.977489
2460 0.07215255 13.08099735 -3.8690051400000005 1.7036509999999998 0.7679189999999999 -0.374712
2480 3.7107796500000005 13.842312210000001 -1.9679546700000001 1.160464 3.895259 0.17296199999999998
2500 3.8094290100000006 14.277307230000002 -0.28994436 1.544772 3.632169 0.098003
2520 2.93060997 15.691418730000002 -0.94004325 2.789109 0.044659 0.000197
2540 -0.30821058 12.66785901 -5.62424958 1.950389 -0.638374 0.773947
2560 0.28860039000000004 12.73446891 -4.46730723 2.133537 -0.834443 0.8961870000000001
2580 -1.31441247 12.69091251 -4.89826053 1.762541 -1.50101 0.877358
2600 -0.65503332 15.971190120000001 4.55098653 1.303565 -2.229359 0.66785
2620 -0.87553269 15.67630152 7.946973090000001 0.918629 -2.268152 0.579754
2640 -4.7223770400000005 17.35460613 4.1586552 0.261221 -1.937359 0.47753
2660 -9.18085527 19.64065986 1.9758909600000003 -0.8984709999999999 -1.31614 0.376766
2680 -11.327695290000001 14.97740769 2.4081882300000004 -2.294497 -0.471999 0.144811
2700 -10.242895680000002 10.15308513 0.86505561 -0.966091 0.238183 -0.118148
2720 -6.90469002 6.84721323 2.48572647 0.891116 -0.593511 0.064669
2740 -1.5190392600000002 7.2965799 2.55084525 0.911498 -1.130976 0.454333
2760 2.36642706 7.52739939 3.79371339 0.433327 -0.511151 0.643547
2780 5.8246875000000005 7.02623592 4.035157110000001 -0.404813 -0.041338 0.298464
2800 2.23335441 5.3572115700000005 3.2289320700000004 -1.262305 0.935352 0.018826
2820 -0.39008484000000004 2.9780609399999998 2.6888621400000003 -1.57913 2.751946 -0.313659
2840 -1.5901421400000002 1.59867684 3.32518779 0.580397 2.253767 0.11867
2860 -2.8879462800000004 0.9689337 3.30856965 -0.390601 2.353574 0.24315100000000006
2880 -4.19562909 0.23560677000000002 2.66999751 -2.482556 4.294041 -0.489656
2900 -4.890481200000001 0.42990363000000004 2.08022031 -3.826337 5.3676629999999985 -1.6765310000000002
2920 -6.33482712 3.0955651200000003 -1.59807843 -3.85039 4.115571 -2.089564
2940 -4.08500172 10.354719870000002 -11.23772778 -2.471107 0.093588 -1.546006
2960 -1.3721933700000002 21.33094248 -17.95486041 -0.911122 -3.306076 -0.942163
2980 -0.9800091900000001 17.61656256 -14.530581810000001 -0.096523 -3.391052 -0.910727
3000 -0.9006757200000001 10.25382402 -8.931475260000001 -3.688763 0.144528 -0.709613
3020 -0.5312409300000001 6.513408360000001 -6.708450780000001 -4.0318190000000005 1.6756810000000002 -0.23434
3040 -2.3105983500000002 9.599085 -4.995565920000001 -1.860696 -0.207572 0.5074930000000001
3060 -6.969357540000001 16.28119593 -0.6291447300000002 -1.248766 -1.544199 0.702555
3080 -8.00176194 19.12093587 -0.06137136000000001 -0.767328 0.461027 0.989632
3100 -9.84307932 10.707830820000002 -1.66079376 -1.034163 4.470484 0.74869
3120 -6.157746810000001 -0.89693811 11.19387708 -1.792572 5.454977 0.030695
3140 -5.88381237 2.38199553 4.16494341 -2.126294 2.905595 -0.4341140000000001
3160 -5.923336860000001 7.19209359 5.4893817 -1.896915 -1.234775 -1.25401
3180 -6.362216640000001 10.70933175 4.89826053 -1.441392 -2.885597 -1.470903
3200 -2.2841015400000004 14.67623088 9.03446064 -2.036606 -3.902512 -1.327411
3220 2.04235371 15.540835229999999 8.62027263 -2.534961 -2.841162 -0.713751
3240 2.6201529 13.60311498 3.85044462 -0.688459 0.952115 -0.40768
3260 6.076166850000001 9.958935420000001 -9.40195305 1.233934 1.401435 -0.15341
3280 3.06292725 8.11028016 -4.28843169 0.8881379999999999 0.720954 0.620576
3300 0.69380244 7.4065990500000005 -5.59955781 0.8248040000000001 -1.022699 0.624504
3320 -0.46732878 9.85056435 -2.5990417800000003 1.988816 -1.912319 0.4436310000000001
3340 -3.20034573 8.82669465 3.4205409900000006 3.626707 -0.405476 0.486256
3360 -1.8308403 6.1110413999999995 2.3722640100000003 4.179021 -0.159418 0.811333
3380 -2.33289648 5.828876370000001 1.34286147 4.3145940000000005 -0.487451 0.941956
3400 -4.42045467 6.83149761 -0.7286868000000001 3.832487 0.050986 0.975286
3420 -4.150267650000001 8.35008561 0.64560591 3.073646 -1.011661 0.443645
3440 -0.8119148400000001 9.49071393 -0.44936667 2.562153 -1.463773 -0.8668520000000001
3460 0.5882762699999999 14.176274040000001 -1.9486485900000001 2.252829 -0.539154 -1.387217
3480 -0.4251163500000001 14.59704456 -3.1184616600000004 2.035931 1.553068 -0.406512
3500 1.5935854500000002 14.31038655 -5.06038059 1.462336 3.431671 -0.040117
3520 3.88247427 14.17043709 -2.3652302400000003 1.492031 2.974334 0.017293
3540 4.22945397 14.42280915 -0.07514459999999999 2.416069 -0.155196 -0.047018
3560 1.90464093 15.90442326 -3.1484017800000004 2.075987 -1.449462 0.5023989999999999
3580 0.7973960400000001 13.508056080000001 -5.96838438 2.296679 -1.3209229999999998 0.6672140000000001
3600 0.90442314 14.4027477 -4.36087854 1.672377 -1.469571 0.553017
3620 -1.69522686 15.78722319 -0.42136893000000003 0.8068 -1.728819 0.6007140000000001
3640 -2.39741685 15.134426550000002 7.16126076 0.02448 -1.54716 0.605699
3660 -4.58241777 15.36045876 6.10999173 -0.776196 -1.438844 0.5860810000000001
3680 -7.314836310000001 17.717311260000002 1.3073787000000001 -1.479678 -1.545091 0.327066
3700 -9.831552570000001 19.31178942 1.74701385 -2.35212 -1.370044 0.19897
3720 -10.8683028 13.701911490000002 1.16293626 -0.661148 0.601833 0.052295
3740 -8.69481882 7.7306724 2.33425026 1.418923 -2.056806 0.573363
3760 -3.67380576 6.55576794 3.17879316 1.014916 -1.120787 0.48068
3780 -0.028144890000000002 6.2035497 4.121975610000001 0.484735 -0.528238 0.34375700000000003
3800 4.95634554 6.69362787 4.37644701 -0.193289 -0.500067 0.014246
3820 3.28986198 5.31664722 3.6389312100000004 -0.8256110000000001 0.568199 -0.184888
3840 0.24114942 3.00829536 2.06526006 -0.594784 3.973092 -0.186571
3860 -0.6991979400000001 0.8566680600000001 2.19174039 -0.694345 0.153252 0.106049
3880 -1.8995495400000002 0.6698562300000002 3.03912819 -0.342615 2.927905 -0.367204
3900 -3.21665976 0.22244175000000002 3.1136743800000004 -2.032103 4.7294839999999985 -0.81608
3920 -2.78945388 0.16825131000000002 3.25901934 -3.319827 4.1112660000000005 -1.207774
3940 -2.5364736000000003 2.7163988100000003 2.6198487900000003 -3.103971 1.535906 -1.247832
3960 -3.03029919 7.907458409999999 -2.2568591700000002 -1.420895 -1.120502 -0.939979
3980 -3.69701622 17.76820554 -17.7342237 -0.462571 -2.337904 -1.023592
4000 -0.6366297600000002 30.078597960000003 -27.474170490000002 -2.288259 -2.7896970000000003 -0.478154
4020 -0.7218001799999999 11.805197040000001 -8.72744688 -4.70788 -1.663359 -0.330924
4040 -0.15732297 4.840332480000001 -7.8820112700000005 -2.147848 0.184467 0.21977
4060 -3.88741851 7.225928280000001 -4.09128993 -1.144419 0.108594 0.740691
4080 -7.50389463 9.92735703 3.06308421 -1.46416 1.361434 0.732579
4100 -7.427406060000001 14.12582121 5.514681690000001 -2.065064 2.547789 0.5452640000000001
4120 -12.51247842 20.506755330000004 -11.91537315 -1.79059 4.196077 0.231011
4140 -8.16641298 5.99503815 10.519527870000001 -1.920591 3.096738 -0.194709
4160 -4.12841097 3.2947964100000005 8.522231490000001 -2.125018 0.159928 -0.854671
4180 -3.8062799999999997 6.176758590000001 6.99779673 -1.658081 -1.921988 -1.433059
4200 -4.11913071 10.266547590000002 6.9370237800000005 -1.63566 -3.5413330000000003 -1.155226
4220 -1.3507879500000002 13.417195860000001 8.88237621 -2.176115 -3.64376 -0.647191
4240 0.34667559 13.7375316 6.955133040000001 -1.631138 -0.7440180000000001 -0.070261
4260 0.69845238 12.919181400000001 2.69020611 0.75443 1.838426 -0.327167
4280 3.27594159 9.78156081 -8.654401620000002 1.072507 1.343567 0.337987
4300 0.79754319 8.452325430000002 -2.23215759 0.334022 0.389475 0.612857
4320 0.12005478000000001 7.91164728 -3.04526925 0.794115 -1.726657 0.33784000000000003
4340 -1.06952544 8.00355717 1.6369947000000002 2.1821770000000003 -1.685927 0.13811199999999998
4360 -3.0380785200000004 8.68733379 -0.30701375999999997 3.5379080000000003 -0.202955 0.267459
4380 -2.47151178 5.99323311 2.5056407700000003 4.2857949999999985 -0.059026 0.654922
4400 -2.4876786600000003 5.2913472299999995 0.62420049 4.210376 0.373249 0.776687
4420 -4.066598160000001 7.41752739 -0.49516956 3.882581 0.367789 0.827815
4440 -2.70682425 9.22636386 0.30282489 3.21307 -0.97319 0.55887
4460 0.6825798 10.18257399 -0.57974157 2.242987 -1.392679 -0.520932
4480 0.88945308 13.08922794 -2.11704705 1.899947 -0.560822 -0.991207
4500 -1.0554579000000002 14.356199250000001 -3.58130727 2.225284 1.160516 -0.437801
4520 0.34293798000000003 13.30897194 -3.9002892300000003 1.92561 3.4789769999999995 -0.2837
4540 2.35924614 13.481412120000002 -2.07483462 1.808735 3.205232 -0.190162
4560 2.97865935 13.20014961 0.5298969600000001 1.901801 0.404544 0.280889
4580 0.8571193200000001 15.151338990000003 -1.35678186 1.947094 -1.7361490000000002 0.646076
4600 -0.47301858 14.208754950000001 -5.787115200000001 2.247704 -1.620708 0.8200120000000001
4620 1.25124588 13.27484295 -6.06672963 1.750525 -1.542706 0.65941
4640 -0.48543804 13.58200386 -3.47951871 0.991996 -2.04911 0.617373
4660 -1.95747759 15.72165315 3.6347423400000003 0.346812 -1.990383 0.609587
4680 -3.06143613 14.81259969 7.851325590000001 -0.36748 -1.657572 0.584943
4700 -5.43025683 15.636786840000001 3.7739560500000002 -1.170382 -1.304456 0.354555
4720 -8.54767863 19.058818950000003 1.7600415300000003 -1.940544 -1.146866 0.241083
4740 -10.16087427 18.52966755 1.6238198700000002 -1.027167 -0.447983 -0.033306
4760 -9.846826740000001 11.33278668 0.9862974000000001 1.593516 -1.398131 0.6047170000000001
4780 -6.12092007 8.108190630000001 2.40534333 1.240749 -1.110102 0.8091189999999999
4800 -2.0550772800000003 7.17413148 3.3307206300000005 0.804655 -0.789208 0.593086
4820 1.38911562 7.17472989 4.0757214600000005 -0.181656 0.068389 0.370385
4840 6.197114340000001 7.003035270000001 5.22114687 -0.513947 0.7510060000000001 0.448374
4860 1.7548029900000002 4.882397760000001 3.08179188 -1.243984 0.6766770000000001 -0.043739
4880 -0.20821725000000002 2.8746243000000002 2.2191397200000003 -0.0901 3.23548 0.018725
4900 -1.4711370300000002 0.9228267 2.23380567 -0.7319680000000001 1.424512 -0.223787
4920 -2.45953377 1.06787736 2.81549943 -1.985305 2.194593 -0.706751
4940 -3.1783419 0.5816937600000001 2.70891378 -3.00647 4.416206 -1.546739
4960 -3.22968744 0.11032326000000002 2.5524933300000003 -3.033864 4.578724 -1.938108
4980 -3.84729561 2.36149263 0.9638423100000001 -2.198646 1.012457 -1.66599
5000 -4.06344915 7.81299792 -6.0595487100000005 -0.866368 -1.838506 -0.8860469999999999
5020 -4.14847242 22.47860457 -23.74781256 -0.962612 -2.689812 -0.498932
5040 -0.06556023 25.64212356 -16.17716088 -4.1328 -2.257263 -0.692546
5060 0.65144286 9.480982410000001 -10.46189412 -2.677038 -0.24542600000000006 0.026481
5080 -0.22199049 5.344939260000001 -8.51594328 -1.2528 0.054301 0.8254610000000001
5100 -4.75097319 7.23700377 -4.05297207 -1.670638 -0.07324 0.8483430000000001
5120 -10.359055890000002 11.40193737 -0.95247252 -2.038405 1.049358 0.951158
5140 -7.531441110000001 12.32297865 -0.76131486 -2.4353740000000004 3.2404330000000003 0.5460619999999999
5160 -5.30242272 13.031447040000002 -2.9315026800000004 -2.209752 4.009847 0.01361
5180 -8.72461179 4.810245210000001 6.09262803 -1.5157889999999998 2.539986 -0.37597
5200 -6.75470493 5.07040641 7.78620681 -1.775667 -0.404985 -0.811982
5220 -4.87505988 7.27891209 7.966730430000001 -1.348799 -1.438396 -1.158053
5240 -4.577934600000001 9.41931675 5.82708114 -1.541984 -2.103778 -1.094457
5260 -2.2083585300000004 13.45880988 7.8926355 -2.6550990000000003 -2.519947 -0.485334
5280 0.81416133 15.93615861 7.2631964700000005 -2.230601 -1.788487 0.04119
5300 2.2799126700000008 15.195945060000001 3.0499093800000003 0.20941 0.938936 -0.554148
5320 6.07541148 11.848311990000003 -5.73576966 0.827559 1.855775 -0.200628
5340 1.949247 7.741149480000001 -1.89296703 0.6466649999999999 0.399882 0.137532
5360 -0.6316855199999999 7.8894963 -2.31328629 1.171906 -1.585803 0.217453
5380 -1.41949719 9.008120790000001 -0.70264125 2.3369150000000003 -1.471046 0.34615300000000004
5400 -4.04129817 8.19680436 1.94505813 3.53512 -0.410316 0.443962
5420 -4.16074473 5.72828463 0.7758336600000001 3.867688 0.064433 0.5129739999999999
5440 -2.6659557900000004 5.338346939999999 1.1533518900000002 3.84736 0.589431 0.576253
5460 -2.47675032 5.91659739 0.67464351 3.871869 0.594625 0.588168
5480 -4.10910489 8.42268942 -1.7923752900000003 3.237341 -1.08821 0.264357
5500 -1.70809758 10.222991190000002 1.9128715200000002 2.479979 -2.157078 -0.843036
5520 0.41134311000000007 12.119548680000001 -0.54546543 2.117259 -1.321225 -0.964146
5540 0.76535658 14.35874004 -2.12018625 1.681702 1.364468 -0.354265
5560 -1.5437408400000001 13.910275890000001 -4.1516214300000005 1.289379 4.047327 0.127734
5580 0.42077052000000004 13.393700910000002 -5.07474243 1.486553 3.24372 0.320284
5600 1.9258992000000001 13.69352394 -1.7238132000000002 1.915549 1.063053 0.492718
5620 1.8040491900000002 14.335392240000003 -0.47751156 2.019437 -0.311248 0.692826
5640 1.4921010000000001 16.054114050000003 -1.9104778800000002 1.984435 -0.902657 0.768115
5660 1.19706525 13.576912470000002 -5.12608797 1.509622 -1.220304 0.695771
5680 0.8104139100000001 13.082194170000001 -3.22115274 0.957978 -1.7359950000000002 0.6658729999999999
5700 -1.76961609 13.671068850000001 -1.12880727 0.426872 -1.7297240000000005 0.623699
5720 -2.59260642 15.00300198 5.31799119 -0.153885 -1.474675 0.482583
5740 -3.3982330500000004 14.53148433 6.233489820000001 -0.715002 -1.217184 0.246529
5760 -6.90678936 16.63595496 2.36613276 -1.0982 -1.228859 0.035564
5780 -9.45883143 17.657735130000002 1.20469743 -0.987127 -1.225957 0.012836000000000002
5800 -9.63441081 13.778400060000001 2.1607604100000004 1.931407 -1.7283849999999998 0.582932
5820 -7.147036260000001 10.73162988 2.20326714 1.650273 -1.450019 0.744049
5840 -2.89737369 8.126604 2.5900656300000002 1.135158 -0.8170890000000001 0.618931
5860 -0.38275677 7.07892543 2.9810529900000002 0.121076 -0.34339699999999995 0.255523
5880 2.8111536 7.5425166 3.3561677700000003 -0.320265 0.125073 0.168518
5900 3.0380785200000004 6.11314074 3.32488368 -0.27510100000000004 0.902403 -0.32247600000000004
5920 -0.5276504700000001 3.74880321 2.5596742500000005 -0.002853 2.5201740000000004 0.06939
5940 -1.162485 2.333799 2.6391646800000004 -1.84602 0.33260300000000004 -0.32310500000000003
5960 -1.53969912 1.63206027 2.74873257 -2.4935 3.190499 -1.299099
5980 -2.38154427 1.5375997800000003 2.9728224000000005 -2.89442 5.4625059999999985 -1.693644
6000 -2.8626462900000007 1.10740185 2.84707782 -3.222036 3.80079 -1.438498
6020 -2.3294531700000007 1.57382811 2.36642706 -2.381173 0.074677 -1.157589
6040 -2.66521023 4.94601561 -0.01317483 -1.348074 -1.840497 -0.769768
6060 -2.37885633 10.622513249999999 -9.15944985 -1.74493 -2.055431 -0.755173
6080 -1.46994021 25.58674611 -27.623105910000003 -3.581493 -0.927455 -0.723514
6100 0.8271792000000001 22.098692700000004 -14.03196894 -1.894799 -0.8301200000000001 0.111742
6120 -1.56230136 8.654705730000002 -8.067469319999999 -1.271655 -1.076867 0.8032779999999999
6140 -3.3552750600000003 5.297929740000001 -8.025413850000001 -1.628553 -0.716663 0.811006
6160 -6.32779335 8.589891060000001 -2.5755468300000004 -1.920671 0.582662 0.8756659999999999
6180 -8.35023276 14.38927857 -2.9859874200000007 -2.232686 1.932039 0.429514
6200 -6.6168450000000005 9.38263716 6.249951 -1.832981 3.743648 0.189634
6220 -9.68890536 5.96539233 -1.4349185100000001 -1.419371 2.6228740000000004 -0.14253
6240 -7.962541560000001 6.16268124 7.118891370000001 -1.632598 0.264949 -0.63879
6260 -3.16606959 7.323223860000001 10.52805276 -1.533007 -0.727839 -1.0032219999999998
6280 -4.39950051 9.358239690000001 6.61384314 -1.585189 -1.326712 -0.910952
6300 -2.5631175600000002 13.201797690000001 6.324948450000001 -1.95112 -1.60627 -0.48052
6320 0.81400437 14.75586846 7.4705112 -1.804497 -1.28902 -0.02484
6340 1.9278415800000002 14.239440629999999 4.90545126 -0.203927 -0.019695 -0.225726
6360 5.14480545 12.8377584 -7.0913547 0.464877 1.252643 -0.106248
6380 3.0286511099999998 9.13565079 -3.5203773600000003 0.13433299999999998 0.636894 0.184925
6400 0.14130323999999997 8.27075214 -3.3319174499999997 0.7578600000000001 -1.532568 0.051055
6420 -0.34862778 8.468188200000002 -1.0180327500000002 1.564693 -1.717516 0.048382
6440 -2.168991 9.20166228 -0.11960352 2.890622 -0.624718 0.008173
6460 -3.7679621400000003 7.7329188900000005 -1.2524427 3.931846 -0.115079 0.061795
6480 -2.7190965600000006 5.69879577 1.25693568 4.357431 -0.144127 0.296609
6500 -1.6850440800000002 5.45360463 1.03510215 4.434533 -0.155593 0.698813
6520 -2.8839045600000004 8.212372830000001 -0.63453042 3.661272 -0.996931 0.512893
6540 -3.1802842800000004 9.12562497 0.17693316 2.517289 -1.949171 -0.38798
6560 -1.06578783 8.99045298 1.17805347 1.962902 -1.1592209999999998 -1.117119
6580 -0.50459697 12.15637542 -0.6749476200000001 1.7838169999999998 0.382739 -0.5563239999999999
6600 -0.82163655 15.013184760000001 -1.58056758 1.315484 2.881232 0.27575700000000003
6620 -0.22797459 13.86895617 -3.6000149400000003 1.009169 3.641652 0.5877680000000001
6640 1.5200889300000002 13.85952876 -2.84393862 2.168702 1.538615 0.427647
6660 1.60870266 14.56336683 -0.32751666 2.631442 -0.547142 0.545715
6680 0.997677 15.11780841 -1.36695483 2.243983 -0.97003 0.8747
6700 0.41119596 15.34039731 -3.9142096200000003 1.985191 -1.503247 0.711205
6720 2.14983207 13.50940986 -6.06598407 1.263791 -2.026945 0.69936
6740 1.0827002700000001 13.37079456 -5.401817639999999 0.59342 -1.9285 0.637935
6760 -0.14714019 13.97523771 -0.8427476700000002 -0.097907 -1.520999 0.56315
6780 0.16495515000000002 15.14610045 6.86651931 -0.923577 -1.072638 0.5098060000000001
6800 -1.5991281 14.670089820000001 7.0076754 -1.7515919999999998 -0.85045 0.27620700000000004
6820 -6.25953537 16.14063825 2.46642039 -2.202233 -0.970317 0.007225
6840 -9.1100565 17.49681189 2.09848653 1.148877 -0.264923 0.252987
6860 -9.81688662 12.70602972 2.4060987 1.269075 -1.789453 0.710843
6880 -9.01455615 8.91425871 1.5015284100000001 0.834586 -1.239969 0.6045550000000001
6900 -4.6268766900000005 6.649620210000001 2.9614428000000004 0.132421 -0.16034 0.288482
6920 0.3912816600000001 6.3280876500000005 3.5857904400000002 -0.790824 0.370465 -0.050864
6940 4.77147609 6.989713290000001 3.69836019 -1.295791 1.373919 -0.402849
6960 3.4500298500000004 5.777383680000001 2.8210322700000003 -0.13624 2.474992 0.028992
6980 0.33829785 4.55637222 2.40849234 0.219944 1.7024830000000002 -0.233518
7000 -1.28776851 2.29188087 2.6488962 -1.3674110000000002 4.177079 -0.17941
7020 -2.0249900100000002 1.6841513700000001 3.35572632 -3.062508 4.939818 -1.372613
7040 -3.1195113300000004 0.71012628 3.3623088300000004 -3.186059 4.76515 -2.072938
7060 -3.84864939 0.30357045 2.7870504300000003 -2.528571 0.371793 -1.538218
7080 -3.2078307600000002 0.7743425400000001 2.38079871 -1.248847 -2.996785 -0.73982
7100 -3.56962356 4.551584940000001 -0.8717852700000001 -0.7375079999999999 -3.282425 -0.614105
7120 -2.8261236600000004 11.79816327 -10.09396026 -4.0256 -2.452186 -0.5249050000000001
7140 -2.07708111 28.756102050000003 -28.77720336 -3.51749 -0.46509 -0.255778
7160 -1.1723636700000002 19.464776370000003 -13.177096109999999 -1.121331 -0.095541 0.6214729999999999
7180 -0.45206442 6.77685591 -8.540792009999999 -0.930026 -0.634464 0.961058
7200 -0.72913806 4.257147600000001 -5.927378580000001 -1.369176 1.669884 1.036222
7220 -5.989044240000001 9.298359450000001 -0.32258223 -2.120569 3.708151 0.524161
7240 -9.989925209999999 15.878828970000002 1.5491265300000001 -1.970771 5.065339 0.121817
7260 -10.77788403 26.04374496 -7.616611530000001 -1.555067 3.071643 -0.363039
7280 -7.159906980000001 4.81114773 6.902002080000001 -1.729857 -0.415922 -1.046657
7300 -4.33633392 -2.17363113 11.3254488 -1.556434 -1.973961 -1.311573
7320 -4.41656991 3.68803026 5.23895202 -1.934159 -3.007576 -0.910167
7340 -4.858147440000001 8.1152244 5.09735448 -2.656537 -2.866051 -0.5116069999999999
7360 -4.15057176 13.686941430000001 7.11305442 -1.602928 -0.462638 -0.131313
7380 0.69845238 16.421753610000003 9.744135660000001 0.810595 1.616142 -0.465358
7400 2.34846495 14.385384 6.1432280100000005 0.845217 1.543569 0.070156
7420 4.579425720000001 11.725265160000001 -8.66757645 0.31185300000000005 -0.405773 0.23770700000000006
7440 1.44973161 8.44020027 -4.88254491 1.075903 -2.031918 0.241923
7460 -0.51882147 8.16506901 -4.43737692 2.551869 -0.770342 0.221774
7480 -0.51133644 8.92549116 -2.20192317 3.608282 -0.116233 0.363979
7500 -3.0117386700000006 9.584723160000001 1.50347079 4.007922 0.24792 0.592767
7520 -4.20775425 6.9907629600000005 1.16442738 3.938184 0.8533200000000001 0.572276
7540 -3.39045372 4.639305960000001 2.8851013800000005 3.986882 0.073412 0.8278530000000001
7560 -2.7652035600000002 6.093981810000001 0.74110626 3.4240699999999995 -1.92012 0.617104
7580 -3.3066272700000003 7.9315517700000004 -0.69784416 2.73653 -2.459693 -0.779968
7600 -1.3115773800000001 9.88454619 1.18643121 2.204663 -1.24744 -1.109976
7620 0.19175607 11.46780171 -0.5215192200000001 1.770068 1.953696 -0.197375
7640 0.26929431000000004 15.40820403 -2.1288681 1.337756 4.622333 0.146563
7660 -1.1951130600000002 14.460381450000002 -4.09264371 1.646412 3.3256589999999995 0.203791
7680 1.92454542 13.326934050000002 -4.462225650000001 1.659607 -0.013394 0.577767
7700 2.86848324 14.269076640000002 -0.84499416 1.951777 -0.676288 0.663979
7720 3.3033311100000002 14.061006540000001 0.053886329999999996 2.28648 -1.265296 0.617933
7740 0.9168426000000001 14.93668638 -3.8862216899999997 1.401871 -1.540239 0.611038
7760 0.9156457800000001 13.02995592 -6.665041530000001 0.658413 -1.957451 0.6288130000000001
7780 0.08337519 12.589123950000001 -5.84819226 0.08118099999999999 -2.101797 0.729651
7800 -1.4780236500000004 14.49779679 -1.2510987299999998 -0.5963470000000001 -1.873606 0.728899
7820 -1.52278668 14.99791059 6.7062042900000005 -1.166526 -1.6855189999999998 0.540941
7840 -2.7990284400000003 14.001283260000001 6.66369756 -1.99814 -1.6652650000000002 0.193275
7860 -6.06045123 16.35783165 2.2579088400000003 0.785979 -0.56714 0.220929
7880 -9.552830850000001 19.78375833 1.43521281 1.808922 -1.905915 0.59619
7900 -10.818006930000001 15.32303361 2.03771358 1.056895 -0.753604 0.528572
7920 -9.24058836 9.75836016 1.6453822500000002 0.07209199999999999 -0.267813 0.310631
7940 -2.8626462900000007 7.6472972100000005 2.6816714100000003 -0.837142 0.219678 0.134876
7960 -0.37960776 6.40458603 3.5310114 -1.208838 0.6891229999999999 -0.25608600000000004
7980 3.23028585 6.67581291 4.1712218100000005 -1.462883 3.275312 -0.492979
8000 4.77327132 5.39777592 4.307296320000001 -1.296684 0.124027 0.210837
8020 0.68872086 2.59829622 2.22347574 0.488041 3.425086 -0.478475
8040 -0.08412075 1.50362775 2.7484382700000003 -1.5090290000000002 4.877536 -0.731431
8060 -1.32894108 0.1357704 2.77972236 -2.719604 4.469207 -1.463618
8080 -2.2709267100000003 0.75697884 3.24241101 -3.386127 2.078179 -1.5474629999999998
8100 -2.97356796 0.6683553 2.83899438 -1.953672 -0.883684 -1.092486
8120 -3.0519989100000005 1.8188721 2.13905088 -0.619642 -1.929194 -0.79875
8140 -3.7826379 6.6842004600000005 -1.4373121500000001 -1.1373209999999998 -2.258315 -0.362905
8160 -3.1790874600000003 16.3491498 -14.56425954 -4.897252 -3.535085 -0.423851
8180 -1.67441985 32.18471667 -29.580289200000003 -2.738033 -0.931519 0.093164
8200 -2.80142208 13.870152990000001 -10.20352815 -0.988341 0.214431 0.777965
8220 -2.43872676 3.20663394 -7.916591520000001 -1.021947 1.510183 1.245019
8240 -2.71744848 2.50953534 -5.08058919 -2.048139 3.269926 0.8264670000000001
8260 -6.014197080000001 8.48660157 1.2332837700000001 -2.04782 4.712303 0.29585100000000003
8280 -7.765851060000001 13.49144775 4.40504316 -1.747968 3.717369 -0.238095
8300 -7.856711280000001 19.72178856 0.88615692 -1.818762 0.655249 -0.8456889999999999
8320 -10.238853960000002 15.32678103 -5.813906310000001 -1.6415939999999998 -1.2480950000000002 -1.3408719999999998
8340 -3.77515287 1.6676803800000002 11.72182185 -1.436142 -2.501717 -1.304715
8360 -3.7056980700000004 3.69910575 5.30496351 -2.266808 -3.889604 -0.893201
8380 -3.5660331000000003 5.82559002 5.24329785 -2.473716 -2.561836 -0.290666
8400 -3.0359889900000003 11.06738694 6.8573862000000005 -0.158614 0.842867 -0.18699
8420 0.06167547 15.311359710000001 10.051443720000002 1.141141 1.646873 0.08704500000000001
8440 1.80988614 13.84785486 6.887326320000001 0.464629 0.901666 0.5511560000000001
8460 3.5482181400000004 13.245501240000003 -5.36978799 1.123842 -1.701224 0.35186100000000003
8480 2.29831623 9.7781175 -4.9135347 2.558237 -1.603906 0.34573200000000004
8500 -0.83032821 8.12256228 -3.97947555 3.832655 -0.424195 0.459945
8520 -0.23770611 8.904831300000001 -2.17796715 4.246015 -0.264996 0.516039
8540 -2.6014354200000005 8.263865520000001 0.26734212 4.118204 0.396319 0.416023
8560 -3.53833947 6.79572054 1.6116947100000003 4.109161 0.32268800000000003 0.455578
8580 -3.2668084800000003 4.8120404400000005 1.89730305 3.461211 -0.799818 -0.121145
8600 -2.8918408500000004 6.6199842 0.68212854 2.112866 -1.924706 -0.8266709999999999
8620 -4.22196894 7.755226830000001 -1.12715919 2.007717 -0.508024 -0.702102
8640 -1.93862277 10.08363033 1.3470503400000002 1.981142 1.61446 -0.260627
8660 0.05433759 11.817027900000001 -1.3867121699999998 2.010866 3.14555 -0.358521
8680 0.75428109 15.244151400000002 -2.49995097 2.314528 2.098533 -0.126459
8700 -0.03876912000000001 13.36330953 -4.55906997 2.459832 -0.224185 0.117882
8720 2.33708535 13.888713509999999 -5.18072967 2.377717 -1.408247 0.589912
8740 2.4538439700000003 14.55348816 -1.949247 2.359482 -1.55458 0.703203
8760 1.86212439 15.15673449 -0.18456534000000002 1.594564 -1.767162 0.715224
8780 1.3774319099999999 15.55220502 -5.03118603 0.802113 -1.859571 0.801675
8800 1.88562915 13.79860866 -6.34396023 0.246093 -1.7295200000000002 0.729258
8820 0.10642868999999999 15.4411362 -4.67851653 -0.5189050000000001 -1.26558 0.72332
8840 -3.11113359 14.8422357 1.06158915 -1.254809 -0.797348 0.418477
8860 -1.80419634 14.879209589999999 8.526871620000001 -1.940571 -0.561543 0.119624
8880 -3.9122672400000003 16.63146198 6.13184841 0.29485700000000004 -0.281619 0.107106
8900 -8.51623758 19.60802199 2.20147191 1.407002 -1.863935 0.569828
8920 -9.93334113 17.22437838 1.1596401 1.046445 -1.441637 0.503744
8940 -9.26049285 10.901676420000001 2.20161906 0.407868 -0.536504 0.346436
8960 -5.51917467 8.00549955 2.52210195 -0.209704 0.094627 0.227013
8980 -1.47577716 7.019506260000001 2.66880069 -0.731877 -0.111821 0.359295
9000 1.3810321799999998 6.51879405 3.4269763500000003 1.535032 2.965144 0.412847
9020 5.7311295300000005 5.7669066 4.34097405 -0.447746 1.689377 0.425201
9040 1.49150259 4.56311169 3.03180012 -2.905504 1.627982 -0.205047
9060 -0.12094749 3.03343839 2.7271800000000006 -4.271277 5.417754 -2.095241
9080 -1.47907332 1.58056758 2.80681758 -3.2494 6.952560000000001 -2.649818
9100 -2.5397697600000004 1.09347165 3.35976804 -1.408208 2.858056 -1.687403
9120 -3.3588655200000006 0.7852708800000001 2.99272689 -1.666772 -3.043767 -0.616629
9140 -3.0777501600000003 0.72943236 2.66521023 -2.362704 -4.463571 -0.066331
9160 -3.47232798 2.45025351 0.35236539 -4.261288 -0.093762 -0.562688
9180 -3.66377994 7.585621740000001 -7.77348324 -2.610991 2.043653 -0.513307
9200 -3.02401098 20.576955690000005 -22.09390542 -1.514018 -0.13880399999999998 0.59208
9220 -0.30297204000000005 24.27516873 -18.401235030000002 -1.536055 -2.001493 1.0237379999999998
9240 1.3605194699999998 10.249183890000001 -9.43772031 -1.417784 -0.68705 0.948104
9260 -1.63489536 5.770349909999999 -7.90251417 -1.768917 2.112628 0.686759
9280 -6.353093340000001 12.41443728 -3.9957895800000003 -1.888518 3.914501 0.135616
9300 -11.144621070000001 19.69963758 -6.48810837 -1.546297 2.676286 -0.33576500000000004
9320 -4.816239120000001 16.1174376 0.38604312 -1.816465 0.714803 -0.822248
9340 -8.796303270000001 -2.55713346 8.37777924 -1.845325 -0.6015229999999999 -1.417899
9360 -9.35988777 -2.34052866 9.120082320000002 -1.609782 -1.588853 -1.401102
9380 -6.068230560000001 4.96936341 7.2432919799999995 -1.912312 -2.236175 -0.964414
9400 -7.262146800000001 14.10277752 7.58922201 -1.780815 -1.228437 -0.010865
9420 -6.2815392 16.55571897 5.69625498 -0.741879 0.318297 0.165326
9440 -0.329616 16.284482280000002 5.96569644 0.408967 0.848319 -0.17769200000000002
9460 3.4922422800000006 14.31368271 5.751936540000001 0.875907 0.85805 -0.08578
9480 7.685919180000001 11.877055290000001 -1.28597328 1.044543 -1.030081 0.149621
9500 7.266041370000001 9.43233462 -2.2080544200000003 1.875631 -2.084846 0.5295880000000001
9520 1.91017377 7.95550779 -5.830230149999999 3.011615 -1.233112 0.731916
9540 0.10148445 8.2339254 -4.62388464 3.5299089999999995 -1.362424 0.6523800000000001
9560 -1.60271856 9.18190494 -0.14130323999999997 4.164209 -0.038519 0.427583
9580 -4.494706560000001 8.15833935 0.24428862 4.356445 0.7225699999999999 0.672574
9600 -4.40519031 6.0038671500000005 1.0265674500000002 3.525493 -0.6975100000000001 0.876892
9620 -2.8479803400000003 5.67635049 -0.06182262000000001 2.571696 -1.615256 -0.28975100000000004
9640 -3.19376322 7.391481840000001 -0.21465261000000002 1.888385 -1.103643 -1.098483
9660 -2.0917470600000008 8.95766796 0.41793543000000005 1.64683 0.116632 -0.490711
9680 -0.08277678 9.55103562 0.68527755 1.245188 3.276167 0.407219
9700 1.00320984 11.45971827 -1.7741090700000002 1.499619 3.479452 0.498467
9720 1.01174454 13.654901970000001 -1.5470370000000002 2.576642 0.4165 0.169152
9740 -1.6426844999999999 13.408219710000001 -2.7976844700000005 2.048365 -0.666567 0.547137
9760 -0.73601487 14.412027960000001 -3.3332712300000003 2.023677 -1.215888 0.744221
9780 1.5094647 13.650408989999999 -0.83990277 1.769404 -1.44768 0.588918
9800 3.9547739700000006 16.34166477 -0.2544714 1.026703 -1.852548 0.449653
9820 5.054092379999999 15.026349779999999 -3.70793475 0.4101260000000001 -1.72312 0.31913
9840 3.9877061400000002 13.192213320000002 -2.8611453600000005 -0.153375 -1.286533 0.318907
9860 -1.8646749900000001 14.76409905 -6.57851733 -0.902521 -0.982885 0.4243810000000001
9880 -4.18649598 15.59307348 -0.17603064 -1.5696 -0.962885 0.263735
9900 -1.2871701 12.381505109999999 8.999281980000001 -2.097251 -1.447425 0.148507
9920 -3.82949046 13.76103636 4.665351510000001 -1.7883 -0.595116 0.390991
9940 -6.6798546299999995 18.100656630000003 1.7554014000000002 1.664493 -1.696752 0.895084
9960 -8.76128157 18.497333790000003 2.8527676200000003 0.984671 -1.558991 0.600671
9980 -9.33653016 12.780575910000001 0.9767228400000001 0.6301 -0.738474 0.311927
10000 -7.69639626 8.531060490000002 1.63759311 -0.08251 -0.230163 0.087313
10020 -2.02484286 6.889121550000001 2.9292561900000003 -1.346165 0.547912 0.011259
10040 2.9467768500000004 6.7620428100000005 3.67770033 -0.981163 3.18607 -0.704212
10060 5.38983963 6.37613703 2.7258360300000004 -3.314118 1.7310439999999998 -0.581911
10080 1.77186258 4.639453110000002 2.27541969 0.568232 0.122524 -0.496116
10100 -0.03697389 3.2971900500000006 1.69252911 0.6339670000000001 6.2047919999999985 -0.971332
10120 -1.51918641 1.4129146799999999 1.95314157 -1.337517 5.1681599999999985 -1.097006
10140 -2.2180900500000007 0.5312409300000001 2.6994863700000002 -3.272399 2.362811 -1.16461
10160 -3.522771 0.15237873000000005 3.1015492200000003 -2.959337 -0.7577 -0.8240709999999999
10180 -3.6786028500000003 0.5490558900000001 2.40175287 -1.16707 -1.64952 -0.7334970000000001
10200 -2.9183278500000003 1.39075389 1.9357778700000001 -0.521256 -1.752141 -0.672239
10220 -3.15019701 4.6687948200000005 0.04850064 -3.998387 -2.184425 -0.376575
10240 -1.11083535 9.44759898 -6.245016570000001 -4.347271 -1.091669 0.245566
10260 -0.37257399 23.89556097 -24.00827787 -1.801306 -0.0012 0.794995
10280 -2.05792218 24.81285483 -18.90793134 -1.31093 1.710675 1.174377
10300 -0.9172938600000001 8.56368855 -8.21806263 -1.987456 2.926052 0.987565
10320 -0.46867275 4.38902343 -8.04726072 -2.011901 4.831754 0.495706
10340 -0.73916388 2.70338094 -2.4689611800000004 -1.5002799999999998 4.263921 -0.202882
10360 -7.582031280000001 8.12136546 7.731270810000001 -1.319376 1.580469 -0.886115
10380 -7.4354895 9.80985285 9.50253498 -1.230781 -0.529482 -1.584614
10400 -17.13142863 27.58613202 -23.597376210000004 -1.4780879999999998 -1.87112 -1.7886529999999998
10420 -8.9455428 18.20603565 10.79464932 -2.768764 -2.886221 -0.964223
10440 -3.10409982 4.11763959 11.525876910000001 -2.8883240000000003 -2.306341 0.110967
10460 -2.90904759 4.2887358 5.592367080000001 -0.122821 0.193305 -0.016061000000000002
10480 -0.84873177 3.87469494 7.6908536100000005 0.8618399999999999 2.147448 -0.177261
10500 -0.02410317 12.89733453 11.8284075 0.7683180000000001 0.36458 0.33498
10520 2.09234547 15.212416050000002 9.62558181 1.552441 -1.598885 0.760648
10540 1.71288486 14.148874710000001 5.49117693 2.975858 -1.675699 0.887125
10560 4.213591200000001 12.342137580000001 -10.36489284 3.524913 -1.512658 0.664289
10580 1.3148637300000001 8.10175527 -3.5139420000000006 3.876307 0.221397 0.4134890000000001
10600 -1.3681516500000002 8.43226398 -2.60967582 4.196805 1.942024 0.6164850000000001
10620 -2.42301114 9.837840779999999 -1.9540342800000001 3.771603 0.5994550000000001 1.064957
10640 -4.60666809 8.228392560000001 0.64426194 2.95235 -1.108558 0.272007
10660 -3.8749892400000006 4.76563914 1.5167927700000001 2.54685 -1.105537 -0.663387
10680 -2.8358551800000003 4.402492560000001 0.00777933 2.542371 -0.092888 -0.552553
10700 -4.24996668 5.40645777 -0.54097245 2.057689 2.45182 -0.074227
10720 -2.08186839 9.151817670000002 2.17063908 2.087935 2.510403 -0.098659
10740 1.6769606400000001 12.31953534 0.01406754 2.051525 0.467787 -0.212733
10760 3.02939667 16.32685167 -1.22684841 1.815061 -1.213662 0.6348699999999999
10780 1.95089508 14.49121428 -4.5867636 2.039248 -1.133569 0.923685
10800 1.36695483 14.92216758 -8.03948139 1.7425990000000002 -1.758362 0.7835449999999999
10820 2.1399534 16.060706370000002 -2.84049531 1.330671 -2.49633 0.5412640000000001
10840 3.33910818 18.175055670000003 0.29982303 1.005307 -2.601268 0.425894
10860 3.39449544 14.14812915 -2.74918383 0.550854 -2.265545 0.513088
10880 1.4714411400000003 14.59974231 -4.43977056 -0.160137 -1.689686 0.710346
10900 -3.95388126 13.05270531 -4.4276454 -0.928581 -0.592751 0.918285
10920 -4.29247341 15.545171250000001 1.8450648 -1.690519 0.44462 0.56553
10940 -1.45003572 17.168098410000002 9.75401433 0.780408 0.776306 0.192463
10960 -6.35862618 17.45086185 4.041896580000001 1.862399 -2.174416 0.296738
10980 -8.557253189999999 19.75936086 2.04624828 1.104222 -1.976328 0.16834200000000002
11000 -8.94719088 16.82666136 1.91721735 0.306653 -0.5669069999999999 0.045597000000000006
11020 -8.69601564 11.2300956 1.55706282 -0.611538 0.527975 0.097601
11040 -5.9065715700000005 8.10474732 2.8674335699999998 -1.534715 0.7566729999999999 -0.083261
11060 -1.2320869500000002 7.15182354 2.9710173600000003 1.2322 4.076559 0.059999
11080 3.2019938100000003 6.585109650000001 4.01345739 -0.763918 1.8459999999999999 0.425997
11100 5.81990022 6.149359260000001 3.80433762 -3.254168 2.385439 -0.446667
11120 2.1983327100000003 4.055512860000001 2.5397697600000004 -4.005262 5.758686 -2.070319
11140 0.07543890000000002 2.42255988 2.8894374000000003 -3.405219 4.632777 -2.345627
11160 -1.63190331 1.29675447 3.7323420300000003 -2.464483 -1.018575 -1.281752
11180 -2.8872007200000005 0.53678358 3.1385231100000004 -1.638014 -3.794883 -0.883589
11200 -3.45496428 0.07244685 2.84049531 -2.226732 -1.817939 -0.853915
11220 -3.4172448300000005 -0.23636214000000003 2.88495423 -3.301171 3.019484 -0.989396
11240 -2.4177726 0.9294190200000001 2.15282412 -1.145301 -0.192672 0.15782100000000002
11260 -3.73758057 7.91583615 -3.9603166200000004 -1.150547 -2.08962 0.617414
11280 -2.6580195000000004 21.35040552 -21.00267045 -1.720973 -2.196384 0.904123
11300 2.55742776 27.42402177 -22.03238691 -2.015115 0.250397 0.666061
11320 1.34286147 10.5560505 -8.74526184 -1.865788 2.1427560000000003 0.42967
11340 -0.08801532 4.7948337 -5.81226804 -1.341328 3.876416 0.127737
11360 -5.997726090000001 8.83896696 -3.16606959 -1.619817 2.742518 -0.052216999999999986
11380 -11.06379648 17.578244700000003 -5.95312002 -1.932185 0.211004 -0.741226
11400 -6.21612612 21.305044080000002 1.9374259500000002 -1.456159 -0.958315 -1.241671
11420 -9.08610048 0.8253839700000001 6.11493597 -1.636069 -2.16729 -1.11426
11440 -8.42552451 -1.97694063 9.08655174 -2.288178 -2.484274 -0.666551
11460 -6.07466592 5.35945806 8.307274770000001 -1.691321 -1.179101 -0.171605
11480 -6.8355393300000005 11.91866931 6.90753492 0.5998680000000001 0.575975 -0.4345189999999999
11500 -4.92401178 14.31293715 6.6259683 0.785037 1.168013 0.266769
11520 1.1362824900000001 15.693959520000002 8.65395036 0.572534 -0.007528 0.320203
11540 4.01420295 14.09888295 6.15624588 1.581807 -1.873287 0.359553
11560 8.85348576 13.532463360000001 -7.03326969 2.797243 -1.1731049999999998 0.297712
11580 4.41865944 8.077504950000002 -6.1667229599999995 3.680482 -0.388303 0.407561
11600 1.41516117 7.79668389 -4.30190082 3.990741 0.409997 0.302951
11620 0.063765 8.30772603 -0.83990277 4.136746 0.566485 0.735332
11640 -2.4489095400000003 8.77220991 2.8725249600000002 3.667407 -0.866577 0.942194
11660 -3.8622656699999998 9.13220748 -0.7593724800000001 2.869296 -2.100896 -0.0467
11680 -2.19458529 5.68682757 2.15282412 2.270859 -1.6655529999999998 -1.302326
11700 -1.9152651600000001 4.33019286 0.17139051000000002 2.005554 -0.184655 -0.8478100000000001
11720 -3.52441908 7.51332204 -1.99729638 1.543339 3.384742 0.169881
11740 -3.6655751700000003 9.77333022 1.0027683900000002 1.535341 3.578352 0.244352
11760 -1.7142386400000003 10.97667387 0.31000581 1.698867 1.945923 0.209131
11780 -0.13247424000000002 13.959522089999998 -2.19922542 1.863227 -0.38336 0.480319
11800 -0.6575839200000001 14.516514270000002 -2.32092828 2.225551 -0.8440790000000001 0.828476
11820 1.55675871 14.248720890000001 -4.52209608 1.994392 -1.310643 0.755888
11840 3.5763630300000004 14.05471833 -2.54905002 1.332181 -2.101356 0.600588
11860 3.3852151800000003 14.88803859 -1.15664805 0.8228559999999999 -2.233647 0.5587439999999999
11880 1.93592502 16.50647277 -3.33910818 0.231147 -1.824967 0.6352720000000001
11900 1.63295298 13.60625418 -5.705535240000001 -0.420207 -1.3184870000000002 0.5488890000000001
11920 0.0691605 12.45215673 -5.3271243 -1.319007 -0.631774 0.62612
11940 -2.18755152 14.51052036 -1.59867684 -1.763424 -0.7242350000000001 0.424445
11960 -1.48969755 14.350205339999999 7.822729440000001 0.935199 -1.172232 0.361616
11980 -2.18410821 14.9230701 6.44439501 1.189678 -1.383538 0.502533
12000 -5.841904050000001 16.66903428 2.0658584700000002 0.584194 -0.934518 0.359928
12020 -8.89854309 19.376152830000002 1.4198013 -0.043628 -0.355917 0.332368
12040 -10.82713023 15.007338 2.2878391500000004 -1.039294 -0.09084 0.174455
12060 -9.39835278 9.64249425 1.72441161 -1.212335 2.19155 -0.349903
12080 -3.6326430000000003 7.074736560000001 2.5128216900000004 -2.688476 3.45582 -0.615002
12100 -0.0023936400000000003 6.21687168 3.4596044100000003 -3.517371 0.297659 0.007095999999999998
12120 3.08148777 5.67649764 4.1330511 0.17406 3.440857 -0.154881
12140 5.1162093 4.412224080000001 3.1587317100000005 -1.190384 4.228167 -0.587368
12160 1.83548043 4.03156665 2.30999994 -2.085157 3.178334 -1.008879
12180 0.16570071 2.5723978200000004 2.1803706000000003 -2.4659720000000003 0.781875 -1.047993
12200 -1.76228802 1.65002238 3.2368683600000003 -1.686452 -1.352695 -0.719346
12220 -2.9443734000000004 1.15844328 3.18552282 -0.473813 -1.633136 -0.902796
12240 -3.62606049 0.93750246 2.97865935 -0.616363 -1.40723 -0.530204
12260 -4.01045553 1.26247833 1.8399734100000003 -4.430173 -2.506043 -0.292653
12280 -4.267026270000001 5.229073350000001 -2.30490855 -3.297524 -1.16233 -0.042908
12300 -2.7581599800000003 14.152769280000001 -14.978604510000002 -1.893759 0.33132399999999995 0.569597
12320 0.69276258 25.93521693 -22.29074307 -1.437372 2.11443 0.7478239999999999
12340 0.4221243 14.495707260000001 -10.929968460000001 -1.716431 3.420195 0.52308
12360 -1.9127243700000003 6.746474340000001 -8.165373120000002 -1.6883689999999998 4.931444 0.060936
12380 -1.64058516 3.8905577100000004 -5.57784828 -1.810774 3.28398 -0.228364
12400 -2.41342677 3.60150606 -4.4683569 -1.898606 0.387355 -0.915338
12420 -8.81502075 9.139241250000001 9.21184506 -1.649218 -0.953358 -1.248367
12440 -8.95333194 12.45409911 4.900359870000002 -1.812228 -2.322646 -1.005265
12460 -9.49789485 29.60798283 -12.744945990000002 -2.207086 -2.866292 -0.574697
12480 -3.4810098300000005 8.86935834 8.009394120000001 -1.53152 -0.505392 -0.15746500000000002
12500 -4.7999152800000005 5.73741774 5.695803720000001 0.515115 1.600344 -0.254826
12520 -3.8381723100000005 5.90612031 5.363499780000001 0.938979 0.886699 0.153905
12540 -2.28275757 6.94166391 6.355486980000001 0.7157600000000001 -0.198663 0.308629
12560 -0.30835773000000005 11.15360703 8.72280675 1.1502 -1.935969 0.4249850000000001
12580 1.03075632 12.935652390000001 7.865540280000001 2.88143 -1.56796 0.400287
12600 0.8587674 13.076210070000002 3.79266372 3.699113 -0.6709970000000001 0.490307
12620 1.20978882 9.935440470000001 -8.95242942 3.987481 -0.19449 0.424412
12640 -0.17035065000000002 8.223899580000001 -2.1814104600000004 4.1081900000000005 0.394925 0.506753
12660 -0.86685084 7.79967594 -2.5801869600000003 4.049597 -0.133909 0.671528
12680 -2.0797788600000002 8.04756483 0.45101475 3.170395 -1.472774 0.056079
12700 -2.3861844000000003 6.4928956499999995 0.6039918900000002 1.962227 -1.554296 -0.8858809999999999
12720 -1.74701385 5.20183098 2.81818737 1.853851 0.16783299999999998 -0.686951
12740 -1.7061552 6.11328789 -0.7851139200000001 1.866589 2.697353 -0.038488
12760 -2.32332192 8.55231876 -0.7355734200000001 1.966065 3.703692 -0.038015
12780 -1.7486619300000001 10.616225040000002 1.1020063500000001 2.463819 2.061766 -0.384947
12800 -0.26539974000000005 11.980639080000001 -1.00351395 2.060814 -0.660887 -0.084103
12820 0.92882061 13.747115970000001 -2.3782579200000002 1.905171 -1.220963 0.518005
12840 0.051041430000000006 14.44840344 -4.05895617 2.0656060000000003 -1.13299 0.756158
12860 2.04400179 14.102924670000002 -3.85912647 1.441739 -1.718057 0.821984
12880 2.25880155 14.828315310000002 -1.91392119 0.922772 -2.139896 0.736647
12900 2.28724074 15.631842600000002 -0.24414147 0.413975 -2.155009 0.694656
12920 2.2441356 15.815662380000001 -4.04758638 -0.31750500000000004 -2.057677 0.697968
12940 2.64050865 13.3094232 -5.572462590000001 -1.238244 -1.525378 0.515666
12960 -0.00494424 12.50334531 -4.74198723 -2.068251 -0.999719 0.316915
12980 -2.6858602800000004 13.69158156 -0.20327301 0.8415100000000001 0.250421 0.315341
13000 -1.02537063 15.179189580000001 8.150255910000002 1.174757 -1.860706 0.496631
13020 -2.59559847 15.72525342 6.507718560000001 0.8890530000000001 -1.425783 0.405416
13040 -7.076688750000001 19.06540146 2.36897766 0.025867 -0.47592 0.17918399999999998
13060 -9.84487455 19.43873082 0.9313614 -0.449878 0.460118 0.143683
13080 -9.87601149 12.26893536 2.141591670000001 -1.183061 1.27146 -0.18615
13100 -7.882305570000001 8.18946648 1.7525565 0.244903 3.001004 0.023502
13120 -3.2775798600000003 7.43938407 2.24234037 -0.43771 1.207924 -0.394506
13140 -0.09759969 6.342459300000001 2.6403615 -2.271379 3.708853 -0.584639
13160 4.64019867 6.124069080000001 5.16126663 -3.37837 5.439204 -1.574149
13180 4.64679099 4.814286930000001 3.4471849500000005 -3.620364 3.768726 -1.865323
13200 0.7553307600000001 3.76212519 2.31134391 -2.8293310000000003 -1.151812 -0.946572
13220 -0.36867942 2.7244822500000003 2.6743433400000005 -1.28795 -2.541256 -0.6039439999999999
13240 -1.90523934 1.5627526200000001 3.0900224700000005 -0.967304 -1.993423 -0.419741
13260 -3.2207014800000002 0.7427543400000001 2.91324627 -4.401497 1.502373 -0.529393
13280 -3.1829820300000002 0.46298295 2.8520220600000004 -2.63516 0.619059 0.119669
13300 -3.1969024200000002 1.7253141300000001 2.48378409 -1.324683 -1.299103 0.747645
13320 -3.5346018600000004 6.260428080000001 -2.8645886700000003 -1.339291 -1.366554 0.8448370000000001
13340 -2.2120961400000003 15.753535650000002 -16.92410409 -1.585612 1.316496 0.8866799999999999
13360 -3.39957702 28.85669379 -24.777676170000003 -1.7135349999999998 3.582138 0.515415
13380 -0.9862974000000001 12.585229380000001 -10.927574820000002 -1.653287 4.5579550000000015 0.190914
13400 -1.7625823200000001 4.56071805 -7.703881290000001 -1.983545 2.4404060000000003 -0.375905
13420 -4.08365775 6.69273516 -4.9861287 -1.842324 -0.261239 -1.269831
13440 -9.39791133 13.51629648 1.00815408 -1.142811 -1.145471 -1.596029
13460 -9.63261558 20.164268610000004 3.04840845 -1.7544970000000002 -3.053553 -1.28914
13480 -10.67549706 12.561881580000001 -4.57748334 -2.490821 -3.359573 -0.8463069999999999
13500 -6.458472360000001 -1.11099231 12.322674540000001 -1.738762 -0.87403 -0.231079
13520 -4.38288237 2.9114412300000003 7.95909825 0.8420979999999999 1.264609 -0.228611
13540 -4.78779012 9.41602059 6.61519692 1.356142 0.6902520000000001 0.433741
13560 -3.8666115000000003 12.80093166 6.69946482 0.674716 -0.006927 0.613608
13580 1.0870362900000001 15.959516220000001 10.26580203 1.051728 -2.021853 0.409452
13600 3.2894107200000002 14.315036490000002 7.494918480000001 2.679979 -1.6933490000000002 0.230261
13620 4.892129280000001 13.03084863 -3.07624923 3.826033 -0.264375 0.192638
13640 3.6613863 9.72153342 -5.60823966 4.432358 0.145376 0.294625
13660 0.9093575700000001 7.82946891 -5.16201219 4.327776 0.444919 0.601158
13680 -0.30221667 7.869140550000001 -2.6065268100000005 3.940646 -0.7147479999999999 0.831744
13700 -2.4662732400000005 9.73605222 2.0776795200000002 3.0474 -1.861788 0.209543
13720 -3.98681343 8.374188779999999 1.14092262 1.950391 -1.82384 -1.134514
13740 -2.34217674 4.76788563 2.2558095 2.022842 -0.25253400000000004 -1.2033200000000002
13760 -2.9150415000000005 4.74767703 -0.3179421 2.045122 2.403267 -0.175733
13780 -4.89856464 7.35420384 -1.3861137600000002 1.993309 3.4930769999999995 -0.139036
13800 -3.39538815 9.273961980000001 1.09407006 1.974781 2.486336 -0.109033
13820 -0.53783325 11.32604721 0.15762708 2.245653 -0.731208 0.025169
13840 0.70293555 14.21758395 -2.9467768500000004 1.942365 -0.904093 0.6310899999999999
13860 0.8258352300000001 14.79777678 -1.92409416 1.859325 -1.335147 0.873549
13880 1.9461078 13.49623503 -4.52853144 1.175736 -1.795959 0.820226
13900 4.418512290000001 13.76881569 -3.7732006800000004 0.62341 -2.041918 0.736567
13920 3.01547628 14.839989209999999 -1.2936054600000002 -0.018622 -2.163508 0.797399
13940 1.5393950100000002 15.025152960000002 -0.7749409500000002 -0.776924 -2.285735 0.85208
13960 -0.39472497000000006 12.828772440000002 -5.969434050000001 -1.581375 -1.833418 0.590576
13980 0.76850559 12.918582989999999 -6.11582868 -2.281938 -0.982386 0.163713
14000 -1.42084116 14.209049250000001 -3.00320397 1.684332 -0.14169500000000002 0.407189
14020 -0.9279180900000001 15.98076468 5.35376826 2.096632 -1.751368 0.592661
14040 -0.7833186900000001 14.71709934 7.924822110000001 1.037716 -0.754577 0.52203
14060 -4.330791270000001 15.474068370000001 3.93666471 0.171646 -0.052478 0.453124
14080 -8.25264288 20.346587460000002 1.4784749099999999 -0.919988 0.275469 0.107521
14100 -10.16655426 18.09227889 1.8244049400000002 -1.324987 0.704507 -0.27294
14120 -10.37043549 10.20383226 1.6842985200000002 -1.259503 2.8416900000000003 -0.123534
14140 -7.16335029 6.5966363999999995 2.22497667 -0.01228 0.456522 -0.135267
14160 -1.7053998300000002 6.584207129999999 2.80337427 -0.33239 2.909328 -0.5252060000000001
14180 0.88046712 5.638022820000001 4.2073029900000005 -2.26044 4.082202 -0.985625
14200 6.33512142 6.01075377 4.36118265 -3.297038 4.523933 -1.59484
14220 2.86414722 3.82439907 3.05634474 -3.684862 1.7271759999999998 -1.42305
14240 1.02417381 3.0005062200000006 2.4815376000000002 -2.096954 -1.117626 -0.540917
14260 -0.8414037000000001 1.4756300100000002 3.2825241000000003 -0.919403 -2.137874 -0.301716
14280 -2.47315986 0.62689824 3.3235397100000004 -2.891717 -0.886797 -0.56706
14300 -2.86518708 0.7806307500000002 2.9761087500000003 -3.545803 0.537661 -0.312808
14320 -2.52420129 1.3578217199999998 2.8120561200000003 -1.463324 -0.5520619999999999 0.5310060000000001
14340 -3.21651261 4.70981043 1.1365866 -1.4306370000000002 -0.486629 0.92212
14360 -5.03403093 10.965147120000001 -8.586143640000001 -2.042573 0.299659 0.891201
14380 -3.3979387500000002 29.92621923 -34.02633816 -2.206045 2.005236 0.749004
14400 -2.7424443600000004 20.03389371 -13.496382180000003 -1.980927 3.230216 0.309968
14420 -1.96751322 6.255346500000001 -7.06440663 -1.574601 3.312264 -0.04729
14440 -1.4754828599999998 3.2440492800000005 -6.6026205000000004 -2.065164 0.496155 -0.540626
14460 -5.0322357 4.88089683 -1.33702452 -1.630329 -0.711905 -1.173769
14480 -10.281517650000001 12.05787321 2.9413813500000003 -1.155489 -1.280905 -1.2829549999999998
14500 -9.44715753 16.74013716 4.4626671 -1.625788 -2.582306 -0.96731
14520 -8.48091177 21.05791056 -13.2023961 -1.7494459999999998 -2.070273 -0.237098
14540 -5.954463990000001 1.6560064800000003 12.108914640000002 -0.800341 -0.076 -0.280026
14560 -4.09697973 2.85456285 7.02144864 0.470679 1.261637 0.036922
14580 -3.6769547700000005 6.092932139999999 6.11508312 0.5506949999999999 0.862857 0.591331
14600 -3.7685605500000006 10.273434210000001 5.747443560000001 0.841749 -0.892584 0.306126
14620 0.26165232000000005 15.67989198 10.28660904 1.989727 -1.823446 0.329224
14640 2.6523297 14.853762450000001 7.56631566 3.303458 -1.026929 0.33310700000000004
14660 3.68893278 13.9661046 -0.86235786 4.033018 -0.049702 0.407453
14680 4.07033577 10.51802694 -6.49798704 3.894853 0.61416 0.4782770000000001
14700 0.53154504 7.874379090000001 -4.2629845500000005 3.91158 0.325312 0.503333
14720 -0.6019023600000001 8.018223120000002 -1.3769904600000002 3.55635 -1.211216 0.378907
14740 -1.5658918200000003 9.55342926 0.42421383 2.79311 -2.11302 -0.6774680000000001
14760 -3.8017968300000002 8.12615274 1.34570637 2.239507 -1.138711 -1.157942
14780 -2.5697098800000004 5.14704213 0.66072312 2.1514330000000004 0.7490020000000001 -0.560635
14800 -1.33447392 4.3613298 1.31830704 1.875432 3.794129 -0.197929
14820 -2.9774625300000004 7.188503130000001 -2.76879402 2.246285 3.801903 -0.332081
14840 -2.9461686300000003 9.008120790000001 0.00074556 3.028074 1.218534 -0.723893
14860 -1.5829612199999998 10.49153013 1.07401842 1.881578 -1.5574370000000002 -0.031863
14880 -0.41014629 12.241692990000002 -2.05596999 1.653239 -1.630609 0.615046
14900 -1.2772914300000002 14.021795970000001 -0.66461769 1.561975 -1.164185 0.735589
14920 1.00875249 13.296993930000001 -2.19697893 0.8608049999999999 -1.4154209999999998 0.768401
14940 4.00925871 13.4079156 -2.5110264600000005 0.27465900000000004 -1.726651 0.7860699999999999
14960 3.1930078500000003 14.54000922 -2.3812499700000003 -0.31752 -1.417062 0.8680620000000001
14980 1.6205335200000002 16.54239699 -2.30999994 -0.905752 -1.408037 0.7197319999999999
15000 1.8190192500000002 14.841038880000001 -5.7990932100000006 -1.584058 -1.512742 0.319886
15020 2.3185248300000003 13.003459110000001 -5.29643862 -2.341599 -0.8410979999999999 0.047747000000000005
15040 -0.9310671 12.88849572 -3.7737990900000002 1.715043 0.011731 0.374092
15060 -2.52015957 14.869183770000001 4.07303352 1.586728 -1.159835 0.691959
15080 -1.61589339 14.68431432 8.017330410000001 0.492686 -0.910531 0.567561
15100 -4.277503350000002 15.9238863 4.22331291 -0.061448 -0.802036 0.290087
15120 -8.62371594 20.081040570000003 1.7191730700000003 -0.662077 -0.706774 -0.100927
15140 -10.408154940000001 18.49807935 1.7807013900000002 -1.188217 0.280035 -0.268237
15160 -9.96522363 11.53486287 1.77156828 -1.31354 4.549773 0.07793
15180 -5.88725568 8.123307839999999 2.0796219000000002 -1.481768 -0.061245000000000015 0.6157060000000001
15200 -1.4688905399999999 7.21335186 2.60248509 0.192918 1.896425 0.040578
15220 0.3005784 6.681061260000001 2.96054028 -1.374002 4.029344 -0.524303
15240 4.508028540000001 5.748650189999999 4.73405094 -2.628867 3.977068 -1.014769
15260 4.269419910000001 4.87940571 4.23184761 -3.4860870000000004 1.636706 -1.348907
15280 0.9394448400000001 3.0042536400000004 2.47136463 -2.365991 -1.141474 -1.003169
15300 -0.89199387 1.84999923 2.72987775 -0.7502489999999999 -2.48807 -0.783991
15320 -2.1654005400000003 1.32684174 3.55390794 -0.884091 -2.159123 -0.346308
15340 -3.3633585 0.86221071 3.2855161500000003 -4.379579 0.199496 -0.537184
15360 -3.2636594700000003 0.7999368299999999 2.29188087 -2.4384490000000003 0.370679 0.258094
15380 -2.6452959300000005 1.91901258 2.1903964200000003 -1.262792 -0.667167 0.903228
15400 -3.74655672 7.8703373700000006 -3.5164827900000004 -1.524697 0.638722 0.8986569999999999
15420 -3.05364699 18.44883315 -17.79843996 -1.739886 1.726741 0.725912
15440 -3.72949713 27.716212620000004 -25.50950217 -1.521054 3.1014470000000003 0.411622
15460 -2.36987037 10.01342997 -9.98767872 -1.577599 3.71765 0.076084
15480 -0.50714757 4.2529587300000005 -8.0691174 -2.202234 1.658493 -0.452274
15500 -0.3715243200000001 6.04667799 -3.86825958 -1.718647 0.107379 -1.11882
15520 -4.33528425 9.85864779 0.94169133 -1.292791 -0.996958 -1.309915
15540 -4.41731547 13.767471720000001 3.04676037 -1.7866970000000002 -3.084274 -1.038294
15560 -5.69700054 16.478180730000002 3.8405659500000002 -2.000853 -3.057591 -0.599716
15580 -14.32236456 15.240560940000002 -9.740093940000001 -1.241482 -0.6837260000000001 -0.30048800000000003
15600 -5.01083028 2.1761719200000007 10.774744830000001 0.6585479999999999 1.34489 0.100085
15620 -4.451591610000001 2.6452959300000005 4.78150191 1.022586 1.129834 0.550488
15640 -4.525686540000001 6.25234464 4.906795230000001 0.7242069999999999 -0.758654 0.48139
15660 -3.91855545 9.69354549 6.107146830000001 1.531955 -2.0403830000000003 0.36476
15680 -0.44293130999999997 15.541433640000001 9.920617560000002 3.019711 -1.594382 0.228235
15700 1.8182736900000003 14.03062497 7.15811175 3.967709 -0.223684 0.283306
15720 2.90860614 12.46473315 -0.67449636 4.240025 0.7312390000000001 0.470924
15740 3.95073225 9.80131815 -5.88156588 4.1586940000000014 0.902122 0.6976680000000001
15760 0.7084782000000001 7.71256314 -4.01794056 3.544695 -0.221623 0.401058
15780 -0.6590750400000001 8.394397380000001 -2.98569312 2.5489 -1.029336 -0.806612
15800 -1.72680525 9.59864355 2.67179274 2.196856 -1.02417 -1.525855
15820 -3.70195065 7.25765382 0.49023513 2.079424 -0.442398 -0.924944
15840 -2.39502321 5.5781523900000005 2.37960189 1.586169 3.116188 -0.373201
15860 -2.66715261 5.2019781300000005 0.16660323000000002 1.621491 4.383523 -0.317962
15880 -4.3206183000000005 7.62125166 -1.03285566 2.512844 1.752906 -0.445098
15900 -3.75568983 9.25195815 1.22520033 1.790589 -0.666475 0.21525500000000006
15920 -1.38716343 11.062295550000002 -0.49921128000000003 1.880714 -0.571689 0.675099
15940 -0.19833858000000001 14.12313327 -1.75449888 1.7110040000000002 -0.8745040000000001 0.625163
15960 0.8958884400000001 14.243335200000002 -1.0870362900000001 1.087329 -1.477439 0.630125
15980 3.843558 13.664182230000002 -2.68915644 0.429742 -1.7438220000000002 0.683557
16000 4.61041551 14.262190020000002 -4.30295049 -0.13686700000000002 -1.7801330000000002 0.664691
16020 2.98928358 14.39855883 -0.79005816 -0.8178449999999999 -1.6911439999999998 0.579704
16040 1.30573062 15.79724901 -2.41298532 -1.408601 -1.593444 0.369285
16060 0.26659656 12.672950400000001 -4.73151015 -2.20672 -1.268422 0.234039
16080 -0.40789980000000003 13.579315919999999 -5.70703617 1.53466 -0.677038 0.414307
16100 -1.9473046200000002 14.54569902 -2.44635894 2.050368 -1.417555 0.537431
16120 -2.01032406 14.486574150000001 5.84923212 0.814055 -0.451178 0.500851
16140 -3.2145604200000006 14.5094805 6.354888570000001 -0.448216 0.189244 0.215612
16160 -6.48196731 17.31000006 2.91488454 -1.036036 0.145585 -0.077926
16180 -10.09485297 20.2564728 1.6563105900000004 -1.031566 0.285476 -0.698711
16200 -12.418920450000002 13.75938828 1.9591256700000002 -1.735796 3.505733 -0.071096
16220 -10.56473235 8.95019274 0.2977335 -1.502263 0.343385 -0.12095999999999997
16240 -4.77327132 6.78658743 2.5418592900000005 0.196804 3.938474 -0.20770300000000005
16260 -0.46194309 6.37613703 3.39374007 -1.709299 4.415172 -0.5495720000000001
16280 3.3082655400000003 6.84900846 4.35579696 -3.01533 3.90604 -1.032333
16300 6.22615194 6.3203083200000005 4.944514679999999 -3.561863 1.363425 -1.140782
16320 1.90119762 4.704562080000001 2.62883475 -1.758908 -0.797674 -0.659675
16340 -0.08487612 2.9731167000000003 1.9553880600000002 -0.281524 -1.346049 -0.668949
16360 -1.32265287 1.78458615 2.6020436399999998 -0.6291859999999999 -1.839767 -0.244524
16380 -2.07229383 1.76348484 3.2385164399999997 -4.238784 -4.0694919999999986 -0.286108
16400 -2.60982297 1.1921210100000001 2.90021859 -2.627296 -1.63628 0.15038800000000002
16420 -2.43872676 1.02521367 2.36941911 -1.418711 0.728755 0.669614
16440 -2.0907072 4.19742432 1.2162241800000002 -1.5364719999999998 1.539084 0.8578959999999999
16460 -3.5823471300000005 9.923315310000001 -6.76114029 -1.689323 3.367658 0.8502129999999999
16480 -2.3981624100000003 27.728936190000006 -30.647421 -1.89422 4.609884 0.200915
16500 -4.55682348 23.59019529 -16.76947887 -2.004025 3.698096 -0.258019
16520 -4.219428150000001 5.4727733700000005 -7.520365620000001 -2.268175 0.657645 -0.78901
16540 -3.47816493 -0.06452037000000001 -7.86165552 -1.683701 -1.304626 -1.286614
16560 -5.39627499 3.5624426400000004 -1.5212857499999999 -1.50879 -3.042339 -1.110114
16580 -8.209527930000002 10.424920230000001 6.0117936300000006 -1.836951 -4.082057 -0.823722
16600 -5.630243490000001 12.617415990000003 9.32021613 -1.219019 -1.609572 -0.289531
16620 -8.60036814 26.077118580000004 -18.60570486 0.412583 1.868927 -0.19927
16640 -4.770583380000001 7.327108620000001 12.50649432 0.925562 1.891593 0.34694
16660 -3.6585414000000003 4.88868597 7.582482540000001 0.479076 0.798262 0.5567310000000001
16680 -4.51147185 5.914949310000001 5.0322357 0.402449 -1.674582 0.175872
16700 -3.74940162 7.61646438 5.13656505 1.558907 -2.9767650000000003 0.07666
16720 -2.3324452200000003 12.631934790000003 8.844803910000001 2.982275 -1.446015 -0.078797
16740 0.19728891 13.52931435 7.946080380000001 3.928559 -0.19472 0.000985
16760 0.5812425 12.27087774 4.11838515 4.348555 -0.279147 0.236899
16780 3.44343753 10.52895528 -11.359430640000001 4.112551 0.08847200000000001 0.416378
16800 0.95366934 8.55695889 -2.3462184600000002 3.752728 -0.25524600000000003 0.370507
16820 -1.91317563 8.46399933 -1.7302485600000002 2.850267 -0.371267 -0.73378
16840 -1.07146782 8.944944390000002 -1.5838539300000003 1.5810799999999998 -1.218261 -1.206236
16860 -2.14474068 8.09456454 1.23717834 1.613999 -0.140752 -0.5653859999999999
16880 -2.12333526 6.24411405 1.64672622 1.74206 2.923936 -0.11656
16900 -2.14803684 6.11044299 1.4310239400000002 2.160931 3.58257 -0.55245
16920 -2.8940775300000006 7.306154460000001 -0.92403333 2.07163 0.7974319999999999 -0.082691
16940 -2.43663723 9.50778333 -0.5387259600000001 2.062996 -0.656389 0.386992
16960 -1.1229605100000002 10.791362970000002 -0.6798820499999999 2.411504 -1.199771 0.640087
16980 -0.27468 12.592714410000003 -2.66880069 2.000324 -1.440525 0.730459
17000 -0.053886329999999996 13.237123500000001 -2.883159 1.317221 -1.898673 0.809596
17020 1.6067602800000003 13.849944390000003 -2.40490188 0.789357 -2.161762 0.726129
17040 3.11802021 14.335990650000001 -0.89273943 0.13144 -1.926911 0.641116
17060 2.56371597 13.821063750000002 -0.03922038 -0.60892 -1.504346 0.57131
17080 1.69986699 14.07463263 -0.11735703 -1.419079 -1.037489 0.408024
17100 0.39158577000000006 14.149325970000001 -4.46701293 -2.026337 -0.992165 0.256309
17120 0.96025185 12.892988700000002 -5.908661100000001 0.754033 -0.330481 0.206516
17140 -0.005542650000000001 13.50162072 -4.268968650000001 1.511991 -1.336813 0.526089
17160 -1.7901288000000002 13.596522660000002 -0.48798864 0.785524 -0.847432 0.518251
17180 -0.90306936 13.627806750000001 7.119048330000001 -0.017311 -0.553672 0.213165
17200 -2.7442395900000003 14.506782750000001 6.1113455100000005 -0.320639 -0.223269 -0.098094
17220 -7.01994771 17.683927830000002 4.648733370000001 -0.770654 0.241924 -0.157381
17240 -11.151360539999999 19.24936839 0.06496182 0.136183 3.421413 -0.054708000000000014
17260 -11.14626915 12.16101555 1.21801941 -0.501235 1.209969 0.213934
17280 -8.19426357 7.109012700000001 1.4694987600000002 -2.03963 2.723347 0.04422
17300 -1.73325042 7.188199020000001 1.4253341400000001 -3.3433040000000003 4.7901669999999985 -1.001573
17320 0.49427685 6.375538620000001 2.3972697000000003 -3.874247 4.6669220000000005 -1.687718
17340 5.518870560000001 7.667201700000001 5.4022689 -3.215627 1.447497 -1.419414
17360 4.44485214 6.54393708 2.5560837900000006 -1.155255 -1.255968 -0.593982
17380 0.28111536000000004 3.99219912 2.059119 -0.62913 -2.268035 0.028422000000000006
17400 -0.91954035 1.8788896800000001 2.46851973 -3.926306 -1.894595 -0.4576270000000001
17420 -2.27047545 1.6717220999999998 2.93315076 -2.280637 -0.789296 -0.171948
17440 -3.4840018800000006 1.2337350300000003 2.7619074 -0.81658 -0.8180930000000001 0.697166
17460 -3.70450125 0.6050415600000001 2.36582865 -1.16527 -0.950188 0.999343
17480 -3.39942987 1.96137216 1.6422332400000001 -1.714145 0.613372 1.008461
17500 -3.48669963 5.436996300000001 -1.1728149300000001 -2.453042 2.3109580000000003 0.699886
17520 -3.7061395200000002 12.63612366 -12.361894920000001 -2.3095 3.833706 0.1926
17540 -4.39186833 27.713966130000003 -27.341244990000003 -1.832458 2.560469 -0.162427
17560 -3.9682431 16.87096332 -13.73648193 -1.6386490000000002 0.24088 -0.74135
17580 -3.31919388 5.7827791799999995 -8.79541056 -1.383668 -0.723184 -1.230784
17600 -5.07399687 6.436468530000001 -7.91463933 -1.323317 -1.2402959999999998 -1.16988
17620 -7.94412819 11.08175859 0.67719411 -2.012436 -2.709623 -0.761545
17640 -6.953494770000001 15.83841177 -1.9860737400000001 -2.294051 -2.424148 -0.246858
17660 -4.8301595100000005 15.996480300000002 1.9422132300000001 -0.722186 -0.31453600000000004 -0.102918
17680 -8.69556438 4.384981710000001 1.49030577 1.079816 1.310291 -0.137278
17700 -4.541853420000001 -0.12080034 10.432258110000001 0.964213 0.99355 0.5833699999999999
17720 -4.15715427 4.77701874 6.018385950000001 1.01774 -0.954664 0.493305
17740 -4.645741320000001 8.47492767 4.52553939 2.259051 -2.165389 0.359317
17760 -3.4551114300000005 14.87681595 7.6555278000000015 3.5751480000000004 -0.844864 0.122195
17780 0.7699967099999999 16.308291150000002 8.848247220000001 4.148349 0.244734 0.202783
17800 1.94145786 13.4309691 3.98890296 4.226158 0.392938 0.368711
17820 7.341480270000001 11.50851321 -9.48263049 4.0433010000000005 -0.228222 0.553032
17840 3.3548238 8.120168640000001 -2.9068011000000005 3.365984 -1.37436 0.316897
17860 -0.6051887100000001 7.66420965 -2.4989013000000004 2.231036 -2.058921 -0.6654399999999999
17880 -0.7276371300000001 8.99764371 -0.31658832000000003 1.81135 -1.054764 -1.000807
17900 -2.80052937 9.76688505 2.45714013 2.141026 0.708001 -0.421787
17920 -4.59200214 7.78411728 0.86685084 1.796906 3.743852 -0.343691
17940 -4.09728384 4.940924219999999 2.35056429 2.086704 3.588647 -0.409834
17960 -2.6101270800000003 6.149516220000001 -0.27797616 2.990785 0.537872 -0.7040529999999999
17980 -3.3778773000000006 7.61092173 -0.93855213 2.123789 -1.527484 -0.0067090000000000006
18000 -2.4578856900000003 9.13265874 1.39180356 2.078907 -1.216411 0.560873
18020 -0.5263065 10.99343916 0.19324719 1.592863 -1.090177 0.582954
18040 0.1329255 14.082117660000002 -2.4177726 0.827255 -1.465706 0.585565
18060 0.47930679000000004 14.067441900000002 -2.3309541 0.223466 -1.62471 0.645644
18080 0.9758203200000001 13.74621345 -5.05349397 -0.46298 -1.420173 0.706817
18100 3.1118791500000005 14.18764383 -3.44104389 -1.09961 -1.043375 0.537381
18120 2.7970860600000007 14.50588023 -1.7811428400000002 -1.826898 -1.312172 0.189746
18140 2.5110264600000005 16.239581910000002 -2.6952975 -0.980956 -1.254831 0.035348000000000004
18160 0.59681097 12.472061220000002 -5.79969162 2.0736950000000003 -1.568427 0.418146
18180 -0.9759674700000001 12.5084367 -5.74490277 1.7454 -0.750367 0.454329
18200 -2.22048369 14.4258012 -0.62374923 0.5109060000000001 -0.29228200000000004 0.454733
18220 -0.2718351 15.772547430000001 7.591017240000001 -0.8207690000000001 -0.31669899999999995 -0.0096
18240 -2.0580693300000004 15.322582350000001 6.88478553 -0.39946 0.06984800000000001 -0.071246
18260 -5.95042227 17.25596658 3.47218083 0.586199 1.699368 -0.304663
18280 -9.6827643 20.60540469 1.0627859700000002 0.754195 2.05254 -0.059319
18300 -10.18123002 14.50139706 1.90404252 -2.25841 1.593562 0.115711
18320 -9.7465293 8.446184370000001 1.1049984000000002 -4.070718 3.897715 -1.231974
18340 -4.4279397000000005 7.207956360000001 1.9734973199999999 -3.915149 6.084433 -2.091471
18360 -1.54957779 5.96524518 2.91728799 -3.168376 3.3332010000000003 -1.501617
18380 1.6001679600000003 6.833734290000001 3.99309183 -1.880945 -0.330886 -0.337454
18400 5.9124085200000005 5.46902595 5.29763544 -1.460736 -1.522157 0.17014
18420 2.39846652 3.83517045 3.0287982600000003 -3.984925 -0.38211 -0.6212770000000001
18440 -0.16270866 2.00238777 2.42615034 -2.274368 -0.298519 -0.364813
18460 -1.83203712 1.2380710499999998 3.0169772100000003 -0.95851 -1.309718 0.687191
18480 -2.61371754 1.17116685 3.5022681 -1.161082 -1.249367 0.954891
18500 -3.25497762 0.94498749 3.01458357 -1.649046 -0.87371 0.941387
18520 -3.4296642900000003 1.17385479 2.1335180400000002 -1.976905 0.8313 0.817271
18540 -4.48677027 5.30347239 -0.8867553300000001 -2.145747 2.04679 0.4289060000000001
18560 -3.3449451300000006 13.46868855 -12.259507950000001 -2.05508 3.571309 0.056913
18580 -2.6945421300000003 31.000679100000003 -30.687239790000003 -2.184043 2.556821 -0.277042
18600 -4.76159742 16.89491934 -12.34063665 -1.876634 0.236231 -0.970538
18620 -3.74086692 4.0954788 -7.91463933 -1.084033 -0.889885 -1.360937
18640 -5.895044820000001 3.59028342 -9.596544210000001 -1.264068 -1.893135 -0.998782
18660 -9.15421131 12.57145614 -0.27168795 -2.101741 -2.393914 -0.514746
18680 -9.0380511 21.101172660000003 -4.69812672 -1.903475 -1.664898 0.019816
18700 -3.7074933 13.599965970000003 3.69027675 0.277378 0.375246 -0.5732470000000001
18720 -8.69976306 -2.9292561900000003 8.29350153 1.24478 1.323041 -0.271806
18740 -5.1187599 -1.08315153 8.46280251 0.869209 0.8686360000000001 0.468567
18760 -3.52382067 6.836432040000001 8.08423461 0.830916 -2.229855 0.668823
18780 -5.36439249 13.514942700000002 6.362520750000001 2.217059 -2.792312 0.5307430000000001
18800 -1.3257920699999999 18.066831750000002 8.907823350000001 3.3247379999999995 -1.552033 0.295472
18820 2.4647723100000003 16.24915647 7.43070222 3.982055 -0.07806 0.084531
18840 4.86907578 13.186082070000001 -0.77344002 4.3602940000000014 1.06233 0.15300899999999998
18860 7.337889810000001 10.15054434 -5.394332610000001 4.155738 0.862032 0.602627
18880 2.32122258 7.137157590000001 -4.46506074 3.228583 -0.82642 0.33873600000000004
18900 0.13845833999999996 7.98005241 -1.40378157 2.434384 -1.800281 -0.7861279999999999
18920 -0.9578582100000002 9.45778176 -0.10568313 2.063785 -1.6754220000000002 -1.052728
18940 -3.2358186900000003 8.68448889 1.8648221400000002 1.799738 0.514175 -0.405762
18960 -3.8484924300000003 7.662561570000001 -0.18905832000000003 1.640341 3.5199199999999995 -0.15221800000000002
18980 -3.86585613 6.4096676100000005 2.067948 2.442064 2.516421 -0.311974
19000 -3.35272446 6.33781917 0.46912401000000004 2.637337 -0.597808 -0.10793
19020 -3.7989519300000003 7.82992017 -1.1132388 2.1118490000000003 -0.7436520000000001 0.588271
19040 -2.04759225 8.81607042 0.08607293999999999 2.266679 -1.080193 0.698743
19060 -0.40220999999999996 10.253529720000001 0.59681097 1.591224 -1.334604 0.703965
19080 0.008829 13.293560430000003 -1.27819395 0.882775 -1.69482 0.823391
19100 -0.25193061 14.603332770000002 -1.9540342800000001 0.318261 -1.7099509999999998 0.8344229999999999
19120 -0.32991030000000005 13.702804200000003 -4.31942148 -0.331442 -1.510428 0.785832
19140 3.15663237 13.92044886 -3.74775354 -1.235835 -1.044615 0.698801
19160 4.56521103 15.43290561 -0.32572143000000003 -2.146451 -0.82053 0.328958
19180 5.682481740000001 16.42130235 -0.00434583 -1.375416 0.058713 0.096071
19200 2.49306435 13.835131290000001 -3.25078875 1.796807 -1.301875 0.333617
19220 -1.29240864 13.24819899 -5.19749496 1.414855 -1.150952 0.48458
19240 -3.7925165700000005 13.49953119 -5.41947564 0.493482 -0.8334309999999999 0.467055
19260 -3.0599352 14.58850986 2.6924525999999998 -0.307761 -0.7513 0.070384
19280 -0.82239192 14.013859680000001 7.324567830000001 -0.780946 0.103413 -0.14232
19300 -4.04923446 15.995283480000001 4.563405990000001 -1.183709 1.7882169999999995 -0.476304
19320 -7.782017939999999 18.47787075 2.27137797 -0.985367 3.276762 0.327545
19340 -10.02106215 16.10665641 2.36613276 -0.738272 0.735404 0.016333
19360 -9.783954450000001 10.958113350000001 0.7226928900000001 -1.494514 4.0775489999999985 -0.48675
19380 -6.47523765 7.359893639999999 1.6823561400000002 -2.8571 5.139078 -1.297726
19400 -0.95456205 6.59199627 2.2132929600000004 -3.673714 3.687318 -1.707495
19420 2.5852783500000003 7.600895909999999 3.3624559800000005 -3.5323870000000004 -0.213029 -1.204786
19440 6.39409914 6.357429360000001 4.467160080000001 -1.50584 -1.669009 -0.627948
19460 2.07064575 5.290003260000001 2.5933617900000003 -0.507885 -1.714436 -0.5226430000000001
19480 -0.22483539 3.29000913 2.06256231 -3.454542 0.442258 -0.7756569999999999
19500 -1.53969912 1.95343587 2.5999443000000007 -2.723729 0.4453470000000001 -0.051643
19520 -2.232756 1.8625756500000001 3.27594159 -1.033783 -0.828615 0.586704
19540 -3.3325158600000004 1.20678696 3.08793294 -1.349323 -0.707286 0.887719
19560 -3.1829820300000002 1.1141315100000002 2.428249680000001 -1.957073 -0.002782 0.792841
19580 -3.02535495 2.41193565 1.20170538 -1.74984 1.823964 0.6637609999999999
19600 -3.8044847700000006 6.899902740000001 -3.82798953 -1.873546 3.25062 0.176096
19620 -2.1894939 17.9770212 -17.670753 -1.841224 3.394867 -0.226583
19640 -3.90911823 28.51585515 -24.38623755 -2.11957 1.3203129999999998 -0.668113
19660 -2.76684183 11.10645036 -11.23444143 -1.733168 -0.471181 -1.077588
19680 -2.61940734 3.8740965300000005 -9.20959857 -1.393518 -1.6778380000000002 -1.180491
19700 -1.76273928 4.944367530000001 -5.57889795 -1.7449599999999998 -3.302653 -0.8091229999999999
19720 -5.23820646 10.97188659 1.55287395 -1.844698 -2.558053 -0.183727
19740 -6.911723790000001 15.98616018 4.14966924 -0.674473 0.320247 -0.11408
19760 -7.09105059 16.248558059999997 -3.1611253500000003 0.855504 1.587646 -0.038788
19780 -11.50821891 8.165373120000002 -0.1300806 0.765239 1.264103 0.496176
19800 -4.265231040000001 1.14316911 10.35756477 0.441661 -0.711889 0.486834
19820 -4.27376574 4.57268625 4.87266624 1.689655 -3.0804560000000003 0.319125
19840 -3.76032996 8.1559359 4.69932354 2.952363 -1.87957 0.20997
19860 -3.09391704 13.139975069999998 7.60807683 3.985491000000001 -0.463849 0.121369
19880 1.8971559000000002 15.902029620000002 10.32941988 4.3726970000000005 0.21876 0.11038
19900 3.0112874100000004 13.258381770000002 5.76047124 4.299217 0.892655 0.279918
19920 6.34425453 12.793299480000002 -9.30120435 3.807915 -0.029813 0.424015
19940 3.3841655100000003 8.71218252 -4.82791302 2.798896 -0.880078 -0.254923
19960 -0.01826622 7.709571090000001 -2.99721987 1.777268 -1.036557 -0.995727
19980 -1.12760064 8.394691680000001 -1.06758306 1.682648 -0.628505 -0.660421
20000 -1.9567320300000002 9.869272020000002 0.66596166 1.898286 1.768916 -0.186628
20020 -3.47247513 7.9968177 2.19847986 2.243634 3.047295 -0.497775
20040 -3.19750083 5.241051360000001 0.9234251100000002 3.353784 0.7043699999999999 -0.8309860000000001
20060 -2.3456200500000004 5.939346780000001 1.1901786300000001 2.609582 -1.047483 -0.317988
20080 -2.73196728 7.224721649999999 -0.71940654 1.931661 -1.178778 0.601457
20100 -2.6538306300000003 9.14373423 -0.11960352 1.82152 -1.060848 0.775725
20120 -1.14316911 10.71337347 0.22708187999999999 1.159341 -1.161037 0.8299799999999999
20140 -0.14414814 13.22799039 -2.12603301 0.590529 -1.488007 0.773015
20160 0.2806641000000001 13.88557431 -1.22759397 0.014569 -1.286504 0.698231
20180 1.0235754000000001 13.65086025 -2.7881001000000003 -0.759916 -0.894576 0.594043
20200 2.9918243700000002 13.67451216 -2.8102608900000003 -1.575522 -0.805408 0.314766
20220 2.3164353 14.47399773 -1.05874425 -2.128329 -1.049783 0.101847
20240 2.23514964 16.33417974 -0.09370512 0.714318 -0.059157000000000015 0.055272
20260 1.05635061 13.421992950000002 -4.58661645 1.883343 -1.561798 0.52363
20280 1.3247424000000003 13.302683730000002 -4.876855110000001 0.926935 -0.74767 0.489201
20300 -1.7329463100000002 12.76725393 -5.39852148 -0.052829 -0.5803510000000001 0.25568
20320 -2.83630644 14.498699310000001 0.88945308 -0.827691 -0.265259 -0.080217
20340 -0.18650772000000002 14.93204625 8.159830470000001 -0.873099 0.112925 -0.043631
20360 -2.72478636 15.324828840000002 5.3132039099999995 0.121904 3.594992 -0.027256
20380 -7.216039800000001 18.13059675 3.1145769000000003 -0.377256 1.856837 0.577166
20400 -9.668539800000001 17.42032332 1.4456898900000001 -2.231837 1.994331 0.302322
20420 -9.66570471 11.1893841 1.4076761400000002 -3.225524 4.263143 -0.909276
20440 -7.879617629999999 7.41303441 1.8525498300000003 -3.623218 4.872162 -1.549495
20460 -1.87275843 7.54670547 1.3956981300000002 -3.585407 1.912606 -1.527279
20480 0.9018725400000001 7.363336950000001 2.25162063 -1.906215 -0.933148 -1.018384
20500 4.22765874 7.3744124399999995 2.82327876 -0.8230209999999999 -2.245047 -0.4899810000000001
20520 4.23813582 5.3989727400000005 4.3989021 -2.136685 -0.927906 -0.5318229999999999
20540 0.9710330400000001 4.20699888 2.54964843 -2.9370130000000003 0.733376 -0.5000180000000001
20560 -1.22295384 2.3486121000000004 2.3197216500000004 -1.223622 -1.041158 0.357051
20580 -2.63302362 1.9431059400000001 2.6595204300000006 -0.916209 -1.756664 0.799154
20600 -3.84774687 0.92971332 2.8539644400000004 -1.381625 -1.288649 0.846578
20620 -4.2032612700000005 0.53154504 2.23005825 -1.76981 1.3217139999999998 0.807407
20640 -3.9431000700000003 1.5069141000000001 1.9067304600000001 -2.075438 2.775034 0.469056
20660 -3.9189969000000002 6.58331442 -2.9425781700000004 -1.90912 3.75831 0.052351
20680 -1.6627459500000001 15.128138340000001 -13.76163477 -2.106892 1.666044 -0.292453
20700 -2.4532455600000005 29.5370271 -27.491681340000003 -1.7778919999999998 -0.489939 -0.877051
20720 -2.2179330900000003 14.393016180000002 -12.423413430000002 -1.168581 -1.00855 -1.182983
20740 -2.8175889600000006 4.4779412700000005 -8.67236373 -1.342308 -2.4001240000000004 -0.951677
20760 -4.46461929 6.80170464 -7.607929680000001 -1.705966 -2.637125 -0.509533
20780 -7.62379245 11.51151507 0.9951264000000001 -1.526446 -1.196029 -0.07749600000000001
20800 -6.27659496 17.80233453 -3.6736586100000004 -0.148204 0.638886 -0.334071
20820 -2.9951205300000003 13.13787573 4.4420170500000005 0.7360359999999999 0.826717 0.145087
20840 -10.8307305 3.08643201 -0.40146444000000003 0.580097 0.728649 0.5617979999999999
20860 -5.63338269 1.00261143 9.047184210000001 0.832565 -1.63975 0.415978
20880 -4.29367023 5.279967630000001 5.6655693000000005 2.278531 -2.592686 0.106832
20900 -4.7482754400000005 10.09785483 4.12317243 3.47509 -0.8348709999999999 -0.158391
20920 -3.21471738 13.3005942 5.69041803 4.292008 0.084645 -0.11327
20940 1.51035741 15.65863371 9.03446064 4.558137 0.40881 0.108227
20960 2.84078961 12.92517531 5.3115558300000005 4.236448 0.350124 0.410498
20980 7.08581205 11.60910495 -8.676856710000001 3.364875 -0.396694 0.115879
21000 3.3043807800000002 8.90153514 -4.49755146 1.934785 -1.28444 -0.68132
21020 0.22168638000000002 7.9270686 -4.023336060000001 1.5351709999999998 -0.587052 -1.041791
21040 -0.29952873 8.68494015 -0.97641873 1.931362 0.922449 -0.322045
21060 -1.4022806400000003 9.795029940000001 1.12355892 1.772323 3.749312 -0.089633
21080 -2.7081682199999997 8.270448029999999 1.15095825 2.407077 2.839067 -0.514526
21100 -3.0582871199999997 5.851635570000001 1.58879817 3.244933 -1.106599 -0.73649
21120 -3.00380238 6.0653856600000005 1.2958519500000003 1.766241 -1.19109 0.361036
21140 -2.9056042800000004 8.277638759999999 -2.35819647 1.869224 -1.010468 0.656353
21160 -2.22722316 8.78598315 0.15687171 1.392742 -1.096395 0.712955
21180 -0.81056106 9.70746588 0.44697303 0.769021 -1.418313 0.772036
21200 -0.23411565 12.147242310000001 -1.97813745 0.233058 -1.4825780000000002 0.7908069999999999
21220 -0.71670879 13.47213186 -0.9017253900000001 -0.329989 -1.261923 0.7107479999999999
21240 -0.9202859100000002 13.85653671 -1.94445972 -1.189634 -0.989313 0.6819609999999999
21260 2.8521692100000005 14.376555000000002 -1.8845794800000002 -2.022287 -1.098365 0.437003
21280 3.41994258 14.53432923 -1.89670464 -0.85325 0.328924 0.268152
21300 2.8530717300000004 15.86909745 -0.44936667 1.957229 -1.017736 0.5330630000000001
21320 0.73017792 14.896573290000001 -4.509676620000001 1.03714 -0.776308 0.628876
21340 -0.41149026 13.481264970000002 -5.37472242 -0.15401099999999998 -0.699629 0.335242
21360 -2.05792218 12.7278864 -5.42831445 -0.733476 -0.528203 0.05964700000000001
21380 -2.52001242 13.68185004 0.01616688 -0.990577 0.901224 0.059224
21400 0.48498678000000006 14.214739050000002 7.4922207300000006 -1.176736 3.4931910000000004 -0.08319800000000001
21420 -2.10881646 14.936539230000001 6.510259350000001 -0.971162 1.362881 0.476443
21440 -6.699023370000001 17.55114948 3.51154836 -0.786423 1.330341 -0.07022300000000001
21460 -9.00228384 17.086518450000003 0.6599775600000001 -2.059654 4.244026 -0.8690620000000001
21480 -10.065668220000001 12.087509220000001 1.8419157900000003 -3.101608 4.408944 -1.513211
21500 -8.92144944 8.064330120000001 1.0886843700000002 -3.646754 1.196383 -1.6507029999999998
21520 -2.8987176600000004 7.03895949 2.1761719200000007 -1.922595 -2.341786 -0.918417
21540 0.29398608000000004 6.5924377199999995 2.7385596000000003 -0.733402 -2.958025 -0.490578
21560 4.820280840000001 7.2235248300000015 2.34980892 -0.725474 -1.982798 -0.090121
21580 5.20766793 5.680392210000001 4.1535638100000005 -4.3323019999999985 1.210548 -0.072405
21600 1.2979512899999999 4.26628071 1.9158635700000002 -2.590026 0.949164 0.379139
21620 -1.16353467 2.31897609 2.32930602 -1.288967 -0.460907 0.760707
21640 -2.34217674 1.9118218500000002 3.20259222 -1.591628 -0.181683 0.7261880000000001
21660 -3.3428457900000006 1.4286302999999998 2.8003724100000005 -1.56669 1.712668 0.6320680000000001
21680 -3.7193143500000003 1.1802999600000001 2.04264801 -1.7272150000000002 3.088036 0.214714
21700 -3.1388272200000005 1.7431290900000003 1.7610912000000003 -1.423731 3.625019 -0.069069
21720 -4.309091550000001 6.692882310000001 -2.06330787 -1.467994 2.183241 -0.4478180000000001
21740 -3.25827378 16.729208820000004 -15.828238800000001 -1.746786 0.432739 -0.941041
21760 -3.78667962 29.387787570000004 -28.190575170000002 -1.480497 -0.297264 -1.0995469999999998
21780 -1.55735712 11.11273857 -12.00458529 -2.018175 -2.682487 -0.8823290000000001
21800 -2.18769867 3.35003652 -6.55576794 -2.325919 -3.779331 -0.447238
21820 -2.85546537 5.2317711000000005 -2.32196814 -1.896737 -2.290396 -0.206867
21840 -5.99413563 12.216098700000002 1.28582613 0.614753 0.986377 -0.24907
21860 -4.51415979 15.273493109999999 2.88524853 1.403899 1.25717 0.344685
21880 -7.30930347 14.69209365 -6.947049600000001 1.152792 0.137821 0.49819
21900 -10.624759740000002 6.1110413999999995 2.6571267900000004 1.576921 -1.922628 0.448245
21920 -4.54409991 1.94190912 9.302106870000001 3.077586 -2.066277 0.172628
21940 -4.26118932 5.0865732900000005 4.39904925 4.115871 -0.189415 0.110177
21960 -4.42525176 9.486220950000002 3.62845413 4.300582 0.379608 0.174831
21980 -1.2546891900000001 15.179935140000003 9.211246650000001 4.066117 0.125162 0.339094
22000 2.6917070400000003 14.30036073 9.25061418 3.77584 -0.46997 0.23528
22020 3.0644281800000006 12.085713990000002 5.362450110000001 2.79288 -0.956214 -0.656519
22040 4.8999086100000016 11.13938253 -8.72700543 1.7599349999999998 -1.285006 -1.186742
22060 0.93210696 9.56226807 -4.12811667 1.7070599999999998 0.1942 -0.7595810000000001
22080 -1.15200792 8.80110036 -3.87783414 1.7593419999999995 2.402268 -0.210843
22100 -1.16607546 9.36601902 -0.70697727 2.054614 3.442375 -0.299844
22120 -4.12347654 9.24162822 2.32376337 3.298165 1.445752 -0.770367
22140 -3.2686037100000003 6.56160489 0.6502460400000001 2.264555 -1.761341 0.011666
22160 -1.5500290500000002 4.44964923 1.3757936400000002 1.912304 -1.2244700000000002 0.58963
22180 -1.63369854 6.40562589 0.3962259 1.881271 -1.394097 0.678293
22200 -3.0169772100000003 8.48660157 -0.48888135 1.178152 -1.419277 0.658459
22220 -2.6268825600000003 10.487194109999999 1.6118516699999998 0.462932 -1.478692 0.6855859999999999
22240 -1.19422035 12.06521109 -1.35573219 -0.263887 -1.306755 0.676016
22260 -0.05972328000000001 14.30066484 -2.1564145800000003 -1.058496 -1.072607 0.618891
22280 0.15956946 13.2026904 -2.55204207 -1.713799 -0.963596 0.300116
22300 2.99946636 13.963416660000002 -5.15677365 -2.066048 -0.956273 0.106435
22320 3.10484538 14.07328866 -4.76384391 1.467937 -0.590427 0.391297
22340 2.23770024 16.47953451 -1.7326422000000001 1.741407 -1.319432 0.775497
22360 2.17033497 14.945073930000003 -2.81070234 0.6259520000000001 -0.4922 0.532705
22380 0.61941321 12.333151620000002 -5.36933673 -0.209891 -0.5122140000000001 0.135923
22400 -1.3090267800000002 12.488826509999999 -5.332657139999999 -0.494129 -0.557358 -0.049739
22420 -2.51327295 15.54846741 1.80390204 -1.072051 0.553149 -0.203682
22440 0.12618603 15.432307200000002 7.753873050000001 -1.32159 3.4610199999999995 -0.170695
22460 -2.7193908600000003 15.69172284 5.80957029 -1.220109 2.169459 0.650995
22480 -6.581666340000001 18.3274344 4.47913809 -1.30175 1.264426 0.342868
22500 -9.37545624 17.41658571 0.38275677 -2.281333 4.082998 -0.368339
22520 -9.32635719 11.37035898 1.5798122100000003 -3.006266 4.205575 -1.088201
22540 -7.879166370000001 6.99255819 2.6954446499999998 -3.421036 2.360793 -1.330152
22560 -3.1335788700000005 6.62177943 2.2532687100000004 -2.115773 -0.241373 -0.93955
22580 -0.60130395 6.67910907 2.4520487400000004 -0.6703 -1.916635 -0.432719
22600 2.5771949100000002 6.0773636699999996 2.37092004 -0.662338 -1.575641 -0.200228
22620 5.453310330000001 7.112760120000001 5.667962940000001 -3.5870040000000003 1.07694 -0.339424
22640 1.19541717 4.21867278 1.92125907 -2.031083 0.15806900000000002 0.326373
22660 -1.04452956 3.0699708300000004 2.67239115 -1.203043 -0.8816940000000001 0.687071
22680 -2.3384391300000003 1.9637658 3.0511062000000004 -1.588784 -0.547949 0.676471
22700 -3.3136610400000004 1.6227800100000003 3.35302857 -1.460048 1.0972 0.740424
22720 -3.3257862 1.09377576 2.53812168 -1.866763 3.243618 0.322499
22740 -2.78974818 1.8681183 1.89820557 -1.957618 4.148274 0.07608200000000001
22760 -3.8907048600000005 6.28333443 -2.31014709 -1.940288 2.1809380000000003 -0.528026
22780 -3.14600814 14.181208470000003 -14.18255244 -1.611582 -0.20013 -1.034357
22800 -3.3849110700000002 30.38471901 -30.440998980000003 -1.332242 -1.547134 -1.152457
22820 -1.89505656 14.49405918 -10.66801203 -1.756182 -3.243801 -0.8648239999999999
22840 -2.4055002900000004 5.25946473 -8.28017955 -2.12732 -3.160472 -0.336617
22860 -4.31612532 6.8573862000000005 -5.04017199 -1.632562 -1.029632 -0.038926
22880 -7.65702873 9.2634849 1.7266581 0.734748 1.28232 -0.302022
22900 -5.7389186699999994 11.916717120000001 2.44771272 1.028723 1.305486 0.308888
22920 -3.7115350200000004 13.943953620000002 7.17667227 0.590037 0.560325 0.555674
22940 -9.55927602 13.62811086 -10.482553979999999 0.985594 -2.217787 0.447697
22960 -6.379580340000001 3.48415884 10.13167971 2.481 -2.591481 0.162724
22980 -3.8845736100000003 4.197267360000001 6.787931400000001 3.634906 -0.946916 0.016988999999999997
23000 -4.26807594 7.14150342 4.38648264 4.0646330000000015 0.07471 -0.095618
23020 -3.2028865200000003 10.042761870000001 4.533769980000001 4.08368 0.339646 -0.032799
23040 -0.54262053 14.36383143 7.7275332 4.060153 -0.459883 0.130431
23060 2.1519216 13.054657500000001 6.38826219 3.566732 -0.681551 -0.217767
23080 2.7550207800000006 11.943213929999999 0.6918600600000001 1.952919 -1.359946 -0.995154
23100 4.647683700000001 9.56331774 -5.955219360000001 1.580627 -0.730711 -0.853283
23120 1.4368608900000002 8.72925192 -2.94512877 1.78428 2.138458 -0.32676700000000003
23140 -0.20207619000000002 8.5490226 -2.2498254 1.999221 3.824496 -0.173602
23160 -0.7143151499999999 10.0527975 0.31973733000000004 2.701507 2.866664 -0.478322
23180 -3.32129322 7.888740930000001 2.6092245600000004 3.055657 -0.761724 -0.770301
23200 -2.96878068 5.68128492 1.5453889200000002 1.810817 -1.528743 0.31264200000000003
23220 -2.62464588 5.67230877 1.4934449699999999 1.921632 -1.1409280000000002 0.734866
23240 -2.78855136 7.91269695 -0.9135464400000001 1.512482 -0.801739 0.71555
23260 -2.09638719 9.167386140000001 -0.07603731000000002 0.812237 -1.282173 0.788187
23280 -0.86625243 10.44378486 -0.04625415 0.22414 -1.508353 0.850598
23300 -0.32482872 13.03534161 -1.66363866 -0.429099 -1.39718 0.788209
23320 -0.6336279 13.97494341 -1.04213592 -1.142685 -0.8940899999999999 0.537957
23340 0.12843252 13.004057520000002 -3.7380220200000003 -1.952434 -0.803415 0.143352
23360 2.6259898500000003 13.320204390000002 -3.2615699400000002 -1.51196 -0.124351 -0.092655
23380 2.57449716 14.150228490000002 -1.4079704400000002 1.6425330000000002 -1.362498 0.17665699999999998
23400 2.3321509200000006 15.784074180000001 0.87118686 1.232436 -1.253219 0.376615
23420 1.02192732 14.0412492 -3.8360729700000005 0.271586 -0.6354069999999999 0.422522
23440 -0.24997842000000003 12.710365740000002 -5.789057580000001 -0.656714 -0.592179 0.007922
23460 -1.72516698 13.28472162 -5.37546798 -0.959383 0.328619 -0.095785
23480 -3.03763707 14.231651490000003 0.13486788 -1.728029 1.864193 -0.35629
23500 -0.2601612 14.27012631 7.05138876 -1.414716 4.316129 0.518698
23520 -1.4202427499999999 14.4169722 5.67050373 -0.78264 -0.582113 0.263403
23540 -5.517379439999999 17.35326216 4.876855110000001 -0.4961 3.377156 -0.426536
23560 -9.1103508 17.817000480000004 0.36613863 -2.217068 4.651261 -0.807658
23580 -9.19133235 12.100389750000001 1.29974652 -3.4773050000000003 3.255334 -1.208846
23600 -7.29178281 8.46429363 2.3781009600000003 -2.993111 0.405059 -0.930483
23620 -2.45175444 7.88889789 1.36830861 -1.323358 -1.901745 -0.3935030000000001
23640 -1.2237092100000002 6.989713290000001 2.31628815 -0.5440659999999999 -2.433152 -0.311535
23660 2.6807787000000003 6.65411319 2.96204121 -3.5682910000000003 0.033797 -0.562284
23680 4.428538110000001 5.17982715 4.39112277 -2.71096 0.414503 -0.075015
23700 1.5593093100000002 4.635411390000001 1.8272498400000001 -0.905702 -1.012565 0.390213
23720 -0.58573548 2.4927700500000003 2.02049703 -1.108532 -1.301296 0.842093
23740 -1.76662404 2.18171457 2.55309174 -1.617779 -0.213909 0.815778
23760 -2.9005227000000002 2.2722706800000005 2.9463255900000003 -1.688708 2.464665 0.7595069999999999
23780 -3.5494149600000005 1.5476354099999998 2.67313671 -1.91525 3.665314 0.136817
23800 -3.73294044 1.4861070900000002 1.99145943 -1.673134 3.26017 -0.254078
23820 -3.55959774 4.94527005 -0.6441147900000002 -1.843813 1.105587 -0.755642
23840 -3.2971900500000006 11.978539740000002 -10.89554517 -1.7078220000000002 -0.531978 -1.080538
23860 -2.5084856700000002 28.695927510000004 -30.13383807 -1.525749 -1.764216 -1.043504
23880 -2.1609075600000005 16.7482206 -14.681773530000001 -1.851957 -3.303618 -0.741503
23900 -2.6716455900000002 6.08829201 -7.904309400000001 -1.992783 -2.827796 -0.264533
23920 -3.25138716 4.23648774 -7.084762380000001 -0.8751770000000001 -0.105476 -0.036956
23940 -4.856352210000001 7.58846664 -0.49562082 0.96839 1.514924 -0.06568
23960 -5.42636226 11.559407490000002 3.92303862 0.938388 0.931905 0.57045
23980 -5.77783494 14.01206445 9.281898270000001 0.839526 -1.159919 0.29577
24000 -11.922112620000002 20.63085183 -18.929483910000002 2.012925 -2.0953880000000003 0.117158
24020 -5.57215848 4.2191240400000005 11.489354279999999 3.35657 -0.92356 0.011811
24040 -3.3528814200000006 3.21576705 7.5181191300000005 4.228177 -0.383608 0.090914
24060 -4.02962427 6.327342090000001 4.969520370000001 4.34973 -0.487964 0.241448
24080 -3.12505398 9.55732383 5.71256901 4.133393 -0.8347889999999999 0.315157
24100 0.21869433000000002 14.633115929999999 8.440651529999998 3.920991 -1.009197 0.159005
24120 2.67209685 13.4713863 6.680453040000001 2.536318 -1.12883 -0.956124
24140 3.4172448300000005 12.03318144 0.37032750000000003 1.378125 -1.402282 -1.098459
24160 3.23148267 10.04486121 -6.495887700000001 1.6528630000000002 0.808791 -0.42853
24180 -0.0375723 7.94682594 -4.25849157 1.852253 4.111711 0.055739
24200 -1.31965101 8.0400798 -2.8307637900000002 2.281995 3.622075 -0.147867
24220 -0.27497430000000006 9.25360623 0.25387299 3.591076 0.60856 -0.7864760000000001
24240 -2.75920965 8.8063389 2.08306521 2.260978 -1.946388 -0.328885
24260 -3.50002161 6.3298828799999995 1.19900763 1.882705 -1.630269 0.597421
24280 -2.6349660000000004 6.18573474 1.7134832700000002 1.7058529999999998 -1.1775520000000002 0.756907
24300 -2.33889039 7.421265 -0.15342840000000002 1.0569540000000002 -1.523405 0.6962020000000001
24320 -2.60248509 8.367302160000001 -0.7218001799999999 0.443134 -1.5852540000000002 0.711221
24340 -1.53745263 9.891884070000001 0.7475416199999999 -0.203569 -1.370006 0.7235199999999999
24360 -0.56627244 12.08691081 -1.5043733099999999 -0.985729 -0.973991 0.669479
24380 0.08951625 14.307394500000001 -1.2862773900000002 -1.65188 -1.1886 0.30404200000000003
24400 0.055230299999999996 13.52108376 -2.95171128 -2.017083 -0.905614 0.182556
24420 2.30535981 14.0207463 -3.68503821 1.952237 -0.559387 0.201292
24440 2.65113288 14.28598908 -2.9383893000000003 1.842643 -1.146102 0.499312
24460 2.33140536 15.02530011 -1.9435572 0.815753 -0.546003 0.503121
24480 0.45804852 14.073435810000001 -3.8559774600000005 -0.098567 -0.790038 0.252424
24500 0.5619266099999999 12.648994380000001 -6.620729760000001 -0.578001 -0.691337 -0.038403
24520 -0.58648104 12.668006160000001 -5.17279338 -0.764041 -0.126922 -0.09811
24540 -1.4419522800000002 15.375124710000001 0.7831715400000001 0.156194 3.550554 0.133274
24560 0.9361486800000001 15.39533331 8.290215180000002 -0.64907 1.499596 0.6398189999999999
24580 -1.58041062 15.34070142 6.058047780000001 -2.352491 2.130364 0.221188
24600 -5.604492240000001 18.44794044 5.51797785 -3.5084150000000003 4.092095 -1.045629
24620 -9.50793048 18.61289559 0.23127075 -3.59196 4.61144 -1.644014
24640 -10.27508229 12.18331368 1.2584366100000002 -3.782449 1.231797 -1.332298
24660 -8.63883315 7.619603580000001 1.22280669 -2.535044 -1.316167 -0.593929
24680 -2.7099634500000005 7.76749914 1.784439 -1.302052 -2.005717 -0.252216
24700 -1.37594079 6.97220244 2.92252653 -2.952222 1.76712 -0.593316
24720 2.6541347400000004 6.0153939 3.2745878100000003 -2.41891 2.013424 -0.313237
24740 5.3194921200000005 4.83344586 5.46813324 -1.085225 -1.278399 0.424551
24760 2.3659758 4.659357600000002 3.00799125 -1.210912 -2.489852 0.5918680000000001
24780 -0.58872753 2.8666880100000003 2.18126331 -1.580514 -1.745542 0.725065
24800 -2.27391876 2.26523691 2.6812201500000006 -1.658302 1.0015040000000002 0.6013609999999999
24820 -3.2103715500000005 1.93607217 3.09480975 -1.673703 2.303293 0.343212
24840 -3.9175057800000004 1.51499754 2.67134148 -1.342423 2.816888 0.023333
24860 -4.18260141 1.7871367500000002 2.10222414 -1.570261 2.312224 -0.114344
24880 -4.85709777 5.42666637 -2.1445935300000003 -1.957132 0.116405 -0.50627
24900 -2.90066985 12.80602305 -13.00675527 -1.678997 -0.675078 -0.751141
24920 -2.5325790300000004 29.968431660000004 -30.048961950000002 -1.759334 -1.839522 -0.657274
24940 -3.0699708300000004 15.64202538 -11.408971140000002 -1.7363650000000002 -2.478339 -0.232211
24960 -2.8951272 4.5173088 -7.8550632 -1.137166 -1.263283 -0.113147
24980 -5.3612532900000005 4.77506655 -8.374787190000001 0.479741 0.948019 -0.396311
25000 -6.261330600000001 10.88431272 -2.10118428 0.89355 1.049589 0.217473
25020 -5.96180187 17.89169382 -3.2230951200000004 0.481471 0.570481 0.507901
25040 -2.77881984 16.61125338 5.032088550000001 0.445238 -1.5027469999999998 0.323366
25060 -8.98626411 4.2716664 1.5015284100000001 1.7126990000000002 -2.848776 0.170506
25080 -7.68771441 0.19699461000000001 9.775272600000001 2.998896 -0.827175 -0.071996
25100 -5.32592748 4.55352732 5.48998011 3.990156 -0.070097 -0.048951
25120 -5.3194921200000005 9.21543552 5.14060677 4.388303 -0.8241799999999999 0.105416
25140 -4.10057019 12.04710183 5.3949310200000005 4.077386 -0.8362360000000001 0.19299
25160 0.56462436 16.167880620000002 9.78305193 3.442475 -0.4875100000000001 -0.150518
25180 3.1401711900000002 13.48740603 6.688389330000001 1.944765 -0.995763 -0.952949
25200 6.780152070000001 12.18465765 -4.343220540000001 1.659201 -0.905324 -0.944377
25220 3.98411568 9.940973309999999 -6.352485120000001 1.7350419999999998 1.643214 -0.311521
25240 1.20618855 8.344248660000002 -5.08702455 1.520727 4.6444540000000005 0.050604
25260 -0.31194819 8.82579213 -2.0255884200000005 2.631387 2.590466 -0.34493
25280 -0.63483453 9.40299291 0.5029587000000001 2.520414 -0.849533 -0.458801
25300 -3.6051063300000004 9.36871677 1.38027681 1.877822 0.028797000000000007 0.49378
25320 -2.47854555 7.63682013 0.49217751000000004 1.978028 -0.099896 0.6217630000000001
25340 -1.3708494 6.10161399 1.01668878 1.506728 -0.742787 0.629977
25360 -1.27085607 6.489452340000001 0.49831857 1.06386 -1.265263 0.604052
25380 -2.08322217 8.80619175 -1.69537401 0.528615 -1.448674 0.58132
25400 -2.09310084 9.45598653 0.90007731 -0.049584 -1.257868 0.519353
25420 -1.7552542500000001 10.981912410000001 -0.7863107400000001 -0.6963239999999999 -0.8910379999999999 0.453477
25440 -1.6301080800000003 12.560684760000001 -1.38776184 -1.302932 -0.8365389999999999 0.404305
25460 -2.0749817700000004 12.478055130000001 -2.3981624100000003 -1.386975 -0.906058 0.279893
25480 1.5539138099999998 14.606776080000001 -1.68699627 1.595604 -1.554255 0.219304
25500 3.23657406 14.62937832 -1.07191908 1.729329 -1.998628 0.407746
25520 3.0937698900000004 14.368324410000001 0.6524925300000001 0.984149 -0.78865 0.298441
25540 1.36156914 14.8280112 -2.0272365 -0.456761 -0.04946 -0.022355
25560 -0.26853894 13.39998912 -6.101466840000001 -0.4849310000000001 0.550563 0.199938
25580 -0.05268951 13.667174280000001 -5.643712620000001 0.714762 0.5268010000000001 0.30662399999999995
25600 -1.33402266 13.38007482 -3.74461434 1.489566 2.957914 -0.402515
25620 -1.24091595 14.208303690000001 2.8020204900000003 -1.376426 3.380413 0.320407
25640 0.008230590000000001 14.16699378 7.450901010000001 -4.2143690000000005 2.990144 -0.320621
25660 -3.57442065 15.128295300000001 5.712873120000001 -4.848141 6.241996 -2.057598
25680 -7.9836526800000005 18.44389872 2.7466430400000004 -3.688658 6.099838 -2.144388
25700 -10.16611281 14.30305848 0.5566880700000002 -2.299044 1.589784 -1.299962
25720 -10.61053524 9.596240100000001 0.9601047 -1.735513 -1.850964 -0.7468239999999999
25740 -5.43384729 8.44723404 2.2162948200000003 -3.446111 -1.156143 -0.927374
25760 -1.7476122600000001 7.33879233 2.81729466 -2.708214 1.170882 -0.883541
25780 3.02011641 7.577538300000001 2.70637299 -0.686071 -0.41666 -0.16983299999999998
25800 5.24883069 7.03312254 3.47442732 -0.764439 -2.528188 0.20193
25820 1.0503665100000001 5.32817397 1.23927768 -1.083835 -3.300578 0.228463
25840 -0.7243409700000001 3.56947641 1.49030577 -1.2557049999999998 -0.503404 0.437322
25860 -1.67561667 2.5646184900000004 2.6837707500000003 -1.988622 0.325259 0.304023
25880 -2.6363197800000004 2.04788655 2.68436916 -1.6776650000000002 1.14657 0.305142
25900 -3.29494356 1.61828703 2.25071811 -1.296099 2.268915 0.088452
25920 -3.13373583 1.5756233400000001 1.77665967 -1.570734 3.059484 0.026768
25940 -2.7394523100000003 2.41447644 0.9770171400000001 -2.047854 0.762621 -0.32613400000000003
25960 -2.00373174 6.12675702 -3.5218782900000005 -1.491623 -0.164899 -0.625504
25980 -1.88562915 17.99213841 -18.172063620000003 -1.2672 -0.716737 -0.547385
26000 -0.8176046400000001 29.2301703 -22.792200840000003 -1.58631 -1.438896 -0.29552
26020 -1.5946351200000002 10.87263882 -11.002268160000002 -1.544178 -0.889085 -0.098309
26040 -4.22496099 3.4696302300000004 -7.79309343 -0.636696 -0.12383800000000003 -0.180545
26060 -7.79758641 10.46832948 -7.02594162 0.382021 -0.228206 -0.0055850000000000006
26080 -10.789116479999999 19.988836380000002 -4.07707524 0.6426350000000001 -0.156592 0.240767
26100 -2.96937909 21.62911743 -6.05535984 1.133522 -0.647096 0.201027
26120 -5.21934183 -4.04414307 14.046487740000002 2.024479 -0.920543 0.145644
26140 -5.91629328 -6.48496917 10.80976653 3.233488 -0.940456 0.081475
26160 -6.54558516 2.78555931 1.75210524 4.615051 -0.927269 0.114609
26180 -6.43482045 12.27192741 8.713526490000001 5.099966 -1.199755 0.436676
26200 -6.896312280000001 17.102538180000003 6.6943832400000005 4.246281 -0.79175 0.642766
26220 -1.60361127 18.12985119 7.37052768 2.984343 -0.144775 0.050941
26240 2.7524799900000003 15.20433261 4.85126082 1.43426 -0.07724199999999999 -1.106175
26260 9.50673366 12.219090750000001 -6.52792716 1.837964 -0.594651 -1.002279
26280 7.5458127600000005 8.678357640000002 -2.43423378 2.030077 1.373424 -0.232203
26300 1.5458401800000001 8.29305027 -4.16478645 2.270856 3.937656 -0.202828
26320 -0.30746502000000003 9.24372756 -1.84372083 2.458993 2.111042 -0.449137
26340 -1.0105477200000001 7.91478648 0.34293798000000003 2.119252 -0.647512 -0.016413999999999998
26360 -2.36089422 8.83313001 1.1573936100000002 2.263847 -0.5771569999999999 0.644667
26380 -1.7738147700000002 9.38802285 -1.18343916 2.322485 -1.249746 0.694009
26400 -1.66483548 6.47373672 0.8406483299999999 1.682497 -1.56866 0.814929
26420 -1.66423707 5.87588589 2.6229978000000003 0.971821 -1.797496 0.848714
26440 -1.5425440200000002 7.500902580000001 -1.0822490100000002 0.36118 -1.681236 0.809048
26460 -1.5825099599999999 8.85004245 -2.36104137 -0.342511 -1.450379 0.6970149999999999
26480 -0.84753495 9.195374070000002 0.8038314000000001 -1.255851 -1.06766 0.618574
26500 -1.0811993400000002 10.727745120000002 -0.48708612000000007 -2.168645 -0.73114 0.371417
26520 -1.6950797100000001 12.35770605 -0.8827136099999999 -2.513209 -0.07358200000000001 0.066929
26540 -0.93331359 13.27439169 -1.03929102 1.387008 -0.5117109999999999 -0.041999
26560 2.16808848 14.1252228 -1.7384889600000002 1.292651 -1.606106 0.394579
26580 3.44747925 14.32625913 -3.6688713300000004 0.716931 -1.205982 0.4658890000000001
26600 2.38498758 13.98212433 -3.3281798400000002 0.081131 -0.742506 0.198071
26620 1.5808618800000003 15.19565076 -4.0639004100000005 -0.33599 -0.108045 -0.12825899999999998
26640 1.0431855900000004 14.07253329 -5.586078870000001 -1.31011 0.6291800000000001 -0.096483
26660 0.07529175 13.3097175 -5.8562757 -1.154546 4.128355 0.364796
26680 -1.69522686 14.92635645 -0.41268708000000004 -0.474824 1.077127 0.377727
26700 0.43679025000000005 15.633490680000001 7.2411926399999995 -0.909391 1.828758 -0.46269
26720 -1.8917702100000002 15.7476987 6.28857297 -1.960678 4.102242 -1.195065
26740 -6.226299090000001 18.20603565 3.78144108 -2.906487 4.306303 -1.588629
26760 -10.102043700000001 19.03546134 1.16921466 -3.630943 1.473078 -1.329412
26780 -13.10883813 11.936925720000001 0.20776599 -2.248829 -0.467475 -0.758592
26800 -8.66219076 9.18594666 0.38620008 -1.017705 -0.6720109999999999 -0.22737
26820 -1.5331166100000002 7.84518453 2.28515121 -1.776645 -0.034503 -0.220669
26840 1.29316401 6.86008395 4.01958864 -3.549947 1.632087 -0.672094
26860 6.31806183 7.52709528 3.91002075 -1.65413 -0.451734 0.116143
26880 2.9186319600000004 5.89204296 2.72373669 -1.016041 -1.6806880000000002 0.534509
26900 -0.25356888000000005 4.45129731 1.79132562 -1.31045 -1.303072 0.662291
26920 -0.9636951600000001 2.5450083 2.6391646800000004 -1.527001 0.208981 0.7432310000000001
26940 -2.03561424 1.68489693 3.01368105 -1.700762 1.446187 0.522514
26960 -3.3973305300000005 1.1103939 2.9144430900000002 -1.594264 2.549497 0.243038
26980 -3.4696302300000004 0.06900354 2.75292144 -1.4256799999999998 3.5096510000000003 0.01225
27000 -2.64005739 -0.10343664 2.91997593 -1.864705 2.015119 -0.4183270000000001
27020 -2.66700546 3.53324808 -0.03652263 -1.7977189999999998 0.328232 -0.869692
27040 -3.65031081 10.66786488 -9.780815250000002 -1.397227 -1.056749 -0.919599
27060 -3.0846367800000003 29.085413940000002 -29.601988920000004 -1.495324 -2.725505 -0.7012970000000001
27080 -2.0303757 19.06001577 -15.226787700000001 -1.622184 -2.768259 -0.289794
27100 -1.90553364 7.3170828000000006 -9.33248844 -1.412254 -1.077561 0.034245
27120 -2.34980892 5.908661100000001 -8.33946138 0.250733 0.6884680000000001 -0.025836
27140 -3.522771 8.60455701 -2.80397268 1.039377 0.805922 0.28717
27160 -7.1555709599999995 12.55574052 1.88128332 1.093438 0.18283 0.216775
27180 -4.771024830000001 13.357021320000001 5.81570154 1.8405240000000005 -1.523799 0.11629
27200 -8.000565120000001 15.23037816 -10.064020140000002 2.905667 -1.359622 -0.03885
27220 -10.855127970000002 4.897819080000001 5.30242272 4.2335400000000005 -0.508799 -0.041347
27240 -4.51700469 3.14136801 7.8001271999999995 4.859839 -0.355927 0.346323
27260 -3.5408900700000006 6.14981052 4.75994934 4.166214 -0.346115 0.624544
27280 -3.51709101 10.392292170000001 4.132158390000001 3.2724830000000003 -0.8285540000000001 0.301658
27300 -0.58019283 15.77314584 8.95452876 2.041008 -0.734891 -0.740035
27320 3.10678776 14.325209460000002 8.23767282 1.624289 -0.898682 -1.242663
27340 3.5094490200000004 11.94022188 3.52681272 1.978689 -0.342714 -0.724949
27360 6.06045123 11.39865102 -7.730819550000001 1.6805009999999998 3.046342 -0.304086
27380 2.04878907 8.73164556 -4.456535850000002 1.804827 3.501368 -0.450147
27400 0.08801532 7.7808211200000015 -3.3901496100000004 2.470156 0.730672 -0.5156569999999999
27420 -0.7593724800000001 8.819955180000001 -0.87986871 1.641372 -0.68174 0.166163
27440 -2.07693396 9.752817510000002 0.8014377600000001 1.7179060000000002 -0.528304 0.622631
27460 -2.8729762200000004 9.02936925 -0.01482291 1.563113 -0.8587739999999999 0.549334
27480 -2.04235371 6.53825709 0.5568450300000001 0.808417 -1.115291 0.617031
27500 -1.64957112 6.02886303 1.76348484 0.316525 -1.333152 0.646989
27520 -2.27721492 7.191946440000001 -0.46448388 -0.216681 -1.256818 0.667736
27540 -2.7463389300000003 8.64512136 -1.00980216 -0.78466 -1.003957 0.529917
27560 -2.1127110300000003 9.689346810000002 0.46582785000000004 -1.3597780000000002 -0.933162 0.374121
27580 -0.6523453800000001 11.23444143 -1.22010894 -1.597333 -1.520653 0.178798
27600 0.15492933000000003 13.092072840000002 -0.7683486300000001 1.1754440000000002 -1.3002129999999998 0.190406
27620 0.04864779000000001 13.855938300000002 -1.14272766 2.020326 -1.643486 0.586649
27640 1.75076127 14.60258721 -2.8872007200000005 1.414234 -0.586316 0.4753060000000001
27660 2.3740592400000002 13.83363036 -4.89421881 0.28434 -0.307863 0.285459
27680 2.18724741 15.23082942 -3.2245960500000006 -0.351331 -0.229198 0.079025
27700 1.49733954 14.62727898 -4.25190906 -0.029011 -0.571745 -0.051813
27720 1.19781081 12.601543410000001 -5.851635570000001 0.8085939999999999 1.0807870000000002 -0.317272
27740 -0.17019369 12.415035690000002 -5.94728307 0.622732 1.399426 -0.186519
27760 -0.6590750400000001 15.04251666 1.63804437 -2.177476 2.090431 -0.067027
27780 1.2000573 15.85098819 8.282730149999999 -4.037662 3.875412 -1.011661
27800 -2.7653507100000003 15.973279650000002 5.1759325800000004 -4.070081 5.946941000000002 -1.939622
27820 -7.000788780000001 18.32878818 3.9134640600000004 -3.915772 3.964132 -1.458508
27840 -9.907295580000001 17.70443073 1.71828036 -2.379109 0.609244 -0.843134
27860 -11.759541300000002 11.042989470000002 0.1070271 -1.241021 -0.926068 -0.169852
27880 -9.007963830000001 7.80806349 0.7810722000000001 -1.95581 -0.678688 -0.408034
27900 -2.05357635 7.07772861 1.7895303900000001 -3.204484 0.49268 -0.814567
27920 0.52271604 7.081171919999999 3.1063365 -1.405764 -0.814485 0.040363
27940 4.85111367 7.2072108 3.1031973 -1.254173 -1.222979 0.5643050000000001
27960 4.21882974 5.316490260000001 3.5624426400000004 -1.789304 -0.633035 0.816185
27980 0.45849978 4.225412250000001 1.56080043 -1.856163 0.537365 0.958428
28000 -0.8405011800000001 1.94819733 2.5307838000000005 -1.994523 1.877429 0.559434
28020 -1.75509729 1.65136635 2.77432686 -1.769508 2.462859 0.216288
28040 -2.91459024 1.66304025 2.66535738 -1.289173 3.0478080000000003 0.038364
28060 -3.2150116800000004 1.65450555 1.9725948000000002 -1.56338 2.095122 -0.439826
28080 -3.31590753 1.97903016 1.12625667 -1.864649 0.381769 -0.879842
28100 -3.7241016300000003 6.2442612 -2.1356075700000003 -1.490949 -0.699998 -1.075603
28120 -2.4206175 13.442799960000002 -12.80272689 -1.478948 -2.399719 -0.934472
28140 -1.83413646 27.370881 -26.029824570000002 -1.6768310000000002 -3.3549050000000005 -0.588526
28160 -2.92805937 15.43081608 -13.63813668 -1.589095 -2.3026880000000003 -0.063697
28180 -3.3718833900000003 6.14786814 -9.44012376 -0.098538 0.344499 -0.284209
28200 -3.0958594200000005 4.49978814 -8.71622424 1.16432 0.945426 -0.07533200000000001
28220 -4.58975565 9.99755739 -3.68054523 1.061705 0.582964 0.080376
28240 -9.16020522 18.47382903 -1.57188573 1.215914 -1.963327 0.017418
28260 -6.589749780000001 20.745059850000004 0.14340258 2.664898 -2.758346 -0.092151
28280 -8.46369522 2.34008721 4.68480474 3.773299 -0.821517 -0.02707
28300 -7.1021358900000005 -2.718351 11.88273528 4.4186809999999985 -0.66161 -0.082587
28320 -4.10341509 4.1037192000000005 5.699992590000001 4.589455 -0.092598 -0.003075
28340 -5.2340175900000006 10.45515465 7.56631566 4.231105 -0.272456 0.263844
28360 -4.672983690000001 14.73640542 6.3538389 3.192736 -0.759289 -0.16686900000000002
28380 0.59681097 16.943263019999996 8.489740770000001 1.498993 -1.389476 -0.676752
28400 3.019518 13.754601 6.02482131 1.303826 -0.987781 -0.529079
28420 4.8936204000000005 12.21490188 -2.47136463 1.573366 1.751484 -0.074576
28440 3.9275316 9.85445892 -5.75642952 1.948077 4.108129 0.335219
28460 1.18403757 8.758887930000002 -3.8404089900000002 2.225146 2.757938 0.483094
28480 1.05754743 9.78275763 -0.9954305100000002 2.434068 -0.5995060000000001 0.492061
28500 0.15552774 9.46062666 -0.10358379000000001 2.779277 -1.55028 0.5961029999999999
28520 -1.16442738 8.98641126 -0.00523854 2.937519 -2.372366 0.648469
28540 -1.93817151 7.6122657 -0.6575839200000001 2.214874 -2.472035 0.6253890000000001
28560 -1.7283061800000001 6.19995924 0.70892946 1.415049 -2.384073 0.633576
28580 -1.4807214000000002 6.177200040000001 1.4465924099999998 0.700337 -1.863947 0.652486
28600 -2.55878154 8.568181529999999 -0.5812425 -0.095265 -1.244694 0.72732
28620 -3.0097864800000003 8.77909653 -0.66715848 -1.010871 -0.66697 0.635795
28640 -1.2626254799999999 9.234143190000001 0.51628068 -1.843724 -0.5906319999999999 0.38312
28660 -0.40206285 10.81590759 -1.4853615300000003 -1.03067 -0.368665 0.113982
28680 -0.21450546 14.06939409 -1.32803856 1.312643 -1.895016 0.166489
28700 -0.42855966000000006 13.23203211 -2.14264134 1.224113 -2.124709 0.407583
28720 0.67524192 14.23554606 -3.57681429 0.95609 -0.854621 0.303671
28740 1.45467585 14.27596326 -3.4444872 -0.256722 -0.409035 0.214512
28760 1.7476122600000001 16.21593 -0.59426037 -1.263829 0.392042 0.29084
28780 1.31397102 14.4605286 -2.8551612600000005 -1.278352 1.972594 0.11673
28800 2.53872009 14.466365549999999 -4.78360125 -0.482003 2.260945 0.30993000000000004
28820 0.76850559 13.19445981 -4.356836820000001 -0.678521 0.848619 -0.109444
28840 -1.63445391 13.734833850000001 -1.51006311 -1.99069 3.018639 -0.582863
28860 -0.82612953 14.58252576 7.34821974 -3.280171 3.907577 -1.452927
28880 -1.63235457 15.32168964 6.73823394 -4.0043 2.338814 -1.18892
28900 -5.10573222 16.96946553 4.7027668500000015 -2.826449 0.6677029999999999 -0.955293
28920 -7.7363622 16.707803400000003 1.3301379000000002 -1.0042799999999998 -0.232684 -0.8794540000000001
28940 -7.95849984 12.69240363 0.9424368900000001 -1.056191 -1.271305 -0.5740430000000001
28960 -6.4297290600000006 10.593024390000002 1.22670126 -3.465578 -0.978061 -0.689524
28980 -2.48289138 8.25533082 1.90703457 -1.819622 -1.105692 -0.036931
29000 0.5063922000000001 6.963069330000001 2.8315093499999997 -0.992189 -1.24553 0.648417
29020 4.44081042 7.933651110000001 3.42652509 -1.574759 -0.6485449999999999 0.779247
29040 3.99354309 6.67656828 2.3255684100000003 -1.767968 0.7094659999999999 0.7344970000000001
29060 0.47032083 4.16449215 1.3009433400000001 -1.992882 1.033922 0.776307
29080 -0.89768367 3.0238638300000003 2.79154341 -1.6087280000000002 3.130229 0.4825430000000001
29100 -2.5694057700000004 1.6088498100000002 2.85052113 -1.642353 3.635516 0.159058
29120 -3.9956424300000006 1.7884807200000001 2.85171795 -2.097578 1.149265 -0.270361
29140 -4.40399349 1.53730548 2.20745601 -1.839786 -0.7294149999999999 -0.876108
29160 -3.86810262 1.6104978900000002 1.5838539300000003 -1.429038 -1.814755 -1.009649
29180 -3.7284474600000004 4.00193064 -1.87634889 -1.801794 -3.039693 -0.719058
29200 -3.1281931800000002 10.676693880000002 -10.962155070000001 -1.920335 -2.937311 -0.113267
29220 -2.44695735 22.885905960000002 -22.29463764 -0.8722799999999999 -1.024259 -0.176764
29240 1.47233385 19.09489032 -13.433666850000002 0.626467 1.129443 -0.338902
29260 -0.43334694 8.82504657 -8.211774420000001 0.695818 1.6830490000000002 0.217416
29280 -1.59508638 3.3870104100000007 -7.123384350000001 0.506316 0.345735 0.213533
29300 -3.68652933 6.73823394 -3.9285812700000005 1.164525 -2.591094 0.141778
29320 -6.8892785100000005 15.35222817 -0.71356959 2.15669 -2.522538 -0.01375
29340 -7.294029300000001 15.8370678 0.26884305000000003 3.4321370000000004 -0.496727 -0.2339
29360 -10.182426840000002 11.61569727 -3.9324758400000004 4.280635 0.281184 -0.235379
29380 -6.41296377 1.84880241 9.71839422 4.4102739999999985 0.423504 0.024922
29400 -3.85223985 4.208794110000001 5.64191739 3.942295 -0.688879 0.488823
