time Ax Ay Az Gx Gy Gz
20 1.3301379000000002 8.984017620000001 2.6102742300000004 -0.5862390000000001 -0.798204 -0.212444
40 1.2439178100000001 9.24717087 2.70921789 -0.5917600000000001 -0.803657 -0.176156
60 1.2602318400000003 9.51092253 2.95785234 -0.596119 -0.796296 -0.148422
80 1.31756148 9.64549611 3.1996001700000005 -0.567045 -0.7409859999999999 -0.15256199999999998
100 1.3151678400000002 9.44295885 3.2979454200000005 -0.5068739999999999 -0.667606 -0.173601
120 1.4193500399999999 9.34192566 3.4344613800000006 -0.408344 -0.579549 -0.168752
140 1.53745263 9.297918000000001 3.44434005 -0.256845 -0.5376340000000001 -0.12608699999999998
160 1.44539559 9.15121926 3.4546699800000003 -0.079674 -0.462858 -0.065125
180 1.4648586300000002 8.98700967 3.43161648 0.063971 -0.250548 -0.003505
200 1.5094647 8.744516280000001 3.38237028 0.182007 -0.050884 0.046202
220 1.70570394 8.79166314 3.4500298500000004 0.092306 0.150836 0.028225
240 1.72246923 8.63958852 3.5610986700000002 -0.172988 0.200886 -0.003602
260 1.6627459500000001 8.57656908 3.6037525500000003 0.142118 0.017741 -0.031077
280 1.4876080200000001 8.54692326 3.63758724 0.7263890000000001 0.005821 0.045659
300 1.56978639 8.41789233 3.74850891 1.088369 0.414274 0.151281
320 1.81153422 8.267907240000001 3.86795547 1.47763 0.921849 0.220648
340 2.16105471 7.82377911 4.16239281 1.899939 1.405945 0.272116
360 2.20596489 7.276665600000001 4.39695972 2.151939 1.564411 0.384768
380 2.0562741 6.898401810000001 4.69828368 2.282152 1.410269 0.457446
400 2.01286485 7.37711019 4.69843083 2.344301 1.176982 0.401563
420 2.44920384 7.97107626 4.6407970800000005 2.290833 1.065652 0.316943
440 2.86339185 9.166640580000001 5.82813081 2.146955 1.122521 0.339366
460 2.9265682500000003 10.190510279999998 6.855895080000001 1.894298 1.005911 0.415731
480 3.1418192700000005 9.04224978 5.32592748 1.5866129999999998 0.718119 0.457747
500 3.97768032 6.830143830000001 4.20400683 1.402871 0.435367 0.464304
520 3.7266522300000005 7.106619060000001 5.154831270000001 1.39365 0.740138 0.446757
540 2.96577882 8.74301535 4.913985960000001 1.497232 0.733495 0.419716
560 2.87132814 9.60716844 3.37353147 1.488575 0.387639 0.337845
580 3.0707163900000003 10.117308060000001 3.03104475 1.374313 0.518336 0.253558
600 2.7144564300000003 10.68118686 2.31119676 1.273319 -0.02496 0.342211
620 1.65301443 10.9235331 1.0353964500000001 1.053459 -0.37312 0.4864
640 0.76221738 10.59032664 0.35700552 0.939353 -0.355702 0.49199
660 0.45221157000000006 9.954746550000001 -0.07199559 0.8473870000000001 -0.439393 0.455135
680 0.35221824000000007 9.56959614 -1.12281336 0.860455 -0.293953 0.30335300000000004
700 0.22812174000000002 9.34790976 -1.43012142 0.932548 -0.257583 0.203397
720 0.27497430000000006 9.09508644 -0.79484544 0.952068 -0.257369 0.13302999999999998
740 0.8521750800000001 9.32320818 0.96429357 1.008288 -0.07016599999999999 0.155616
760 1.38567231 9.81373761 0.9830012400000001 0.908238 0.078934 0.251934
780 1.7807013900000002 10.50979635 0.16346403 0.6541020000000001 -0.090028 0.36788
800 2.47345416 10.389300120000001 0.42855966000000006 0.538745 -0.31457 0.410091
820 2.3611885200000002 9.47978559 -0.7068301200000001 0.635815 -0.228981 0.50039
840 2.00073969 8.80768287 -1.16143533 0.770251 -0.017349 0.473284
860 1.66543389 8.75918223 -0.81684927 0.7151569999999999 0.424345 0.35376
880 1.18089837 9.055267650000001 -1.42817904 0.579545 0.702476 0.181541
900 1.16697798 9.89667135 -1.3389669 0.393611 0.735641 0.041331
920 1.02117195 9.88858791 -1.63115775 0.049111 0.727381 0.007956999999999999
940 1.6268217299999999 9.84307932 -1.59927525 -0.385653 0.5851729999999999 -0.016262000000000002
960 2.52001242 9.42365277 -0.79484544 -0.372124 -0.037768 -0.089077
980 2.92341924 8.8786386 -0.7674559200000002 -0.385669 -0.222999 -0.10923
1000 2.8412408700000005 8.72430768 -1.45706949 -0.665814 0.348975 -0.112988
1020 2.9268625500000005 8.87878575 -1.8669214800000002 -1.466082 1.7600220000000002 -0.107568
1040 3.12744762 9.1012275 -1.07910981 -2.159522 2.348872 -0.243489
1060 2.69364942 10.123145010000002 -0.4197306600000001 -2.670645 2.2147650000000003 -0.362255
1080 1.7574909300000001 10.87802451 0.36030168 -2.773761 1.676683 -0.5097010000000001
1100 1.26456786 11.05780257 0.5905227600000001 -2.520873 1.371437 -0.5844550000000001
1120 1.52338509 10.974731490000002 0.6888680100000001 -2.126997 1.113589 -0.6465350000000001
1140 2.16958941 10.65829032 0.60698394 -1.774857 -0.264212 -0.8516809999999999
1160 2.35594998 11.35883223 -1.32430095 -1.726892 -1.7312419999999995 -1.122931
1180 2.25835029 12.441679650000001 -3.32368686 -2.25877 -1.732241 -1.4770219999999998
1200 2.7542752200000002 12.48972903 -2.8319606100000003 -2.396278 -1.743218 -1.277143
1220 3.3096193200000004 12.43988442 -1.29735288 -2.254572 -1.699318 -1.189683
1240 2.9928740400000002 11.793670290000001 2.3393318400000003 -1.9766 -1.83122 -1.212141
1260 2.4307904700000003 10.642564890000001 2.42765127 -1.7002080000000002 -2.050578 -1.207793
1280 2.25850725 9.689346810000002 0.8422964100000001 -1.369932 -1.623707 -1.1515540000000002
1300 2.4509990700000004 10.4749218 -0.18172044 -1.109162 -1.504318 -1.130658
1320 3.94055928 10.35216927 -1.0990143 -0.960904 -1.575847 -0.954342
1340 3.94400259 11.25150102 -2.9416854600000004 -0.912514 -1.604214 -0.8289860000000001
1360 3.6256092300000002 10.72519452 -3.3203907 -0.7623260000000001 -1.481876 -0.650768
1380 2.43243855 11.88513873 -4.299055920000001 -0.476201 -1.271552 -0.482397
1400 0.81490689 13.600122930000003 -0.77523525 -0.139852 -1.029501 -0.29982800000000004
1420 0.25581537 13.095516150000002 0.19788732 0.182667 -0.761904 -0.100297
1440 0.7804737900000001 10.74735531 0.07603731000000002 0.323406 -0.642579 0.04047
1460 2.44920384 9.00886635 -0.7937957700000001 0.303404 -0.591342 0.031719
1480 3.2548304700000004 7.509584429999999 -0.98225568 0.228542 -0.642171 0.020579
1500 2.8690816500000005 6.34965003 0.1907064 0.0076700000000000015 -0.934154 -0.029728
1520 2.16868689 6.356379690000001 1.3692013200000002 -0.378205 -1.207203 -0.14316800000000002
1540 1.66095072 6.949453050000001 1.0005219 -0.624233 -1.304645 -0.337042
1560 1.57308255 7.27965765 0.39068325000000004 -0.556077 -1.302979 -0.54594
1580 2.23215759 7.1974792800000005 0.34518447 -0.325881 -1.235148 -0.658718
1600 2.7719332199999998 6.678510660000001 0.99602892 0.06816699999999999 -0.94134 -0.68198
1620 3.07505241 6.389910270000001 1.45946313 0.320742 -0.5797100000000001 -0.49374
1640 2.8205810100000006 6.35608539 2.30131809 0.4270850000000001 0.314772 -0.232429
1660 2.53303029 6.936572520000001 2.98988199 0.256871 0.715797 0.060697
1680 2.18260728 7.851021480000001 3.3154562700000003 -0.365239 0.415688 0.25863
1700 1.7435705400000001 8.760977460000001 3.7684134 0.678458 -0.26300100000000004 0.7122390000000001
1720 1.6878889799999999 9.42694893 4.1694265800000005 1.729483 -0.070132 1.118848
1740 1.6790599800000001 10.041270749999999 4.691544210000001 2.445996 1.631151 1.02126
1760 1.4684490900000002 10.70124831 5.25557016 2.481103 2.235385 0.935273
1780 1.24196562 10.8221958 5.061126150000001 1.480646 1.4457 0.550078
1800 0.7424600400000001 9.75011976 4.7464802100000005 0.357098 -0.611158 0.411338
1820 -0.053140770000000004 8.381968109999999 4.21882974 0.097192 -1.481594 0.396751
1840 0.23845167 7.42545387 3.7669124700000003 0.512995 -1.0474370000000002 0.421532
1860 1.8465559200000001 8.94434598 3.75778917 0.901219 -0.459304 0.326282
1880 4.30804188 12.542418540000002 2.5818350400000005 0.96945 -0.014182 0.308028
1900 7.473807360000001 14.22327375 1.3642668900000001 0.8667440000000001 -0.375663 0.485099
1920 6.204148110000001 9.08894538 3.4166464200000006 0.834211 -0.535171 0.4423470000000001
1940 5.765258520000001 3.7014993900000004 2.62180098 0.7477590000000001 -0.438459 0.30809200000000003
1960 4.7865933 3.1609782 1.56289977 0.5391739999999999 -0.657845 0.207571
1980 1.5364029600000002 5.770055610000001 -2.13007473 0.428664 -0.834141 0.168569
2000 0.9683352900000001 11.367514080000001 -6.366111210000001 0.447134 -0.952632 0.213715
2020 1.00036494 15.629301810000001 -2.47240449 0.499964 -1.03285 0.24837
2040 -1.1666738700000001 14.63715765 1.4473379700000002 0.492583 -1.0560889999999998 0.20562
2060 -0.7099693200000001 9.57124422 0.6215027399999999 0.482149 -1.069636 0.139334
2080 1.4316223499999998 8.08229223 0.27482715 0.517863 -0.985488 0.110634
2100 3.0666746700000003 8.52716592 1.42548129 0.574074 -0.794049 0.139623
2120 2.8419864300000004 8.624912759999999 1.4861070900000002 0.638522 -0.6517109999999999 0.185825
2140 1.55811249 9.41033079 0.7161103800000002 0.7233649999999999 -0.470075 0.243869
2160 1.0160903700000001 10.612477620000002 1.19781081 0.725817 -0.574729 0.305977
2180 0.82194066 10.73867346 1.1054496600000001 0.716597 -0.723849 0.309308
2200 0.8039785500000001 9.9605835 -0.31778514 0.768811 -0.7166600000000001 0.33102800000000004
2220 1.13388885 9.22007565 -1.0653365700000001 0.8088069999999999 -0.628271 0.30342
2240 1.509759 9.020088990000001 -1.1546958600000001 0.792516 -0.403756 0.11608
2260 1.9417619700000002 9.30794382 -0.89962605 0.638731 0.09923 -0.060827
2280 2.30311332 9.62632737 -0.48783168000000005 0.354342 0.396548 -0.106992
2300 2.75712012 9.752219100000001 -0.23636214000000003 -0.008775 -0.011854 0.041615
2320 3.01427946 9.50448717 -0.42960933 -0.387798 -0.424359 0.164478
2340 3.17519289 9.18984123 -0.71206866 -0.5305770000000001 -0.6071439999999999 0.177601
2360 3.13598232 8.88896853 -1.0916764200000002 -0.540011 -0.6547069999999999 0.092139
2380 3.2648562900000004 8.88237621 -1.1021535 -0.791185 0.063623 -0.039791
2400 3.0292495200000005 9.21064824 -1.5497249400000002 -1.093566 0.984676 -0.20759
2420 2.77298289 9.38368683 -1.6681316400000001 -1.58436 1.512289 -0.390087
2440 2.2674834 9.27531576 -1.32309432 -2.429693 1.359999 -0.467367
2460 1.6290584099999998 9.65492352 -0.6474011400000002 -2.974809 0.627001 -0.505487
2480 1.4736876300000001 10.756184310000002 0.25686504 -2.852492 0.746027 -0.540037
2500 1.54388799 11.426334839999999 1.41215931 -2.438101 1.079085 -0.539705
2520 2.5833261600000004 10.91485125 1.04512797 -1.92371 0.469696 -0.7062470000000001
2540 3.33311427 10.158176520000001 -0.5926221000000002 -1.374165 -0.21095 -0.932272
2560 3.0599352 10.51488774 -1.71288486 -1.380959 -0.761937 -1.398426
2580 2.64949461 11.94680439 -1.9712508300000002 -1.591984 -1.085567 -1.53515
2600 1.71558261 12.82173867 -1.0946782800000001 -1.440531 -1.080937 -1.758425
2620 1.5458401800000001 13.09372092 0.31689243 -1.487825 -1.356838 -1.718877
2640 2.3628366 11.54743929 1.1488589100000002 -1.325858 -1.801921 -1.643468
2660 2.70891378 9.978996870000001 1.29840255 -1.117453 -1.869057 -1.552196
2680 2.8128016800000006 8.84300868 1.55242269 -0.920172 -1.4508379999999998 -1.348391
2700 3.34090341 8.44723404 1.16892036 -0.8690610000000001 -1.396884 -1.0329780000000002
2720 4.15490778 8.932976190000002 0.44891541000000007 -0.8251870000000001 -1.331028 -0.757155
2740 3.7411710300000003 9.82542132 -1.9208078100000001 -0.695059 -1.157504 -0.57487
2760 2.262990420000001 11.471245020000001 -3.9261876300000003 -0.524987 -0.8669899999999999 -0.379638
2780 2.29188087 12.56652171 -3.13777755 -0.302993 -0.632146 -0.160471
2800 1.3980917700000002 12.829969259999999 -1.2040990200000001 -0.174272 -0.448311 0.108316
2820 0.72913806 12.93954696 1.31127327 -0.105664 -0.4821 0.24023000000000005
2840 1.00261143 13.207938750000002 1.4329663200000002 -0.027275 -0.540276 0.068868
2860 1.93817151 11.11154175 0.21360294000000002 0.096287 -0.561149 -0.146023
2880 2.6622181800000004 8.37433593 -0.32467176000000003 0.320886 -0.822334 -0.292602
2900 2.9702718 6.9527394 0.7996327200000001 0.5078630000000001 -1.073029 -0.3657510000000001
2920 2.8872007200000005 6.460866 1.78548867 0.5275529999999999 -0.832986 -0.471675
2940 2.8737217800000003 6.418653570000001 1.46141532 0.53438 0.09319 -0.590318
2960 2.5144697700000003 6.52568067 1.08434835 0.275546 0.774241 -0.716913
2980 2.78974818 7.08955947 1.1975067000000001 0.16858199999999998 1.2115 -0.216156
3000 3.02551191 6.796917360000001 1.4473379700000002 -0.574741 1.50305 0.245092
3020 3.2368683600000003 6.13619424 2.05013304 -0.314311 0.574083 -0.234735
3040 3.31021773 6.1430710500000005 2.4234624 1.016985 -1.020166 0.35772
3060 3.0371858100000004 6.760090620000001 2.8069647300000002 2.611495 0.11093 0.896178
3080 2.50294302 7.739207100000001 2.9214768600000003 4.4709949999999985 3.199095 1.165855
3100 1.2284964900000002 8.38122255 4.47524352 3.817291 3.5146269999999995 1.412985
3120 -0.43738866000000004 8.61458283 6.02931429 0.401786 2.780469 1.223426
3140 -1.4694987600000002 8.86860297 7.028629560000001 -0.412084 -0.156568 0.615823
3160 -1.26711846 8.86352139 7.525604159999999 1.968077 -0.26887300000000003 0.530043
3180 -1.8489593700000002 8.44169139 6.721321500000001 3.01603 1.456292 0.300143
3200 -2.18844423 8.68987458 5.8323196799999995 2.633893 2.395892 0.09224
3220 -0.53917722 13.62900357 5.7392129700000005 1.692551 1.901786 0.861827
3240 5.313645360000001 23.737335480000002 2.04924033 1.065647 0.698746 1.224321
3260 10.45411479 18.26666145 0.40371093 0.755476 -0.125049 1.044817
3280 8.192164230000001 -0.6942537000000001 3.0380785200000004 0.794471 -0.785557 0.488324
3300 7.3169356500000005 -2.9821026600000007 6.05371176 0.740089 -0.596701 0.193941
3320 2.97985617 -0.20492109000000003 1.5124567500000001 0.950567 -0.411706 -0.163748
3340 1.3736943 4.74229134 -11.151958950000001 0.889919 0.139094 -0.124285
3360 1.94145786 14.967970470000001 -12.40440165 0.871684 0.0978 0.094626
3380 0.10208286000000001 23.20294554 -0.27063828 0.8172050000000001 -0.374951 0.350156
3400 -2.40758982 13.97614023 4.09338927 0.8496739999999999 -0.470033 0.390029
3420 0.60054858 7.820482950000001 3.71856879 1.100075 -0.53909 0.392935
3440 5.09331276 6.296656410000001 1.56380229 1.285534 -0.306583 0.429184
3460 5.34613608 5.06890548 -1.03674042 1.138875 -0.019202 0.350879
3480 3.2337291600000007 6.08365188 -4.05895617 0.817933 0.109296 0.196785
3500 0.6792836400000001 9.94546629 -3.9291796800000003 0.467877 0.476236 0.112685
3520 -1.93113774 12.41697807 -1.63998675 0.17108099999999998 0.537455 -0.020858
3540 -3.48744519 12.15367767 1.18224234 -0.297554 0.250247 -0.251295
3560 -0.70787979 10.90781748 1.7613855 -0.63422 -0.149114 -0.521258
3580 0.9026181 9.88020036 0.8255311200000001 -1.262773 0.217589 -0.8369709999999999
3600 1.74237372 8.00011386 0.26210358 -1.849191 1.227364 -1.100871
3620 1.6227800100000003 7.23400191 -0.95995755 -2.363397 2.562209 -1.201245
3640 1.3927060800000002 7.73965836 -0.86639958 -2.8756470000000003 2.957383 -1.01305
3660 0.99976653 8.806790160000002 -1.96077375 -2.496975 3.151336 -0.560932
3680 1.10095668 9.16124508 -1.7371351800000001 -2.175545 3.614033 -0.399046
3700 1.50856218 9.99590931 -0.35341506000000006 -2.0895 2.452148 -0.290134
3720 1.4070777300000001 10.597213259999998 0.9511187400000001 -2.164582 -0.218356 -0.260531
3740 1.06832862 11.17126503 1.8883269 -2.767743 -0.5104890000000001 -0.474809
3760 0.23486121000000001 11.82315915 0.63692406 -2.612064 -0.008627 -0.904859
3780 -0.7487384400000001 12.497508360000001 -1.24555608 -2.0985080000000003 0.160644 -1.05638
3800 -0.40835106000000004 13.80069819 -1.62232875 -1.995999 -0.49713 -1.020638
3820 1.28283408 15.85398024 -0.8890018199999999 -1.97079 -0.754224 -0.951767
3840 1.4587175700000001 16.456481009999997 -0.36403929000000007 -1.653845 -0.649155 -0.862093
3860 3.1271435100000002 14.59180602 1.02506652 -1.206449 -0.16667 -0.696148
3880 5.86211265 10.753192259999999 3.6643783500000002 -0.819576 -0.093046 -0.529034
3900 7.2733792500000005 10.21985199 2.946924 -0.466305 -0.292345 -0.279552
3920 9.67767291 9.73470825 -0.01227231 -0.13828900000000002 -0.390449 -0.006875
3940 11.02666563 10.84120758 -1.5766730100000002 0.27061 -0.453048 0.108225
3960 7.8920370900000005 11.359724940000001 -2.66700546 0.786679 -0.417978 0.214334
3980 3.3662034000000003 11.84621265 -2.0549301300000002 1.405296 -0.424529 0.25071
4000 1.8401205600000001 14.05607211 3.7609283700000002 1.220071 0.263687 0.133166
4020 0.15701886 14.78909493 1.74237372 0.506445 0.287495 0.12601500000000002
4040 0.57884886 11.19567231 -0.19489527 -0.399894 -0.032503 -0.315741
4060 1.98471996 8.649467190000001 -1.99191069 -0.585043 -1.084564 -0.52933
4080 3.4218849600000003 6.00071814 -1.79970336 -0.50579 -1.388968 -0.6640510000000001
4100 3.95597079 3.70404999 -1.26307674 -0.327158 0.039669 -0.046133
4120 3.4840018800000006 2.4899251500000004 -0.36838512000000007 0.250681 1.063173 0.8400110000000001
4140 2.87223066 2.5083385200000006 -0.13561344 0.09711 2.135999 0.949727
4160 2.25671202 2.8877991300000003 0.18396693 -0.112872 1.090019 0.569314
4180 1.8709632 3.0039495300000003 0.37601730000000005 1.774434 0.438466 0.166725
4200 1.48505742 2.94707115 0.60025428 2.830917 1.051148 0.013086000000000002
4220 0.96713847 3.1060422 1.54613448 3.35496 2.605346 0.101281
4240 0.18576216000000004 4.29636798 3.02071482 3.372355 4.215742 0.6932699999999999
4260 -0.50908995 7.28624997 8.14875498 1.988722 3.879667 1.753326
4280 -0.31134978 13.633045290000002 12.943431720000001 1.641886 0.403279 1.619694
4300 0.29593827000000006 20.09361699 11.17965258 2.4347 0.458658 0.937226
4320 -2.6906573700000003 16.64838423 6.8214619800000005 2.86713 1.205984 0.4212010000000001
4340 1.90119762 9.50673366 6.65351478 2.785015 1.543481 0.274917
4360 4.945868460000001 6.03739773 8.797058640000001 2.148784 1.7406990000000002 0.7904439999999999
4380 8.9367138 8.32344165 6.658753320000001 1.3397059999999998 1.226899 1.3088799999999998
4400 9.08535492 13.10883813 3.6064503 0.873618 -0.050271 1.422629
4420 6.0951786299999995 15.51553524 0.23291883000000002 1.417674 -2.307142 0.8396629999999999
4440 -0.32153256 6.2646267600000005 -1.60466094 1.155958 -1.251591 0.302371
4460 0.6210612900000001 1.8312915600000002 -1.94790303 1.340429 0.721226 0.161194
4480 0.39098736000000006 2.8928807100000005 -2.7804679200000004 1.804418 1.225399 0.2172
4500 0.5578947 6.204599370000001 -7.516922310000001 1.554259 1.230059 0.33402
4520 4.263131700000001 14.30769861 -3.7068948900000005 1.143537 0.5062220000000001 0.552132
4540 2.76280011 19.592012070000003 0.07155414 0.715481 0.487341 0.583349
4560 0.7450008300000001 13.47123915 1.64732463 0.6125390000000001 0.5909939999999999 0.326124
4580 2.0390575500000003 8.835827759999999 1.3051322100000002 0.477287 0.787748 -0.008357999999999999
4600 3.5672299200000004 6.772961340000001 -1.2379239 0.203561 0.996961 -0.141929
4620 2.8862982 5.114865330000001 -2.8916838900000004 -0.6443939999999999 1.409433 -0.258408
4640 2.52061083 6.864724080000001 -4.61790054 -1.508027 1.0321280000000002 -0.525671
4660 1.89700875 9.43263873 -4.745136240000001 -2.585514 1.7027599999999998 -1.066031
4680 -0.10253412 9.892178370000002 -2.6945421300000003 -3.314328 2.154714 -1.302437
4700 -0.97013052 9.73560096 0.47526507 -3.941116000000001 0.89236 -1.025323
4720 0.6686594100000001 8.59976973 3.52262385 -3.501696 1.140156 -0.504484
4740 1.37070225 8.22763719 1.2960089099999998 -2.626877 2.544498 -0.274778
4760 2.1195878400000003 8.494832160000001 0.52420716 -1.42837 3.4123940000000004 -0.438434
4780 2.4361859700000004 9.309591900000001 -0.31105548 -1.158665 3.21582 -1.063345
4800 1.4287774500000001 10.59422121 1.6079571000000001 -1.490494 1.609013 -1.481278
4820 -0.33530580000000004 12.02958117 1.90105047 -1.6524880000000002 -0.668652 -2.378934
4840 -0.36867942 12.919338360000001 0.9083079000000001 -1.821454 -1.190216 -2.337785
4860 0.36269532000000004 13.071118680000001 0.73796706 -1.696592 -1.698402 -1.901495
4880 1.59148611 12.93744762 2.13575472 -1.883745 -2.191191 -1.581705
4900 3.6013589100000005 15.513288750000001 1.2717585900000001 -1.692616 -2.243596 -1.429683
4920 2.69080452 14.29167888 1.10994264 -1.106354 -1.96918 -1.032834
4940 -0.59935176 13.19206617 0.85637376 -0.561199 -1.864887 -0.6809189999999999
4960 0.11197134000000002 13.040433 -0.43514217000000005 -0.070596 -1.608914 -0.38406
4980 4.55442984 13.06738107 -2.43363537 0.368026 -1.489257 -0.052137
5000 6.752154330000001 14.20366356 -2.8026189 0.869289 -1.660697 0.294484
5020 10.116258390000002 15.147895680000003 0.6976970100000001 1.487822 -1.651298 0.6043029999999999
5040 8.642727720000002 12.57939243 4.525990650000001 1.329257 -1.159363 0.530995
5060 4.8359964600000005 13.689335070000002 3.6158777100000004 -0.510668 0.013777 -0.071951
5080 0.5665765500000001 14.91004242 -3.05036064 -1.760064 -0.627037 -0.706903
5100 -2.00867598 15.23906001 -2.3462184600000002 -1.01872 -2.142186 -1.001022
5120 -1.00320984 10.21535901 -1.40976567 -0.749965 -1.962947 -1.035694
5140 1.1177219699999998 6.12870921 -2.06959608 -0.224081 -0.688578 0.030296
5160 3.6351936 3.2376139200000003 -3.8484924300000003 -0.32359 1.918368 0.328567
5180 3.2509359000000004 -0.8937891 -3.21172533 -1.336435 1.922399 -0.067346
5200 2.60099397 -0.22213764000000003 -1.70271189 1.021802 0.228455 0.058119
5220 1.5928398900000003 0.6491963700000001 -0.51477975 1.488047 -0.913919 0.8180729999999999
5240 1.41485706 1.0105477200000001 -0.040711500000000005 3.818129 2.040061 0.936317
5260 2.3616397800000004 1.1424235500000002 -0.27946728 4.9294730000000015 4.4051870000000015 1.250834
5280 2.77792713 1.40378157 0.4564004400000001 2.69377 3.670175 1.583331
5300 2.32227225 4.046389560000001 2.28424869 0.452094 0.320221 1.577307
5320 0.87089256 11.03744682 8.75214846 1.46731 -1.30969 1.240383
5340 -0.2137599 24.80267205 14.21114859 2.578002 -1.262674 1.040846
5360 -3.9830660100000004 25.25144031 10.6195212 2.4352080000000003 -1.349981 1.153192
5380 -0.31614687 10.14066567 6.69677688 1.613281 -1.454557 1.377252
5400 3.8384666100000002 5.1064777800000005 9.958493970000003 1.083622 -1.794682 1.379329
5420 4.22856126 14.241834270000002 10.38091257 1.2077950000000002 -2.046202 1.034415
5440 3.54328371 24.38953371 -1.9170603900000003 1.564351 -1.721956 0.359238
5460 2.94602148 9.895621680000001 -1.7817412500000003 1.552415 -0.498458 -0.036588
5480 7.683525540000001 -5.010683129999999 -1.7453657700000003 1.760675 0.314475 0.017237
5500 6.73134732 -1.24196562 7.860753000000001 1.6573669999999998 0.158184 0.296589
5520 -1.0159334100000001 1.57741857 -5.66242029 1.122632 0.130242 0.554604
5540 2.06495595 7.3110987000000005 -11.01424617 1.128798 0.405654 0.40688
5560 3.00440079 22.00005315 -5.3392494600000004 0.880446 0.908252 0.142787
5580 -1.0178856 18.28447641 -0.5343899400000001 0.173692 0.070296 0.118628
5600 -1.0389869100000002 11.007065250000002 1.32205446 -0.13674 -0.57453 -0.061108
5620 0.72060336 7.48294047 1.4995860300000001 0.0908 0.310334 -0.429189
5640 3.2275881000000006 4.86443565 -0.8849601 -0.794378 1.034867 -0.4971890000000001
5660 3.3253349400000003 6.21627327 -3.63084777 -2.136732 0.55245 -0.7035680000000001
5680 2.74588767 9.1129014 -4.40713269 -3.127535 1.470232 -1.0545639999999998
5700 0.97956774 10.305316710000001 -2.03367186 -3.862042 1.163705 -1.018709
5720 -0.19279593 8.908127460000001 1.57756572 -3.673648000000001 1.04276 -1.039671
5740 1.6334042400000002 8.15129577 1.6163348400000004 -2.584342 2.065713 -0.724657
5760 3.13986708 7.11141615 2.7634083300000003 -2.121694 3.3354730000000004 -0.314992
5780 4.60233207 8.413850609999999 2.24234037 -1.602387 2.130579 -0.747791
5800 2.13306678 8.992552320000001 -0.46194309 -1.840609 1.922116 -0.890194
5820 -0.26869590000000004 10.603648620000001 1.0033668 -1.787495 0.6532020000000001 -1.159525
5840 -0.5498112600000001 11.8144773 4.12092594 -1.606161 -0.926859 -1.784348
5860 -1.17026433 12.0945528 -0.060321690000000004 -1.773795 -0.496798 -1.561743
5880 -1.8618300900000002 13.22215344 -2.00238777 -1.700943 -1.479785 -1.424311
5900 0.5260023900000002 13.862069550000001 1.25573886 -1.508984 -1.38079 -1.305592
5920 3.57786396 13.53665223 3.42832032 -1.237347 -1.337545 -1.167018
5940 3.33970659 14.01699888 1.45811916 -1.061 -1.535962 -0.719015
5960 0.60623838 12.38958855 2.4480070200000004 -0.600683 -1.5952620000000002 -0.408076
5980 0.8044298100000001 12.776377230000001 -0.02470158 0.028179000000000006 -1.778245 -0.215442
6000 4.74961941 14.15157246 -1.4415010200000002 0.557134 -1.85338 -0.000143
6020 6.374341800000001 14.16369762 -2.7970860600000007 0.979243 -1.792585 0.148006
6040 10.21535901 15.95023596 -1.43506566 1.328045 -2.127858 0.305764
6060 11.006761140000002 15.36194988 2.99721987 -0.037428 -0.634101 0.097759
6080 6.918463260000001 13.82989275 5.09929686 -2.354683 -0.163025 -0.878294
6100 3.60749997 12.10816908 -0.52540398 -1.708896 -2.167176 -0.813531
6120 -1.4865583500000001 14.05067661 -3.58069905 -0.6582640000000001 -3.26674 -1.141273
6140 -1.68130647 11.066033160000002 0.84184515 -0.57504 -1.983645 -0.806914
6160 0.50235048 8.73089019 -2.57794047 0.118779 0.099747 0.26028
6180 2.5864751700000004 5.4109507500000005 -2.7831656700000007 -0.13822 2.351217 0.347467
6200 3.18552282 2.07438336 -2.9915300700000005 -1.574167 0.300708 -0.308347
6220 2.6491905000000004 -0.4837899600000001 -2.7774758700000004 0.741428 -2.263815 -0.349775
6240 1.9694556 0.16121754000000002 -1.1921210100000001 1.513582 -1.300385 0.206655
6260 1.7610912000000003 0.48349566000000005 -0.31464594 3.730763 2.051815 0.205028
6280 1.61199882 0.03128409 -0.21959685 4.253128 3.46553 0.527332
6300 1.6178357700000001 0.53888292 0.89978301 2.43311 4.042971 1.555395
6320 0.77059512 1.82755395 1.87200306 1.146164 0.198445 1.3259379999999998
6340 1.24211277 8.52432102 8.64646533 2.063403 -1.639876 0.977914
6360 -1.14302196 24.10916391 14.5909035 2.5048060000000003 -1.533663 0.674281
6380 -4.766688810000001 24.562268190000005 10.10548701 2.62705 -0.91965 0.19899
6400 -0.08083440000000001 8.94255075 8.76996342 2.259814 -0.5081859999999999 0.184147
6420 5.10932268 -1.13988276 6.27615351 1.949006 -0.955891 0.5254489999999999
6440 5.85028179 4.36402755 10.410852690000002 1.576256 -0.863821 0.468248
6460 6.041135340000001 18.23432769 7.428750030000001 1.666081 -0.6083569999999999 0.440774
6480 7.33863537 33.09692895 2.8996201800000003 1.830919 -0.6731699999999999 0.25613800000000003
6500 -0.02963601 0.68063742 -9.11783583 1.794334 -0.28415100000000004 0.239361
6520 4.25834442 -2.68915644 3.0918177 2.062844 0.333908 0.223353
6540 0.7289811 1.5214329000000002 0.89498592 2.104598 0.571448 0.191293
6560 -1.72022274 3.98500839 -11.11438665 1.553749 0.713006 0.166968
6580 1.51619436 13.72196313 -9.43847568 0.968223 1.143642 0.0758
6600 0.9479795400000001 24.20241777 0.31689243 0.390962 1.418149 0.12696400000000002
6620 -0.8994789 16.611851790000003 1.2966073200000001 0.149921 0.914125 -0.159289
6640 1.41275772 10.27268865 0.8006823900000002 -0.092818 0.526145 -0.426475
6660 3.843558 7.866589950000001 -0.07993188000000001 -1.015266 0.964509 -0.55953
6680 7.29283248 6.284835360000001 0.50759883 -1.816148 1.516659 -1.2804719999999998
6700 4.810843620000002 5.47995429 -1.35872424 -3.171795 1.954367 -1.406939
6720 2.51896275 7.585925850000001 -2.40863949 -4.229586 0.390299 -0.962602
6740 0.25851312000000004 7.9278141600000005 -1.55376666 -3.800011 0.4649680000000001 -0.56125
6760 -0.12513636 7.357352850000001 -0.6393177000000001 -2.784165 2.090964 0.325045
6780 0.7426071900000001 7.29253818 -0.09684432000000001 -2.320965 4.205229 0.26681900000000003
6800 2.20147191 7.27532163 2.6870669100000004 -1.43454 3.165626 -0.260836
6820 2.5147738800000004 8.04397437 3.06921546 -1.45622 2.535269 -0.5795779999999999
6840 2.2927833900000003 9.170682300000001 0.14100894 -1.665328 0.274591 -1.422037
6860 1.27534905 10.441391220000002 1.67786316 -2.242359 -0.774393 -1.798601
6880 1.17669969 12.27237867 3.5491206600000003 -1.951055 -0.698865 -1.49222
6900 -0.89888049 12.367133460000002 0.40744854 -1.72426 -1.083813 -1.060717
6920 -0.33755229 13.913415089999999 -1.3009433400000001 -1.679809 -1.24545 -0.904239
6940 1.7801029800000001 13.446684720000002 -0.07394777999999999 -1.229687 -1.023344 -0.8939020000000001
6960 2.12378652 16.79507316 1.0377900899999999 -0.842037 -1.219367 -0.69439
6980 -0.48304440000000004 15.383963520000002 1.6061618700000002 -0.355214 -1.166551 -0.4720720000000001
7000 -1.01623752 13.616132850000001 2.51387136 0.280123 -1.111935 -0.295721
7020 3.03613614 12.27926529 0.48559500000000005 0.843563 -1.198553 -0.168828
7040 5.55210684 11.67018201 -1.9056906 1.386352 -1.450846 0.11515999999999997
7060 7.04674863 12.70243926 -2.3951703600000003 1.764247 -1.662887 0.332784
7080 11.60058006 15.516584910000002 0.72419382 0.835987 -0.755233 0.062355
7100 7.989783930000001 13.942158390000001 4.82237037 -1.409713 0.952355 -0.641318
7120 4.19742432 15.15374244 1.22160987 -1.469886 -1.225186 -0.825887
7140 0.26255484 15.772105980000001 -2.36792799 -0.890603 -2.617771 -1.2601639999999998
7160 -1.13868594 14.54615028 -2.7819688499999997 -0.473328 -2.075987 -0.979137
7180 -0.39143862 8.56908405 -0.51657498 0.568868 -0.002844 -0.048366
7200 1.1966139900000001 5.67814572 -2.5222589100000006 0.333415 2.329482 0.312333
7220 2.58198219 3.1850813700000002 -2.8644415200000006 -2.153612 1.842424 -0.4041
7240 3.26621007 1.4154554700000002 -2.39352228 0.244202 -1.26417 -0.289367
7260 2.4716589300000007 -0.35027586000000005 -2.09429766 1.276205 -1.859914 0.477042
7280 1.66304025 -0.4773546 -0.2342628 2.9398720000000003 0.843367 0.729822
7300 1.22295384 0.23440995 0.5758568100000001 4.569917 3.873799 0.718097
7320 1.3644140400000002 0.65263968 0.12573477 3.740059 5.824192 1.202251
7340 0.4016115900000001 0.8604154800000001 1.49464179 1.349464 1.611196 1.899182
7360 0.2806641000000001 4.77402669 4.035157110000001 1.983611 -0.693311 1.163083
7380 -0.9608502600000001 14.38284321 11.909536200000002 2.768919 -0.838251 0.764966
7400 -2.00792061 29.675485440000003 15.05808513 2.621325 -0.7034239999999999 0.742398
7420 -3.58459362 18.47937168 8.439454710000001 2.025061 0.16739400000000002 0.8706450000000001
7440 0.8196941700000001 4.30833618 6.35458446 1.87817 0.271124 0.898328
7460 4.21867278 0.13172868000000001 8.670117240000002 1.965085 -0.521928 0.944816
7480 3.84565734 11.69682597 10.01283156 2.077322 -1.1818540000000002 0.711437
7500 3.2518384200000003 25.836126120000003 1.5010771500000002 1.512455 -1.028927 0.254369
7520 1.12850316 26.14358133 3.7541889 1.426844 -0.525212 0.102507
7540 6.5041281 -5.562436770000001 -7.15736619 1.780682 0.326902 0.088931
7560 6.85933839 -3.32787573 3.7221592500000003 1.594615 1.231766 0.13881500000000002
7580 2.15806266 1.59612624 -1.14661242 1.374088 1.896678 0.018918
7600 0.47361699000000007 6.536304899999999 -11.36945646 1.021564 1.327959 0.023594
7620 2.4381283500000004 17.28665226 -5.886657270000001 0.324245 0.080491 0.102575
7640 -0.30386475 23.62133223 1.03793724 0.233118 0.025133000000000003 -0.093476
7660 -0.76775022 14.24467917 0.41853384000000005 0.5793050000000001 0.8885629999999999 -0.532271
7680 0.8295728400000001 8.756337330000001 -0.09520605 -0.11809 1.318773 -0.42019
7700 3.1998944700000003 5.9442910200000005 -0.24084531 -1.210655 0.537688 -0.479163
7720 3.75059844 5.47381323 -1.3558793400000002 -2.105265 1.050096 -1.0372709999999998
7740 3.0546966600000003 7.14329865 -3.6326430000000003 -3.02803 2.132831 -1.4061629999999998
7760 1.67726475 8.959316040000001 -3.9737857500000002 -3.991398 1.395109 -0.966498
7780 0.24938001 8.956029690000001 -1.46170962 -3.646199 0.810373 -0.492252
7800 -0.86221071 6.939123120000001 1.39479561 -2.70475 2.395503 0.28889000000000004
7820 1.27145448 6.33452301 1.9314320400000002 -2.464522 4.59532 0.075173
7840 3.34389546 7.256613960000001 3.61543626 -1.700532 2.604027 -0.513007
7860 2.5611751800000007 9.254057490000001 1.3212990900000001 -2.037442 1.902063 -1.032548
7880 0.43544628 10.0730061 0.12065319 -1.761254 -0.743337 -1.989697
7900 0.026192700000000003 11.367514080000001 1.18193823 -2.172855 -0.663308 -2.198841
7920 -0.8702941500000001 12.22583022 -0.45804852 -1.936387 -0.86255 -1.596594
7940 -1.60002081 13.708641150000002 -1.75121253 -1.880914 -1.346129 -1.126637
7960 0.10612458 14.02568073 0.32617269000000004 -1.732982 -1.242039 -1.17808
7980 3.02835681 13.127104350000002 2.5611751800000007 -1.3842020000000002 -1.288846 -0.964076
8000 3.59013627 15.241002390000002 0.22108797000000002 -0.8904629999999999 -1.3691719999999998 -0.752221
8020 0.7432056000000001 14.69254491 0.41942655 -0.4289810000000001 -1.397729 -0.670981
8040 -1.1687732100000001 13.878393390000001 1.01040057 0.118226 -1.413408 -0.421447
8060 0.42241860000000003 11.97270279 1.8751520700000002 0.925084 -1.260936 -0.090199
8080 5.481602370000001 12.15876906 -0.75578202 1.604963 -1.302095 0.288481
8100 6.12601146 12.592116 -3.08628486 1.851394 -1.359202 0.236864
8120 9.80026848 15.254628480000001 -0.51358293 -0.408822 0.388177 -0.282159
8140 11.551324050000002 16.3374759 2.9671326000000002 -1.587224 0.469008 -0.559686
8160 7.102577340000001 14.76754236 5.06322549 -0.882287 -1.380131 -0.682715
8180 1.62831285 14.71530411 -3.78847485 -0.375685 -2.302775 -1.092464
8200 -2.2990716000000004 15.494581080000001 -2.17332702 0.024497 -0.627066 -0.382517
8220 -1.7911784700000002 8.82923544 -0.14669874000000002 1.68193 1.454122 0.400854
8240 -0.25102809000000004 5.28460776 -2.34322641 1.471581 3.778377 0.627142
8260 2.82657492 3.69865449 -3.41155503 -1.995569 1.924869 -0.113614
8280 3.15109953 0.33619851000000006 -3.8347290000000003 0.225709 -1.707596 0.060381
8300 2.48947389 0.28994436 -2.14967511 1.940761 -1.063935 0.113196
8320 1.93053933 0.95247252 -1.4069207700000002 4.023308 2.29078 0.397977
8340 1.46230803 0.84319893 -0.9083079000000001 4.748198 5.788688 0.948692
8360 1.5898478400000002 -0.16780005000000003 0.040711500000000005 3.794451 5.959169 2.297386
8380 1.51185834 -0.13531914 0.98974071 1.415519 3.792824 2.920205
8400 1.04677605 2.7364602600000003 2.7821160000000003 1.901602 -0.474115 1.828799
8420 -0.97836111 11.85355053 11.759541300000002 2.70211 -1.161264 0.349375
8440 -2.0254412700000004 28.080703170000003 16.70735214 2.436419 -0.177368 0.151842
8460 -4.86413154 22.073098410000004 9.82511721 1.873136 0.912882 0.521456
8480 1.22385636 6.64393041 7.715702340000001 1.356114 0.72758 0.954985
8500 5.460942510000001 -1.4154554700000002 6.77415816 1.38986 -0.976098 1.001201
8520 5.13312174 6.03574965 9.68515794 1.351163 -1.7400349999999998 0.536165
8540 4.371806879999999 13.925088990000003 1.2394248300000001 1.135737 -0.474087 0.356781
8560 7.21739358 29.196188460000002 -0.5123861099999999 1.520562 0.33021500000000004 0.284731
8580 0.31285071000000003 21.513565440000004 -1.9604696400000001 1.522649 1.021614 0.274246
8600 4.58975565 -6.07107546 0.05867361000000001 1.420894 1.372584 0.238902
8620 3.68174205 -3.08418552 1.59777432 1.076562 1.011378 0.290371
8640 2.46043629 1.6127443799999999 -7.041058830000001 0.5149060000000001 0.160188 0.253355
8660 2.7075698100000003 6.1252659000000005 -10.37192661 0.21477 0.202196 0.131564
8680 1.92889125 18.50287644 -3.90298698 0.497485 1.129038 -0.126158
8700 -1.7065966500000003 22.173837300000002 -1.4103640800000001 0.08855 1.520407 -0.141267
8720 -1.18538154 15.55220502 -0.33560010000000007 -0.986144 0.91504 -0.202477
8740 0.20387142 9.23654664 -0.5140341900000001 -2.016728 0.518648 -0.6129560000000001
8760 1.3997398499999998 4.45323969 -1.4612583600000002 -2.679552 1.78443 -1.427852
8780 2.55713346 4.26193488 -3.3633585 -3.768618 1.216861 -1.338592
8800 3.20364189 6.8038039800000005 -4.00776759 -3.911919 0.420788 -0.870691
8820 1.86871671 9.08161731 -1.3522888800000001 -3.210807 1.288416 -0.270838
8840 -0.29938158000000004 8.20878237 1.49988033 -2.580027 3.712199 0.442966
8860 -0.36104724000000005 7.003035270000001 3.2799833100000004 -1.736957 3.158596 -0.637885
8880 1.1011136400000001 8.71232967 2.60757648 -1.7149450000000002 1.385669 -1.377874
8900 0.14729715000000002 9.32920209 -0.23950134000000003 -2.197271 0.120859 -1.6765880000000002
8920 -0.10628154000000001 10.20084021 -0.31898196000000006 -2.048796 -1.557461 -2.209648
8940 0.55340172 11.45807019 0.9587607300000001 -2.189704 -0.760446 -1.868754
8960 1.19137545 12.526555770000002 0.10432935000000002 -2.058981 -1.712417 -1.280167
8980 0.19444401 13.230982440000002 -0.6483036600000001 -1.909628 -1.707531 -1.033439
9000 0.6310871100000001 13.3703433 1.29615606 -1.704514 -1.600731 -0.7469279999999999
9020 2.5300382400000005 13.41345825 2.215392300000001 -1.0954270000000002 -1.524427 -0.6434270000000001
9040 3.51633564 15.10868511 0.20627487000000003 -0.5370550000000001 -1.48464 -0.687647
9060 0.04939335000000001 14.021795970000001 0.21959685 -0.010327 -1.326539 -0.455571
9080 -2.02229226 13.170209490000001 0.2484873 0.559699 -1.330148 -0.047797000000000006
9100 -0.5851370700000001 12.33704619 1.03120758 1.27126 -1.32513 0.211404
9120 3.81856212 12.96169794 -1.1223621000000001 1.835142 -1.683816 0.443333
9140 4.5773361900000005 12.849432299999998 -3.2687508600000004 0.610795 -0.595479 0.0007570000000000001
9160 7.57873512 15.164513820000002 -0.65847663 -1.641584 0.75963 -0.995204
9180 11.971653120000001 17.08262388 3.59312832 -1.604999 -1.359966 -0.570285
9200 6.684798870000001 15.653699280000001 4.512070260000001 -0.602352 -2.2494810000000003 -1.16996
9220 2.00103399 13.86087273 -1.01668878 -0.473765 -1.472882 -0.752382
9240 -1.9007463600000003 14.865887610000001 -3.31949799 0.501999 -0.149456 0.442737
9260 -1.81287819 9.32934924 -0.13247424000000002 0.5205069999999999 1.951787 0.5630189999999999
9280 -0.31419467999999995 5.64401673 -3.17714508 -1.159686 2.031813 0.122824
9300 2.23919136 2.9990151 -3.60090765 0.837909 0.005936 -0.079613
9320 2.8150481700000003 0.5072947200000001 -3.0383826300000005 1.651243 -0.913677 0.350263
9340 2.6836236 1.1876280300000004 -2.06540721 3.187501 1.60514 0.756213
9360 2.0404113300000004 1.60915392 -0.9455859000000001 4.725683 4.5945230000000015 0.966089
9380 0.97851807 0.40356378000000004 -0.6020495100000001 3.301907 4.362921 2.041754
9400 1.3991414400000002 -0.25387299 -0.4288539600000001 0.894741 1.881006 2.219332
9420 2.0254412700000004 -0.13187583 0.91923624 1.443367 -0.607753 1.812951
9440 1.6724676600000001 2.23335441 2.11211262 2.590421 -1.285341 1.103987
9460 -0.36658989000000003 12.48958188 11.59534152 2.595314 -1.386765 0.623451
9480 -3.33581202 31.07358702 16.411874940000004 2.0730060000000003 -0.913666 0.51451
9500 -7.0464445200000005 20.91780414 8.350536870000001 1.837455 -0.664367 0.712303
9520 1.3564777500000003 5.24164977 7.435342350000001 1.6501689999999998 -0.810653 0.694091
9540 6.274054169999999 0.32901759 8.56234458 1.76299 -0.925982 0.400197
9560 5.9058162 9.390426300000001 9.61689996 1.596684 -0.709063 0.111406
9580 2.7596609100000005 19.92491442 2.85456285 1.369322 -0.229021 0.14125
9600 1.31531499 24.53428026 2.45744424 1.314039 0.213675 0.303734
9620 3.2925499200000004 1.5929870400000001 -6.27884145 1.175626 1.033176 0.34765100000000004
9640 5.95970253 -0.5522049 4.37195403 1.461298 1.172962 0.307806
9660 3.46005567 1.44539559 0.70907661 0.952763 0.56743 0.329599
9680 0.02889045 3.7693159200000004 -9.87151851 0.252689 -0.15146800000000002 0.363018
9700 1.9717020900000002 11.8751031 -9.19612944 0.348821 0.109087 0.123006
9720 0.027095220000000003 21.620141280000002 -2.0779836300000003 0.664786 0.737829 -0.473797
9740 -1.8449176500000002 15.851586600000001 1.23029172 -0.098767 0.941313 -0.349068
9760 -0.74081196 11.01933756 1.0343467800000004 -1.227088 -0.279175 -0.249632
9780 1.90119762 8.129144790000002 -0.6331864500000001 -2.228391 0.118059 -0.684424
9800 2.8565052300000002 6.278988600000001 -0.95022603 -2.955552 1.109194 -1.2259520000000002
9820 1.8809890200000001 6.370300080000001 -2.52389718 -3.782434 0.564876 -1.051569
9840 1.3774319099999999 8.195156279999999 -3.4578091800000004 -3.625677 0.954713 -0.641845
9860 0.67599729 7.95460527 -0.70353396 -2.941461 1.86075 -0.042159
9880 0.11840670000000002 6.82775019 1.6039153800000001 -2.335961 2.609071 0.107458
9900 2.01241359 7.2554171400000005 3.63744009 -1.980655 1.543789 -0.730454
9920 3.4208352900000003 8.81337267 3.78068571 -2.2600580000000003 0.90424 -0.924934
9940 1.67980554 9.22890465 -0.8732862 -2.547062 -0.203086 -1.082548
9960 0.86819481 9.982891440000001 -1.4292287099999998 -2.314703 -1.049385 -1.166367
9980 1.4804172899999999 11.156451930000001 2.52300447 -2.103246 -0.8208610000000001 -1.221798
10000 0.31524435000000006 11.74936833 0.64560591 -2.137162 -1.336925 -1.075028
10020 -1.9423603800000002 13.20419133 -1.6774119 -2.1848490000000003 -1.41689 -0.7505189999999999
10040 -2.04864192 14.51352222 -1.0975133700000002 -1.6909999999999998 -0.976382 -0.516898
10060 2.3144831100000003 13.728555450000002 1.83502917 -1.140401 -0.983415 -0.301535
10080 3.7175191200000004 15.207775920000001 -0.5638788 -0.590108 -1.262337 -0.290924
10100 0.8675963999999999 14.967823319999999 -0.16495515000000002 0.001998 -1.427693 -0.211801
10120 -1.97319321 14.03137053 0.82253907 0.464267 -1.743926 -0.118436
10140 0.07784234999999999 12.29557932 1.67516541 1.009884 -1.570365 -0.039004
10160 4.633763310000001 11.71973232 0.72553779 1.277503 -1.234265 -0.139046
10180 5.07175038 12.072696120000002 -3.1036485600000008 0.287043 -0.12615 -0.136702
10200 5.77424448 12.99073554 -3.18223647 -1.336657 0.5805779999999999 -0.173519
10220 8.05010562 15.076498500000001 1.0388397600000001 -1.253577 -1.620652 -0.685
10240 6.424039260000001 15.380068950000002 4.694085 -0.92913 -2.573181 -1.188919
10260 3.98755899 13.544431560000001 1.17385479 -0.337392 -1.33358 -0.8082239999999999
10280 0.7899110100000001 12.150979920000001 -2.04714099 1.139778 0.19051 0.120949
10300 -1.5039220500000001 11.21048541 -0.79020531 0.997041 2.876578 0.383565
10320 0.6725539800000001 9.17816733 -1.17655254 -2.187924 2.243449 0.03739
10340 1.3305793499999998 5.922885600000001 -3.5988181200000002 0.522713 -0.755918 -0.027427
10360 2.75756157 2.3736177900000004 -2.25026685 1.799408 -1.512498 0.255925
10380 2.85965424 0.41837688 -1.63998675 3.298773 1.206208 0.5235609999999999
10400 2.1806649 1.11907575 -1.18748088 4.949282 4.668461 0.664181
10420 1.1334474 1.90254159 -0.5565409200000001 3.179892 6.018024 1.167111
10440 1.15409745 1.94505813 -0.53049537 1.300894 1.24482 1.6557580000000005
10460 1.20274524 1.3989942900000003 0.44322561 1.735658 -1.248585 1.178086
10480 1.21637133 2.7884042100000004 2.65442904 2.761636 -1.054397 0.744896
10500 0.43424946000000003 7.22906748 8.305175430000002 2.737914 -1.2931549999999998 0.799515
10520 0.053140770000000004 16.81692984 15.545171250000001 2.013112 -1.240053 0.93539
10540 -2.0381648400000003 23.6166921 11.19297456 1.46961 -1.654268 1.095562
10560 0.31210515000000005 12.945383910000002 6.2683643700000005 1.616021 -1.175309 0.806483
10580 3.28192569 2.7810663300000003 6.95977317 1.906407 -0.222957 0.290272
10600 5.580546030000001 2.41373088 10.945841040000001 1.6986130000000002 0.107741 0.088639
10620 4.16478645 12.35231055 8.77505481 1.598373 -0.09335 0.113834
10640 5.9345595 26.476042230000004 -0.5921708400000001 1.601879 -0.533079 0.31952
10660 1.7919240300000001 23.634202950000002 2.7388539 1.249691 0.5953430000000001 0.284636
10680 6.36027426 -6.92564418 -6.20025354 1.1536 1.767369 0.046386
10700 5.45136795 -1.9917537300000001 5.0960007 0.925518 0.942282 0.118489
10720 -1.17834777 1.14916302 -4.83764454 0.010473 -0.17081500000000002 0.349601
10740 -1.28312838 6.1312500000000005 -10.431954 0.051327 -0.294924 -0.08365299999999999
10760 1.12880727 22.400919180000002 -3.9133169100000003 0.6496310000000001 0.754554 -0.646976
10780 -0.82463841 20.6350407 0.7288339500000001 -0.333826 0.723256 -0.492504
10800 -0.51807591 10.61936424 0.063765 -1.6540439999999998 -0.478401 -0.407251
10820 0.9563572800000001 8.522378640000001 0.10253412 -2.546214 0.563495 -0.978839
10840 3.1073861700000003 6.09307929 -0.79903431 -3.5366120000000003 0.9208 -1.028944
10860 3.1004995500000003 5.81930181 -1.70121096 -3.992632 0.415033 -0.95991
10880 1.43341758 8.40996585 -2.7774758700000004 -3.58509 0.89 -0.47804
10900 0.19803447000000002 9.78634809 -0.77104638 -2.862421 2.5902 -0.044678
10920 -0.33215679000000004 7.415879310000001 0.9729754200000001 -2.087268 2.6218790000000003 -0.380067
10940 0.60070554 6.625526850000001 0.5688132300000002 -1.917585 0.873344 -0.954549
10960 2.63661408 7.3946210400000005 1.8636253200000001 -2.221328 -0.136016 -1.0878370000000002
10980 4.01734215 10.129433220000001 4.03785486 -1.977434 -0.830076 -1.689857
11000 0.2311236 9.42694893 1.6407421200000003 -2.200842 -0.755521 -1.758811
11020 0.2604555 10.367139330000002 0.7758336600000001 -2.131087 -1.648111 -1.314936
11040 1.63489536 10.7846235 1.15170381 -2.116103 -1.854798 -1.056057
11060 -0.41268708000000004 12.24184014 -0.8059209300000001 -1.861851 -1.742809 -0.777755
11080 -3.30138873 14.688807299999999 -2.35444905 -1.348101 -1.384398 -0.54389
11100 -1.06698465 14.005177830000001 0.0005984100000000001 -0.773601 -1.239517 -0.510152
11120 3.53788821 13.764773970000002 2.3659758 -0.140724 -1.3984450000000002 -0.475618
11140 2.38993182 14.688807299999999 0.7697024100000001 0.475007 -1.435366 -0.301422
11160 -1.90059921 14.146481070000002 2.10776679 1.108013 -1.44776 -0.148502
11180 -1.0033668 11.99485377 1.5458401800000001 1.7175919999999998 -1.396374 0.058652
11200 3.2479438500000004 12.90915558 0.21225897000000002 1.1671129999999998 -1.05608 0.151579
11220 5.04450801 12.70662813 -2.41103313 -0.668271 0.590495 -0.036403
11240 5.550753060000001 13.79905011 -2.5108793100000004 -1.798802 -0.5752079999999999 -0.58119
11260 9.59010885 16.05351564 0.31749084 -0.897141 -2.1988830000000004 -1.047102
11280 7.69250169 14.84912232 3.80763378 -0.7474569999999999 -2.072967 -1.229952
11300 4.1936769 14.818730940000002 1.8179695800000002 -0.050245 -0.513333 -0.254998
11320 -0.49741605 15.423625350000002 -1.25873091 0.376076 2.1311310000000003 0.593827
11340 -2.01975147 11.61390204 -0.16690734 -1.619074 1.884528 0.589821
11360 -0.13845833999999996 8.08723647 -2.2571534700000004 0.434505 0.6489189999999999 0.114367
11380 1.6145396100000002 4.98358791 -2.8560637800000004 1.553771 -1.359086 0.465521
11400 2.51671626 1.38701628 -2.99721987 3.069942 1.312642 0.745084
11420 2.4004089 0.26061246000000005 -1.8691581600000002 4.996251 4.78386 0.5361739999999999
11440 2.4927700500000003 1.04018373 -0.98809263 3.397469 5.806068 0.970214
11460 1.52054019 1.48730391 -0.5951628900000002 1.123444 1.900391 1.436829
11480 1.18987452 1.29735288 -0.45295713 1.341599 -0.480775 1.316423
11500 2.0619639 0.97536906 0.0073378800000000015 2.487093 -0.700444 1.178359
11520 2.4481541700000005 1.7078032800000003 1.90119762 2.982614 -1.147245 0.861926
11540 1.54179846 5.67948969 5.34898098 2.2830630000000003 -0.8094640000000001 0.647235
11560 -1.0547025300000001 17.3929338 14.614859520000001 1.816214 -0.926057 0.90477
11580 -3.8844264600000002 27.39243357 12.82592754 1.529226 -1.0639379999999998 1.0022870000000002
11600 -2.3574509100000003 14.827412790000002 8.73927774 1.7215049999999998 -0.8906059999999999 0.646622
11620 3.412899 3.2421069 6.96516867 1.868858 -0.076703 0.244956
11640 7.01590599 4.07482875 11.44610199 1.621782 0.007308 0.229236
11660 5.98679775 16.8524028 8.78867109 1.871867 -0.473481 0.366195
11680 3.7112309100000003 25.53645024 -1.1728149300000001 1.693917 -0.714357 0.551131
11700 4.23005238 6.218814060000001 -7.2447831 1.095104 0.504843 0.406517
11720 6.82281576 -1.9832288400000002 0.5626819800000001 1.133687 1.60341 0.040047
11740 3.9109134600000006 0.8815167900000002 8.100558450000001 0.517386 1.316437 0.145069
11760 -3.34987956 2.18320569 -10.880123850000002 -0.004172 0.071187 0.050086
11780 -0.33186249000000007 10.00175607 -9.91269108 0.22821 -0.052984 -0.26753000000000005
11800 -0.35071731 23.875950780000004 -1.77291225 -0.001236 0.8755879999999999 -0.513877
11820 -2.09654415 16.22939913 -0.032186610000000004 -1.262833 0.369368 -0.43231
11840 -1.04063499 9.61376076 1.10679363 -2.330868 0.436448 -0.829757
11860 1.21292802 8.19740277 0.27647523 -3.4493910000000003 0.67528 -0.977813
11880 3.88202301 6.94481292 -0.9630967500000001 -4.025443 -0.127525 -0.848349
11900 3.5693292600000004 6.621033870000001 -1.19481876 -3.490257 0.325219 -0.780029
11920 1.6304121900000001 8.21476647 -2.20446396 -2.618457 2.102146 -0.216468
11940 -0.020355750000000002 9.11349981 -1.4771309400000001 -2.335569 3.149253 0.085404
11960 -0.40804695 7.24463595 1.03793724 -1.904213 1.696926 -0.7311840000000001
11980 0.6197075100000001 7.3826430300000006 -1.42698222 -1.555419 1.611717 -1.0362870000000002
12000 1.89131895 7.551051300000001 0.15567489 -1.373091 -0.757473 -1.722048
12020 4.176617310000001 9.43517952 4.75530921 -1.615125 -1.25517 -2.257212
12040 1.4822223300000001 9.27635562 1.87051194 -1.771966 -0.500369 -1.735846
12060 -0.62465175 10.5907779 1.74132405 -1.787805 -1.457599 -1.303169
12080 0.7403607000000001 11.16303444 2.6448544800000002 -1.712073 -2.041103 -1.169432
12100 -0.11945637 12.28884966 -0.58872753 -1.380742 -1.7945080000000002 -1.053134
12120 -2.5444098900000003 14.066097930000002 -3.1933119600000004 -1.011821 -1.818159 -0.786676
12140 -1.0021699800000001 13.98691161 0.49711194 -0.485677 -1.879145 -0.644054
12160 1.5117111900000002 15.08008896 2.6954446499999998 0.037891 -2.002053 -0.4650510000000001
12180 1.0517104800000001 15.22873008 1.43042553 0.55694 -1.813344 -0.155088
12200 -1.19422035 13.639931910000001 2.2180900500000007 0.984186 -1.694387 0.095572
12220 -0.54666225 11.922112620000002 1.02027924 1.208855 -1.547133 0.105498
12240 2.98254411 12.250227690000001 -1.02910824 0.062154 -0.466704 -0.291661
12260 4.731215850000001 13.097909790000001 -1.9327760100000002 -1.557821 0.055974 -0.392308
12280 5.41049949 14.463667800000001 -2.57883318 -1.066938 -1.698813 -0.74769
12300 9.31512474 16.42055679 1.07835444 -0.633142 -2.28107 -1.235296
12320 7.389686610000001 16.02717579 4.77850986 -0.478884 -1.440842 -0.768482
12340 4.89302199 13.989158100000001 1.5054229799999999 -0.625527 0.656299 0.253299
12360 -0.25297047 15.2384616 -4.8178773900000005 -1.624087 1.152958 0.259575
12380 -2.9779039800000002 11.57887053 0.66596166 0.855721 1.267633 0.068446
12400 -1.6591456800000002 6.5092096800000006 -0.95561172 1.7055650000000002 -0.893677 0.629423
12420 1.15035984 5.344488 -3.85762554 3.227325 1.351952 0.901025
12440 2.48498091 3.2199559200000003 -3.31306263 5.1351 5.341386 0.585568
12460 2.63721249 1.0822490100000002 -2.3285604600000003 3.230141 4.832177 0.906199
12480 2.51702037 0.30536568000000003 -0.7137167400000001 0.838563 1.818602 1.358032
12500 2.12139288 0.31868766000000004 -0.61686261 1.294763 -0.418979 1.354472
12520 1.5310172700000002 0.43110045 -0.55549125 2.566893 -0.7760279999999999 1.628735
12540 1.3850739 0.50789313 0.34922619 2.831782 -0.910148 1.90529
12560 1.5618501 2.0887550100000003 2.06540721 1.995145 -1.103921 1.272648
12580 1.16592831 7.56347076 6.34784499 1.572637 -1.673183 0.941414
12600 -2.39172705 18.4344615 13.2402627 1.638727 -1.543069 0.8466370000000001
12620 -5.267842470000001 25.89735033 11.87405343 1.748907 -0.7172149999999999 0.41906
12640 -2.48648184 13.774652640000001 8.75843667 1.69179 -0.030542000000000007 0.043903
12660 2.5140185100000005 6.10176114 7.773336090000001 1.592291 -0.39426 -0.021487
12680 4.64543721 10.3366008 12.31205031 1.992302 -0.301284 0.090146
12700 3.8299319100000004 23.14427193 7.42231467 1.528814 -0.067724 0.425236
12720 1.6747141500000002 16.2216198 -2.23320726 1.089302 0.766404 0.535397
12740 8.67850479 -4.9154770800000005 -8.84061504 1.184906 1.355184 0.266118
12760 9.311387130000002 -0.7126670700000001 5.95342413 0.5892569999999999 0.81819 0.273328
12780 0.2140542 3.7500000300000003 0.09684432000000001 0.109662 0.055649 0.107517
12800 -2.3444232300000003 6.90828048 -11.8574451 0.347238 0.208039 -0.378128
12820 -1.4479363800000002 20.296144440000003 -6.63016698 0.16761800000000002 0.6164810000000001 -0.598892
12840 -2.26822896 18.59268699 -1.4825166300000001 -1.356486 0.06667200000000001 -0.311867
12860 -1.39629654 9.918371070000001 0.6643233900000001 -2.41596 0.385095 -0.7010310000000001
12880 0.18381978000000002 6.8493027600000005 1.8486552600000001 -3.505348 1.294237 -1.203324
12900 2.57569398 6.10670538 -0.18695898 -4.13959 0.393505 -1.043162
12920 4.643494830000001 8.9219007 -2.7961835400000004 -3.757863 0.73458 -0.888177
12940 1.5519714300000003 10.23990363 -2.22377985 -2.92771 2.173484 0.060086
12960 -1.2814803000000001 10.630890990000001 -1.3401637199999998 -2.4352 3.3230190000000004 -0.12595399999999998
12980 -1.05635061 8.08858044 1.10679363 -1.832942 1.721846 -0.8973610000000001
13000 0.5043026700000002 6.1611901200000005 0.48753738 -2.064232 0.6918810000000001 -1.26833
13020 1.3216032000000002 6.18229143 -0.18561501000000002 -1.842179 -1.206246 -1.7749560000000002
13040 4.3206183000000005 7.73262459 3.27309669 -2.456865 -1.600006 -2.138736
13060 4.04294625 9.11335266 2.58227649 -2.254283 -1.082102 -1.827132
13080 0.90022446 9.52663815 0.86295627 -2.034253 -2.385744 -1.283404
13100 0.013469130000000001 10.563084270000001 2.38648851 -1.88373 -2.276901 -1.19383
13120 -0.40400523 11.46930264 0.7719489 -1.4931530000000002 -1.971542 -0.906278
13140 -2.93898771 13.73408829 -1.5208344900000001 -1.017821 -1.984249 -0.804665
13160 -3.7969997400000004 14.601831840000001 -2.270034 -0.375544 -1.569605 -0.625522
13180 0.714168 14.0961852 1.23029172 0.319923 -1.54021 -0.321599
13200 3.8238006600000003 15.138772379999999 3.1054437900000007 1.1353879999999998 -1.417412 -0.036187
13220 0.6936552900000001 14.64179778 1.62996093 1.786354 -1.426844 0.159584
13240 -1.34315577 13.440700620000003 1.61738451 1.334957 -0.8665459999999999 0.027527
13260 -0.37795968 13.22530245 -0.25432425000000003 -0.821617 0.7313350000000001 0.040326
13280 2.9945221200000005 13.672422630000002 -1.83877659 -1.5264879999999998 -0.7189409999999999 -0.304571
13300 4.2730103700000015 13.667027130000001 -1.93308012 -0.50531 -2.052512 -0.961231
13320 9.564661710000001 17.42900517 0.07229970000000002 -0.538842 -1.592655 -1.112674
13340 11.634856200000002 16.55602308 3.5774127 0.221464 -0.409547 -0.071636
13360 6.4158086700000005 14.41053684 2.72777841 0.199633 2.473758 0.312282
13380 1.86437088 14.741496810000001 -2.78481375 -1.317893 2.058613 0.217824
13400 -2.6158070700000002 13.45072644 -2.57284908 0.673599 0.650201 -0.14674700000000002
13420 -3.6269532 10.274787990000002 -0.38948643000000005 1.4980950000000002 -1.658162 0.447355
13440 -1.79551449 6.38242524 -2.86235199 3.436614 1.358703 0.6300819999999999
13460 1.9377202500000001 3.3582671100000003 -3.33281997 4.896068 5.114165 0.605554
13480 2.59559847 -0.38723994000000006 -3.5408900700000006 3.100927 5.867732 1.257551
13500 2.66580864 -0.048049379999999996 -2.4177726 1.153009 1.932905 1.538475
13520 1.67710779 0.25387299 -0.8129547 1.714678 -0.685971 1.4250459999999998
13540 1.16203374 -0.12903093000000002 -0.87103971 2.63287 -0.97906 1.462813
13560 2.24054514 -0.4939727400000001 0.1158561 2.421864 -0.968675 1.180384
13580 2.76040647 0.46403262 1.6265176200000002 1.761682 -0.78391 0.835841
13600 1.11592674 5.904766530000001 5.141058030000001 1.646816 -1.0927870000000002 0.92196
13620 -2.75891535 17.86325463 14.566662990000001 1.603724 -1.189559 0.91751
13640 -4.7139993 28.29745512 14.46247098 1.63402 -0.678211 0.621169
13660 -1.4010838200000002 14.445705690000002 9.74293884 1.331421 -0.12541 0.37052
13680 3.1434673500000003 3.5136477 6.1011627299999995 1.643354 0.002137 0.171709
13700 6.032757600000001 5.0726529 10.74375504 2.365788 0.06766699999999999 0.20765
13720 3.4777136700000004 17.46418383 9.30345084 1.707342 0.315949 0.493289
13740 1.2868758 25.126902360000003 -1.7863813800000001 1.036932 0.861885 0.413131
13760 3.55840092 5.97512385 -8.30323305 1.084782 0.997167 0.107781
13780 7.512576480000001 -1.50466761 1.1798487 0.408039 0.737259 0.156798
13800 4.6548744300000005 0.7159632300000001 7.64624754 0.063074 0.390126 -0.113291
13820 -2.70233127 2.9915300700000005 -11.17830861 0.537988 0.333328 -0.4399810000000001
13840 -0.9681881400000001 11.194622640000002 -9.27351072 -0.262579 0.489488 -0.436159
13860 -1.0415375100000002 21.913676100000004 -1.15409745 -1.621159 -0.019486 -0.380904
13880 -2.29517703 14.891933160000002 -0.57989853 -2.400145 0.4928770000000001 -1.027935
13900 -1.25947647 9.62708274 1.2325382100000002 -3.375825 0.4733890000000001 -1.1693209999999998
13920 1.20933756 8.01568233 -0.24384717000000003 -4.119396 -0.021267 -0.965578
13940 3.35078208 7.43204619 -1.62756729 -3.651646 1.032993 -0.481893
13960 3.3133569300000003 7.20452286 -1.37788317 -3.082281 2.733066 0.115973
13980 1.4599143900000002 7.9695753300000005 -1.6031698200000002 -2.359803 2.869395 -0.502997
14000 -0.26509562999999997 8.46100728 -0.07424208000000002 -1.559163 0.991946 -0.821874
14020 0.01107549 7.66884978 0.99588177 -2.218582 -1.03997 -0.940313
14040 0.31344912 7.169785650000001 -0.82194066 -2.2092110000000003 -1.079684 -1.405941
14060 1.39255893 7.869582 0.7426071900000001 -2.381818 -1.096074 -1.951919
14080 3.76661817 9.39431106 4.55098653 -2.354545 -1.957575 -1.520131
14100 0.7550266499999999 8.693622 1.7738147700000002 -2.491007 -2.472224 -1.105955
14120 -1.1937690900000002 10.487341259999999 0.43035489 -2.16161 -2.291117 -0.861399
14140 -0.31883481 11.46495681 2.0070279 -1.606765 -2.1147400000000003 -0.69538
14160 -0.47855142 12.16250667 -0.036071370000000005 -1.077503 -1.990351 -0.82537
14180 -2.39591592 14.403797370000001 -2.59186086 -0.575275 -1.865021 -0.635084
14200 -0.92208114 14.116393799999999 -0.25356888000000005 -0.070975 -1.6410810000000002 -0.33167800000000003
14220 1.8832355100000002 14.770681560000002 2.9273138100000002 0.490607 -1.367876 -0.143303
14240 0.5450141700000001 15.774499620000002 0.56717496 1.125469 -0.987111 -0.010102
14260 -1.84446639 14.990572710000002 0.06436341000000001 1.44393 -0.530671 -0.14519400000000002
14280 -0.84559257 12.64555107 1.03644612 0.6338159999999999 0.168478 -0.323733
14300 4.48407252 13.739778090000001 1.30349394 -0.544856 0.366949 -0.183737
14320 4.77671463 13.401627390000002 -1.69821891 -0.6586989999999999 -1.192567 -0.629051
14340 6.36027426 15.39308682 -2.4465159 -0.641306 -1.7524400000000002 -1.025591
14360 11.26092843 16.611557490000003 -0.23935419000000002 -0.799199 -1.525783 -0.561239
14380 6.396345629999999 14.33119356 2.50593507 -0.521175 -0.053620000000000015 0.540153
14400 2.01166803 14.75646687 0.0085347 -1.36238 1.825853 0.388727
14420 -1.4343200999999999 14.01849981 0.33784659 0.372137 1.61696 0.241946
14440 -3.45945726 12.262951260000001 -0.98270694 2.065654 0.417259 0.155967
14460 -1.78264377 7.936044750000001 -2.16808848 2.415793 0.463015 0.397636
14480 1.55376666 4.04129817 -3.2686037100000003 4.689575 3.788325 -0.12058
14500 2.6391646800000004 0.21075804 -3.4902900900000002 3.926884 5.653671 0.52759
14520 2.6077236299999997 0.12873663 -2.27391876 1.463196 3.339938 1.584773
14540 1.90059921 1.37130066 -0.50549949 1.6375110000000002 -0.079449 1.397024
14560 0.52181352 1.24990191 -0.75607632 2.645892 -0.141153 1.301597
14580 1.8827842500000003 1.5004787400000001 -0.61686261 3.171879 -0.015649 1.427956
14600 3.4377477300000003 1.4810157 -0.18860706000000002 2.552397 -0.22302 1.608697
14620 2.73107457 2.9124909 1.8952135200000002 1.842038 -0.798304 1.7006119999999998
14640 0.23755896 6.56624502 6.05700792 1.594586 -1.974772 1.217555
14660 -2.45219589 13.70715003 13.962965400000002 1.836444 -1.697404 0.37713
14680 -0.99737289 22.223387610000003 15.026506740000002 2.084816 0.147552 -0.344549
14700 -1.12176369 16.06788729 9.34401519 1.877362 0.8233790000000001 -0.275293
14720 1.73743929 9.34102314 6.90783903 1.774602 -0.098034 0.067001
14740 5.48399601 10.477756890000002 10.463689350000001 1.025709 -0.472659 0.627339
14760 5.31559755 15.10508484 11.048826420000001 0.81789 0.979062 0.603731
14780 0.09355797 19.96518447 5.47665813 1.272794 1.645844 0.23004
14800 5.15797047 3.78113697 -7.424855460000001 0.952269 0.8245969999999999 0.221376
14820 7.882305570000001 -1.84176864 -4.64633973 0.495525 0.14948699999999998 0.28207600000000005
14840 4.26209184 2.21553945 8.27749161 0.254311 0.48837 -0.07255700000000001
14860 -3.97349145 6.5788214400000005 -9.88424208 0.208742 0.627577 -0.478978
14880 -2.8427418000000007 13.103148330000002 -7.6510348200000005 -0.911291 0.282793 -0.398765
14900 -1.0102534200000002 20.88172296 -0.5667237 -2.21274 -0.130476 -0.616698
14920 0.23964849 12.168942030000002 0.57315906 -2.889816 0.75221 -1.253877
14940 0.54561258 6.9988464 2.1453390900000002 -3.863127 0.41272 -1.292288
14960 2.4819888600000004 6.11852643 0.8599642200000001 -4.050969 0.57257 -0.878266
14980 3.28342662 5.8844107800000005 -2.08262376 -3.465873 1.253156 -0.289666
15000 1.26532323 8.992101060000001 -3.74371182 -2.6978 1.813587 -0.180333
15020 -1.93412979 12.4276023 -4.05926028 -2.083361 1.154721 -0.581121
15040 -4.00925871 10.76052033 0.03967164 -2.633818 -0.094864 -0.898491
15060 -2.01525849 7.85895777 3.7955086200000006 -2.266457 -1.075976 -1.484326
15080 1.5932911500000002 6.374341800000001 1.77126417 -2.049343 -0.5907479999999999 -2.069885
15100 5.07474243 6.921455310000001 2.2763124 -2.501085 -1.142987 -1.5724049999999998
15120 5.32068894 8.270899290000001 2.42690571 -2.660871 -2.4645200000000003 -1.286612
15140 0.36853227000000005 8.96904756 0.9365999400000001 -2.30222 -2.246932 -0.866711
15160 0.54890874 10.94852898 0.82253907 -1.780944 -1.880009 -0.637077
15180 0.58049694 10.774440720000003 -0.26494848000000004 -1.268529 -1.7998150000000002 -0.6229180000000001
15200 -0.53288901 11.99874834 0.44802270000000005 -0.830464 -1.682993 -0.646714
15220 -3.14091675 13.794409980000001 -0.00808344 -0.441658 -1.631837 -0.457125
15240 -2.33784072 15.211513530000001 -0.6529437900000001 -0.022086 -1.576697 -0.224597
15260 1.7944648200000002 15.403269600000002 0.95995755 0.474551 -1.481394 -0.245819
15280 0.9629496000000001 16.1000739 0.28800198 0.592869 -1.058887 -0.51259
15300 -1.33267869 15.749650890000002 1.2513930300000002 -0.282798 -0.203122 -0.905431
15320 -0.39113451 12.98325051 0.71625753 -1.2465389999999998 -0.541504 -0.697016
15340 4.7066614200000005 12.316239180000002 0.51972399 -1.528507 -2.277963 -0.704238
15360 5.4777078 14.190037470000002 -2.47330701 -1.190089 -2.632151 -0.8680629999999999
15380 6.2177742 15.36091002 -2.47211019 -1.021363 -1.5815780000000002 -0.800933
15400 6.527623050000001 15.27409152 0.79574796 -0.273507 -0.677265 -0.357829
15420 4.7865933 16.20545292 3.1690616400000002 -0.199205 1.231182 -0.024334
15440 2.76116184 16.427286450000004 0.53992278 -0.333685 1.615576 0.134468
15460 -1.24376085 15.02904753 0.07394777999999999 1.2777 0.624025 0.014534
15480 -2.41402518 10.29483963 -0.9979713 1.062199 -0.8479709999999999 0.679349
15500 0.37691982000000007 6.65770365 -2.8632447000000005 3.266709 2.0175 0.397315
15520 1.84236705 2.4438181500000002 -3.4299684000000004 3.842502 4.7108620000000005 0.078487
15540 2.6659557900000004 0.5751014400000001 -2.38962771 2.684625 3.517503 0.6113810000000001
15560 2.3882837400000003 0.8822623500000001 -1.0698295500000001 2.092664 0.955504 0.8604930000000001
15580 1.5067669500000003 1.3509449100000002 -0.47555937000000004 2.359988 0.862806 0.633879
15600 0.8039785500000001 1.1081474100000002 -0.72089766 2.983304 1.042299 0.760849
15620 0.77284161 0.40655583 -0.7020428400000001 3.388871 0.441993 1.080645
15640 1.41590673 1.58849406 0.5643300600000001 3.3153589999999995 0.195562 1.764109
15660 0.7080269400000001 3.7640773800000003 3.46304772 2.864446 -0.435733 1.519282
15680 -0.7535355300000001 9.45284733 12.23525763 2.255117 -1.253785 0.962735
15700 -2.01570975 17.873133300000003 15.07709691 2.010117 -1.178539 0.473818
15720 -2.43379233 19.19863107 10.138272030000001 2.184318 -0.21497 0.183244
15740 -0.09160578000000001 11.10181023 7.46976564 2.255327 1.021899 0.10097
15760 1.85599314 5.44238199 8.21072475 2.095913 1.451542 0.154853
15780 5.29299531 4.1831998200000005 11.344156470000001 1.7059970000000002 0.296608 0.536033
15800 4.465364850000001 12.493917900000001 13.97628738 1.273513 0.204499 0.768139
15820 0.5375291400000001 24.44342004 4.8361436100000015 0.978168 1.412456 0.508155
15840 6.65351478 9.369315180000001 -6.05280924 0.924277 1.807474 0.072506
15860 10.67729229 -1.53056601 -4.7111544 0.953513 0.536158 -0.108326
15880 6.69407913 3.03149601 12.401409600000001 0.648522 0.35601900000000003 -0.08352000000000001
15900 -2.6406558 5.84369928 -9.84278502 0.347374 1.090588 -0.237185
15920 -0.82239192 11.18893284 -6.86756898 -0.34385 0.895858 -0.224672
15940 -2.3384391300000003 20.091968910000002 2.01675942 -1.105692 0.04677 -0.347478
15960 -1.66528674 13.86985869 1.6181398800000002 -2.104031 0.183946 -0.7520060000000001
15980 -0.82897443 8.30637225 -0.05254236000000001 -2.879372 0.355376 -1.125109
16000 0.17573634 6.793768350000001 -0.10657584 -3.799943 0.775576 -0.980391
16020 -0.33978897 6.506070480000001 0.24923286000000003 -3.621914 1.781396 -0.652492
16040 -0.43514217000000005 8.02166643 -0.78871419 -3.021531 1.345442 -0.310181
16060 -0.5469663599999999 10.060125570000002 -1.17834777 -2.4898830000000003 0.657864 -0.119716
16080 -1.3843185300000003 10.050099750000001 -0.56313324 -2.528324 -0.918139 -0.5035930000000001
16100 -1.16757639 8.98102557 0.7384183200000001 -2.859873 -1.591342 -0.76142
16120 -0.07693983000000001 6.784193790000001 2.4149277000000002 -2.306319 -1.126893 -0.971793
16140 1.3001977800000002 6.82865271 1.40363442 -2.034517 -1.116719 -1.619386
16160 3.2635123200000002 7.398662760000001 1.36171629 -2.139846 -1.062933 -1.392659
16180 4.39335945 9.064400760000002 1.3415076900000003 -2.2941130000000003 -1.6843849999999998 -1.160068
16200 1.5932911500000002 9.10496511 2.3063996700000002 -1.951147 -1.340309 -0.923105
16220 -1.05440823 10.347833249999999 1.93008807 -1.529659 -1.559001 -0.678462
16240 -1.2966073200000001 12.593764080000001 -1.8088364700000001 -1.151369 -1.573453 -0.589275
16260 -0.3412899 12.35440989 -1.6860937500000002 -0.8510549999999999 -1.602572 -0.494205
16280 0.58992435 13.648770720000002 0.91444896 -0.5370119999999999 -1.711438 -0.448075
16300 0.38200140000000005 15.60819069 0.36329373000000004 -0.303886 -1.715898 -0.334277
16320 -0.92358207 16.748524709999998 -2.49126912 -0.081073 -1.481386 -0.298838
16340 -0.7614620100000001 17.93240532 -1.5657446700000002 -0.15425999999999998 -1.066116 -0.454774
16360 -0.30806343 15.325280100000002 2.27766618 -0.715692 -0.6445569999999999 -0.694245
16380 2.06136549 11.52543546 3.6646824600000003 -1.252675 -1.1498270000000002 -0.413201
16400 2.59260642 11.12801274 2.7551679300000003 -1.437309 -2.133416 -0.434595
16420 2.5553382300000003 12.555887669999999 -3.2555760300000003 -1.090163 -2.660407 -0.814986
16440 3.3656049900000005 13.609246230000002 -4.48586775 -0.758886 -1.534724 -0.757499
16460 4.53108204 14.757065279999999 -2.0929438800000004 0.260089 -0.406413 -0.355517
16480 5.5263555900000005 17.17154172 1.18044711 0.311214 1.926451 -0.377377
16500 4.311181080000001 15.684080849999999 4.17826539 -0.001082 2.667215 0.0596
16520 2.62793223 14.050980720000002 0.69905079 0.688924 0.608054 -0.275841
16540 -1.08284742 12.93266034 -0.5298969600000001 1.936156 -0.587204 -0.286962
16560 -1.18643121 8.809330950000001 -0.64156419 2.730795 0.963799 0.365012
16580 0.50834439 5.46813324 -2.4647723100000003 4.350253 3.452386 0.267381
16600 2.16629325 0.95666139 -2.01930021 3.523893 6.563551 1.374982
16620 1.7807013900000002 0.06586434000000001 -3.0532055400000004 3.01433 3.726062 2.246728
16640 1.8299475900000002 1.32908823 -0.76580784 2.252825 -0.57912 1.676495
16660 1.04602068 1.13284899 -0.45206442 2.340521 -0.932659 1.035559
16680 0.7355734200000001 0.80936424 -0.9313614 2.874537 -0.967956 0.874828
16700 0.34293798000000003 0.52286319 -0.6306358500000001 2.629029 -1.388213 0.955905
16720 0.59081706 1.8646749900000001 1.6060147200000001 2.125317 -1.065324 0.832332
16740 -0.30161826 4.941973889999999 5.8188505500000005 1.998271 -1.245439 0.431092
16760 -1.69223481 11.87136549 14.1397416 2.525343 -0.226151 0.020066
16780 -1.96331454 19.52704044 12.787609680000001 2.91907 1.404535 -0.258079
16800 -1.36066662 15.828238800000001 9.756564930000001 2.493864 1.821185 -0.187876
16820 2.4780942900000005 8.781038910000001 7.13686329 1.338839 -0.195398 0.5501229999999999
16840 4.64050278 3.2897050200000004 9.123525630000001 0.8974770000000001 -0.1489 0.759556
16860 5.3431342200000005 4.39904925 8.37807354 0.8414739999999999 2.175239 0.349194
16880 2.96443485 11.85833781 10.55260719 1.050516 2.313225 0.026806
16900 4.03651089 23.649771420000004 2.18965086 1.0427620000000002 0.654242 -0.145242
16920 4.59065817 16.522786800000002 -7.20481716 0.7419680000000001 -0.008514 -0.112311
16940 7.832460960000001 -2.0101671000000003 -3.8610688500000006 0.5920850000000001 1.132421 -0.520744
16960 5.27443479 1.71273771 7.82482878 0.099465 1.376184 -0.580045
16980 -0.33081282000000006 4.39785243 -9.31198554 -1.193096 0.507513 -0.141444
17000 -0.36075294 7.65478224 -5.1563322 -2.08955 0.381896 -0.45092
17020 0.56072979 19.97147268 2.0809756800000003 -2.738192 1.038267 -0.993607
17040 -0.9273196800000001 18.40767039 -1.60361127 -3.3176660000000004 0.774891 -1.226985
17060 -1.02432096 11.332031310000001 -1.0075556700000001 -3.590813 0.5130170000000001 -0.7702899999999999
17080 -0.84619098 7.856260020000001 -0.38874087000000007 -3.3480550000000004 1.071835 -0.335612
17100 0.02410317 6.551873370000001 -1.5175481400000002 -2.97801 1.477719 -0.127381
17120 -0.09220419 7.79010138 -0.5694116400000001 -2.245454 0.585918 -0.454406
17140 -0.95516046 9.214689960000001 -0.8671451400000001 -1.921399 -1.579031 -0.657672
17160 -1.20334365 8.29814166 0.95950629 -2.510206 -2.319368 -0.953529
17180 0.43110045 6.90828048 1.8498520800000002 -1.7889419999999998 -0.639108 -1.657807
17200 2.27197638 6.762337110000001 1.28013633 -1.555043 -0.415934 -1.726962
17220 5.239108980000001 6.87984129 3.15782919 -2.034178 -1.504419 -1.368923
17240 4.46161743 9.41033079 3.1410639000000002 -2.140775 -1.830428 -1.001781
17260 -1.3130685 8.87908986 2.5861710600000003 -1.7174599999999998 -1.44803 -0.561343
17280 -0.67643874 9.80162226 -0.35566155000000005 -1.217394 -1.320596 -0.362529
17300 -0.24892875000000003 11.66883804 -2.78570646 -0.73547 -1.346949 -0.317469
17320 -0.40999914 11.942164259999998 -1.4974866900000001 -0.417957 -1.3356940000000002 -0.210579
17340 -1.3365732600000002 14.30470656 1.06069644 -0.3622260000000001 -1.557193 -0.012285
17360 -0.44412813 15.594123150000001 1.1651729400000002 -0.344933 -1.607874 0.125701
17380 0.59306355 15.17424534 0.9554645700000001 -0.232642 -1.442617 -0.006186
17400 -1.25035317 16.822021230000004 0.61582275 -0.928843 -0.764351 -0.389
17420 -2.5942545000000004 15.342496650000001 0.9383951700000001 -1.163785 -1.120126 -0.4585520000000001
17440 -1.00815408 13.01109129 -0.22108797000000002 -1.567179 -1.590751 -0.431924
17460 4.323011940000001 12.29902263 0.70353396 -1.122558 -2.239641 -0.782637
17480 4.5463464 13.619124900000001 -1.84311261 -0.706176 -1.768894 -0.850834
17500 4.00731633 15.778982790000002 -3.2037890400000006 0.011436 -0.8500620000000001 -0.5489649999999999
17520 4.88643948 15.54607377 -1.94505813 1.144613 0.35959 -0.07471900000000001
17540 5.671857510000001 16.20904338 -0.7331797800000001 0.601587 3.183735 0.370795
17560 3.4307139600000003 16.3662192 2.47495509 -1.104311 1.162051 0.465088
17580 0.50624505 15.354317700000003 2.7141523199999997 1.073572 -1.299369 0.06791599999999999
17600 -0.8379603900000001 13.83348321 1.0788057 1.7467 -0.877376 0.513253
17620 0.74409831 8.30547954 -2.9792577600000003 4.26918 2.200176 0.198985
17640 1.98846738 4.72791969 -2.9855459700000004 5.089114 5.487648 0.279548
17660 2.1125540700000003 -0.36599148000000004 -1.69312752 3.673483 6.8526690000000015 1.138511
17680 2.5872207300000003 -1.4277277800000001 -1.37354715 2.119629 2.352687 1.483801
17700 2.03591835 0.03307932 -1.03225725 1.7312869999999998 -1.033387 1.178847
17720 1.03285566 0.50774598 -0.35386632 2.159832 -2.091507 1.149014
17740 0.4767561900000001 0.26853894 -1.22775093 2.660032 -1.996845 1.284846
17760 0.50684346 0.5260023900000002 -1.56005487 2.300778 -1.016579 1.01082
17780 1.23119424 2.8373463000000005 0.65832948 2.066193 -0.746372 0.774895
17800 0.8433460799999999 5.699698290000001 6.4753848000000005 1.887332 -1.006313 0.6671560000000001
17820 -0.8408052900000001 15.00255072 13.28622255 2.071972 -0.287016 0.182551
17840 -3.4058652300000003 23.22226143 13.00960017 2.078832 0.8352569999999999 -0.223695
17860 -0.6099857999999999 13.84321473 8.522378640000001 2.124342 0.7806609999999999 -0.196601
17880 2.17078623 6.50277432 6.56399853 1.517733 -0.253728 0.330325
17900 4.082156820000002 1.6685829000000003 6.749466389999999 0.807946 0.639379 0.577391
17920 5.61601899 3.98112363 9.989473950000002 1.037756 1.892416 0.310335
17940 3.3114145500000003 13.92749244 9.9893268 1.204507 1.60671 -0.047056
17960 7.110209520000001 26.02638126 -0.76805433 0.715274 0.751972 -0.058992
17980 5.18506569 15.08563161 -1.8914661000000002 0.60942 0.509162 -0.251701
18000 7.337595510000001 -3.7676678400000005 -1.59793128 0.509321 1.171308 -0.583329
18020 5.86031742 -0.02889045 9.5293359 -0.438976 1.007331 -0.313073
18040 -2.24862858 3.0458676600000008 -9.0206874 -1.6595540000000002 -0.05955 -0.185636
18060 -2.95455618 7.81779501 -8.11911897 -2.637096 0.48523 -0.775343
18080 -1.015335 21.102065370000002 -1.3096251900000002 -3.235232 0.5659489999999999 -1.261393
18100 -1.3028857200000001 18.178950240000002 -1.46964591 -3.681542 -0.122138 -1.1610790000000002
18120 -0.17394111 10.12718673 -1.9237998600000001 -3.5130160000000004 0.806459 -0.694279
18140 0.12618603 7.94098899 -0.28590264 -2.839256 1.873886 -0.218786
18160 2.6818185600000004 6.437812500000001 1.5031764900000002 -2.273165 2.149305 -0.320939
18180 3.6911694600000002 7.04988783 1.12221495 -2.1520900000000003 0.111811 -1.052419
18200 1.13598819 7.84922625 -0.62584857 -2.099278 -1.315461 -1.413417
18220 -1.9366705800000001 8.6070978 -1.85015619 -1.596969 -1.282584 -1.811602
18240 -2.5595271 8.303684310000001 -0.20926692000000002 -1.673511 -0.5440510000000001 -2.0854790000000003
18260 -0.56792052 7.7228930700000005 1.22265954 -1.786355 -1.259072 -1.666608
18280 2.78331282 7.91763138 3.48879897 -1.839998 -2.259025 -1.173251
18300 6.138136620000001 9.32530752 4.75740855 -1.7918740000000002 -2.395742 -0.858683
18320 2.13500916 8.13588426 0.51148359 -1.390662 -2.1265240000000003 -0.599852
18340 -0.052993620000000005 10.20488193 -0.58528422 -0.922381 -2.023185 -0.474936
18360 0.10328949000000001 12.13436178 -0.2484873 -0.6130770000000001 -1.949012 -0.377799
18380 -0.8075690100000001 12.684771450000001 -0.21015963000000001 -0.202741 -1.6941540000000002 -0.265232
18400 -2.51506818 14.4605286 -0.31419467999999995 0.196947 -1.811435 -0.053987
18420 -0.15103476000000002 15.551459460000002 1.07550954 0.559771 -1.76806 -0.026939
18440 2.06151264 15.15224151 1.30873248 0.442974 -0.718367 -0.290815
18460 0.5840874 15.97822389 -0.30297204000000005 -0.491378 0.07935 -0.502394
18480 -1.8712575 15.58903176 1.45302777 -1.526979 -1.419531 -0.660462
18500 -2.33080695 13.229040059999999 0.40789980000000003 -1.380988 -2.968712 -0.985402
18520 0.93899358 12.76934346 -0.35939916000000005 -0.996209 -1.994798 -1.115353
18540 2.8877991300000003 12.331209240000002 -1.6986701700000002 0.023289 -0.6081989999999999 -0.570557
18560 3.74086692 13.686343020000002 -2.1999709800000002 -0.550786 2.113038 -0.204176
18580 5.98260888 14.7784707 -0.9713273400000001 -1.2900280000000002 1.741499 0.109467
18600 6.81757722 16.30918386 1.5238265400000002 0.8698170000000001 -0.125718 0.048966
18620 4.32870174 15.418386810000001 1.78039728 1.018781 -2.396785 0.958769
18640 2.58871185 13.949643420000001 0.14923953 4.124848 1.755004 0.29575500000000005
18660 -0.7789826700000001 10.943594550000002 0.7517402999999999 4.562444 5.572568 0.278965
18680 -1.4657513400000002 7.07504067 -1.53250839 3.38222 6.774103 1.058597
18700 -0.47226321000000004 4.304598570000001 -2.8847972700000004 2.26983 1.968203 1.86563
18720 1.1937690900000002 1.1443659300000002 -3.16741356 2.096787 -0.747629 1.328449
18740 1.64986542 0.07679268 -1.78084854 2.208155 -1.991552 1.418415
18760 1.35573219 0.69814827 -0.98076456 2.1786830000000004 -1.900798 1.658443
18780 0.6283893599999999 1.27939077 -1.0976703300000001 2.031516 -1.86957 1.436253
18800 0.89214102 1.1801430000000002 -0.9038247300000001 1.897417 -1.790515 0.964129
18820 1.8785953800000001 1.9110762900000002 0.15672456 1.6188 -1.849214 0.700544
18840 2.35654839 4.47105465 2.44831113 1.832633 -0.672599 0.111939
18860 0.9580053600000001 8.98131987 9.07592751 1.997683 0.830175 -0.214641
18880 -1.3265376300000002 17.29907172 13.2282945 2.10622 1.218714 -0.236814
18900 -3.2979454200000005 20.651501879999998 10.68567984 1.81674 -0.036061 0.249881
18920 -1.3787856900000002 12.75826797 6.682101120000001 0.942889 -0.078493 0.6956899999999999
18940 0.71221581 5.21934183 6.852304620000001 1.025127 1.097298 0.426634
18960 1.7482106700000002 6.48691155 13.09357377 1.2274969999999998 1.234957 -0.074193
18980 0.8286801300000001 18.73893447 10.747051200000001 0.792743 0.645233 -0.07327
19000 1.04467671 26.29327212 -1.62981378 0.424553 0.240155 -0.218464
19020 11.24386884 -0.47406825 -11.48396859 0.584388 0.554214 -0.573468
19040 12.644658360000001 -1.84461354 3.34389546 -0.024496 0.905566 -0.53117
19060 3.7748487600000002 2.7665475300000004 8.38825632 -1.169761 0.151982 -0.229488
19080 -3.88606473 5.670356580000001 -13.707297180000001 -2.215025 0.145149 -0.544428
19100 -3.13957278 13.826743740000001 -4.8180343500000005 -2.92658 0.621506 -1.037118
19120 -2.9509657200000006 21.173021100000003 2.2617936 -3.590506 0.219392 -1.134175
19140 -0.9249260400000001 11.323055160000001 -1.22460192 -3.704057 0.625631 -0.862024
19160 0.20507805 9.424996740000001 -3.4117021800000007 -3.085599 1.863059 -0.493958
19180 1.01413818 7.33639869 -0.7315317000000001 -2.365208 2.4366790000000003 -0.444796
19200 2.58198219 6.605612550000001 -0.4363389900000001 -1.7060810000000002 1.275914 -0.8456969999999999
19220 2.89063422 9.22426452 -0.028586340000000002 -2.075124 -0.645552 -1.131028
19240 -0.33095997000000005 9.062752680000001 -0.77688333 -1.990684 -1.232222 -1.278169
19260 -2.17452384 9.043142490000001 0.9746235 -1.677772 -1.275688 -1.867723
19280 -0.6765957 8.065978200000002 2.3912757900000003 -1.888901 -0.8262649999999999 -1.91998
19300 1.21383054 6.95768364 1.8468600300000002 -2.109449 -2.204619 -1.22541
19320 4.205654910000001 7.24238946 2.2538671200000002 -2.155151 -2.351566 -0.934984
19340 5.53608711 8.7627825 2.22766461 -1.603766 -1.827616 -0.8388690000000001
19360 -0.5987533500000001 9.18145368 0.90651267 -1.152984 -1.823163 -0.47894
19380 -1.5069141000000001 11.32635132 1.3638156300000002 -0.724899 -1.676936 -0.388543
19400 -0.14864112000000002 11.880498600000001 0.7417046700000001 -0.257196 -1.453266 -0.252035
19420 -0.7168559400000001 13.248944550000001 -0.15672456 0.258652 -1.409903 -0.088254
19440 -2.7222357600000002 15.02051283 -2.09743686 0.6414880000000001 -1.385927 -0.022585
19460 0.56821482 14.88339846 0.54845748 0.510362 -1.232705 -0.13052
19480 2.30940153 15.376478490000002 0.7165616400000001 -0.233308 -0.050032 -0.605111
19500 1.11847734 15.52347153 -0.31180104000000003 -1.394501 -0.573365 -0.327336
19520 -1.04677605 14.702129280000001 1.81646865 -1.155219 -2.02908 -0.6634939999999999
19540 -1.4129146799999999 11.915069040000002 0.36658989000000003 -0.943495 -2.709273 -0.976269
19560 2.25176778 11.988869670000001 0.07364366999999998 -0.550953 -1.626791 -0.8242950000000001
19580 3.58714422 13.152100230000002 -1.62501669 0.569055 -0.768504 -0.382805
19600 4.631369670000001 14.82097743 -1.9878689700000003 0.934878 2.121216 -0.074168
19620 7.58277684 16.37055522 -0.7791298200000001 -1.30835 2.725681 0.424271
19640 5.955219360000001 15.171547590000001 1.7042030099999999 -0.359981 0.293586 0.15307
19660 3.19615686 14.0065218 1.18089837 1.29559 -1.495053 0.326091
19680 1.01444229 12.308008589999998 -1.06682769 2.184887 -0.320238 0.666219
19700 -1.8988039800000003 11.637553950000001 1.09212768 4.287097 3.82249 0.208781
19720 -2.35580283 7.79024853 -1.8486552600000001 3.96446 6.709965 0.343833
19740 -1.1720595600000001 4.01255487 -3.25138716 2.697867 5.81639 1.392602
19760 1.3205535300000002 2.4339394800000003 -2.87312337 1.990356 1.106841 1.464198
19780 2.69290386 -0.80787312 -1.67441985 2.030522 -1.3043129999999998 1.272084
19800 1.8853250400000001 -0.16705449 -1.07715762 2.661986 -1.470864 1.615334
19820 1.32684174 1.54508481 -0.53183934 2.444278 -0.952612 1.671902
19840 1.09975986 1.5293691900000002 -0.50340015 2.085016 -0.973505 1.347884
19860 1.65390714 2.9463255900000003 -0.20656917 1.853883 -1.459252 1.01147
19880 1.8955078200000002 4.93733376 1.34270451 1.7548849999999998 -1.334791 0.6089680000000001
19900 0.04235958 9.126370529999999 7.628138280000001 1.96209 -0.427741 0.038822
19920 -2.13290982 16.498095029999998 14.35828878 2.01809 0.53962 -0.298516
19940 -2.85006987 20.07235872 12.85916382 1.8978150000000005 0.56162 -0.101763
19960 -1.5736809600000001 13.146861690000001 8.67520863 1.053387 -0.026454 0.373792
19980 1.6477758900000001 6.72191991 5.39523513 0.590156 1.32604 0.344254
20000 3.4666381800000003 2.44546623 8.83178604 0.964192 1.990221 0.15800899999999998
20020 1.86092757 8.232581430000002 10.179277830000002 1.29123 1.282232 0.036218
20040 0.60384474 17.963091000000002 6.73150428 1.223797 0.088125 0.07787000000000001
20060 4.559668379999999 29.18495601 0.41299119 0.5816100000000001 0.259017 -0.010156
20080 7.628736689999999 2.4996566700000002 -7.38070065 0.775204 1.2660790000000002 -0.537796
20100 8.54887545 -3.4847572500000004 0.6191091000000001 0.260473 1.334272 -0.362018
20120 4.7325598200000005 1.54553607 7.61242266 -0.591515 0.641103 0.028162
20140 -2.43498915 4.7047190400000005 -9.18729063 -1.26967 0.119885 -0.108367
20160 -2.9047115700000004 12.14155251 -6.5536686 -2.328933 0.440617 -0.542397
20180 -2.9174351400000003 20.746560780000003 2.0115208800000004 -2.92844 0.18378 -1.0611389999999998
20200 -1.81751832 13.818218850000001 -0.68183424 -3.449107 0.044452 -1.198125
20220 0.10747836000000001 9.05751414 -2.80142208 -3.4189480000000003 1.036423 -0.741987
20240 0.61941321 6.9648645600000005 -1.12401018 -2.786898 1.894996 -0.215243
20260 1.89206451 7.099134030000001 -1.5649991100000002 -2.111817 1.786211 -0.502013
20280 2.0562741 8.602016220000001 -1.09287324 -1.739485 1.599123 -0.924325
20300 -0.10403505 10.57820148 -1.27279845 -2.20237 0.460826 -0.910076
20320 -1.87769286 9.20450718 -0.55070397 -1.890695 -1.637922 -1.141286
20340 -1.17565983 7.78022271 1.7082447299999999 -1.552517 -1.346609 -1.556972
20360 0.567018 7.100487810000001 1.33836849 -1.749327 -0.331539 -1.6184
20380 3.1265451 7.77902589 2.8876421700000003 -2.014565 -1.004498 -1.196375
20400 5.0507962200000005 9.67513212 4.32165816 -2.0779330000000003 -2.002513 -0.912459
20420 -0.20971818000000003 8.29485531 1.67546952 -1.685728 -1.732734 -0.7861520000000001
20440 0.47885553000000003 9.40045212 -1.85554188 -1.178568 -1.653403 -0.551975
20460 0.7593724800000001 11.026969740000002 -3.02819985 -0.715254 -1.762873 -0.484505
20480 0.1155618 12.496311539999999 -1.02881394 -0.330376 -1.7389849999999998 -0.3985260000000001
20500 -1.9669050000000001 13.945748850000001 0.42361542 -0.043932 -1.683175 -0.218204
20520 -1.42623666 15.240560940000002 0.77135049 0.227598 -1.491594 -0.144982
20540 2.3441289300000006 14.089602690000001 1.7943176699999999 0.611589 -1.326539 -0.195922
20560 2.5810796700000003 14.259796380000001 0.030685680000000003 0.942692 -0.6751699999999999 -0.337586
20580 -0.023799060000000004 14.666803470000001 -0.89393625 0.115338 -0.086349 -0.350529
20600 -2.27197638 13.52871594 0.82463841 -1.059459 -0.6179939999999999 -0.379418
20620 -2.23440408 12.088715850000002 0.8439444899999999 -0.7545149999999999 -1.560003 -0.567292
20640 0.05687838 11.197467540000002 0.44307846000000006 -0.544705 -1.7351720000000002 -0.8988879999999999
20660 2.56895451 11.374999110000001 -0.63213678 -0.311156 -1.178094 -0.554003
20680 3.89983797 13.3905519 -1.87739856 0.276531 0.17333800000000002 0.36811
20700 7.118891370000001 16.01728731 -0.8583161400000001 -1.379568 2.124902 0.476886
20720 7.477397820000001 14.48911494 1.37159496 -0.521675 1.28405 0.087646
20740 4.7901935700000005 13.571526780000001 2.36897766 1.504652 -0.111975 0.057655
20760 3.20573142 12.64270617 -1.20618855 1.88508 -0.4115140000000001 0.575579
20780 -0.5379804 12.14843913 -0.39352815 4.437094 3.465302 0.424999
20800 -2.6848204200000003 10.872785969999999 1.44075546 4.661496 6.860865 0.8965059999999999
20820 -1.56739275 7.104225420000001 -1.77725808 2.029718 4.821664 1.6445150000000002
20840 0.37496763 4.629270330000001 -3.19704957 1.006865 0.767822 1.316757
20860 1.99400022 2.50489521 -2.1893467500000003 1.937669 -1.096173 1.249804
20880 2.00298618 1.1743060500000002 -1.23538311 2.826279 -1.118454 1.256039
20900 1.83069315 2.4489095400000003 -0.60893613 2.4563580000000003 -0.666312 0.928137
20920 1.24196562 3.10783743 -0.69889383 1.864928 -1.10575 1.044209
20940 0.81684927 2.8692288 -0.83990277 1.765302 -1.3116 0.927341
20960 1.1569423499999998 3.01727151 -0.6692578200000001 1.763456 -1.109965 0.588444
20980 1.7065966500000003 4.282889040000001 0.87298209 1.847696 -0.341614 0.17785
21000 0.5749542900000001 5.683678560000001 4.84348149 1.749815 0.23795 -0.016924
21020 -0.42092748 10.54137474 10.829827980000001 1.89421 0.376766 0.04159
21040 -1.6395453 18.04437666 14.42774358 1.416444 -0.123876 0.445887
21060 -4.9793990400000006 15.95352231 9.82616688 0.855885 0.797129 0.5134310000000001
21080 -0.5468094 10.02285738 6.977136870000001 1.13591 1.543114 0.198237
21100 3.81392199 6.90992856 8.94030426 0.965147 1.225461 0.130153
21120 4.94242515 11.969857890000002 10.111019850000002 0.462562 0.592982 0.22573
21140 4.23588933 21.678814889999998 6.66518868 0.172584 0.684257 0.029171
21160 1.5206873400000003 21.525386490000002 0.74829699 0.686876 0.8042050000000001 -0.575209
21180 6.73134732 -4.63466583 -10.09336185 -0.189344 0.843051 -0.472421
21200 7.46976564 -0.85037985 2.13007473 -1.495535 -0.126154 -0.188678
21220 2.66281659 1.9717020900000002 4.824920970000001 -2.444055 0.166417 -0.602671
21240 -2.9177294400000005 5.157224909999999 -10.528209720000001 -3.207851 0.451056 -1.058092
21260 -0.8773279200000001 17.56298034 -6.08843916 -3.957149 -0.309182 -1.03351
21280 -0.9937824300000001 20.4064677 -3.16875753 -3.470993 -0.007840999999999999 -0.889495
21300 -1.77920046 11.65865526 -0.6328823400000001 -2.758573 2.293188 -0.184577
21320 -0.6843750300000001 9.262288080000001 -0.28755072000000004 -2.331063 4.131503 0.064949
21340 2.1314187 7.6312774800000005 0.14235291 -1.47572 1.80532 -0.769991
21360 3.1621750200000003 8.0807913 -1.83308679 -1.742493 -1.073225 -1.028812
21380 0.7668575100000001 8.510704740000001 -1.72366605 -1.768198 -1.828441 -1.28867
21400 -1.1186244900000002 9.05437494 -1.8193135500000002 -1.682908 -0.821492 -1.69422
21420 -1.84372083 8.30937411 0.31239945 -1.598041 -0.629225 -1.630849
21440 -0.2140542 7.8115068 0.9313614 -1.755108 -1.602236 -1.12543
21460 1.52487621 6.2670204 1.20020445 -1.7290330000000005 -1.740681 -0.8921979999999999
21480 4.12482051 8.22000501 4.21239438 -1.593896 -1.631125 -0.7012510000000001
21500 2.9029163400000004 9.254950200000001 2.5863182100000004 -1.352152 -1.692725 -0.42495
21520 -0.41822973 9.540862650000001 -0.020208600000000004 -0.839408 -1.7055 -0.3391
21540 0.21720321 10.533899520000002 0.23995260000000002 -0.29954200000000003 -1.6564279999999998 -0.291594
21560 0.8313680700000001 10.53808839 0.8599642200000001 0.229696 -1.457791 -0.341563
21580 -0.8810655300000001 12.75078294 0.18471249 0.532165 -1.46663 0.0077329999999999986
21600 -3.92678604 15.147002970000003 -2.2191397200000003 0.7301310000000001 -1.14117 -0.035098000000000004
21620 -0.7493368500000002 14.93534241 0.27932013 -0.151813 -0.349994 -0.520836
21640 3.0112874100000004 14.63476401 2.7924459300000004 -0.8313799999999999 -0.6094470000000001 -0.316947
21660 1.03030506 15.143853960000001 0.07469334000000001 -1.1589 -1.1111030000000002 -0.587784
21680 -2.1068642700000004 14.153818950000002 0.8313680700000001 -0.69965 -1.722121 -0.8316209999999999
21700 -2.0092743900000003 11.514801420000001 1.08179775 -0.709019 -1.639232 -1.039027
21720 1.90823139 12.38763636 1.1726579700000002 -0.08219 -1.393473 -0.437828
21740 4.10790807 12.79494756 -0.67748841 0.110541 0.28147300000000003 0.376426
21760 3.8544863400000002 13.324540410000003 -2.1517744500000004 -1.648742 1.368214 0.2634
21780 6.60381732 15.63318657 -1.5094647 0.484196 1.23358 -0.150954
21800 6.995403090000001 15.56537985 0.49143195 1.963431 0.42628 0.119991
21820 3.41649927 13.87255644 0.89708526 2.147692 0.631415 0.8741110000000001
21840 1.00590759 14.343769980000001 -0.3990708 4.58893 4.660282 0.358299
21860 -1.43820486 12.4996077 0.5929164 3.719806 6.712745 0.659382
21880 -1.5094647 9.54280503 -0.75578202 1.321104 3.2839150000000004 1.33282
21900 0.08322804 5.759872830000001 -2.9852418600000004 1.454628 0.710692 1.0967
21920 1.4883535800000003 3.1242986100000003 -2.7622017 2.485282 0.121801 1.216817
21940 2.06405343 1.70405586 -2.33784072 2.819847 -0.367378 1.779529
21960 2.03381901 0.45535077 -1.1539503 2.2022630000000003 -0.423241 2.165188
21980 1.8058444200000001 1.2332837700000001 -0.38709279 1.491537 -1.316201 1.781081
22000 1.6401437100000003 1.8505976400000002 -0.33605136 1.54441 -2.125289 1.073187
22020 2.15043048 2.4843824999999997 -0.10852803000000001 1.510667 -1.509871 0.648079
22040 1.09392291 3.01338675 0.6637151700000001 1.6563560000000002 -0.319105 0.042957
22060 0.35341506000000006 4.95455031 3.5371426500000003 1.853619 0.349168 -0.213963
22080 -1.5313115700000002 10.973828970000001 10.5882273 2.12395 0.361434 -0.052925
22100 -2.72074464 18.45422865 13.878236430000001 1.845713 -0.39017 0.333859
22120 -4.865779620000001 19.48647609 11.103909569999999 0.988116 0.132753 0.576094
22140 -1.31127327 10.2062259 6.7321026900000005 0.968676 1.22479 0.294685
22160 3.0499093800000003 5.492825010000001 7.866589950000001 0.734796 1.365339 0.248006
22180 6.28079364 7.397465940000001 10.76381649 0.566712 0.474487 0.197767
22200 3.62546208 18.3473487 10.28242017 0.486407 0.413922 -0.037725
22220 -1.42324461 27.697504950000003 1.45587267 0.728028 0.78774 -0.489443
22240 5.01456789 2.8930376700000004 -5.3173927800000005 0.006059 0.8945069999999999 -0.456166
22260 8.971745310000001 -4.23963675 -3.6824876100000004 -1.09012 -0.010963 -0.308839
22280 6.901393860000001 -0.18217170000000002 9.293572170000001 -2.107948 -0.0797 -0.618167
22300 -2.71520199 4.1065641 -9.55088847 -2.857751 0.006701 -1.0614860000000002
22320 -3.2970429 11.760590970000003 -8.265366450000002 -3.699033 -0.190358 -1.135477
22340 -3.57710859 24.312289770000003 -2.28544551 -3.895924 0.810005 -0.716186
22360 -3.1213065600000003 13.24984707 0.98405091 -3.31736 2.416318 -0.122408
22380 -1.6239768300000001 6.99509898 0.5644772100000001 -2.257633 3.030088 -0.284572
22400 1.08329868 5.70643776 -0.09655002 -1.735384 2.753848 -0.919366
22420 2.9044074600000003 5.63832693 -1.43566407 -2.10851 0.772193 -1.067916
22440 2.47120767 10.00175607 -3.4166464200000006 -1.701531 -2.5005580000000003 -1.364255
22460 0.33470739 12.94134219 -2.12348241 -1.831309 -1.408756 -2.023517
22480 -3.03852978 9.67453371 -0.08098155 -1.948436 -0.201375 -2.294006
22500 -1.98576963 7.517667870000001 1.16098407 -1.963597 -1.737936 -1.640527
22520 0.42002496 7.406893350000001 0.27363033000000003 -1.785567 -2.157449 -1.314007
22540 1.97484129 7.51137966 0.42077052000000004 -1.730739 -2.218588 -0.990942
22560 4.51251171 8.95826637 1.7160338700000002 -1.190929 -1.911851 -0.910653
22580 2.83973994 8.6327019 2.9303058600000003 -0.642876 -1.7263580000000005 -0.8867659999999999
22600 0.28425456 9.8680752 2.7463389300000003 -0.111169 -1.444672 -0.928278
22620 0.7096750199999999 10.050551010000001 0.9801661500000001 0.3753 -1.609459 -0.368126
22640 -0.6468027300000001 11.83499001 -0.8646043500000001 0.918227 -1.312247 -0.039975
22660 -2.94482466 13.32888624 -1.12355892 1.404692 -1.211051 0.072252
22680 -3.96720324 14.199170580000002 -1.7143857900000001 1.196939 -0.608809 -0.104091
22700 0.25597233 13.91955615 1.3377700800000003 -0.361115 -0.086309 -0.21392
22720 2.2122531 15.542179200000003 0.4192794 -1.302876 -0.650188 -0.375736
22740 -0.6436635300000001 15.661184310000001 -0.1041822 -0.5942890000000001 -1.6834630000000002 -0.733726
22760 -2.17991934 14.542108559999999 0.88046712 -0.4561 -2.067418 -1.005733
22780 -0.4167288 11.57857623 0.98569899 0.00354 -1.245844 -0.13511099999999998
22800 3.60854964 11.564950140000002 1.59133896 0.378438 1.467465 0.59149
22820 4.131854280000001 12.67594245 -1.0506608100000001 -1.326649 2.441469 0.652039
22840 5.88426363 15.191157780000001 -1.16413308 0.051201 1.432684 0.249554
22860 8.58195477 16.613048610000003 0.95950629 1.411525 -0.919975 0.26848
22880 5.89743846 14.609915280000001 1.67755905 2.678669 -0.105784 0.687553
22900 3.2723413199999998 13.5266166 -2.31014709 4.685036 4.407616 0.324043
22920 -0.16600482 13.870604250000001 -1.42039971 4.164482 7.0600770000000015 1.059422
22940 -2.8925864100000007 12.28794714 2.0299244400000003 1.046306 4.985741 2.223889
22960 -2.5469506800000006 8.11881486 -2.1802136400000003 1.44766 -0.156927 2.021775
22980 -0.82043973 4.740192 -2.59200801 2.549526 -1.376542 1.568494
23000 1.61319564 1.97708778 -3.3841655100000003 2.711442 -1.050867 1.236991
23020 2.54171214 0.65039319 -2.15866107 2.024519 -1.02405 0.987536
23040 2.26703214 1.3512392100000001 -1.2695121 1.715752 -1.392487 0.951668
23060 1.6013745900000003 2.01944736 -0.46478799 1.716186 -1.202291 0.807217
23080 1.14347322 2.0191530600000003 -0.8646043500000001 2.079883 0.181145 0.315535
23100 0.8416980000000001 1.42203798 -0.06975891000000001 1.432261 0.526814 -0.051559
23120 1.93607217 3.5025624000000004 0.99872667 1.333345 0.212529 0.041088
23140 0.7782273000000001 5.52515877 4.0607514 1.376121 0.013219 0.295879
23160 -2.6114710500000005 11.84800788 11.665689030000001 0.928973 0.449567 0.520796
23180 -4.56744771 22.22054271 15.944242050000001 1.177422 1.327718 0.480813
23200 -5.1771294 18.43970004 11.135939220000001 1.374055 1.1692360000000002 0.249518
23220 -0.39697146000000005 8.96170968 7.361688870000001 0.887236 0.404816 0.027043
23240 5.076841770000001 4.26657501 7.8005784600000005 0.4286430000000001 0.271813 -0.146905
23260 4.8696741900000005 10.95287481 9.45508401 0.544563 0.996261 -0.528379
23280 0.9026181 21.03246342 4.3673139 -0.006161 1.228115 -0.489794
23300 1.6837001100000002 20.5775541 0.10537902 -1.10685 0.05412 -0.319722
23320 6.194867850000001 -0.5245112700000001 -8.0489088 -2.14659 -0.13388599999999998 -0.620504
23340 7.3886369400000005 0.46553355 4.438269630000001 -2.68989 0.422134 -1.200783
23360 2.8996201800000003 1.6079571000000001 0.5758568100000001 -3.752799 0.650392 -1.150816
23380 -2.2448811600000003 5.0641182 -11.161092060000001 -3.722738 0.921121 -0.6820039999999999
23400 -1.90134477 15.4787085 -7.71959691 -3.266492 1.729693 -0.019692
23420 -2.48648184 20.177286480000003 -1.05051366 -2.665418 2.5755 0.263297
23440 -3.1738489200000006 13.19177187 -0.26121087000000004 -2.028889 1.574525 -0.649645
23460 -0.82059669 9.4889187 1.07985537 -2.27167 0.160954 -0.983883
23480 2.33574138 7.190592659999999 -0.57779919 -2.025794 -1.099389 -1.166421
23500 2.3583436200000003 7.13969838 -2.48064489 -1.958846 -1.466965 -1.476335
23520 0.60668964 7.09060914 -2.5080344100000005 -2.084131 0.133243 -1.6747450000000002
23540 -1.57143447 9.07413228 -0.36254817 -2.059416 -1.675777 -1.384903
23560 -1.4012407800000002 8.82489942 3.5675340300000005 -1.915957 -1.739275 -1.081513
23580 -0.31644117000000005 7.224878610000001 1.64328291 -1.696061 -1.7164830000000002 -0.8449969999999999
23600 2.0549301300000002 7.29897354 2.9216240100000004 -1.398502 -1.563763 -0.666858
23620 3.54493179 9.0004788 2.15701299 -0.782558 -1.549675 -0.727735
23640 1.17640539 8.426878290000001 -0.48873420000000006 -0.087623 -1.565533 -0.8275459999999999
23660 -0.71012628 9.50434002 -0.22273605000000002 0.490888 -1.7919189999999998 -0.39379
23680 -0.57660237 11.25405162 -0.01182105 1.073414 -1.485185 -0.083534
23700 -1.4198013 12.85556355 0.7836228 1.6387470000000002 -1.258185 -0.064921
23720 -2.8669921200000004 14.17147695 -0.21225897000000002 0.961555 -0.681906 -0.268011
23740 -1.6340026500000002 14.519055060000001 -0.23920704 -0.8791479999999999 0.473892 0.001798
23760 1.80090018 14.70182517 1.6543584000000002 -1.061116 -0.15931800000000002 -0.263581
23780 1.6727717700000002 15.76536651 -0.31734369000000007 -0.561188 -1.440802 -0.973087
23800 -2.1305161800000003 16.13868606 -0.17318574 -0.6080220000000001 -1.965411 -0.809304
23820 -2.0246859 12.87428103 1.37443986 -0.383858 -0.317396 0.584179
23840 1.80614853 10.975477049999999 2.8969224300000005 -1.536685 1.555761 0.6837529999999999
23860 3.93845994 11.47349151 -0.39653001 -0.13405699999999998 1.462424 0.4319560000000001
23880 3.5182878300000002 12.832510050000002 -2.78750169 1.6574400000000002 1.089265 0.023
23900 5.487733620000001 15.122007090000002 -1.17461016 2.308786 0.298647 0.303096
23920 9.10062909 17.43589179 1.39509972 4.355537 3.531788 0.119901
23940 5.92752573 14.7033261 2.86099821 4.011284 6.03215 0.644131
23960 2.7375099300000003 14.471751240000003 -0.78422121 1.454605 4.114124 1.659564
23980 -1.10140794 12.81874662 -0.90142128 1.271197 1.462476 1.5965200000000002
24000 -2.55473982 10.35247338 1.4754828599999998 2.354769 -0.23317 1.6543310000000002
24020 -1.38701628 7.9794540000000005 -4.388572170000001 3.037449 -0.93453 1.697386
24040 0.17662905 4.4619215400000005 -2.57074974 2.469329 -1.032878 1.476695
24060 2.00028843 1.73668392 -3.22519446 1.884623 -1.183786 1.094653
24080 2.44950795 -0.41149026 -2.65353633 1.7164689999999998 -1.364155 1.058459
24100 1.96406991 1.1681748 -1.58954373 1.785539 -1.066828 0.70391
24120 1.5157431 1.2680111699999999 -0.8035272900000001 1.886873 -0.397189 0.188877
24140 0.70099317 0.07125002999999999 -1.30228731 1.815329 0.289038 -0.062466
24160 0.8388531 -0.03023442 0.45505647 1.975659 0.288854 0.110638
24180 1.22101146 2.2791573 2.43334107 1.719426 -0.395388 0.416305
24200 -0.25925868 8.01013968 8.408612069999998 0.970897 0.5218510000000001 0.5231319999999999
24220 -3.28641867 19.580328360000003 18.09661491 1.030393 1.795984 0.189698
24240 -6.074214660000001 25.169860350000004 12.49466346 0.7598010000000001 1.587309 0.128255
24260 -0.20851155000000002 11.8864827 8.44319232 0.241156 0.463808 0.220076
24280 6.045775470000001 7.00333938 8.18422794 0.210045 0.167743 -0.03934
24300 8.07870177 13.259127330000002 10.14664977 0.70857 0.999564 -0.6970850000000001
24320 2.5993458900000004 22.546568250000004 6.945107220000001 -0.6086020000000001 0.8572649999999999 -0.466822
24340 0.26913735 12.407697810000002 -2.05821648 -1.8001779999999998 -0.16498 -0.338171
24360 4.86862452 -3.00410649 -8.88686919 -2.764716 0.441473 -0.910774
24380 6.77072466 0.29159244 4.82177196 -3.796751 0.158271 -1.121651
24400 0.32991030000000005 2.74679019 -2.6271866700000004 -4.109024 -0.612329 -1.016022
24420 -3.06428103 8.184826350000002 -9.47918718 -3.485186 0.606132 -0.438523
24440 -2.52030672 21.953946150000004 -4.36118265 -2.908979 3.136061 0.4179060000000001
24460 -2.11300533 15.32018871 -0.72509634 -2.202735 3.627241 -0.7474930000000001
24480 -1.80823806 9.61316235 0.64201545 -1.7429439999999998 1.369728 -1.097107
24500 -0.17408826000000002 8.543479950000002 -0.14564907000000002 -1.973451 -1.159989 -1.241822
24520 2.2546126800000006 7.36304265 -0.7105677300000001 -1.641949 -2.175509 -1.716768
24540 3.2654547000000003 8.674610220000002 -1.61125326 -2.016595 -0.792851 -2.439002
24560 0.70144443 9.43891713 -1.3130685 -1.962291 -1.600015 -2.032732
24580 -1.89371259 9.22966002 -1.80330363 -1.7829099999999998 -2.32229 -1.11936
24600 -1.8503033400000002 8.01044379 1.06698465 -1.591359 -2.143021 -0.828764
24620 -0.04056435 6.308477460000001 0.53259471 -1.446628 -1.909477 -0.7500720000000001
24640 1.28252997 7.04719989 1.10559681 -0.908009 -1.7842790000000002 -0.82445
24660 4.13933931 8.876686410000001 3.5292063600000003 -0.244154 -1.65681 -0.510192
24680 2.36253249 9.44805024 2.8916838900000004 0.517027 -1.282361 -0.239368
24700 -1.12326462 9.24387471 2.31987861 1.1894790000000002 -1.2599049999999998 -0.044556
24720 0.18172044 10.432258110000001 1.6732230300000004 1.728127 -1.453825 0.031026
24740 -0.15237873000000005 11.47992687 -0.64455624 1.039096 -1.01754 -0.051258000000000005
24760 -3.1726521 13.449529620000002 -2.2299111000000003 -1.288199 0.016682 -0.12438699999999997
24780 -4.04758638 14.45364198 -1.9263406500000002 -1.677059 -0.93711 -0.49335
24800 0.69664734 14.241687120000002 2.95156413 -0.482705 -1.644143 -1.072691
24820 2.82627081 14.617998720000001 2.26808181 -0.336032 -2.127797 -1.1949610000000002
24840 -0.5580418500000002 14.49016461 0.88301772 0.441115 -0.4975350000000001 -0.369091
24860 -2.718351 12.948827220000002 1.01848401 1.334456 1.697425 0.330817
24880 -1.17026433 12.8639511 -0.43679025000000005 -0.838362 2.785132 0.60053
24900 2.5093783800000002 13.85039565 -1.6193367 -0.916359 1.009726 0.033966
24920 3.3751795500000004 14.1078591 -1.6278615900000002 1.365213 -1.070022 -0.262558
24940 7.5630195 17.706530070000003 0.32512302000000004 2.570763 -0.552226 0.271833
24960 11.46944979 16.96018527 2.57943159 4.4325 3.983639 0.541808
24980 6.42539304 14.129117370000001 2.50279587 4.613536 6.338438 1.314516
25000 2.4351363000000004 14.118787440000002 -4.32705366 1.859427 5.922884 2.658862
25020 -1.8250033500000002 13.483962720000003 -0.07963758 0.913441 2.030093 2.482054
25040 -3.7624293 11.201058 0.24384717000000003 2.271217 -1.597084 1.55081
25060 -2.5872207300000003 6.39110709 -2.43243855 2.711046 -1.877631 0.732779
25080 -0.96788403 3.52307511 -2.8714752900000002 2.348661 -0.64276 0.460541
25100 1.90433682 1.53250839 -3.39718338 1.962018 -0.580372 0.378712
25120 2.96084439 -0.5578947 -3.02551191 1.52725 -1.064008 0.4895270000000001
25140 2.3346917100000004 0.2555210700000001 -1.92066066 1.7403529999999998 -0.845583 0.294182
25160 0.97941078 -0.34712685000000004 -0.7367702399999999 2.018667 -0.241173 0.219508
25180 1.6190325900000002 -0.48259314000000003 -0.33710102999999997 1.965104 0.628297 -0.051172
25200 2.1802136400000003 0.47930679000000004 0.45025938000000004 1.789176 0.6513939999999999 0.185783
25220 1.95254316 3.56394357 2.8678848300000004 1.208299 0.7134520000000001 0.354698
25240 -0.51552531 11.957438430000002 11.446994700000001 1.171704 1.631685 0.394926
25260 -4.547690370000001 29.447962110000002 18.04213017 1.224301 1.627544 0.31945500000000004
25280 -7.12682766 20.518134930000002 12.510084780000001 0.542385 1.0984120000000002 0.300415
25300 0.09580446000000001 6.0653856600000005 6.2204621399999995 0.198978 0.751821 0.159592
25320 5.18551695 -0.46074627 6.55502238 0.665176 1.048941 -0.487012
25340 5.9402493000000005 5.704485570000001 9.20959857 0.110187 1.402718 -0.565049
25360 2.5942545000000004 16.96093083 5.53414473 -1.389969 0.345358 -0.178931
25380 2.6955918000000003 29.777274000000002 -0.02320065 -2.247177 -0.041496 -0.461092
25400 1.6396924500000003 11.39580612 -4.2107463 -3.327809 0.453178 -0.95211
25420 5.99907006 -3.5127451800000005 -0.28785483 -4.081377 -0.6050800000000001 -0.988065
25440 5.884714890000001 -1.44389466 5.08971249 -3.833963 -0.234791 -0.829782
25460 -0.48858705 1.57083606 -8.50755573 -3.156239 1.982044 -0.085475
25480 -0.8062250400000001 8.83178604 -11.352838320000002 -2.908992 3.3969480000000005 0.444277
25500 -1.5075125100000002 20.596869990000005 -3.63024936 -2.059723 1.467347 -1.25861
25520 -4.06299789 18.94670046 -1.8791937900000002 -2.126263 0.287937 -1.16356
25540 -3.2970429 13.561952220000002 0.6212084400000001 -2.001219 -0.691172 -1.241548
25560 0.040711500000000005 10.209522060000001 0.68063742 -1.636399 -1.6906759999999998 -1.754738
25580 1.96211772 6.53001669 0.63228393 -2.002509 -1.018483 -2.236721
25600 2.3516139600000003 5.72170212 -2.0392047 -2.026911 -1.861121 -1.6824720000000002
25620 1.64747178 6.6979737 -3.09705624 -1.922225 -2.348885 -1.008136
25640 -0.02829204 7.105569389999999 -1.4024376 -1.720104 -1.965076 -0.72841
25660 -0.97627158 6.600079710000001 0.11945637 -1.380931 -1.701199 -0.678309
25680 0.44951382000000006 6.91083108 2.56656087 -0.8432200000000001 -1.90667 -0.643312
25700 2.88046125 9.44880561 5.1013962 -0.13538699999999998 -1.567052 -0.406998
25720 2.1430926 9.49026267 0.73781991 0.6134689999999999 -1.318284 -0.130758
25740 0.18157329000000003 9.27067563 -0.12049623000000001 1.325723 -1.49079 0.033602999999999994
25760 0.6373753200000001 10.35381735 1.38267045 2.021049 -1.585767 0.0054670000000000005
25780 -0.42421383 12.20981049 1.17970155 1.198015 -0.626842 -0.124356
25800 -3.71692071 13.751756100000001 -1.6184341800000002 -1.09111 0.277702 -0.035751
25820 -3.94833861 14.33119356 -1.0916764200000002 -0.976977 -0.693425 -0.767578
25840 0.7852708800000001 14.130618300000002 3.4889461200000005 -0.622175 -1.670031 -1.403713
25860 2.3905302300000004 14.994016020000002 1.5901421400000002 -0.6599 -1.79215 -1.201926
25880 -0.42077052000000004 14.50468341 0.1414602 0.5976229999999999 -0.191739 0.011898
25900 -3.48849486 13.01723235 0.68063742 -0.430715 2.606614 0.401712
25920 -1.91961099 12.80586609 -0.11855385 -2.281631 1.065704 0.006198
25940 1.6557023700000002 13.55296626 -1.1154754800000002 0.758652 -0.684667 -0.467046
25960 2.45744424 13.866111270000001 -1.8452119500000002 2.140329 -1.548283 -0.147572
25980 4.59678942 17.05927608 -0.90022446 3.801317 2.31047 0.195575
26000 11.05122006 19.21882986 1.1493101700000001 4.857595 6.4325230000000015 0.7520789999999999
26020 6.5906424900000005 14.801524200000001 3.1193641800000007 2.578507 7.386989 2.464387
26040 3.9908551500000002 13.68813825 -0.28410741 0.643447 3.239014 2.757425
26060 -0.15806852999999998 12.61397268 -1.1289544200000001 2.038574 -1.219675 1.942875
26080 -3.0169772100000003 11.759247000000002 -0.16585766999999998 2.950805 -1.275122 1.166311
26100 -2.1369515400000005 7.9873902900000004 -2.0917470600000008 2.555345 -0.568408 0.601827
26120 -0.88316487 4.737199950000001 -3.5097531300000004 1.93305 -0.464766 0.5311170000000001
26140 1.01324547 1.86931512 -3.8812774500000002 1.6411639999999998 -0.843932 0.765642
26160 2.55862458 -0.67284828 -3.81107709 1.781453 -1.172751 0.556603
26180 2.6355644100000006 0.18726309 -2.39846652 2.188454 -0.453718 0.211352
26200 0.48289725 -0.36164565000000004 -0.95381649 1.904552 0.6499590000000001 -0.08794199999999999
26220 0.90741519 -0.8340658200000001 -0.7845155100000001 1.753278 1.099271 -0.16435
26240 2.215392300000001 -0.26689086 -0.39457782 1.424767 0.524804 0.190877
26260 2.01032406 1.7229204900000001 1.76198391 1.210353 0.989126 0.410975
26280 0.53364438 6.486009030000001 6.87251322 1.406145 1.573332 0.398775
26300 -3.02266701 19.49247 18.29870091 0.98906 1.137926 0.4209890000000001
26320 -6.553070190000001 30.8036943 14.78760381 0.583883 0.603959 0.305611
26340 -2.18216583 12.9652884 7.53637554 0.230772 0.803511 0.259092
26360 3.82349655 2.2878391500000004 5.030587620000001 0.270174 0.743674 -0.261848
26380 6.24172041 4.3065409500000005 11.87031582 0.048707 1.014118 -0.568185
26400 3.8922057899999998 19.98823797 9.48786903 -1.116898 0.348498 -0.401354
26420 0.81670212 33.65990523000001 -0.14624748 -2.401469 -0.08409900000000001 -0.595643
26440 1.7028590399999999 4.0818625200000005 -10.352326230000001 -3.209162 0.398853 -1.055898
26460 6.86262474 -5.195101320000001 -0.74679606 -3.999059 -0.28278000000000003 -0.939833
26480 4.7466273600000015 -1.49658417 4.66609707 -3.746982 0.339195 -0.855548
26500 -2.0082247200000003 1.7082447299999999 -10.3741731 -3.122131 2.275686 -0.02152
26520 -0.63467757 12.13975728 -8.96979312 -2.500595 3.762221 0.385773
26540 -0.69530337 22.730083920000002 -3.77006148 -1.652838 2.849405 -0.911435
26560 -3.59492355 18.21621843 -0.35999757000000004 -2.0018580000000004 1.159899 -1.146716
26580 -1.31112612 12.18974904 0.89813493 -1.6657509999999998 -1.238013 -1.177615
26600 0.9774684000000001 9.637108560000001 0.17198892 -1.880317 -2.049995 -1.7292759999999998
26620 2.336791050000001 6.947049600000001 -1.58669883 -2.1554900000000004 -0.88899 -2.25291
26640 1.89985365 6.31641375 -3.56528754 -1.921457 -1.578458 -1.598777
26660 1.31501088 7.69969242 -3.1903199100000004 -1.766766 -2.118617 -1.18467
26680 -0.9035206200000001 8.08738362 -0.025594290000000002 -1.542332 -1.891996 -1.042388
26700 -1.48236948 7.06739868 1.9616664600000002 -1.28085 -1.737913 -0.907231
26720 0.5089428 5.743853100000001 3.21725817 -0.649107 -1.469531 -0.905298
26740 1.8574842599999999 7.45240194 2.77148196 -0.058362 -1.724161 -0.611358
26760 1.47937743 8.406071279999999 -0.34743096000000007 0.622325 -1.336065 -0.220404
26780 0.59710527 10.1860173 0.34712685000000004 1.160491 -1.216465 0.039575
26800 0.20716758000000002 10.534193819999999 1.90688742 1.6562009999999998 -1.377579 0.206682
26820 -0.5418749700000001 10.96304778 1.4424035400000002 1.164473 -0.914457 0.168471
26840 -1.6268217299999999 12.11266206 0.01406754 -1.140281 -0.132602 0.049889
26860 -3.8676611700000003 13.63409496 -1.35812583 -1.19863 -0.7983060000000001 -0.454934
26880 -1.9079370900000001 14.04784152 -0.07170129 -0.189402 -1.34721 -0.990907
26900 1.5010771500000002 14.170132980000002 1.6098994800000002 -0.443677 -1.7624490000000002 -1.091495
26920 1.7488090800000002 14.73296211 0.7204562099999999 0.23778600000000005 -0.519554 -0.014765
26940 -1.17461016 14.137799220000002 -0.10896948000000001 1.031364 2.140721 0.5578
26960 -2.2547598300000002 12.600346590000001 0.7963463700000001 -1.601372 2.102536 0.667646
26980 1.48131981 13.79471409 0.6867686700000001 -0.335444 0.972105 -0.118957
27000 2.84408577 13.244902830000001 -1.6151380200000003 1.5478120000000002 -1.197724 -0.187411
27020 3.55899933 14.36188905 -1.7751587400000002 2.926755 0.5862609999999999 0.302771
27040 8.71143696 16.575927570000005 1.1578448700000001 4.41728 4.489319999999998 0.636125
27060 9.489213000000001 15.37003332 3.3295238100000004 3.933473 6.0234809999999985 1.812233
27080 4.9280535 13.17814578 1.38297456 1.2046940000000002 4.781179 2.625841
27100 0.87702381 13.515845220000003 -3.74431023 0.437288 0.910306 2.141537
27120 -2.98299537 13.07097153 -0.89514288 2.211075 -2.034362 1.1995049999999998
27140 -4.28154507 11.621534220000001 -0.22273605000000002 2.659203 -1.419037 0.380384
27160 -2.65457619 7.2910372500000005 -2.30715504 2.04406 0.178489 0.21167
27180 0.10478061 4.90469589 -3.45885885 1.686547 -0.094945 0.435986
27200 2.45953377 2.54381148 -3.63534075 1.536952 -0.58778 0.468688
27220 3.37608207 -0.00299205 -2.7087666300000004 1.7445540000000002 -0.780937 0.374246
27240 3.04331706 0.49861287 -0.44547210000000004 1.910087 -0.603224 0.277966
27260 1.3703981400000003 -0.047902230000000004 -1.15454871 1.680716 0.218362 0.146056
27280 1.25423793 -0.15538058999999999 -0.053140770000000004 1.932603 0.491207 0.16028399999999998
27300 1.9393683300000002 0.6655202100000001 0.37946061000000003 1.740791 0.450807 0.306411
27320 1.53685422 3.1744473300000005 1.9712508300000002 1.262675 1.169245 0.34381100000000003
27340 -0.57210939 9.313927920000001 8.362357920000001 0.913772 1.541563 0.245825
27360 -4.1185323 23.30862867 18.3214503 0.581964 1.053805 0.232382
27380 -7.856112870000001 24.8719797 12.54750993 0.107149 0.639714 0.302235
27400 -0.9618999300000001 9.696537540000001 7.478898750000001 0.29032 0.937656 -0.038698
27420 5.632185870000001 1.0355436 6.62971572 0.420207 1.288779 -0.578761
27440 6.87939003 6.394256100000001 9.65956365 -0.54852 0.711047 -0.450191
27460 3.2681524500000005 16.36591509 6.16418217 -1.59659 -0.284686 -0.415644
27480 1.9712508300000002 28.624520520000004 -1.21637133 -2.412965 -0.315144 -0.881711
27500 0.36688419000000005 10.14739533 -5.3157447 -3.234373 0.07696499999999999 -0.9905
27520 5.3890940700000005 -2.13770691 1.29151593 -4.114968 0.485911 -0.730119
27540 4.18559346 -1.4441987699999999 3.7538946 -3.678119 1.521215 -0.2744
27560 -0.5869323000000001 0.99124164 -8.115528509999999 -3.029746 3.0291330000000003 0.356311
27580 0.18231885 9.19702215 -10.19364948 -2.293139 3.173071 -0.312777
27600 -0.89993016 20.622169980000002 -4.56041394 -1.579284 0.61231 -1.237067
27620 -3.68982549 19.14353811 -1.6844456700000001 -2.340103 -1.7543540000000002 -1.205165
27640 -3.4829620200000004 13.700263410000002 1.31411817 -2.330197 -1.751885 -1.032047
27660 0.13172868000000001 10.295143740000002 1.0118916900000001 -2.006764 -1.170915 -1.676807
27680 2.1068642700000004 6.70859793 0.42541065000000006 -2.034277 -1.165312 -1.721871
27700 2.07213687 6.07646115 -3.2715957600000003 -1.884267 -1.977333 -1.249765
27720 2.1314187 7.29058599 -2.9948262300000006 -1.817249 -2.043413 -1.033432
27740 0.6894664200000001 7.39552356 -1.5200889300000002 -1.515953 -1.737443 -0.8212790000000001
27760 -0.58394025 6.80485365 -0.9981282600000001 -0.988899 -1.710616 -0.794131
27780 -0.26989272000000003 6.361471080000001 0.81115947 -0.435722 -1.566708 -0.7648149999999999
27800 1.3662092700000001 8.060141250000001 2.78360712 0.137276 -1.433771 -0.407401
27820 1.67367429 9.9258561 2.1633012000000003 0.8193590000000001 -1.200184 -0.006626000000000001
27840 -0.027095220000000003 9.75910572 1.60466094 1.493642 -1.229994 0.203221
27860 -0.45415395000000003 10.291700429999999 2.09519037 1.862599 -1.181574 0.295467
27880 0.44382402 11.492797590000002 1.5380510399999998 0.28799600000000003 -0.307469 0.184003
27900 -0.4340925 11.916422820000001 -0.5348412000000001 -1.585431 -0.450648 -0.214527
27920 -3.0057447600000002 13.493694240000002 -1.40811759 -0.733323 -0.822183 -0.7475510000000001
27940 -2.44157166 14.115344129999999 0.26569404 -0.611712 -1.576883 -1.263822
27960 -0.24369021 14.70736782 1.00800693 -0.637482 -1.0590620000000002 -0.467772
27980 1.41320898 15.15059343 -0.17693316 0.43062 0.071572 0.641713
28000 -1.5444864 15.407762580000002 -0.74409831 -1.05834 1.522717 0.806778
28020 -2.5477060500000004 13.243107600000002 1.8785953800000001 -0.714325 1.661674 0.125341
28040 1.3790799900000001 11.32066152 3.10993677 1.477465 0.139852 -0.290029
28060 3.32308845 11.60476893 -0.41389371 2.1842900000000003 -0.088736 0.31661
28080 2.8419864300000004 13.21841583 -2.15117604 4.182698 3.334088 0.15954000000000002
28100 5.55899346 15.618824730000002 -1.15200792 4.107716 5.9208870000000005 0.67913
28120 8.622371970000001 17.03113119 0.39443067000000004 1.753408 4.7643900000000015 1.821051
28140 3.37144194 13.958178120000001 1.2693649500000002 0.976486 1.117499 1.54256
28160 1.0240168500000002 12.9160422 1.33941816 1.97995 -0.591852 1.368026
28180 -1.3939029000000003 12.38419305 -0.44742429 2.9614830000000003 -0.821259 1.143371
28200 -3.5016696900000004 11.443257090000001 -0.10912644 2.518573 -0.369256 0.913235
28220 -2.4692652900000005 8.4104073 -1.9127243700000003 1.853561 -0.451179 0.665141
28240 0.00359046 5.75583111 -3.3335655300000004 1.618003 -1.043995 0.733689
28260 2.3659758 3.0606807600000003 -3.0644281800000006 1.525359 -1.078531 0.659379
28280 3.69701622 -0.005542650000000001 -2.83929849 1.508947 -0.581663 0.29543200000000003
28300 2.96727975 0.7836228 -0.6873670799999999 1.499917 0.01908 0.055317999999999985
28320 1.0008162 0.40220999999999996 -1.16787069 1.885114 0.323247 0.113166
28340 0.6333336 0.042065280000000004 -0.41149026 2.1520200000000003 0.27803 0.266776
28360 1.75629411 0.33110712 0.52750332 1.440465 0.511854 0.484765
28380 1.7591390100000002 2.29427451 1.9779903 1.159846 1.282657 0.309833
28400 0.24548544000000003 7.61840676 7.15347162 0.923594 1.392124 0.046328
28420 -3.42846747 20.335511970000002 18.18463023 0.352258 0.796489 0.045237
28440 -6.47868096 27.6136785 12.90212181 0.13483399999999998 0.742269 -0.05983
28460 -1.2338821800000002 11.71404252 7.61077458 0.510594 0.788684 -0.536896
28480 5.55674697 2.47944807 7.29343089 -0.181469 0.7585069999999999 -0.648514
28500 8.20608462 8.61713343 10.799446410000002 -1.421826 0.038972 -0.520592
28520 4.18260141 17.96773113 8.992395360000002 -2.391552 0.106911 -0.951536
28540 0.22708187999999999 25.04007405 -0.40985199 -3.248329 0.4194229999999999 -1.104268
28560 2.0395088100000005 2.03097411 -9.4541913 -4.047902 -0.286537 -0.7575029999999999
28580 6.66489438 -0.36883638 1.58475645 -3.806587 0.317464 -0.4318520000000001
28600 2.50219746 1.90329696 4.148178120000002 -3.025568 2.00985 0.306371
28620 -2.52090513 3.5013655800000003 -10.145305800000001 -2.639938 2.957043 0.197824
28640 -1.50930774 14.04110205 -7.59850227 -1.99971 1.552476 -0.755167
28660 -1.9353266100000002 21.529575360000003 -2.26030248 -2.183135 0.041799 -1.099548
28680 -3.04062912 14.243776650000001 0.21630069000000005 -1.727471 -1.242961 -1.218633
28700 -1.57098321 9.48023685 1.21053438 -1.845121 -1.6630790000000002 -1.814984
28720 0.8282288700000001 8.6156325 0.03532581 -2.004125 -1.207717 -2.065574
28740 2.85530841 8.042022180000002 -0.7831715400000001 -1.90613 -2.002237 -1.396233
28760 2.5578790200000006 7.7067261899999995 -1.00456362 -1.830219 -2.074287 -1.027073
28780 -0.05223825 7.97152752 -1.9717020900000002 -1.546921 -1.797837 -0.875898
28800 -1.4485347899999998 8.06537979 -0.7726944600000001 -1.139758 -1.72745 -0.716115
28820 -0.9259757100000001 7.002888120000001 -0.29862621000000006 -0.407672 -1.465733 -0.732701
28840 -0.10059174 6.81697881 -0.4309533 0.189006 -1.624359 -0.47623
28860 1.91122344 8.08154667 2.33604549 0.83055 -1.259173 -0.182729
28880 3.1870237500000003 10.19709279 3.64536657 1.382437 -1.235244 0.014444
28900 -0.19235448000000002 8.98416477 1.12700223 1.585762 -1.246962 0.104542
28920 -1.1036544300000002 10.10847906 1.94386131 0.285833 -0.473004 0.023967
28940 0.22708187999999999 10.96619679 2.32196814 -1.193049 -0.41073 0.118243
28960 -0.6950090700000001 12.176279910000002 -0.03742515 -0.740062 -0.923148 -0.5348930000000001
28980 -3.7142229600000003 13.64293377 -2.4020569800000002 -0.405493 -1.57191 -1.088268
29000 -3.0868832700000004 13.639490460000001 -0.65204127 -0.270227 -1.330675 -0.793871
29020 0.50579379 14.793136650000001 2.25341586 0.8979440000000001 -0.398991 0.16488
29040 1.23747264 15.31016289 1.0240168500000002 0.166697 2.335113 0.380596
29060 -1.9203565500000002 15.185026530000002 -0.11541465 -1.700163 1.3713879999999998 0.313243
29080 -2.17767285 12.32925705 1.57277844 0.580847 0.803258 -0.246936
29100 2.1472814700000002 11.61285237 0.41149026 1.88811 -0.824516 -0.040234
29120 3.52771524 12.09874167 -1.2510987299999998 3.4661980000000003 1.921299 0.305897
29140 3.55495761 13.4335197 -1.5275739600000002 4.621379 5.16231 0.525593
29160 7.9317087299999995 16.696727910000003 0.8373619800000001 3.151543 5.500136 1.498726
29180 7.9153947 16.397797590000003 3.59851401 0.674197 3.858771 1.99093
29200 3.5354945700000004 14.181512580000001 1.1199684600000002 0.977317 0.097145 1.762859
29220 1.00201302 13.93273098 -2.02858047 2.583167 -1.576573 1.479255
29240 -3.04287561 13.317506640000001 -0.85173363 2.703909 -0.936419 1.127833
29260 -4.042642140000001 10.79225568 -0.5707654200000002 1.856444 -0.223574 0.487544
29280 -2.2836502800000003 6.84706608 -2.6867628000000003 1.738975 -0.7482439999999999 0.461759
29300 0.5634275400000002 3.9155535900000005 -3.2814744300000003 1.574358 -1.105295 0.650142
29320 3.0505077900000006 1.3271360399999999 -3.4244257500000006 1.695423 -0.5326489999999999 0.397085
29340 3.4444872 -0.01751085 -2.0115208800000004 1.717746 0.301666 0.06075
29360 2.7976844700000005 1.14153084 -0.40206285 1.580603 0.644109 0.057217
29380 1.2789395099999998 0.7921575000000001 -0.89693811 1.881511 0.27515500000000004 0.154863
29400 0.65473902 0.36958194 0.51358293 1.609577 0.041945 0.369044
29420 1.29226149 1.13269203 1.4516838 1.263771 1.149108 0.317139
29440 1.02297699 3.8100274200000004 3.68204616 1.082535 1.7203509999999995 0.144226
29460 -1.1856856500000001 11.931088770000002 11.33831952 0.545633 0.983855 0.174534
29480 -3.57531336 23.16821814 16.24003317 0.051331 0.460296 0.19739
29500 -4.613701860000002 20.99803032 10.72504737 0.25117399999999995 0.754642 -0.057965
29520 0.9623511900000001 8.221054680000002 5.9923404 0.34933200000000003 0.880237 -0.648167
29540 6.17855382 2.2734675 7.4779962300000005 -0.672968 0.238827 -0.532708
