time Ax Ay Az Gx Gy Gz
20 -0.7530842700000001 7.395817860000001 0.7226928900000001 -0.511521 0.391578 0.021563
40 0.21031659 8.29814166 0.47287143000000004 -0.538708 0.231111 0.213858
60 0.48304440000000004 9.13864284 0.0896634 -0.474816 0.151205 0.160996
80 0.07753824000000002 9.04105296 -0.48215169 -0.242839 0.114847 0.260939
100 -0.33291216 8.39963592 -0.99033912 -0.048306 0.254544 0.321939
120 -0.25985709 8.32523688 -1.1937690900000002 0.211409 0.093952 0.297254
140 0.17782587000000002 8.864865360000001 -0.9442321200000001 0.598803 -0.11408 0.303431
160 0.17258733 9.60297957 -0.84858462 1.08113 -0.619429 0.254037
180 -0.7670046600000001 9.998008650000001 -0.98569899 1.416705 -0.6381220000000001 0.10899
200 -1.1596401 9.7345611 -0.58887468 1.747362 -0.027468 0.026127
220 1.1937690900000002 10.36909152 0.12798126 1.708818 0.281188 0.128012
240 4.20475239 11.61763965 0.15268283999999996 1.76657 0.444397 0.022452
260 3.69626085 11.82331611 -1.49389623 1.741052 0.236607 -0.206059
280 1.36022517 13.267063620000002 -1.9507479300000001 1.7014049999999998 0.127308 -0.277767
300 -0.71581608 13.423336920000002 -1.5362558099999999 1.505853 0.077842 -0.258773
320 -0.32557428000000005 12.47700546 -0.265851 1.415048 -0.6505310000000001 -0.24886
340 0.72689157 12.143494890000001 2.75068476 1.390434 -1.190346 -0.297479
360 0.8051753700000001 9.63546048 5.589080730000001 1.32805 -1.067612 -0.300208
380 -2.27646936 9.214542810000001 5.16725073 1.005268 -0.7372569999999999 -0.316773
400 -4.09054437 10.70768367 3.36006234 0.54971 -0.437638 -0.257314
420 -4.133502360000001 12.10562829 1.7914727700000002 0.099029 -0.361147 -0.081099
440 -3.2491406700000005 12.40440165 0.84619098 -0.312801 -0.495426 0.023019
460 -3.3280326900000006 11.795171220000002 0.29742939 -0.6879890000000001 -0.611467 0.063276
480 -0.8288272799999999 10.854529560000001 -0.3793134600000001 -0.868677 -0.688635 0.070658
500 1.45393029 9.2170836 -0.87313905 -0.8213969999999999 -0.765843 0.15654500000000002
520 0.7050348900000001 9.59115852 -0.9467827200000001 -0.46178 -0.8539180000000001 0.29163
540 0.64201545 9.164089980000002 -0.76026519 0.00529 -0.829218 0.369636
560 0.12498921000000002 9.10003068 -1.20589425 0.015069 -0.42507 0.25916
580 -0.33829785 7.83066573 -1.2913687800000002 -0.102457 -0.316698 0.16633299999999998
600 -0.85202793 6.781947300000001 -1.14167799 0.10343800000000003 -0.388513 0.098429
620 -1.4534790300000002 6.40038735 -1.1060480700000002 0.668086 -0.474058 -0.043864
640 -1.51559595 6.18484203 -1.67846157 1.188449 -0.311767 -0.054324
660 -1.36022517 5.2036262099999995 -2.12123592 0.773125 0.305519 -0.08365399999999999
680 -1.21996179 4.57104798 -2.3394888000000007 -0.071662 0.119981 0.160647
700 -1.10979549 5.13088506 -3.07041228 -0.749272 -0.681591 0.336403
720 -0.8523320400000001 6.5032255800000005 -3.76991433 -0.449457 -0.588295 0.188826
740 -0.88196805 9.24762213 -3.907323 -0.441105 -0.314967 0.027233
760 -0.79709193 12.855416400000001 -2.94512877 -0.560136 0.052855999999999986 0.054772
780 -1.50482457 15.939003510000001 -3.0344880600000006 -1.099966 0.48222 0.241663
800 -2.4328898100000007 13.624363440000002 -5.2834109400000004 -1.211179 0.470706 0.28683400000000003
820 -2.0404113300000004 11.715533640000002 -6.05057256 -0.7507189999999999 0.65959 0.337878
840 -0.01781496 13.05270531 -3.98650932 -0.38871 0.917406 0.285597
860 -1.41815322 16.43447718 -0.91609704 -0.6644399999999999 0.964626 0.437435
880 -3.6549509400000004 15.0910173 2.2040127000000003 -1.141641 0.675408 0.450496
900 -6.052210830000001 7.80806349 0.7502393700000001 -1.430274 0.460515 0.361161
920 -2.26628658 4.98433347 0.82029258 -1.453155 0.537514 0.306423
940 -0.40535900999999996 5.53458618 -0.1414602 -1.360188 0.85021 0.3494
960 0.41059755000000003 9.036255870000002 0.8604154800000001 -1.342236 0.901863 0.204181
980 -0.0073378800000000015 11.738891250000002 1.9693084500000002 -1.181789 0.783903 -0.006055
1000 -1.3275873 12.193643609999999 2.09878083 -0.944488 1.010428 -0.116851
1020 -3.5164827900000004 10.64556675 -0.82777761 -0.737961 1.098325 -0.165727
1040 -3.1097798100000005 8.70380478 -1.7169265800000002 -0.5556180000000001 0.952249 -0.290317
1060 -2.18515788 7.62379245 -1.2754962 -0.458105 0.821897 -0.277718
1080 -0.30926025 7.1479387800000005 0.79799445 -0.462045 0.148902 -0.072853
1100 0.14833701000000002 7.097191649999999 1.06937829 -0.397935 0.13402 0.12950799999999998
1120 0.12813822000000002 7.654183830000001 0.66566736 -0.438816 0.093541 0.164526
1140 0.09894366 9.09358551 -0.26105391000000006 -0.275071 0.44239 0.16308599999999998
1160 -0.02454462 9.486525060000002 -0.79754319 -0.117952 0.389159 0.284961
1180 -0.30641535000000003 8.576863379999999 -1.12505985 0.192817 0.523098 0.35319
1200 -0.17453952 8.48375667 -1.22579874 0.5862350000000001 0.508764 0.399753
1220 0.58798197 9.0582597 -1.18657836 1.087281 0.411185 0.391628
1240 0.74485368 9.46796454 -0.9666872100000001 1.523976 0.080106 0.224187
1260 0.49337432999999997 9.57035151 -1.5476354099999998 1.915193 0.320143 0.064242
1280 2.00387889 9.39581199 -0.8854113600000001 1.938586 0.8354219999999999 0.122497
1300 1.5751720800000002 10.565330759999998 -0.04281084 1.856301 0.961738 0.040576
1320 2.0231947800000003 11.787686190000002 0.29907747 1.798491 0.906481 -0.209721
1340 1.66902435 11.88543303 -0.55728648 1.607523 0.8074140000000001 -0.311341
1360 0.44951382000000006 12.568464089999999 -1.8649692900000001 1.428492 -0.090014 -0.3061
1380 -0.57151098 13.70505069 -0.44816985000000004 1.426932 -0.814896 -0.447256
1400 -1.5157431 13.837524930000002 0.33934752000000007 1.337201 -0.817868 -0.425446
1420 -0.68048046 11.94935499 2.49800859 1.194241 -0.850259 -0.459518
1440 0.8152011900000001 8.89555104 5.41813167 0.863763 -0.7640020000000001 -0.4320270000000001
1460 -2.08980468 8.11132983 6.238728360000001 0.481155 -0.7897890000000001 -0.311821
1480 -5.25991599 11.79816327 3.50780094 0.137015 -1.024565 -0.176123
1500 -4.52644191 14.03091927 1.3771376100000001 -0.295114 -1.116359 -0.023064
1520 -3.0636826200000002 13.77974403 0.28365615 -0.611721 -1.162664 0.10938
1540 -1.37309589 11.812534920000001 -0.6706017900000001 -0.756512 -1.013348 0.190431
1560 1.7762084100000002 10.17673704 -0.9217868400000001 -0.68386 -0.8702719999999999 0.311464
1580 3.1216106700000004 9.971511840000002 -1.43341758 -0.307492 -0.886651 0.351502
1600 1.64612781 9.69234867 -1.7254612800000002 0.361656 -0.923802 0.27076500000000003
1620 1.28597328 8.99719245 -1.79761383 0.062281 0.011813 -0.07756
1640 -0.03922038 7.94248011 -1.9154123100000002 -0.286806 -0.289443 -0.095636
1660 -0.6506973 6.657850800000001 -1.41650514 0.114699 -0.6011770000000001 -0.009111
1680 -0.57899601 5.9401021499999995 -1.17745506 0.8853979999999999 -0.809217 -0.066486
1700 -0.40535900999999996 5.565723120000001 -1.4635048499999999 1.241392 -0.477717 0.10756
1720 -0.16046217000000002 5.00858379 -1.3162175100000002 0.494755 0.506034 0.096811
1740 -0.35161983 4.18470075 -1.92530079 -0.8006449999999999 -0.6191760000000001 -0.042187
1760 -0.8297199900000001 3.8597248800000004 -2.9352500999999998 -0.656181 -1.300019 0.131678
1780 -1.21307517 5.14689498 -3.48055857 -0.334406 -0.933566 0.11957
1800 -1.24151436 7.32112452 -3.2307273000000003 -0.473396 -0.564335 0.078601
1820 -1.55481633 11.479779720000002 -1.9044937800000001 -0.661972 -0.424454 0.159358
1840 -3.1347855 17.019457290000002 -2.1189894300000005 -0.959769 0.332629 0.23322
1860 -4.64019867 15.598017720000001 -4.96457613 -1.105349 0.510843 0.281113
1880 -2.22871428 11.777807520000001 -7.32351816 -0.843716 0.53997 0.495479
1900 0.7123727700000001 9.41243013 -6.53226318 -0.622441 0.979791 0.604351
1920 0.8476919100000001 11.083553820000002 -3.14735211 -0.8799889999999999 1.069319 0.550095
1940 -2.25939996 14.75661402 1.2919671900000003 -1.443376 0.7020930000000001 0.43233
1960 -6.76668294 15.780189420000001 3.73982706 -1.639933 0.5349149999999999 0.319008
1980 -2.6020436399999998 9.42035661 0.32751666 -1.582565 0.729614 0.33091
2000 0.83915721 8.15773113 -0.5273561700000001 -1.3999469999999998 0.926378 0.250749
2020 1.8131823 8.07495435 0.40430934 -1.206025 0.8892969999999999 0.032097
2040 0.74230308 9.580377330000001 1.16172963 -1.0676139999999998 0.921345 -0.110119
2060 -0.88001586 9.41961105 1.8928100700000001 -0.944769 1.088584 -0.214161
2080 -4.02078546 9.870772950000003 0.82463841 -0.758469 1.087466 -0.362409
2100 -4.66923627 9.80985285 -0.6224052600000001 -0.671737 1.021663 -0.4984520000000001
2120 -3.0401778600000005 8.85947967 -0.6017454 -0.5051640000000001 0.515436 -0.32145100000000004
2140 -1.63310013 7.3603449 0.45580203 -0.41424 0.410511 -0.002351
2160 -0.5070004200000001 6.282137610000001 1.65585933 -0.468103 0.305305 0.246303
2180 0.3990708 6.60396447 1.6310106 -0.298419 0.380091 0.311486
2200 0.71940654 8.54842419 0.26240768999999997 -0.024243 0.232817 0.406525
2220 0.5418749700000001 9.52259643 -0.7533785700000001 0.271453 0.214012 0.590212
2240 0.18666468 9.3212658 -1.0240168500000002 0.871843 0.191528 0.630754
2260 0.16825131000000002 9.02832939 -0.82927854 1.258155 -0.120491 0.535576
2280 0.5953100400000001 9.10975239 -0.88914897 1.736845 -0.155569 0.102062
2300 0.5258552400000001 9.389072520000001 -1.35513378 1.892584 0.405872 -0.042848
2320 -0.18561501000000002 10.221048810000001 -1.8622813500000002 1.815048 0.930368 -0.070767
2340 0.34069149000000004 9.79682517 -1.5452319600000002 1.843206 1.17881 -0.153142
2360 0.45924534000000006 10.113266340000001 -0.62061003 1.7929389999999998 0.985772 -0.319888
2380 2.6551746 10.88416557 -0.1850166 1.562375 0.17725 -0.392034
2400 3.43161648 11.284286040000001 -0.9592021800000001 1.438207 -0.412383 -0.416714
2420 2.16674451 13.559705730000001 -0.7491897000000001 1.072096 -0.428238 -0.396819
2440 -1.6368475500000002 14.81169717 0.7813763100000001 0.946288 -0.922996 -0.436588
2460 -1.8708062400000003 13.16063493 3.5482181400000004 0.852332 -0.932281 -0.430823
2480 -0.24473988000000002 10.0328832 6.535559340000001 0.627093 -1.0248700000000002 -0.258157
2500 -2.2360521600000003 9.75356307 6.13170126 0.312098 -1.146978 -0.085013
2520 -4.56116931 11.967611400000001 2.95964757 -0.051268 -1.133541 0.066256
2540 -4.0359026700000005 13.66867521 1.4593159800000002 -0.419378 -1.467352 0.213664
2560 -4.27855302 13.302840690000002 0.23980545000000003 -0.743117 -1.4125370000000002 0.372633
2580 -3.2352202800000005 11.91013461 -0.15538058999999999 -0.843133 -1.179588 0.5457569999999999
2600 0.0026977500000000005 10.114914420000002 -0.5623778700000001 -0.483781 -0.952998 0.578955
2620 3.1783419 9.82975734 -0.53888292 0.191958 -1.202094 0.481445
2640 2.7810663300000003 9.79323471 -0.98959356 0.447563 -0.6542180000000001 0.179153
2660 1.69178355 8.89105806 -1.11757482 -0.428272 -0.240823 -0.143688
2680 0.22617936000000002 7.538622030000001 -2.23155918 -0.26765700000000003 -0.635337 -0.192267
2700 -0.35446473 7.3847423700000006 -1.6563105900000004 0.577574 -0.681437 -0.052776
2720 -0.26449722000000003 6.43527171 -1.12281336 1.09335 -0.8450340000000001 -0.081011
2740 -0.09909081000000002 5.17174371 -0.98809263 1.182896 -0.037252 0.031811
2760 -0.48828294 4.724623530000001 -1.41949719 -0.236067 0.233659 -0.418555
2780 -0.64306512 4.32705366 -2.05373331 -0.730543 -1.102456 -0.457684
2800 -0.39592179 4.14892368 -2.53872009 -0.272742 -0.842835 0.020539
2820 -0.37362366 5.22338355 -2.97177273 -0.141693 -0.293959 0.374333
2840 -1.01129328 7.3488181500000005 -2.06839926 -0.159185 -0.407801 0.35406
2860 -2.27946141 11.08324971 -0.9563572800000001 -0.309811 -0.262204 0.304752
2880 -4.72313241 17.237101950000003 0.05163984 -0.6085050000000001 0.692271 0.300374
2900 -5.319933570000001 15.579300240000002 -4.01330043 -0.940949 0.499859 0.487374
2920 -1.46530008 12.365034119999999 -8.303085900000001 -0.7484810000000001 0.321542 0.69084
2940 1.23493185 7.541015669999999 -7.84788228 -0.520876 0.8407450000000001 0.656514
2960 1.18717677 8.525969100000001 -3.5500133700000003 -0.775022 1.290963 0.442654
2980 -2.54994273 14.025533580000001 1.6414876800000002 -1.346594 1.020629 0.343936
3000 -6.67297782 19.859354190000005 7.015013280000001 -1.564277 0.5133489999999999 0.318496
3020 -3.8257430400000003 10.35561258 1.12460859 -1.407532 0.600681 0.188088
3040 1.1180260800000001 8.565787890000001 0.6071409 -1.274015 1.203741 0.044038
3060 2.7524799900000003 8.44469325 0.10792962 -1.250705 1.173699 -0.188633
3080 1.0741655700000001 9.664056630000001 0.51193485 -1.188009 0.939836 -0.367357
3100 -0.15492933000000003 9.26049285 2.0713913100000005 -1.004046 1.211114 -0.434786
3120 -2.6319739500000003 8.87235039 2.67329367 -0.720503 1.3349959999999998 -0.491716
3140 -4.70366937 10.467731070000001 1.2936054600000002 -0.54373 1.404114 -0.347428
3160 -4.467905640000001 9.60208686 0.05209110000000001 -0.460111 0.853957 -0.035287
3180 -2.6150615100000003 7.57035738 -0.5822921700000002 -0.326448 0.480616 0.238522
3200 -1.3180127400000001 6.959930129999999 0.76011804 -0.277125 0.32905 0.270039
3220 0.10044459 6.951248280000001 1.8756033300000001 -0.142953 0.518166 0.27928000000000003
3240 0.69754986 7.35884397 0.83496834 -0.056424 0.472451 0.447654
3260 0.94094577 8.279885250000001 -0.21555513 0.223545 0.631025 0.5092260000000001
3280 0.94453623 8.885672370000002 -0.7951495500000001 0.505839 0.330566 0.5436300000000001
3300 0.87792633 8.95483287 -0.70608456 1.283843 -0.017698 0.3818
3320 0.69530337 8.77041468 -0.62015877 1.602334 -0.090454 0.185428
3340 0.15837263999999998 9.446255010000002 -1.1300040900000001 1.93604 0.869015 0.248487
3360 -1.19915478 10.49886801 -1.79686827 1.922552 1.345684 0.403742
3380 -0.68796549 10.30801446 -1.02746016 1.954498 1.285993 0.118827
3400 0.8494871400000001 10.860817769999999 0.32018859000000005 1.772218 1.013028 -0.191881
3420 2.81145771 12.161457 0.36479466 1.536411 0.199301 -0.289694
3440 3.06323136 11.66838678 -1.6055634600000002 1.677909 -0.812355 -0.501054
3460 0.96744258 12.1785264 -2.36044296 1.574251 -1.227841 -0.404037
3480 -0.17722746 12.49855803 -0.7693983000000001 1.309056 -1.296427 -0.338503
3500 -1.19166975 12.716359650000001 0.63991611 0.980224 -1.0643 -0.294096
3520 -0.06780672000000001 11.182791779999999 4.97115864 0.684766 -1.079127 -0.32605100000000004
3540 -0.91698975 8.02017531 5.37187752 0.349385 -1.317977 -0.244766
3560 -2.95111287 9.96223158 5.106929040000001 -0.064492 -1.364109 -0.071342
3580 -4.17377241 13.216620599999999 2.83600233 -0.530392 -1.361026 0.094179
3600 -2.8006765200000006 14.554380870000001 0.9276237900000001 -0.8337450000000001 -1.293448 0.240457
3620 -3.9941415000000005 13.674963420000001 0.40251411 -0.942814 -1.164908 0.424332
3640 -2.4152318100000008 12.434047470000001 -0.20866851000000003 -0.667746 -1.129957 0.503121
3660 1.41784911 10.45620432 -0.9512757000000001 0.049694 -1.126706 0.400238
3680 2.62314495 10.35142371 -2.16734292 0.5390010000000001 -0.6049479999999999 0.299369
3700 2.6596675800000003 9.58936329 -1.85973075 -0.245352 -0.199539 0.02952
3720 2.30715504 8.77505481 -1.83383235 -0.200967 -0.605267 -0.044425
3740 0.95950629 6.60695652 -1.05111207 0.5912029999999999 -0.719895 -0.037677
3760 -0.11750418000000001 6.08619267 -0.28725642 1.02298 -0.8956780000000001 -0.142326
3780 -1.1300040900000001 5.663921220000001 -1.12880727 0.760788 -0.336554 0.121113
3800 -1.19840922 4.6568168100000005 -1.8516473100000002 0.149965 -0.242736 0.099635
3820 -1.32923538 4.137995340000001 -1.9968451200000001 -0.583835 -0.53389 -0.24588
3840 -1.4528806200000002 4.15445652 -2.1953308500000004 -0.502005 -0.879178 -0.282254
3860 -1.28388375 4.47299703 -2.9791008000000003 -0.435874 -0.1815 -0.054087
3880 -1.3218975000000002 6.114484710000001 -3.46634388 -0.54732 0.173778 0.173279
3900 -1.19795796 8.85947967 -2.6798761800000004 -0.826557 0.2027 0.375322
3920 -0.9048645900000001 13.37992767 -1.4295230100000003 -0.754332 0.569049 0.339037
3940 -3.51408915 18.63325134 -1.76348484 -0.54594 1.101043 0.319515
3960 -4.25011383 14.64464268 -6.18439077 -0.579072 1.299404 0.293392
3980 -1.62262305 11.69757153 -8.093671830000002 -0.702955 1.137499 0.396352
4000 0.1733427 7.61316822 -6.24021948 -0.813034 1.152567 0.4532479999999999
4020 0.73916388 8.548718490000002 -3.22249671 -0.8847799999999999 1.243717 0.365035
4040 -2.1980286 10.83716586 0.329616 -1.298325 1.303872 0.33216
4060 -5.763463290000001 12.97262628 3.3232356000000003 -1.469336 1.004035 0.33775900000000003
4080 -3.9770819100000003 15.534095760000001 2.30864616 -1.336175 0.836817 0.214989
4100 1.2543948900000002 12.3142968 1.29345831 -1.228449 0.8713209999999999 0.018076
4120 2.4872274 10.24006059 1.9949027400000001 -1.2527469999999998 0.794166 -0.113386
4140 0.5236087500000001 9.290276010000001 2.1183910200000002 -1.125455 0.7728010000000001 -0.208609
4160 -1.91870847 8.156534310000001 2.4489095400000003 -0.980947 0.948743 -0.376604
4180 -4.60966014 8.42927193 1.16172963 -0.852672 1.0057040000000002 -0.612927
4200 -4.906648080000001 9.01814661 0.33919056000000003 -0.514814 0.793192 -0.508813
4220 -3.90583188 9.49879737 0.3153915 -0.47532 0.250274 -0.104054
4240 -1.9878689700000003 8.62565832 0.8381075400000001 -0.394017 0.096559 0.170176
4260 -0.51418134 7.931404620000001 0.24878160000000002 -0.35201 0.439365 0.187122
4280 0.6842278800000001 7.22696814 0.32677110000000004 -0.253516 0.943194 0.379444
4300 1.4335647300000003 7.64220582 0.51432849 -0.114299 0.922065 0.4808560000000001
4320 1.45033002 8.32194072 -0.8372050200000001 0.171093 0.887706 0.567283
4340 0.95711265 8.68389048 -2.0261868300000003 0.406398 0.647845 0.672852
4360 1.19676114 9.08251002 -1.9687100400000002 1.29188 -0.06273300000000001 0.448143
4380 1.3275873 8.98131987 -1.1362824900000001 1.754487 0.317979 0.211605
4400 1.13553693 9.09283995 -1.27310256 2.026704 1.2748270000000002 0.184507
4420 -0.512082 8.81861121 -1.7625823200000001 1.821696 1.39942 0.107071
4440 -0.8089129800000001 9.787996170000001 -1.23837516 1.6935669999999998 1.07935 -0.192516
4460 -0.22153923 11.20899429 0.43470072 1.576064 0.829232 -0.412001
4480 2.0187018 11.511809370000002 1.96122501 1.41604 -0.202124 -0.497255
4500 1.96496262 10.72100565 -0.7276371300000001 1.435453 -0.773559 -0.402384
4520 -0.32138541 11.30958603 -2.3105983500000002 1.238594 -0.366161 -0.347665
4540 -1.34540226 12.501255780000001 -1.0524658500000001 1.101009 -0.467391 -0.221378
4560 -2.45115603 13.343100930000002 0.8306225100000001 1.296531 -1.128497 -0.231984
4580 0.66447054 12.779673390000001 3.4468808400000004 1.0805790000000002 -1.287291 -0.294178
4600 1.68714342 10.30831857 7.155865260000001 0.5821529999999999 -1.098992 -0.065028
4620 -2.5590758399999998 10.04366439 5.672750219999999 0.056159 -0.8978219999999999 -0.099938
4640 -5.01532326 12.147242310000001 3.2918043600000004 -0.281264 -0.97425 0.124266
4660 -4.709055060000001 13.0464171 1.06923114 -0.554635 -0.982009 0.17043599999999998
4680 -3.9800739600000004 12.90406419 0.67030749 -0.7075229999999999 -1.043304 0.18012899999999998
4700 -2.01975147 11.25644526 0.13232709 -0.671158 -0.913907 0.290244
4720 1.7318966400000002 10.380618270000001 -0.88077123 -0.283808 -1.064683 0.363646
4740 4.16583612 10.66247919 -1.01848401 0.345988 -0.792944 0.327104
4760 3.1793915700000004 9.75671208 -1.34480385 -0.127023 -0.468361 0.020009
4780 1.4855086800000001 7.80222654 -0.9318126600000001 -0.186417 -1.068151 -0.184736
4800 -0.37781253 6.8801454 -1.7440218 0.334897 -0.892173 -0.155683
4820 -1.93008807 6.84181773 -1.7052526800000003 0.783363 -0.880666 -0.225204
4840 -1.53895356 7.33998915 -1.13553693 0.956636 -0.572126 -0.011813
4860 -0.42332112000000005 7.25062005 -0.9473811300000001 0.6961430000000001 0.404312 0.052414
4880 -0.85741362 7.25062005 -1.5188921100000001 -0.7308939999999999 -0.576728 -0.328038
4900 -0.70907661 4.70876076 -2.20461111 -0.665416 -1.175632 -0.06402999999999999
4920 -0.8033801400000001 3.93231888 -2.64664971 -0.461301 -0.4622 0.100988
4940 -0.55340172 4.9135347 -3.1293900000000003 -0.464737 -0.097631 0.042812
4960 0.01092834 5.940700560000001 -2.7913962600000004 -0.505412 -0.031826 0.13858399999999998
4980 -0.5923179900000001 8.48406078 -2.66535738 -0.7448359999999999 0.36627 0.158834
5000 -1.91257722 13.4745255 -2.3830452 -0.965612 0.70439 0.243385
5020 -3.32413812 18.24360795 -3.11606802 -0.818497 0.642346 0.446386
5040 -2.79005229 14.237046990000001 -6.8276030400000005 -0.518179 0.712966 0.6406729999999999
5060 -0.13367106 10.468035180000001 -7.138354410000001 -0.5571520000000001 1.1070719999999998 0.685829
5080 0.9466355700000001 9.070836120000001 -4.7662375500000005 -1.034234 1.188032 0.567025
5100 -0.9575541000000001 12.05682354 -1.6455294 -1.64428 0.8053060000000001 0.369906
5120 -4.585861080000002 14.440918410000002 1.73952882 -1.6651080000000005 0.391199 0.31688
5140 -7.2892420200000005 15.64755822 4.3237575 -1.349692 0.768323 0.305781
5160 -1.86047631 10.311006510000002 1.7172306900000003 -1.09786 1.06223 0.114884
5180 0.98270694 7.331748750000001 1.3837201200000002 -1.095942 0.851952 -0.048271
5200 0.49262877000000005 8.163420930000001 1.01518785 -0.978815 0.909586 -0.176782
5220 -0.29398608000000004 9.35060751 1.5173911800000002 -0.735214 1.103107 -0.298174
5240 -1.4602086900000002 9.557029530000001 2.36747673 -0.6010220000000001 1.076858 -0.509779
5260 -3.7901229300000003 9.98963091 1.1332904400000001 -0.34975500000000004 0.656644 -0.337638
5280 -3.82559589 9.95250006 -0.25162650000000003 -0.251097 0.338777 -0.053463
5300 -2.65128984 9.0175482 -0.7608636000000001 -0.240862 0.28647399999999995 0.229755
5320 -0.60968169 7.69969242 -0.07334936999999998 -0.236201 0.327127 0.182733
5340 -0.22244175000000002 6.44305104 1.04752161 -0.152924 0.403284 0.246243
5360 0.08562168 6.506070480000001 1.5555618900000003 0.03693 0.454566 0.310528
5380 0.65533743 8.552465910000002 0.00434583 0.434753 0.249468 0.37339
5400 0.52315749 9.719591040000001 -1.41949719 0.862174 0.017497 0.470676
5420 0.36164565000000004 9.29851641 -1.7702145 1.254173 -0.422499 0.40668
5440 0.5273561700000001 8.984017620000001 -0.72509634 1.699241 -0.11111 0.20536
5460 0.64650843 8.81083188 -0.6041390400000001 1.87749 0.6349600000000001 0.22274
5480 0.00958437 8.98581285 -0.7093709100000001 1.85675 0.828559 0.045023
5500 -1.0428814800000001 9.628573860000001 -1.12341177 1.776588 0.7914640000000001 -0.199044
5520 0.01437165 9.81373761 -0.54740781 1.6610599999999998 0.6080409999999999 -0.31605300000000003
5540 0.4451778 10.305473670000001 -0.0073378800000000015 1.309713 0.66625 -0.182917
5560 2.15492346 11.698326900000001 -0.31239945 1.472777 -1.037785 -0.425286
5580 2.5038455400000004 11.15810001 -1.27116018 1.3753879999999998 -1.377129 -0.460782
5600 1.28508057 12.132566549999998 -1.63220742 1.039357 -1.129883 -0.4613100000000001
5620 -0.9886910400000001 13.23083529 -0.62211096 0.76525 -0.979255 -0.32989
5640 -0.39517623 13.30253658 1.7866854900000002 0.586821 -0.932183 -0.225442
5660 0.7800323400000001 10.5617403 4.79063502 0.333303 -0.955238 -0.101134
5680 0.31718673000000003 8.627757660000002 6.716534220000001 0.006814 -0.781179 0.076892
5700 -4.18006062 12.31219746 4.3544431800000005 -0.35322600000000004 -0.778252 0.189742
5720 -5.16949722 14.84433504 1.793268 -0.630109 -0.861608 0.229575
5740 -4.7515716 14.9552469 0.45116190000000006 -0.698312 -0.736103 0.337897
5760 -3.72994839 12.638821410000002 0.47870838000000004 -0.350752 -0.561512 0.33155500000000004
5780 -0.6466555799999999 9.936333180000002 -0.17453952 0.146605 -0.826092 0.264865
5800 3.8499933600000005 8.652459240000002 -0.31868766000000004 0.14111400000000002 -0.376674 0.035651
5820 2.04983874 9.32276673 -1.1787990300000002 -0.326023 -0.451301 -0.077543
5840 1.01953368 8.7109857 -1.39120515 0.151224 -0.894868 -0.121711
5860 0.7520346000000001 8.720864370000001 -1.3668076800000002 1.122515 -0.787521 -0.10331300000000003
5880 -0.24084531 7.33639869 -1.5606532800000001 1.095928 -0.935784 -0.032806
5900 -0.24833034 6.405930000000001 -1.09796463 0.925699 -0.331278 -0.009133
5920 -0.42272271 5.674104000000001 -1.22010894 -0.159747 0.043251 -0.021467
5940 -0.5418749700000001 5.04555768 -1.4283261900000002 -0.965183 -1.3463379999999998 -0.005017
5960 -1.23268536 4.97460195 -1.74162816 -0.460291 -1.41566 0.109694
5980 -1.79596575 4.8838986900000005 -2.53662075 -0.259494 -0.7056140000000001 0.058912
6000 -1.53924786 5.310957419999999 -3.47232798 -0.462545 -0.515404 0.08716
6020 -0.48679182000000004 6.395148810000001 -3.0377842200000003 -0.6224770000000001 -0.161553 0.180661
6040 -0.5926221000000002 8.547080220000002 -2.29098816 -0.888124 0.634803 0.262175
6060 -1.60451379 12.735067320000002 -1.69552116 -1.0133370000000002 0.510864 0.4622850000000001
6080 -2.9017195200000003 17.28979146 -2.12228559 -0.657149 0.594371 0.58217
6100 -1.8154287900000001 14.47699959 -6.10654842 -0.669026 0.8403299999999999 0.622365
6120 0.48334851000000006 11.411070480000001 -8.37373752 -1.017024 0.743754 0.566646
6140 1.6631874 10.002952890000001 -5.7811311000000005 -1.3483889999999998 0.484397 0.445023
6160 -1.12819905 11.89591011 -1.85554188 -1.493487 0.422301 0.382132
6180 -4.524342570000001 13.80085515 1.23029172 -1.427858 0.509566 0.34722800000000004
6200 -6.14517039 14.138250480000002 4.29142374 -1.348826 0.593074 0.174621
6220 -1.86407658 9.310043160000001 1.00097316 -1.338568 0.516171 -0.049536
6240 1.6272631800000001 8.00984538 -0.32602554 -1.161251 0.6196149999999999 -0.231096
6260 2.4667245 8.88971409 0.47586348000000006 -0.88735 0.8781329999999999 -0.382269
6280 0.5793001200000001 10.01642202 1.06638624 -0.615442 0.956523 -0.5075890000000001
6300 -1.6402908600000001 9.81538569 1.2424168800000002 -0.485458 0.943182 -0.481027
6320 -4.1852991600000005 9.55418463 0.44262720000000005 -0.433953 0.567998 -0.207789
6340 -4.85126082 10.03962267 -0.70668297 -0.447459 0.310872 0.16846
6360 -2.9114412300000003 8.87204628 -1.0115973900000002 -0.397319 0.146348 0.24272800000000005
6380 -1.01728719 7.85940903 0.11331531000000002 -0.233774 0.036883 0.302763
6400 0.21390705000000002 7.11111204 0.9849534300000001 0.103774 -0.024291 0.389589
6420 0.7643069100000002 6.88567824 0.4363389900000001 0.495528 0.082755 0.4530770000000001
6440 1.1723636700000002 7.77123675 -0.14414814 0.979388 -0.170727 0.552921
6460 0.92358207 8.52297705 -0.79469829 1.385613 -0.346374 0.436343
6480 0.24638796000000002 8.58748761 -0.91205532 1.842327 0.251257 0.304171
6500 0.29818476 8.506064610000001 -0.54097245 1.759586 0.837425 0.309252
6520 0.41853384000000005 8.7918201 -0.6894664200000001 1.747795 0.911578 0.157387
6540 0.20223315000000003 9.34910658 -0.8515766700000001 1.8017490000000005 0.966998 -0.161706
6560 -1.0856923200000002 10.190510279999998 -1.01638467 1.759223 0.982133 -0.180182
6580 -1.08014967 10.35307179 -1.0822490100000002 1.269795 0.763497 -0.224981
6600 0.6939594 10.813209839999999 -1.2925655999999999 1.352753 -0.894717 -0.401738
6620 3.8928042 11.63455209 -0.50310585 1.167946 -0.83593 -0.290941
6640 4.62822066 11.112444270000001 -1.52413065 0.918061 -0.904235 -0.308622
6660 2.69080452 12.43553859 -0.94078881 0.509738 -1.0669 -0.301652
6680 -1.2868758 13.55985288 0.6197075100000001 0.231913 -1.212741 -0.352544
6700 -0.8707356 12.220591680000002 3.9800739600000004 -0.087556 -0.975556 -0.249325
6720 -1.15485282 10.245142170000001 7.043599620000001 -0.416032 -1.036793 -0.10199
6740 -4.7424384900000005 11.53980711 5.5381864499999995 -0.7390180000000001 -1.3015139999999998 0.044576
6760 -5.11351155 12.256957350000002 2.82222909 -0.920547 -1.176888 0.20445
6780 -4.22765874 12.975019920000001 1.17834777 -0.5516260000000001 -0.83365 0.362547
6800 -4.323159090000002 13.63155417 0.8899043400000001 -0.125771 -0.71827 0.443354
6820 -3.0093450300000004 12.92082948 -0.01631403 0.155627 -0.664308 0.5574140000000001
6840 0.46598481 11.037750930000001 -0.7080269400000001 -0.122521 -0.229441 0.207741
6860 2.48213601 9.68201874 -0.23800041000000002 0.070133 -0.39614 -0.096211
6880 0.99648018 9.02952621 -1.6257720600000003 0.8793989999999999 -0.587305 -0.41078
6900 2.24682354 8.548718490000002 -0.42286986 1.534992 -0.328218 -0.502672
6920 0.8201454300000001 7.54221249 -1.1511054 1.057257 0.0851 -0.6187020000000001
6940 0.33710102999999997 6.327037980000001 -0.73796706 0.387495 0.51618 -0.481859
6960 -0.56567403 6.5370602700000005 -1.14871176 -0.422424 -0.509662 -0.051436
6980 -0.3700332 5.1245968500000005 -1.4263838100000001 -0.477731 -0.439181 0.219416
7000 -0.84813336 4.45862538 -1.6763622299999998 -0.32815900000000003 -0.5530430000000001 0.059305
7020 -1.2489993900000003 4.30205778 -1.91257722 -0.254728 -0.146255 0.032591
7040 -1.07760888 4.677623820000001 -2.6473952700000005 -0.610276 -0.028555 0.210486
7060 -1.09257894 6.0068592 -2.7964876500000004 -1.257564 0.118269 0.284825
7080 -1.02132891 8.83492524 -3.4307139600000003 -1.132749 0.409493 0.34194
7100 -0.8234415900000001 12.250678950000001 -0.33351057 -0.626776 0.8184739999999999 0.457113
7120 -2.33798787 15.54053112 -0.38560167000000006 -0.455275 0.877056 0.576809
7140 -3.4970295600000005 15.577357860000001 -5.761972170000001 -0.697304 0.857875 0.521732
7160 -3.4729263900000005 14.69284902 -7.30794969 -1.022959 0.96371 0.444546
7180 -1.1726579700000002 14.147530740000002 -4.01330043 -1.255463 0.930635 0.392758
7200 -2.02334193 16.04782584 1.02537063 -1.343497 0.765995 0.349625
7220 -4.6668426300000005 13.703706720000001 3.5654346900000005 -1.19193 0.6986859999999999 0.267448
7240 -4.90485285 7.302868110000001 -1.0418318100000001 -1.129309 0.712923 0.11618
7260 -0.9848062800000001 4.19562909 0.43604469000000007 -1.20341 0.657467 -0.070137
7280 0.51028677 5.21890038 0.11570895 -1.164881 0.709321 -0.283579
7300 2.09818242 9.605226060000001 0.8381075400000001 -0.995276 0.7987810000000001 -0.424582
7320 1.16577135 12.849432299999998 1.6542112500000001 -0.801656 0.797505 -0.539664
7340 -0.8348113800000001 12.80138292 2.3441289300000006 -0.716005 0.467722 -0.460663
7360 -3.7187159400000005 10.48284828 0.14354973000000004 -0.59507 0.391463 -0.143527
7380 -3.8925099 8.52986367 -1.46560419 -0.52323 0.280346 0.142332
7400 -3.31904673 8.487651240000002 -0.87747507 -0.44135 0.257539 0.180321
7420 -2.06749674 8.2253907 0.33186249000000007 -0.196533 0.27422 0.325152
7440 -0.7577244000000001 7.15856301 0.6515998200000002 0.070979 0.17766300000000002 0.5301060000000001
7460 0.50100651 7.2889379100000005 0.6956074800000001 0.358682 0.111624 0.5450189999999999
7480 1.0642869000000001 8.44244676 0.6843750300000001 0.7914399999999999 0.053532 0.5780270000000001
7500 0.67449636 8.82355545 -0.48858705 1.234722 -0.238146 0.408445
7520 0.63483453 8.19905085 -1.3127742 1.5758450000000002 -0.031844 0.203328
7540 0.71790561 7.984251090000002 -1.34959113 1.6779700000000002 0.311085 0.137372
7560 0.9092104200000001 8.45816238 -1.12027257 1.6755220000000002 0.482587 0.141408
7580 0.99423369 8.95797207 -0.97641873 1.842089 0.5966060000000001 -0.011398
7600 0.07918631999999999 9.40150179 -1.0792569600000002 1.6401290000000002 0.555534 -0.22106
7620 -0.79499259 9.780511140000002 -0.23905008000000003 1.383274 -0.017121 -0.380217
7640 -0.34233957000000004 10.33420716 0.40804695 1.207123 -0.5246149999999999 -0.388275
7660 2.4263073 10.91635218 0.9578582100000002 1.158342 -0.5739390000000001 -0.265707
7680 3.03644025 11.499684210000002 -0.5273561700000001 0.988231 -0.706398 -0.293431
7700 1.63729881 12.987439380000001 -1.63624914 0.90861 -1.145867 -0.346835
7720 -0.67524192 14.06640204 -0.71221581 0.68175 -1.326057 -0.37703
7740 -0.9171467100000001 13.458662730000002 1.2629197800000003 0.376014 -1.419965 -0.337385
7760 0.08667135 12.821287410000002 3.94369848 0.057859 -1.320385 -0.189116
7780 0.44607051 10.539736470000001 6.597234810000001 -0.35143 -1.357758 -0.078695
7800 -3.06547785 9.461372220000001 4.58257473 -0.696257 -1.312196 0.014978
7820 -4.856205060000001 11.03160987 3.0103947 -0.750408 -1.061379 0.208695
7840 -4.204458090000001 12.05877573 1.7130418200000002 -0.522663 -0.6744600000000001 0.487527
7860 -3.28342662 13.142074410000001 1.02581208 -0.132441 -0.215789 0.5313260000000001
7880 -2.08291806 12.41967582 -0.10852803000000001 0.500416 -0.022699 0.446837
7900 -0.11391372000000001 11.176209270000001 -0.6277909500000002 0.474763 -0.010139 -0.007353
7920 0.96459768 9.823027680000001 -0.78721326 0.117171 -0.4375979999999999 -0.158854
7940 1.77037146 8.85543795 -0.8101196099999999 0.223492 -0.561371 -0.200682
7960 1.64418543 8.43360795 -0.99438084 0.6333949999999999 -0.45661 -0.380619
7980 0.6373753200000001 7.394768190000001 -1.4250398400000002 0.8330879999999999 -0.641644 -0.368305
8000 -0.23500836000000003 6.821167679999999 -1.53341091 0.89123 -0.095174 -0.414532
8020 -0.5084915400000001 6.867264870000001 -0.94468338 0.212429 0.845613 -0.129923
8040 -0.7129711799999999 5.893249590000001 -0.8692444800000001 -0.587486 -0.290249 0.099886
8060 -0.68587596 4.8847914 -1.14840765 -0.407495 -0.44489 0.254097
8080 -0.8152011900000001 4.589902800000001 -1.21322232 -0.209006 -0.13063699999999998 0.083097
8100 -0.92686842 5.19405165 -1.4792204699999998 -0.355093 0.179644 0.138295
8120 -1.17116685 6.02632224 -2.64335355 -0.621271 0.352935 0.189625
8140 -1.7702145 7.6451978700000005 -3.42263052 -0.940949 0.718208 0.229652
8160 -1.45407744 10.432258110000001 -2.4266016 -0.965595 0.57401 0.347169
8180 -2.9780609399999998 14.591658870000002 -0.7707520800000001 -0.594197 0.689538 0.438278
8200 -4.86503406 18.19451871 -2.84408577 -0.462717 1.140125 0.596716
8220 -2.84318325 14.278209750000002 -6.68165967 -0.81125 1.263653 0.643261
8240 0.7707520800000001 10.322082 -7.247932110000001 -1.399673 0.881216 0.6214810000000001
8260 1.99370592 9.17561673 -4.364478810000001 -1.522933 0.641351 0.506628
8280 -1.69986699 12.35306592 -1.80973899 -1.381856 0.807551 0.380282
8300 -4.9117394700000006 14.4665127 0.29938158000000004 -1.385819 0.932926 0.199564
8320 -7.49760642 12.027933090000001 3.27713841 -1.379358 0.955128 -0.030087
8340 -4.81743594 8.12600559 2.15880822 -1.149355 0.979288 -0.143879
8360 -0.7607164500000001 7.54311501 0.84244356 -0.93984 1.18783 -0.262324
8380 1.48236948 7.356156030000001 -0.08053029000000002 -0.8280430000000001 1.173338 -0.464486
8400 1.3498952400000002 9.74428281 0.9949792500000001 -0.561639 1.09892 -0.466803
8420 0.57569985 10.399777200000003 2.21553945 -0.5353979999999999 0.366788 -0.151624
8440 -2.39412069 10.9004796 2.2858967700000004 -0.440605 0.149028 0.143078
8460 -4.4102817000000005 9.957444300000002 -0.3210813 -0.521123 0.075651 0.181065
8480 -3.99818322 8.90932428 -1.34719749 -0.41039 0.476969 0.157824
8500 -1.97619507 7.81195806 -0.7087725 -0.296758 0.5673520000000001 0.366805
8520 -0.20462679 7.67977812 0.7981416 -0.026682 0.811534 0.340605
8540 0.56567403 7.81120269 1.5615558 -0.009326 0.775763 0.479641
8560 0.6435163800000001 8.019419939999999 0.15313410000000002 0.904026 0.067436 0.466632
8580 0.6822855 8.208183960000001 -0.7599708900000002 1.403023 -0.294142 0.412897
8600 0.26494848000000004 8.23587759 -0.8232846300000001 1.772574 0.102597 0.245122
8620 0.4281084 8.5865949 -1.29945222 1.837736 0.874527 0.287317
8640 0.8032329899999999 8.88581952 -1.15275348 1.674618 1.005592 0.15355
8660 0.83122092 9.102718620000001 -0.96773688 1.732087 0.867225 -0.191975
8680 -0.19159911000000002 9.56705535 -1.26187992 1.6282709999999998 0.4503180000000001 -0.53827
8700 0.51148359 10.10713509 -0.9999234900000001 1.581926 -0.218153 -0.628536
8720 1.5045204600000002 10.79734707 0.67584033 1.498301 -0.408037 -0.490008
8740 2.9068011000000005 11.26841346 0.65189412 1.44148 -0.479174 -0.4999270000000001
8760 2.3414311800000007 11.26961028 -0.90112698 1.29292 -0.765253 -0.490984
8780 -0.29443734 12.36698631 -2.70142875 1.038465 -0.893229 -0.5011439999999999
8800 -1.1829879 12.801078810000002 -1.19496591 0.548197 -0.635378 -0.356416
8820 -2.1710805300000002 13.07066742 -0.14041053 0.204819 -0.741095 -0.26147
8840 0.8138572199999999 12.6703998 3.2587250400000003 -0.230744 -0.577492 -0.03826
8860 1.60271856 10.52745435 5.871392910000001 -0.583106 -0.601989 -9.7e-05
8880 -1.5477825600000001 8.61623091 6.9292444500000006 -0.822984 -0.792936 0.007018000000000001
8900 -4.996605779999999 11.750418 4.191587370000001 -0.8433360000000001 -0.702752 0.115719
8920 -4.86592677 12.73820652 1.84281831 -0.532119 -0.6086229999999999 0.28227800000000003
8940 -3.9493882800000004 13.03354638 1.0159334100000001 0.140244 -0.433572 0.411732
8960 -3.7395229500000005 12.90795876 0.53169219 0.654258 -0.297737 0.362806
8980 -0.43604469000000007 11.423646900000001 -0.43305264000000004 0.102711 -0.021318 -0.085781
9000 2.18844423 10.114168860000001 -0.9668441700000001 -0.02589 -0.582546 -0.283581
9020 3.1512466800000003 9.47978559 -0.98091171 0.392033 -0.6468619999999999 -0.279512
9040 1.59238863 8.52386976 -1.03914387 0.7368640000000001 -0.535391 -0.216357
9060 0.14250006 7.835609970000001 -1.43850897 0.835181 -0.11553900000000003 -0.06879400000000001
9080 -0.6710530499999999 6.64184088 -1.2573869400000002 0.4058 0.370065 -0.188851
9100 -0.95022603 6.35429016 -0.70353396 -0.6155510000000001 -0.370235 -0.38518
9120 -1.10874582 5.66766864 -1.0235754000000001 -0.394731 -0.7823680000000001 -0.07653
9140 -0.8162508599999999 4.5523305 -1.3245952500000002 -0.231451 -0.290697 0.16967100000000002
9160 -0.8596601100000001 4.708603800000001 -1.3644140400000002 -0.446085 -0.018613 0.245804
9180 -1.2555917100000002 5.02460352 -2.18231298 -0.7143229999999999 -0.077498 0.285666
9200 -1.12221495 5.399276850000001 -3.4259266800000003 -0.857057 0.436509 0.273328
9220 -1.06039233 6.92430021 -3.7365309000000004 -0.881718 0.59765 0.223811
9240 -0.8903457900000001 9.49760055 -3.90643029 -0.825541 0.527209 0.474258
9260 -0.7619132700000001 13.898150730000001 -2.03546709 -0.829177 0.676434 0.721869
9280 -3.36470247 17.06870349 -2.12931936 -0.977805 0.812355 0.692883
9300 -4.43138301 15.32123838 -6.23767869 -1.254331 0.8894190000000001 0.575484
9320 -1.5432895800000002 10.86874425 -8.20398528 -1.495202 0.8437899999999999 0.473447
9340 0.84244356 8.133333660000002 -6.6385447200000005 -1.535376 0.63641 0.42109
9360 -0.23560677000000002 10.25202879 -1.9687100400000002 -1.33634 0.546064 0.198269
9380 -4.154309370000001 12.944932650000002 1.3620204000000002 -1.095383 0.747518 -0.039588
9400 -7.59386214 13.70325546 4.14053613 -0.905069 0.7132689999999999 -0.16426500000000002
9420 -3.4117021800000007 11.561958090000001 2.6680551300000004 -0.781728 0.743128 -0.27880900000000003
9440 0.40835106000000004 9.63112446 0.24369021 -0.687873 0.6143930000000001 -0.400834
9460 1.94700051 9.53113113 0.95950629 -0.552502 0.517262 -0.470267
9480 1.13898024 9.60208686 0.83780343 -0.4664930000000001 0.184722 -0.235299
9500 0.09669717 8.71577298 1.68938991 -0.456689 0.12673 0.138721
9520 -2.6210456100000004 8.93761632 1.67980554 -0.475837 0.050563 0.288236
9540 -4.475547629999999 9.20900016 0.01915893 -0.253391 0.378008 0.26052800000000004
9560 -3.97857303 9.302254020000001 -0.38919213 -0.024883 0.336117 0.414934
9580 -2.56746339 8.008344450000001 -0.07663572 0.292057 0.431633 0.496074
9600 -0.5674692600000001 7.01516043 0.6991979400000001 0.814812 0.198611 0.507501
9620 0.8422964100000001 6.703212240000001 0.89797797 1.2387549999999998 -0.239431 0.459749
9640 1.34061498 7.840691550000001 0.47062494000000005 1.787489 -0.141396 0.243403
9660 1.2457130400000003 8.718019470000002 -0.8521750800000001 1.854808 0.579619 0.229062
9680 0.73916388 8.97923034 -1.47997584 1.6353959999999998 0.8065939999999999 0.135372
9700 0.77344002 9.186093810000001 -1.32669459 1.6813189999999998 1.087424 -0.069766
9720 1.14467004 9.21573963 -0.85516713 1.597521 0.8557889999999999 -0.411886
9740 1.07237034 9.3326454 -1.3641099300000001 1.534015 0.068464 -0.601464
9760 0.02170953 9.7143525 -2.0658584700000002 1.413844 -0.332676 -0.614608
9780 -0.4939727400000001 9.9167328 -1.00784997 1.135729 -0.711025 -0.595769
9800 1.1329961400000002 10.15143705 0.14086179000000001 0.8417469999999999 -0.842093 -0.597655
9820 2.90426031 11.60117847 0.14729715000000002 0.61634 -0.6178100000000001 -0.5461060000000001
9840 1.65495681 11.956084650000001 -1.2627726300000002 0.553141 -0.553094 -0.424853
9860 0.55744344 13.65625575 -1.3763920500000002 0.351192 -0.433834 -0.237341
9880 -2.30999994 13.95981639 0.28021284 -0.039308 -0.272284 -0.072565
9900 -0.84319893 12.4389819 3.03224157 -0.442719 -0.435342 0.028444
9920 0.18786150000000001 10.20727557 7.242536610000001 -0.6832630000000001 -0.6629550000000001 0.147764
9940 -1.8661661100000002 10.25068482 6.91472565 -0.695814 -0.736848 0.255662
9960 -4.524038460000001 12.1264353 3.74850891 -0.375556 -0.828926 0.360566
9980 -4.31402598 13.25583117 0.99138879 0.10282 -0.67001 0.4310020000000001
10000 -4.227207480000001 13.2661611 0.25207776000000004 0.5058229999999999 -0.5158020000000001 0.412255
10020 -3.3290725500000002 12.77368929 -0.19235448000000002 0.018355 -0.342464 -0.154325
10040 -0.53244756 11.165585040000002 -0.5566880700000002 -0.21900300000000006 -0.78018 -0.243016
10060 2.79753732 10.39079124 -0.86685084 0.227849 -0.805229 -0.227044
10080 3.07969254 9.69907833 -0.26539974000000005 0.543983 -0.983106 -0.240632
10100 1.894311 8.1673155 -0.52570809 0.8338 -0.519948 -0.166562
10120 0.26180928000000003 6.548430060000001 -1.2319398000000001 0.5387529999999999 0.418997 -0.286262
10140 -0.9894464100000001 5.81555439 -0.94078881 -0.62216 -0.754372 -0.486215
10160 -1.43446725 5.661821880000001 -0.9178922700000001 -0.499916 -0.989461 -0.144298
10180 -1.3271360399999999 5.809864590000001 -1.21966749 -0.184543 -0.351368 0.116666
10200 -1.13883309 5.6477543400000005 -1.77530589 -0.262867 -0.100142 0.229028
10220 -1.31232294 5.2135048799999995 -2.1894939 -0.339012 -0.181928 0.23501
10240 -0.8916995700000001 4.581819360000001 -2.44831113 -0.65117 0.233232 0.313483
10260 -0.52436412 5.16710358 -3.54687417 -1.021836 0.592513 0.297615
10280 -0.67030749 7.1696385000000005 -4.36192821 -0.976424 0.524147 0.571484
10300 -0.30027429 9.961780319999999 -3.2540849100000004 -0.609684 0.790957 0.663435
10320 -0.14789556 14.51606301 -1.3358178900000002 -0.6590630000000001 1.125918 0.590021
10340 -4.9293974700000005 18.207389430000003 -2.6583236100000005 -1.08153 1.025547 0.482513
10360 -3.34389546 13.66253415 -6.89540976 -1.403346 0.8043060000000001 0.411115
10380 -0.19010799 9.46616931 -7.58936916 -1.3872520000000002 0.772501 0.358925
10400 1.2205602 9.05347242 -3.0819390300000005 -1.311575 0.838909 0.203408
10420 -1.87424955 12.16505727 -0.2980278 -1.185211 0.7105090000000001 -0.030554
10440 -5.79086262 15.47122347 3.2241447900000004 -1.057453 0.7288140000000001 -0.189918
10460 -7.061414580000001 16.56635301 4.34695815 -0.960937 0.755447 -0.273667
10480 -1.13584104 7.82243514 0.86864607 -0.8860120000000001 0.693865 -0.389501
10500 2.25341586 7.63667298 0.18396693 -0.680264 0.73746 -0.547285
10520 2.15117604 8.46909072 0.5415708599999999 -0.527026 0.532972 -0.425244
10540 1.0841913900000002 9.15451542 1.74940749 -0.417249 0.401144 -0.054703
10560 -0.74409831 9.1738215 2.6092245600000004 -0.402747 0.313813 0.193338
10580 -4.145627520000001 10.096952309999999 1.81242693 -0.252909 0.618114 0.155538
10600 -5.194198800000001 9.986187600000001 0.20432268 -0.207106 0.8353950000000001 0.390589
10620 -3.4865524800000003 8.756641440000001 -0.60668964 0.214609 0.713348 0.442829
10640 -1.4642504099999998 7.67843415 0.42182019000000004 0.503137 0.4360600000000001 0.538135
10660 -0.30955455000000004 7.446859290000001 1.4900016600000001 0.979436 -0.090048 0.623321
10680 0.37347651000000004 7.521405479999999 1.3639627800000003 1.364218 -0.329374 0.466082
10700 0.73452375 8.12225817 -0.11630736000000001 1.807341 0.268552 0.271858
10720 0.6707587500000001 8.810233470000002 -0.80233047 1.798566 0.702101 0.28406
10740 0.44202879000000006 9.43876998 -1.11008979 1.838949 0.436568 0.052878
10760 0.94214259 9.223823070000002 -1.17535572 1.739354 0.264588 -0.275541
10780 1.16442738 8.84735451 -0.6679138500000001 1.63631 0.111496 -0.529233
10800 0.49067658000000003 8.7599376 -0.79424703 1.453021 -0.188781 -0.403011
10820 -1.11847734 9.3730626 -1.67023098 1.352947 -0.565742 -0.35302
10840 -1.3956981300000002 9.52978716 -0.2311236 1.426089 -1.362905 -0.33226
10860 0.86819481 9.843383430000001 1.53250839 1.28588 -1.498626 -0.369385
10880 3.04421958 10.921139460000001 0.38919213 0.966226 -1.114234 -0.315494
10900 1.59777432 11.824061669999999 -1.7443259100000001 0.5972689999999999 -0.988649 -0.232775
10920 -0.12080034 13.219014240000002 -1.87799697 0.411551 -1.107859 -0.097187
10940 -2.34277515 13.282926390000002 0.28231218 0.046684 -0.908176 0.099766
10960 -0.69814827 12.459043350000002 2.48244012 -0.328393 -0.8692129999999999 0.271217
10980 1.32265287 10.413246330000002 6.8195196000000005 -0.488792 -0.875347 0.345948
11000 -1.2460073400000002 10.444834530000001 6.47643447 -0.5606720000000001 -0.696253 0.376195
11020 -3.57681429 12.488080950000002 3.2287849200000007 -0.344696 -0.6382329999999999 0.331695
11040 -3.7510497000000003 13.242813300000002 1.3341796200000002 0.242704 -0.863491 0.210037
11060 -3.9083726700000003 14.11729632 1.2237092100000002 0.120247 -0.441964 -0.135326
11080 -3.3982330500000004 12.604692420000001 0.45849978 -0.325491 -0.445523 -0.190778
11100 -0.37422207 10.785673169999999 -0.8285231700000001 0.151757 -0.83604 -0.181603
11120 2.39038308 9.96971661 -1.07327286 1.020441 -0.8388450000000001 -0.233215
11140 3.0000647700000003 9.38338272 -0.11480643 1.313109 -0.907353 -0.138148
11160 0.9412400700000001 8.816511870000001 -1.0985630400000002 1.103608 0.119532 -0.212498
11180 -0.023347800000000002 7.67244024 -1.2386694600000003 -0.324185 0.379928 0.108344
11200 -0.45460521000000004 6.18319395 -1.1918169 -0.942817 -0.927354 0.425096
11220 -0.37512459000000004 6.75470493 -0.7505434800000002 -0.496863 -1.367945 0.462959
11240 -0.6378265799999999 6.53945391 -0.9862974000000001 -0.097946 -1.100251 0.04025
11260 -0.5522049 5.0410647 -1.6976205000000002 -0.07334700000000001 -0.676099 -0.024215
11280 -1.07132067 4.8178773900000005 -1.84640877 -0.697917 -0.14085599999999998 0.13203800000000002
11300 -1.2331366200000002 4.93314489 -2.4219614700000003 -1.347881 -0.106973 0.21398000000000006
11320 -1.2790866600000002 5.11830864 -3.2380651800000004 -1.123417 -0.277984 0.427275
11340 -1.0353964500000001 6.28512966 -3.0121899300000003 -0.56057 0.31464699999999995 0.653706
11360 -1.45033002 9.22756068 -2.7104147100000002 -0.5821689999999999 0.553106 0.71307
11380 -2.32736364 14.35694481 -1.9999941300000001 -1.058368 0.436661 0.67571
11400 -3.54133152 17.80068645 -2.8626462900000007 -1.354625 0.397673 0.559391
11420 -1.92005244 13.81298031 -6.74961354 -1.371009 0.507626 0.516406
11440 0.36494181 11.178004500000002 -7.419322620000001 -1.303433 0.609571 0.538112
11460 1.9715549400000003 10.910063970000001 -4.91877324 -1.19286 0.583271 0.359457
11480 -1.14601401 13.90907907 -1.47593412 -1.211095 0.547064 0.106207
11500 -4.788692640000001 17.61476733 2.89648098 -0.951448 0.638712 -0.127105
11520 -6.05625255 10.69825626 1.9260463500000002 -0.686897 0.7278359999999999 -0.266377
11540 -2.68645869 5.96913975 0.96788403 -0.400624 0.771714 -0.298617
11560 -0.08098155 5.7119706 -0.26315325 -0.482369 0.880581 -0.280099
11580 1.89625338 7.55748666 0.16435674 -0.539759 0.586238 -0.148731
11600 2.10058587 10.69256646 2.0719897200000004 -0.540914 0.522612 0.045758
11620 0.48739023 11.28952458 3.46739355 -0.6082960000000001 0.333946 0.132056
11640 -3.56588595 11.634110640000001 1.25274681 -0.498742 0.13178399999999998 0.243107
11660 -4.51879992 9.480982410000001 -1.65062079 -0.283569 -0.056953 0.368765
11680 -3.5781582600000004 7.851325590000001 -1.66722912 0.022409 -0.02532 0.450979
11700 -2.32122258 7.267836600000001 0.4047606000000001 0.468778 -0.142046 0.483088
11720 -0.9963232200000001 6.796613250000001 0.8873537400000001 0.976729 -0.20737 0.394853
11740 0.03053853 7.63143444 0.14459940000000002 1.382088 0.089094 0.230662
11760 0.7493368500000002 9.369462330000001 -0.14354973000000004 1.543282 0.238111 0.12157
11780 1.0186311599999998 8.924294340000001 -0.41942655 1.560553 0.262633 0.101363
11800 0.47211606000000006 7.97736447 -0.60354063 1.599857 0.386372 0.025635
11820 0.49681764000000006 8.11283076 -0.35475903000000003 1.748706 0.7808229999999999 -0.177861
11840 0.36314658000000005 9.04808673 -0.64335942 1.582875 0.822256 -0.272008
11860 0.10298538000000002 9.77632227 -0.52840584 1.356708 -0.023301 -0.410305
11880 -0.42481224000000006 10.08377748 -0.33365772000000005 1.33605 -0.544309 -0.370257
11900 -0.28680516 9.54505152 -0.4340925 1.3007540000000002 -0.360821 -0.404922
11920 0.7011403200000002 10.305316710000001 -0.49337432999999997 1.094562 -0.3985530000000001 -0.380677
11940 2.7521758800000002 11.74277601 -1.03689738 0.8873780000000001 -0.6663439999999999 -0.365757
11960 3.6318974400000004 12.36907584 -1.23703119 0.715414 -0.406084 -0.299994
11980 2.5743500100000003 12.97172376 -0.8960355900000001 0.373865 -0.29043800000000003 -0.152977
12000 1.5181465500000002 13.637243970000002 0.31988447999999997 -0.021603 -0.369282 -0.073385
12020 0.7406550000000001 13.989158100000001 2.3216738400000003 -0.425323 -0.381001 0.010336
12040 0.1733427 12.39932007 3.6786028500000003 -0.779375 -0.5026 0.090272
12060 -1.14751494 10.935805409999999 4.5493384500000005 -0.944482 -0.592932 0.178965
12080 -3.2885082000000003 9.190292490000001 3.7479105 -0.68761 -0.348002 0.24347
12100 -4.53841011 9.325611630000001 3.4822066500000006 -0.118666 -0.35502100000000003 0.173746
12120 -4.62658239 10.810973160000001 2.160162 0.330768 -0.234431 -0.00273
12140 -3.62051784 13.02935751 0.7475416199999999 0.170595 -0.001858 -0.215655
12160 -2.62448892 13.400283420000001 -0.35207109 -0.151557 -0.260533 -0.24962
12180 -0.8684891100000001 11.92075884 -0.25940583 -0.028186000000000006 -0.533877 -0.198202
12200 0.1907064 9.469308510000001 0.35790804000000004 0.782624 -0.494275 -0.148792
12220 1.53895356 7.90700715 -0.6203059200000002 1.070841 -0.699692 0.08849299999999999
12240 1.3900083300000001 8.01373995 -1.20694392 1.215727 0.445065 0.33266100000000004
12260 0.77733459 7.929315090000001 -1.5147032400000002 -0.081058 0.487305 0.483782
12280 -0.10073889000000001 7.3248719399999995 -1.61693325 -1.133872 -0.609524 0.761981
12300 -0.75712599 7.0006416300000005 -1.77081291 -0.65868 -0.891007 0.14716
12320 -0.94633146 6.20969076 -2.03172948 -0.185027 -0.336102 -0.236939
12340 -0.92387637 5.25631572 -2.25760473 -0.274966 0.14115899999999998 -0.163403
12360 -0.33500169 4.4506989 -2.18501073 -1.111256 0.586635 0.246791
12380 -0.25327458 4.52644191 -2.2508652600000003 -1.53148 0.70386 0.333436
12400 -0.34757811 5.129384129999999 -2.9861443800000003 -1.058553 0.382277 0.423678
12420 -0.39637305000000006 7.13701044 -2.80785744 -0.501831 0.640007 0.490261
12440 -1.3883602500000003 10.12554846 -2.4180669 -0.463105 0.91803 0.460265
12460 -2.85022683 14.06056509 -2.1315658500000003 -0.962303 0.720499 0.474123
12480 -3.7868267700000002 15.86206368 -2.7532255500000007 -1.396556 0.41652 0.411659
12500 -2.6378109000000003 13.548022020000001 -5.9040209699999995 -1.44527 0.07547899999999999 0.225885
12520 -0.21031659 11.55222657 -7.3922274 -1.210601 0.337642 0.26244
12540 1.2159200700000001 8.742868200000002 -6.0951786299999995 -1.083487 0.783803 0.199731
12560 -0.02769363 12.91469823 -4.47045624 -1.202897 0.832988 -0.008401
12580 -2.7822631500000004 15.238608750000001 -1.3708494 -1.300077 0.614676 -0.20749
12600 -6.18573474 14.0005377 3.37309002 -1.062834 0.728683 -0.418555
12620 -4.0002825600000005 10.48704696 1.7185746599999998 -0.780405 0.738999 -0.578965
12640 -0.64904922 8.17689987 0.47182176000000003 -0.549433 0.687846 -0.5078520000000001
12660 -0.39637305000000006 6.20085195 -0.42691158 -0.368855 0.5179199999999999 -0.26175
12680 -0.05613282 8.94599406 1.2440649600000002 -0.362729 0.511396 0.032062
12700 -0.237402 9.882446850000001 2.43243855 -0.417409 0.413842 0.232631
12720 -1.77037146 11.521393740000002 2.13815817 -0.32010900000000003 0.188981 0.436561
12740 -3.54283245 10.847191680000002 -0.90007731 -0.15048699999999998 -0.037396 0.690136
12760 -1.89266292 9.06454791 -1.43476155 0.102799 -0.080221 0.790237
12780 -0.27108954 7.942332960000001 -0.61192818 0.6303989999999999 0.004386 0.753221
12800 0.46867275 6.790629149999999 0.7614620100000001 1.165496 -0.108355 0.511412
12820 0.9367569000000001 6.295459590000001 1.6377402600000002 1.654298 0.326903 0.198075
12840 0.16794720000000002 7.82468163 0.95501331 1.641066 0.356165 0.084714
12860 -0.0085347 8.928336060000001 -0.6054928200000002 1.621563 0.471506 0.028882
12880 -0.00509139 9.12951954 -1.39779747 1.708127 0.8329200000000001 -0.117323
12900 -0.27408159 8.880129720000001 -1.38955707 1.733153 1.207585 -0.326999
12920 -0.11915226000000001 8.25473241 -0.6825798 1.505363 0.680682 -0.497763
12940 0.45130905 7.696249110000001 -0.7899110100000001 1.395251 0.141033 -0.513864
12960 0.79154928 8.98700967 -0.5450141700000001 1.3694309999999998 0.196103 -0.410497
12980 0.5752584000000001 10.5443766 0.6253973100000001 1.221387 -0.338746 -0.52835
13000 0.27602397 11.58336351 0.8027817300000001 0.961197 -0.312261 -0.532338
13020 0.57225654 11.44505232 0.05403348 0.777421 -0.048845 -0.446365
13040 1.91870847 11.37050613 -0.7399094400000001 0.508087 0.010019 -0.281679
13060 1.8989511300000002 11.80459863 -1.21113279 0.231509 -0.232108 -0.230958
13080 1.4756300100000002 13.51165635 -0.3586536 -0.153079 -0.282154 -0.169487
13100 0.86625243 14.31293715 1.18898181 -0.47061 -0.579678 -0.082661
13120 1.10829456 13.159134 3.9321717300000003 -0.7814770000000001 -0.7921100000000001 0.030808
13140 0.11436498 11.884834620000001 6.83822727 -0.758375 -0.629125 0.277519
13160 -3.5253216000000003 10.27508229 4.5375174000000005 -0.495968 -0.311887 0.369745
13180 -4.973405130000001 10.4373495 3.6591398100000005 -0.08919400000000001 0.1208 0.503423
13200 -4.8199767300000005 11.26797201 3.09391704 0.320637 -0.607171 -0.020483
13220 -3.3807222 12.73641129 1.35438822 0.215835 -1.024002 -0.384945
13240 -2.8901927700000005 13.10046039 0.10044459 -0.13036099999999998 -0.7656609999999999 -0.4870390000000001
13260 -1.29436083 11.757451770000001 -0.27767205 0.492689 -0.6607850000000001 -0.614212
13280 -0.07275096 9.89876088 -0.11675862 1.091297 -0.7061810000000001 -0.436921
13300 1.63429695 8.761732830000001 -0.27886887000000005 1.096384 0.092189 -0.294767
13320 1.71618102 8.461752839999999 -0.45355554 0.29207 0.472807 0.05698200000000001
13340 0.9092104200000001 7.23984867 -1.59807843 -0.780166 0.137324 0.433414
13360 0.75398679 6.6283619400000005 -1.3522888800000001 -0.6203069999999999 -0.304654 0.267386
13380 -0.39996351 6.60037401 -1.5881997600000002 -0.449434 -0.511039 -0.216129
13400 -0.9361486800000001 5.53010301 -1.5929870400000001 -0.390908 -0.403265 -0.311998
13420 -1.02237858 4.925807010000001 -2.36987037 -0.734485 -0.136857 -0.037002
13440 -0.29414304 4.56865434 -2.7027825300000003 -1.280937 0.361299 0.268327
13460 0.28965006000000004 4.04369181 -2.9666813400000005 -1.276593 0.500344 0.391025
13480 0.6291447300000002 4.56744771 -2.8479803400000003 -0.745754 0.735635 0.4969810000000001
13500 0.03517866 6.368210550000001 -2.77986951 -0.385788 1.148447 0.580151
13520 -0.08502327 9.53127828 -2.1622515300000003 -0.502536 0.960646 0.49305
13540 -0.9165483000000001 13.1474601 -0.6283893599999999 -0.855281 0.7766569999999999 0.456639
13560 -5.42112372 16.1265609 -3.2784823800000003 -1.143689 0.596978 0.35230500000000003
13580 -4.14937494 15.811316549999999 -6.386614110000001 -1.192299 0.5816479999999999 0.232345
13600 -1.3247424000000003 12.04230474 -6.370898490000001 -1.285742 0.6523939999999999 0.203827
13620 0.18995103 10.769653439999999 -4.86472995 -1.255328 0.668686 0.099333
13640 -1.70405586 14.087356200000002 -2.141591670000001 -1.088225 0.8288059999999999 -0.127236
13660 -4.25490111 14.88669462 1.40258475 -0.978712 1.044315 -0.303004
13680 -6.92175942 12.77113869 0.29264211 -0.951494 1.072294 -0.396853
13700 -3.3664977 7.32112452 0.62929188 -0.872532 0.969114 -0.502992
13720 -0.60923043 7.03582029 0.78541803 -0.532109 0.765465 -0.486466
13740 1.27489779 7.62828543 1.4456898900000001 -0.38369 0.506391 -0.296022
13760 1.1186244900000002 10.81201302 2.14115022 -0.334861 0.5262680000000001 0.018351
13780 0.34922619 11.232342090000001 2.4089436 -0.4186760000000001 0.566345 0.191834
13800 -1.6685829000000003 10.714266180000001 1.6377402600000002 -0.313308 0.684475 0.129394
13820 -3.68563662 9.1940301 0.023504760000000003 -0.199791 0.779 0.368279
13840 -2.8979721 8.25023943 -1.30034493 0.051411 0.481696 0.439849
13860 -1.55421792 7.944432300000001 -0.03547296 0.562707 0.16206600000000002 0.541038
13880 -1.1439244800000001 8.34005979 0.51732054 1.100789 -0.12784700000000002 0.64665
13900 -0.23261472000000002 7.897579740000001 1.32549777 1.570952 -0.124583 0.488628
13920 0.01437165 7.17772194 0.9746235 1.901563 0.688573 0.380937
13940 0.055230299999999996 7.59640293 0.24219909 1.678464 0.6022390000000001 0.319669
13960 0.053140770000000004 8.35083117 -0.15822549 1.7566540000000002 0.585156 -0.004503
13980 -0.10432935000000002 8.60470416 -1.0847898 1.900714 0.773323 -0.298567
14000 -0.050295870000000006 8.65978731 -1.4531749200000001 1.820361 0.257764 -0.503566
14020 0.44277435000000004 8.58375 -0.6020495100000001 1.477662 -0.380708 -0.38016
14040 0.6673154400000001 8.92518705 -0.10628154000000001 1.317295 -0.764423 -0.453427
14060 0.08935929000000001 9.91717425 -0.9038247300000001 1.2464 -1.100834 -0.446014
14080 -0.0896634 10.325525310000002 -0.34054434000000006 1.014316 -0.7782100000000001 -0.472618
14100 -0.7912549800000002 10.431954 0.10193571 0.755416 -0.8554 -0.392074
14120 0.6051887100000001 10.803184020000002 0.11824974 0.463803 -0.7655770000000001 -0.224379
14140 2.30235795 10.662773490000001 -1.24256403 0.103403 -0.772519 -0.041017000000000005
14160 1.4200956 11.995609140000003 -2.6460513000000003 -0.362499 -0.999567 0.132277
14180 1.2460073400000002 13.10359959 -0.8931906900000001 -0.686053 -1.227767 0.204016
14200 -0.47586348000000006 13.091621580000002 1.1859799500000001 -0.8770549999999999 -1.241983 0.195223
14220 -0.13381821000000002 11.4640641 4.0577593499999995 -0.6918340000000001 -0.6766409999999999 0.380594
14240 0.5605826400000001 9.26692821 7.49566404 -0.113846 -0.855964 0.5012979999999999
14260 -3.4341572700000005 11.07532323 5.79400182 0.656678 -0.941193 0.36792
14280 -4.20670458 12.59660898 2.86339185 0.079416 -0.568231 0.040807
14300 -3.62905254 14.2148862 1.06698465 -0.421048 -0.850925 -0.225109
14320 -4.30968996 13.74381981 1.41920289 -0.130262 -1.310602 -0.341061
14340 -2.48258727 11.900707200000001 -0.210915 1.132577 -0.761681 -0.180188
14360 0.79230465 10.639278540000001 -0.8589145499999999 1.154154 -0.9470000000000001 0.057345000000000014
14380 3.7737990900000002 10.41938739 -0.65204127 0.875697 0.107109 0.160872
14400 2.46432105 10.41070554 -0.10073889000000001 -0.487595 0.531953 0.061074
14420 0.33021441000000007 8.3147598 -1.4169564000000001 -1.203418 -1.027821 -0.33076
14440 -0.6652161000000001 6.90289479 -1.01743434 -0.354468 -1.040581 -0.273539
14460 -1.8874243800000001 6.467752620000001 -0.9110056500000001 -0.01939 -0.362962 -0.323342
14480 -1.12955283 5.960899350000001 -1.0717719300000002 -0.282812 0.176922 -0.042795
14500 -0.5201654400000001 5.75014131 -1.8196176600000002 -0.794563 0.501671 0.440324
14520 -0.47795301 6.0972681600000005 -1.67202621 -1.1699959999999998 0.837182 0.512047
14540 -0.45834282000000004 4.1561046 -1.8465559200000001 -1.014931 0.557083 0.626721
14560 -0.27497430000000006 3.1253482800000003 -2.79633069 -0.5375449999999999 0.752145 0.716331
14580 0.80457696 4.93898184 -2.93929182 -0.397775 0.959515 0.684995
14600 -0.49547367000000003 7.7246883 -1.93427694 -0.759355 0.906744 0.60883
14620 -3.33880407 11.65416228 -2.28515121 -1.167164 0.71801 0.474832
14640 -4.2688215 16.7365467 -0.94647861 -1.311706 0.6542859999999999 0.285897
14660 -2.5093783800000002 15.33186261 -3.4473321 -1.308863 0.7387279999999999 0.212101
14680 0.28934595 12.27372264 -7.3329553800000005 -1.132093 0.804552 0.114975
14700 2.28214935 9.66210444 -7.826771160000001 -1.12047 0.8658389999999999 -0.03671
14720 0.44457939 10.3189428 -3.63024936 -1.20301 0.8624870000000001 -0.192174
14740 -2.58946722 14.281201800000002 -0.61582275 -1.130825 0.851193 -0.360435
14760 -5.439085830000001 13.419442349999999 2.64185262 -0.85609 0.8507239999999999 -0.481361
14780 -7.51976721 12.09843756 4.6090617300000005 -0.5802470000000001 0.752786 -0.470762
14800 -2.51566659 11.87285661 0.6962058900000001 -0.501397 0.243468 -0.244164
14820 -0.1707921 7.819737389999999 -0.23980545000000003 -0.41466 0.173644 0.091953
14840 -0.07739109000000001 8.6008194 1.2578382000000001 -0.485271 0.040136 0.240114
14860 -0.33036156 9.01320237 2.13321393 -0.33521 0.180289 0.226027
14880 -0.95890788 9.05017626 2.78391123 -0.147282 0.116224 0.366291
14900 -3.0252078000000004 11.004514649999999 1.0472175000000001 0.055184 0.369836 0.437883
14920 -2.5852783500000003 10.6460082 -0.22857300000000003 0.749101 -0.122147 0.325856
14940 -1.8796450500000002 8.82489942 -0.47287143000000004 1.099868 -0.050369 0.453196
14960 -1.04661909 7.65298701 0.36523611 1.535678 -0.290036 0.336906
14980 -0.33200964 6.80320557 1.2789395099999998 1.853274 0.211149 0.20175
15000 -0.24818319 6.949296090000001 0.6679138500000001 1.7743 0.458506 0.216905
15020 -0.00344331 7.8682380300000005 -0.13307265000000001 1.7582799999999998 0.5390739999999999 0.06286599999999999
15040 0.36554022 8.81861121 -0.8931906900000001 1.728347 0.494454 -0.207547
15060 0.5081972400000001 8.83163889 -1.28537487 1.583842 0.16455899999999998 -0.433528
15080 0.66596166 8.38511712 -0.89514288 1.395761 -0.662319 -0.480784
15100 0.8586104400000001 8.21072475 -0.5833418400000001 1.2926879999999998 -1.034846 -0.471413
15120 0.5313978900000002 8.733293640000001 -1.2629197800000003 1.2374459999999998 -0.8859030000000001 -0.374781
15140 -0.34906923 9.8854389 -1.57577049 1.094668 -0.772775 -0.303284
15160 -0.29818476 10.666373759999999 0.11001915 0.91154 -0.920235 -0.29796500000000004
15180 1.1883834 10.578348629999999 0.34652844000000005 0.711967 -1.063786 -0.190217
15200 3.1512466800000003 11.896361370000001 0.12034908 0.390257 -0.964511 0.037077
15220 2.26059678 11.781554940000001 -1.8628797600000002 -0.060429 -0.938952 0.163151
15240 1.16892036 13.744418220000002 -1.6835529600000003 -0.456954 -0.988075 0.270471
15260 -1.30259142 14.050529460000002 -0.051796800000000004 -0.731526 -1.043695 0.298534
15280 -0.95202126 13.344601860000001 2.07902349 -0.66054 -0.648848 0.32950300000000005
15300 -0.7006890600000001 10.768309470000002 3.87768699 -0.226685 -0.464055 0.361138
15320 -0.06765957 8.3668509 6.4406574 0.31185100000000004 -0.576487 0.305224
15340 -3.19750083 10.2870603 4.16209851 0.311227 -0.08729400000000001 -0.018009999999999998
15360 -4.2659766 11.85355053 2.8943816400000006 -0.392013 -0.34388 -0.243716
15380 -4.11508899 13.552063740000003 1.2710032199999999 -0.618212 -0.772817 -0.672035
15400 -3.75314904 13.59847485 1.00875249 0.471448 -0.5354260000000001 -0.509836
15420 -1.5846093 11.933188110000001 -0.06675705 1.094093 -1.012012 -0.415145
15440 1.15859043 10.10952873 -0.17528508000000004 1.370328 -0.160222 -0.014792
15460 2.26374579 9.40703463 -0.67344669 0.653636 0.925345 0.061064
15480 1.8479097000000002 8.7861303 -0.8476919100000001 -1.067272 -0.157799 0.160458
15500 1.0071044100000002 8.526116250000001 -1.0876347 -0.989308 -0.8864719999999999 0.364899
15520 -0.42391953000000004 7.5357771300000005 -1.36307007 -0.25543000000000005 -0.5679890000000001 0.004285
15540 -1.24855794 7.019506260000001 -1.39524687 -0.029091 0.010348 -0.164723
15560 -0.90277506 6.675067350000001 -1.3063290300000001 -0.356605 0.073151 0.130943
15580 -0.42286986 5.3452335600000005 -1.22579874 -1.086318 0.449084 0.257824
15600 -0.31629402 4.883741730000001 -1.0662292800000002 -1.239181 0.485423 0.360327
15620 -0.40026762 4.09712688 -1.49868351 -0.823694 0.57363 0.585306
15640 -0.48394692000000006 3.97184337 -2.80651347 -0.440463 1.013762 0.7423109999999999
15660 -0.65533743 5.23476315 -2.68736121 -0.433827 1.04684 0.723087
15680 -1.80359793 7.82812494 -2.2522190400000004 -0.721904 0.954457 0.6325310000000001
15700 -3.2022881100000005 11.807149230000002 -1.53910071 -1.143665 0.725381 0.476055
15720 -3.93681186 16.56979632 -0.45939249000000004 -1.264599 0.487801 0.320622
15740 -2.69200134 15.040721430000001 -4.5491913 -1.118878 0.529231 0.223311
15760 0.09145863 14.01594921 -7.4733561 -1.068546 0.659618 0.07394400000000001
15780 2.05717662 11.458668600000001 -8.207732700000001 -1.241572 0.64933 -0.133418
15800 0.9090632700000001 10.287805859999999 -5.7269406599999995 -1.328484 0.613008 -0.298485
15820 -0.98719992 13.32424611 -1.15559838 -1.1151 0.7172029999999999 -0.432792
15840 -5.9083668000000005 13.96266129 3.89340261 -0.912773 0.771223 -0.5307930000000001
15860 -8.15174703 12.898825650000001 4.0977252900000005 -0.647325 0.499778 -0.278627
15880 -3.25573299 9.29612277 1.1255111100000001 -0.491814 0.527767 0.046095
15900 0.10523187 6.760394730000001 -0.6188148 -0.5444140000000001 0.4471350000000001 0.275498
15920 0.86879322 8.621175150000001 0.9060614100000001 -0.429054 0.470198 0.26879699999999995
15940 0.7385654700000001 9.87211692 2.18784582 -0.218052 0.333549 0.425338
15960 -0.52750332 10.45935333 2.94482466 0.008506999999999999 0.15613 0.6407930000000001
15980 -3.35123334 10.9986777 1.01698308 0.322291 0.030058 0.727535
16000 -4.14473481 10.08901602 -1.06354134 1.130431 -0.19606 0.629853
16020 -2.24518527 8.60261463 -1.02147606 1.652002 -0.064526 0.318202
16040 -0.9937824300000001 7.65298701 -0.50834439 1.82905 0.456496 0.139309
16060 0.1850166 6.923407500000001 0.6575839200000001 1.560167 0.42982 0.117169
16080 0.95082444 7.03417221 0.9157929300000001 1.621071 0.524011 -0.047032
16100 0.91504737 8.09247501 0.3912816600000001 1.6193229999999998 0.632474 -0.262964
16120 0.6391705499999999 8.98102557 -0.8107180199999999 1.492721 0.503791 -0.473055
16140 0.46538640000000003 8.825497830000002 -1.5832555200000002 1.350832 -0.299624 -0.56702
16160 0.5462109900000001 8.123307839999999 -1.2666672 1.326357 -0.7119949999999999 -0.5185930000000001
16180 0.6982954200000001 7.78231224 -0.63213678 1.249399 -0.660926 -0.435875
16200 0.29219085 8.29260882 -0.6259957199999999 1.052245 -0.63352 -0.458651
16220 -1.3039353900000001 9.38084193 -0.52420716 0.907605 -0.75876 -0.448819
16240 -1.4681449800000002 9.7926363 0.33874911 0.689184 -0.806439 -0.324233
16260 0.5565409200000001 10.839108240000002 0.2083644 0.394303 -0.698628 -0.123469
16280 2.08516455 12.164154750000002 -0.24519114 0.030537 -0.580617 -0.016134
16300 2.21868846 12.356803530000002 -1.5905934000000002 -0.322314 -0.6267689999999999 0.109647
16320 1.46455452 13.97808261 -1.02881394 -0.565743 -0.8180149999999999 0.194718
16340 -0.40311252 14.87561913 0.9930368700000001 -0.512946 -0.849457 0.285925
16360 -0.02470158 14.18749668 3.4835604300000003 -0.270975 -0.775155 0.409298
16380 1.3621675500000001 12.326421960000001 6.8554438200000005 0.305184 -0.7887930000000001 0.389839
16400 -2.91608136 9.94561344 4.968617850000001 0.552031 -0.549728 0.06544900000000001
16420 -4.12811667 9.66300696 3.26441484 0.171475 -0.6278020000000001 -0.325942
16440 -4.44754989 10.387053629999999 2.4201662400000004 -0.00484 -0.8322120000000001 -0.470053
16460 -4.17796128 12.025990710000002 1.57292559 0.40196 -0.647667 -0.353148
16480 -2.96653419 13.0028607 0.31778514 0.678225 -0.5966899999999999 -0.287191
16500 -0.04759812000000001 11.782153350000002 -0.09595161 0.8604430000000001 -0.46065 -0.100222
16520 1.2317926500000003 10.55170467 -0.2402469 0.4316640000000001 0.587712 -0.027648
16540 1.6178357700000001 9.430539390000002 -0.48947976000000004 -0.49823 0.516105 0.037519
16560 1.5476354099999998 8.32404006 -1.0374957900000001 -0.697049 -0.473022 0.081195
16580 0.7608636000000001 7.575900030000001 -0.53678358 -0.11569000000000003 -0.504834 0.073546
16600 -0.29264211 7.313492340000001 -1.45302777 -0.12508699999999998 -0.116509 -0.059477
16620 -0.8038314000000001 7.66181601 -1.5702376500000002 -0.479409 0.049074 0.131184
16640 -0.86639958 6.568040250000001 -1.52772111 -1.03765 0.446428 0.34683
16660 -0.63407916 5.172047820000001 -1.6780103100000001 -1.246359 0.311811 0.359431
16680 -0.48813579 4.7689353 -1.78922628 -0.819209 0.318216 0.518367
16700 -0.36359784 4.30579539 -2.227370310000001 -0.513022 0.627909 0.594884
16720 -0.38664153 5.0647166100000005 -3.14885304 -0.699282 0.712773 0.579588
16740 -0.41733702000000006 6.883431750000001 -3.7546401600000006 -1.063542 0.594803 0.560103
16760 -0.5966638200000001 9.123976890000002 -3.3055776 -1.25563 0.485083 0.459557
16780 -1.09198053 13.139523810000002 -1.8884740500000001 -1.3367790000000002 0.381328 0.369393
16800 -3.28522185 17.20777005 -2.01391452 -1.260127 0.283302 0.30809699999999995
16820 -3.63414393 14.31413397 -5.20902171 -1.184661 0.31450900000000004 0.164374
16840 -1.21981464 9.5236461 -6.34231215 -1.159078 0.382196 -0.001108
16860 0.054190440000000006 8.50935096 -5.49581706 -0.936636 0.5419970000000001 -0.196312
16880 -1.0720662300000001 12.010569390000002 -2.61072549 -0.68784 0.660046 -0.362437
16900 -3.97737621 14.21788806 -1.13269203 -0.596845 0.6621279999999999 -0.429102
16920 -5.25961188 12.01281588 1.74267783 -0.531886 0.664977 -0.398741
16940 -5.79983877 9.596092950000001 2.28544551 -0.466519 0.508195 -0.142779
16960 -1.11204198 9.632174130000001 0.6828839100000001 -0.506302 0.506045 0.162458
16980 1.3642668900000001 8.497677060000001 -0.36613863 -0.478384 0.453167 0.307999
17000 2.07244098 9.33279255 0.6331864500000001 -0.237946 0.09746 0.342181
17020 2.1308202900000004 9.60971904 1.43521281 0.023179 -0.010734 0.53215
17040 0.29309337 10.23855966 1.74717081 0.465148 0.017687 0.5010180000000001
17060 -3.00110463 10.23077052 -0.15237873000000005 0.862764 -0.30855 0.48819
17080 -3.31111044 9.2925225 -1.5322140900000003 1.187956 -0.549652 0.294218
17100 -2.7680484599999997 8.462056950000001 -1.18748088 1.539461 -0.148526 0.110288
17120 -1.5164984700000002 8.0258553 0.030685680000000003 1.559717 0.293611 0.08102100000000001
17140 0.08592579000000002 7.43803029 0.41089185000000006 1.665511 0.560661 0.072872
17160 0.94393782 7.09569072 0.12977649 1.7280669999999998 0.7317600000000001 -0.144827
17180 1.03764294 8.053705890000002 -0.18875421000000003 1.52385 0.407409 -0.37337
17200 0.6468027300000001 8.49258567 -1.0553009400000002 1.334407 -0.290394 -0.463529
17220 0.32033574000000004 8.50530924 -1.48700961 1.192299 -0.747164 -0.398775
17240 0.38005902 8.522231490000001 -1.34645193 0.949642 -0.76372 -0.310718
17260 0.92059002 8.78672871 -0.9804604500000001 0.7072229999999999 -1.162978 -0.4219270000000001
17280 0.71101899 9.47215341 -0.51432849 0.587777 -1.138119 -0.407838
17300 -0.6375224700000001 9.900860220000002 -0.21780162 0.408995 -0.8601700000000001 -0.23105
17320 -1.02836268 9.88035732 -0.40057173 0.176256 -0.73006 -0.0662
17340 -0.46762308 10.54677024 -1.16652672 -0.186038 -0.749513 0.050936
17360 1.8585339300000001 11.686496040000002 -1.22220828 -0.537774 -0.793505 0.168176
17380 4.133806470000001 12.024646740000001 -1.3223487600000001 -0.727805 -0.695344 0.293841
17400 3.1271435100000002 13.74831279 -0.4176313200000001 -0.699691 -0.27718000000000004 0.391778
17420 0.3817071 15.175589310000001 0.58543137 -0.277837 0.001737 0.33881999999999995
17440 -0.32722236 13.575568500000001 3.65016366 0.498374 -0.245421 0.202485
17460 0.1329255 10.23960933 6.63825042 0.262966 0.041983 -0.07085599999999999
17480 -3.15064827 9.55418463 5.01786405 -0.351122 -0.0583 -0.034425
17500 -4.312829160000001 11.22306183 2.72014623 0.022596 -0.031738 -0.074577
17520 -3.79969749 12.67878735 1.05350571 1.216681 -0.403733 -0.256971
17540 -3.28986198 13.91640714 0.47331288 1.512919 -0.988414 -0.2862
17560 -2.8749186 12.63986127 0.08172711 0.761167 -0.298239 -0.402362
17580 -0.28396026 10.61307603 -0.28800198 -0.475096 -0.49933 -0.191754
17600 1.5206873400000003 9.130559400000001 -0.6875240400000001 -0.722907 -1.029966 0.055023
17620 2.07782667 8.39888055 -0.6710530499999999 -0.239136 -1.179658 0.040434
17640 2.6259898500000003 7.785009990000001 -0.62584857 -0.023904 -0.8625719999999999 -0.054609000000000005
17660 0.8282288700000001 6.856042230000001 -0.99348813 -0.40254 -0.321326 -0.01415
17680 -0.12393954 6.544839600000001 -1.55361951 -1.072494 0.153084 0.209161
17700 -0.37168128 6.782094450000001 -1.52054019 -1.1757540000000002 0.256564 0.261719
17720 -1.01413818 6.322849110000001 -1.46170962 -0.591248 0.726329 0.292973
17740 -1.27460349 5.47157655 -1.5416415 -0.295354 1.259095 0.270857
17760 -1.1602385100000001 4.4917047000000005 -1.9110762900000002 -0.490532 1.336221 0.333488
17780 -1.09183338 5.006641409999999 -2.59695225 -0.997896 1.33215 0.459204
17800 -1.13164236 5.6893683600000005 -2.9840450400000003 -1.376747 1.322761 0.471525
17820 -1.5920845200000002 7.3648378800000005 -2.39636718 -1.551914 1.172531 0.363671
17840 -2.52958698 10.51578045 -1.6735173300000001 -1.334183 1.147449 0.320359
17860 -4.057916310000001 14.20950051 0.70128747 -1.242824 1.1976 0.22052
17880 -2.9283634800000002 13.534857 -3.45391461 -1.342277 0.93567 0.008653000000000001
17900 0.42032907 13.545029970000002 -7.210055700000001 -1.375728 0.639429 -0.204845
17920 1.05125922 12.5141265 -7.91628741 -1.2396040000000002 0.720154 -0.263818
17940 1.4431491 13.360464630000001 -3.86436501 -1.049542 0.882918 -0.372726
17960 -1.3105277100000001 14.578179930000001 1.0722231899999999 -0.945409 0.869339 -0.5300779999999999
17980 -3.43999422 11.188628730000001 1.5937326 -0.781937 0.761931 -0.451887
18000 -4.16568897 7.847735129999999 0.81206199 -0.770055 0.419644 -0.112739
18020 -1.3843185300000003 8.69527008 -0.55893456 -0.652522 0.222263 0.127617
18040 1.1424235500000002 8.52417387 0.33380487 -0.627251 0.468982 0.211867
18060 0.6271925400000001 11.347305480000001 1.5489793800000002 -0.264841 0.4240350000000001 0.481511
18080 -0.22079367 11.06887806 2.30400603 0.158399 0.314171 0.682229
18100 -2.20865283 10.94015124 1.78084854 0.718828 0.494996 0.797007
18120 -4.51790721 9.353452410000001 -1.0298538000000002 1.030743 0.221686 0.6766909999999999
18140 -4.23619344 7.97107626 -0.69515622 1.4661540000000002 0.557353 0.273378
18160 -3.2201030700000004 7.67633481 0.26689086 1.974598 1.412982 0.046165
18180 -1.66693482 7.49940165 1.1085986700000001 1.77747 1.218772 0.033287
18200 -0.6153714899999999 7.294186260000001 1.02881394 1.61696 0.666229 -0.177566
18220 0.32407335000000004 7.553444939999999 0.87103971 1.602299 0.7364430000000001 -0.407426
18240 0.84124674 8.42612292 -0.08053029000000002 1.537544 0.5057689999999999 -0.473813
18260 1.28986785 8.46086013 -0.6780868200000001 1.340834 0.049019 -0.366711
18280 1.1199684600000002 8.089326 -0.8157996000000001 1.133257 -0.28278200000000003 -0.328212
18300 1.11458277 8.09171964 -1.1141315100000002 0.904342 -0.6537649999999999 -0.329335
18320 1.35018954 8.5114503 -1.20304935 0.671167 -0.726694 -0.27105
18340 1.05890121 9.02532753 -1.5832555200000002 0.424286 -0.659377 -0.108355
18360 -0.22094082 9.52409736 -1.6723205100000003 0.255973 -0.777288 -0.046354
18380 -0.84843747 10.31085936 -1.6777160100000001 0.113997 -0.925298 0.060734
18400 -0.11705292 10.746001530000001 -0.031136940000000002 -0.100991 -1.211398 0.13223800000000002
18420 2.27616525 10.42956036 0.67779252 -0.31004 -1.324036 0.243086
18440 2.6798761800000004 10.737319680000002 -0.75218175 -0.257045 -1.102891 0.305129
18460 1.45467585 12.33494685 -0.7426071900000001 0.127344 -0.696634 0.407707
18480 -0.8490358800000001 13.376778660000001 0.5783976000000002 0.74633 -0.619038 0.446114
18500 -2.24742195 13.92838515 4.187545650000001 0.492572 -0.163169 0.151064
18520 -1.0267146 11.592938070000002 8.97054849 -0.379349 -0.529505 0.078145
18540 -5.58384219 12.84224157 6.502480020000001 0.364216 -0.78784 -0.165225
18560 -5.520822750000001 12.42820071 2.6316796500000006 1.943498 -0.8333860000000001 -0.267367
18580 -4.1412915 12.17388627 1.84940082 1.922791 -0.251431 -0.062090999999999986
18600 -4.173919560000001 13.078898010000001 3.12445557 0.32675 0.127389 -0.172001
18620 -2.09085435 12.54915801 1.17026433 -0.684584 -1.286829 0.054551
18640 0.97192575 11.658508110000001 -0.053592030000000006 -0.419995 -0.8602719999999999 0.245996
18660 2.1963805200000004 10.624161330000002 -0.2342628 -0.03932 -0.198976 0.242467
18680 1.5871500900000002 9.70746588 -0.17378415000000003 0.04041 -0.639716 0.102583
18700 0.5828905799999998 8.586889200000002 -0.40715424 -0.6370100000000001 0.023472 0.276463
18720 -0.20058507 7.63696728 -0.8243343 -1.270974 0.633095 0.222115
18740 -0.49771035 6.85200051 -0.71775846 -0.901321 0.34389000000000003 0.296639
18760 -0.37946061000000003 6.11837928 -0.8759741400000002 -0.357512 0.746925 0.5338609999999999
18780 -0.33919056000000003 5.779335870000001 -1.69013547 -0.339828 0.941574 0.592488
18800 -0.16839846000000003 5.4923737500000005 -2.3781009600000003 -0.7654920000000001 0.8507680000000001 0.493491
18820 -0.02215098 4.7461761000000005 -2.45340252 -1.30953 0.728587 0.350978
18840 0.42032907 4.530925080000001 -2.799774 -1.7385400000000002 0.805191 0.214356
18860 0.44053767000000005 4.9829895 -2.4899251500000004 -1.73195 0.653722 0.258393
18880 -0.81280755 7.263490770000001 -2.27391876 -1.564688 0.935998 0.119262
18900 -4.096234170000001 11.65102308 -1.33521948 -1.555125 1.183987 -0.099974
18920 -5.641171830000001 18.91166895 -1.36830861 -1.358419 1.082863 -0.289682
18940 -2.67298956 14.9868351 -6.10130988 -1.081807 1.270909 -0.402291
18960 -0.016461180000000002 10.67848911 -8.408916180000002 -0.6900149999999999 1.7300240000000002 -0.470645
18980 2.36373912 11.70221166 -4.1589495 -0.476776 1.033577 -0.184116
19000 -1.45497015 16.13614527 3.1525906500000005 -0.396643 0.734526 0.20566
19020 -5.654336850000001 13.830039900000001 5.72514543 -0.4209890000000001 0.4920310000000001 0.395944
19040 -3.2028865200000003 5.85597159 -0.39787398 -0.363273 0.469643 0.35044200000000003
19060 0.8406483299999999 6.65021862 -1.0547025300000001 -0.29987 0.454024 0.471614
19080 1.26367515 9.77467419 -0.17139051000000002 -0.178348 0.562793 0.604783
19100 0.17558919000000003 12.93684921 0.9324110700000001 0.166302 0.219149 0.72834
19120 -0.83780343 11.468252970000002 2.93060997 0.76472 0.211672 0.7474850000000001
19140 -4.330948230000001 10.13976315 1.13598819 1.31518 0.18626 0.498194
19160 -4.94212104 9.64624167 -0.41987781 1.779116 0.747462 0.146065
19180 -3.07535652 9.63052605 -0.31404753 1.898527 1.165855 0.107907
19200 -2.1115044 8.199345150000001 0.22543380000000002 1.6985880000000002 1.106748 0.143974
19220 -0.76131486 6.19202295 1.0398894300000001 1.730209 1.338437 -0.014199000000000003
19240 0.17917965 5.37427116 1.1249127 1.537296 1.396465 -0.238879
19260 0.6888680100000001 7.29792387 0.94393782 1.252042 0.54003 -0.535671
19280 0.8566680600000001 9.44431263 -0.17499078 1.25479 -0.351299 -0.614627
19300 0.46912401000000004 8.97459021 -1.38851721 1.460808 -0.5067159999999999 -0.555305
19320 0.47586348000000006 7.72663068 -1.01279421 1.314741 -0.181564 -0.489443
19340 0.43424946000000003 7.6580784 -0.42047622 1.159444 -0.585691 -0.524193
19360 -0.37257399 8.824448160000001 -0.22797459 0.815488 -0.5116609999999999 -0.357912
19380 -1.33881975 10.373280390000001 -1.2029022 0.447395 -0.601535 -0.207612
19400 -0.71087184 11.22006978 0.2576106 0.081816 -0.866034 -0.07950399999999999
19420 2.5709067000000005 10.98745506 -0.062116920000000006 -0.337358 -0.940761 0.056533000000000014
19440 3.568878 11.72047788 -0.93555027 -0.563261 -1.020256 0.152265
19460 1.6835529600000003 12.08152512 -2.2221317700000003 -0.524734 -0.8781100000000001 0.268788
19480 0.75293712 13.37947641 -1.3233984300000001 -0.313096 -0.436163 0.387205
19500 -0.75742029 13.93721415 0.1240965 0.085513 0.047810000000000005 0.489782
19520 0.99916812 13.86566982 2.38543884 0.581521 0.105202 0.093658
19540 2.30385888 11.25434592 4.9630752000000005 -0.038014 -0.207473 -0.29696500000000003
19560 -1.50526602 9.35090181 6.68225808 -0.644392 -0.249321 -0.494495
19580 -5.28161571 9.59369931 4.290972480000001 -0.489728 -0.669938 -0.670201
19600 -5.948627040000001 10.690918380000001 3.03075045 0.5237649999999999 -0.902571 -0.648937
19620 -3.97318734 12.36878154 2.00597823 0.925905 -1.048114 -0.298769
19640 -2.38962771 13.60640133 0.50340015 1.047542 -0.580624 0.169363
19660 -0.29189655000000003 13.22349741 -0.3065625 0.143785 0.154297 0.44946
19680 0.49322718000000004 11.227397850000001 -0.039965940000000005 -1.0967870000000002 0.365588 0.367885
19700 1.25379648 9.99650772 -0.43334694 -1.061791 -0.839586 0.158165
19720 1.77186258 9.51870186 -1.2428681400000001 -0.17069 -0.934874 -0.22752600000000006
19740 1.52592588 8.13498174 -1.3319331300000001 -0.004946 -0.1938 -0.281797
19760 0.09609875999999999 6.55261893 -2.6120694600000003 -0.457504 0.285999 0.003915
19780 -0.27946728 6.549783840000001 -2.19054357 -0.984901 0.206988 0.239614
19800 -0.27797616 6.73195554 -1.7058510900000003 -0.999537 0.08327799999999999 0.286673
19820 -0.14969079000000002 5.557796639999999 -2.3781009600000003 -0.647648 0.391596 0.400899
19840 0.53468424 4.64993019 -2.57988285 -0.510699 0.804087 0.491057
19860 0.9488722500000001 4.08336345 -2.9683294200000003 -0.633101 0.905567 0.52746
19880 0.62180685 4.22856126 -2.9340532800000005 -0.786403 0.950956 0.498557
19900 0.02065986 5.49133389 -2.3466697200000004 -1.016318 0.988304 0.415719
19920 -1.20933756 7.709571090000001 -2.0191530600000003 -1.251842 0.627659 0.232938
19940 -4.33573551 12.115202850000001 -2.4632811900000005 -1.276416 0.384852 0.235214
19960 -7.939939320000001 18.31695732 -2.30326047 -1.210752 0.498672 0.21950300000000006
19980 -4.5771792300000005 14.0728374 -5.2179978600000005 -1.340219 0.477459 0.04237
20000 0.56687085 9.97959528 -6.794219610000001 -1.3553110000000002 0.458165 -0.18097
20020 3.82949046 9.759704130000001 -7.96448394 -1.2162190000000002 0.659518 -0.305238
20040 3.08793294 11.249705790000002 -5.07744018 -0.968523 0.8645430000000001 -0.37641
20060 -1.27190574 13.28696811 -3.6863821800000003 -0.691491 0.95758 -0.439755
20080 -3.39074802 12.64794471 -2.19429099 -0.509474 0.549365 -0.277727
20100 -5.48863614 10.194552 1.6823561400000002 -0.391479 0.309003 0.054554
20120 -5.104084139999999 12.71739951 2.08336932 -0.465655 0.26749 0.376692
20140 -1.16068977 10.567125990000001 1.15244937 -0.494228 0.5032310000000001 0.322779
20160 -0.28785483 7.579941750000001 1.5060213900000003 -0.532137 1.239926 0.474326
20180 0.61806924 8.6500656 2.56476564 -0.056257000000000015 1.049567 0.513145
20200 0.62494605 9.20361447 2.31942735 0.262179 0.97581 0.566739
20220 -0.33964182000000004 10.276730370000001 1.5024211200000002 0.815701 0.6905359999999999 0.564561
20240 -2.06749674 10.319237099999999 -0.11945637 1.328462 0.2694 0.474679
20260 -2.9648861100000006 8.73179271 -1.0353964500000001 1.772816 0.389174 0.240484
20280 -2.90815488 8.06657661 -0.8211951000000001 1.876619 1.155873 0.225271
20300 -1.68399441 7.826771160000001 -0.04775508 1.6812779999999998 1.077947 0.168459
20320 -0.34607718 7.531882560000001 0.19235448000000002 1.606475 1.038733 -0.08304500000000001
20340 0.25836597 7.634877750000001 0.75263301 1.565774 0.930401 -0.395111
20360 0.69276258 8.28931266 0.29683098 1.455444 0.421218 -0.570418
20380 1.0731159000000003 8.64646533 -0.76356135 1.351865 -0.314512 -0.574472
20400 0.55983708 8.53883982 -1.14212925 1.40616 -0.35830500000000004 -0.5921960000000001
20420 0.11077452 8.192017080000001 -0.63766962 1.184505 -0.496188 -0.5508390000000001
20440 0.15717582000000002 8.540036640000002 -0.47106639 0.824493 -0.492175 -0.443332
20460 0.1070271 9.05347242 -0.6709058999999999 0.603046 -0.801646 -0.382525
20480 -0.30027429 9.870772950000003 -1.26815832 0.3076 -0.8640979999999999 -0.226412
20500 -0.5881291200000001 10.932960510000001 -0.714168 0.090569 -1.013241 -0.037593
20520 -0.73048203 11.741284890000001 0.20178189000000002 -0.308468 -1.099828 0.116759
20540 1.8257489100000002 10.86934266 1.11144357 -0.660813 -1.301389 0.211764
20560 2.30924457 10.25427528 -0.47930679000000004 -0.841424 -1.179021 0.402626
20580 -0.31464594 11.77406991 -2.6568226800000003 -0.671098 -0.988015 0.440959
20600 -0.9692378100000001 13.420639170000001 -0.8201454300000001 0.060277 -0.430066 0.403692
20620 -1.6413405300000004 13.38531336 0.51477975 0.8271430000000001 -0.419249 0.230641
20640 0.5149269000000001 12.37311756 4.30445142 -0.042741 -0.622501 -0.134097
20660 1.49329782 10.06147935 6.97669542 -0.682154 -0.6334310000000001 -0.309465
20680 -1.77905331 9.99262296 5.76271773 0.106781 -0.8508870000000001 -0.159465
20700 -3.63039651 11.8025091 3.3501836700000003 1.09616 -1.458543 -0.371829
20720 -3.94384563 12.64360869 1.57442652 1.039734 -0.874798 -0.050369
20740 -4.19307849 13.00764798 0.9171467100000001 0.618346 0.059942 -0.074806
20760 -2.9425781700000004 11.91821805 0.54441576 -0.725056 -0.38744 -0.250259
20780 0.18815580000000004 11.0245761 -0.46598481 -0.4945890000000001 -1.2652370000000002 -0.181295
20800 2.0460913200000004 10.411902360000001 -0.64022022 -0.000834 -0.65304 0.007240000000000002
20820 2.31658245 9.88409493 -0.56732211 0.002 -0.089251 -0.059692
20840 1.3641099300000001 8.82983385 -1.15829613 -0.21935900000000005 -0.075146 0.067998
20860 0.35161983 7.74998829 -1.32205446 -0.562265 0.208835 0.210518
20880 -0.39921795000000004 6.18393951 -0.78422121 -0.8501479999999999 0.57593 0.29990300000000003
20900 -0.8182030499999999 6.2206092900000005 -1.47892617 -0.80083 0.597303 0.506387
20920 -0.53678358 6.34380327 -1.1602385100000001 -0.5226069999999999 0.914319 0.6403840000000001
20940 -0.52001829 5.58548046 -1.8323412300000002 -0.464138 1.103739 0.6394810000000001
20960 -0.36688419000000005 4.61610531 -1.35872424 -0.8272149999999999 1.159765 0.530051
20980 -0.29728224000000003 3.9906981900000003 -1.8756033300000001 -1.182322 1.020034 0.350425
21000 -0.3912816600000001 4.49889543 -2.78166474 -1.489525 0.96386 0.278917
21020 -0.89873334 6.455921760000001 -3.40107795 -1.555973 0.82271 0.203858
21040 -1.5402975300000001 10.0237599 -2.0550772800000003 -1.2838200000000002 0.941635 0.064601
21060 -4.95814077 14.759606070000002 0.13890960000000002 -1.095513 1.152488 -0.0807
21080 -7.021154340000001 19.12796964 -3.0915234000000003 -1.041341 1.216699 -0.201113
21100 -1.5672456000000001 14.718590460000001 -8.127800820000001 -0.946136 1.165665 -0.308273
21120 2.7961835400000004 10.26190746 -9.206459370000001 -0.703762 1.048283 -0.4677310000000001
21140 2.68631154 4.985530290000001 -5.252126850000001 -0.448191 0.782884 -0.386557
21160 0.8232846300000001 9.95594337 -1.43640963 -0.4329020000000001 0.407877 -0.126392
21180 -4.93748091 14.58102483 2.3751089100000002 -0.5941420000000001 0.25574600000000003 0.228395
21200 -8.42148279 16.98188499 6.09487452 -0.6405850000000001 0.428236 0.289806
21220 -3.6471618 12.078385920000002 1.78922628 -0.812245 1.064252 0.426661
21240 1.48581279 9.60312672 -0.21271023000000003 -0.07342699999999999 0.633842 0.594743
21260 1.22670126 8.32090086 1.11427866 0.116053 0.674183 0.731679
21280 0.5051953800000001 9.54430596 1.9740957300000002 0.499381 0.546982 0.774044
21300 -0.80427285 9.31423203 2.32361622 1.082158 0.297021 0.706864
21320 -2.87955873 9.79428438 1.9875648600000002 1.448807 0.053408 0.305949
21340 -4.31043552 9.627828300000001 0.47930679000000004 1.825154 0.682726 0.044989
21360 -3.5455302000000004 8.37194229 0.16390548000000002 1.7173740000000002 0.8665229999999999 -0.004070000000000001
21380 -2.5427618100000005 7.56421632 0.06720831000000001 1.645882 0.902727 -0.204373
21400 -0.9699833700000001 6.96711105 0.99019197 1.521615 0.8293879999999999 -0.403836
21420 -0.43619184 6.75245844 1.1750516100000001 1.455947 0.512912 -0.590828
21440 0.34188831000000003 7.400762100000001 1.04946399 1.387822 -0.384946 -0.57413
21460 0.55309761 8.335262700000001 0.09968922 1.410344 -0.5885229999999999 -0.566234
21480 0.39637305000000006 9.01381059 -0.97716429 1.388136 -0.486414 -0.507768
21500 0.45085779000000004 9.30540303 -1.46006154 1.2017790000000002 -0.523544 -0.385109
21520 0.72853965 9.16424694 -0.8210381400000001 0.812976 -0.492892 -0.254336
21540 0.71850402 9.334293480000001 -1.1365866 0.5602020000000001 -0.8800530000000001 -0.185103
21560 -0.32332778999999995 9.938432520000001 -1.4706955800000001 0.266019 -0.859576 0.010437
21580 -1.2304388700000002 10.39513707 -0.85501998 -0.095777 -0.707765 0.188245
21600 -0.01990449 9.911641410000001 0.11121597 -0.389008 -0.8295680000000001 0.26647
21620 2.39502321 10.71322632 1.18822644 -0.529587 -1.0430700000000002 0.233714
21640 2.28319902 10.680588450000002 -0.9698362200000001 -0.545784 -0.780167 0.302699
21660 0.04086846000000001 12.633582870000001 -2.0275308000000005 -0.305141 -0.078308 0.39962
21680 -1.8628797600000002 13.532012100000001 -0.20073222000000002 0.332327 -0.5997170000000001 0.235962
21700 -1.4424035400000002 12.92082948 0.67913649 0.226444 -0.6072270000000001 -0.190988
21720 0.7581756600000001 12.56232303 4.8238713 -0.484904 -0.5695060000000001 -0.216302
21740 2.07454032 11.404183860000002 7.51527423 -0.30537600000000004 -0.8424389999999999 -0.316179
21760 -2.35370349 10.4376438 5.694312600000001 0.693396 -0.684597 -0.4279770000000001
21780 -4.460420610000002 11.065287600000001 3.3467403600000005 1.024344 -0.98348 -0.297096
21800 -4.6300257 11.834685900000002 1.16368182 1.1406969999999998 -0.629563 -0.193119
21820 -4.3724052900000006 12.523112460000002 1.0005219 0.358902 0.150858 0.057861
21840 -2.09399355 12.200078970000002 -0.14864112000000002 -0.7257680000000001 -0.281864 0.253801
21860 1.19362194 11.496692160000002 -0.48828294 -0.624305 -1.14534 0.31650500000000004
21880 2.37615858 10.91709774 -0.8825664599999999 -0.050513 -1.172018 0.097289
21900 2.03936166 9.939776490000002 -1.0135397700000002 0.012568 -0.5315979999999999 -0.004572
21920 1.3861137600000002 8.593030259999999 -1.4780236500000004 -0.532796 0.056649 0.147893
21940 0.06885639 7.415575200000001 -1.4416481700000001 -1.160466 0.074441 0.238558
21960 -0.8384018400000001 6.77415816 -1.1720595600000001 -0.982136 -0.322633 0.28197300000000003
21980 -1.03135473 6.15280257 -1.2295461600000002 -0.433215 0.145858 0.396302
22000 -0.7517402999999999 6.0990633899999995 -1.7200755900000002 -0.289827 0.65279 0.572911
22020 -0.3065625 5.535792810000001 -1.71828036 -0.70387 0.717807 0.656461
22040 -0.39936510000000003 5.007838230000001 -1.8251505000000001 -1.079789 0.626471 0.646475
22060 -1.0008162 4.185446310000001 -2.7009873000000004 -1.225938 0.689483 0.46698
22080 -1.09707192 4.91487867 -3.65016366 -1.291426 0.7348600000000001 0.364984
22100 -0.14505066000000003 6.214330889999999 -3.0103947 -1.295967 0.6412640000000001 0.331957
22120 -0.66701133 9.02548449 -1.4995860300000001 -1.291952 0.626062 0.134383
22140 -4.49859132 13.616132850000001 -2.31897609 -1.356167 0.583555 -0.102088
22160 -5.368581360000001 17.92507725 -2.29952286 -1.262003 0.720236 -0.265043
22180 -1.0593426599999998 13.16602062 -5.95895697 -0.958689 1.166992 -0.362842
22200 1.3861137600000002 11.04852231 -8.1294489 -0.810264 1.257728 -0.5381779999999999
22220 1.6994157300000001 11.525876910000001 -5.65059924 -0.6204529999999999 0.856143 -0.442334
22240 -1.54403514 14.628779910000002 -2.0441489400000004 -0.463261 0.4997470000000001 -0.16410999999999998
22260 -3.9215475 15.093862200000002 0.31854051 -0.456003 0.348028 0.207877
22280 -4.23424125 10.8569232 1.62037656 -0.609308 0.344718 0.36918
22300 -4.48586775 6.95109132 1.59224148 -0.407359 0.404767 0.361968
22320 -1.64567655 7.26080283 0.07559586 -0.182536 0.367762 0.6295729999999999
22340 0.88376328 7.146437850000001 0.23232042000000003 0.291709 0.287137 0.667172
22360 1.44644526 10.479856230000001 1.73474154 0.784305 0.066695 0.755285
22380 1.4218908300000002 11.339820450000001 3.1166664300000004 1.210878 -0.27341 0.4563930000000001
22400 -1.1612881800000001 11.408078430000002 2.5999443000000007 1.599332 0.035884 0.029285
22420 -3.66377994 9.91178856 0.0287433 1.646436 0.390022 -0.127868
22440 -4.05880902 7.82452467 -1.2590350200000002 1.590703 0.504467 -0.194634
22460 -3.4356581999999998 7.596550080000001 -0.6441147900000002 1.724346 0.7057359999999999 -0.29330300000000004
22480 -1.76453451 8.218209779999999 0.69156576 1.685919 0.580654 -0.415188
22500 -0.47900268000000007 7.930207800000001 0.45221157000000006 1.49271 0.209991 -0.527158
22520 0.23935419000000002 8.004302730000001 0.09729558 1.156973 -0.403601 -0.5041479999999999
22540 1.00246428 8.47432926 0.25267617 0.953204 -0.637259 -0.503135
22560 0.9515699999999999 8.31685914 -0.34219242000000005 0.8838440000000001 -0.571248 -0.43427
22580 0.23440995 7.922124360000001 -0.87103971 0.838542 -0.618214 -0.371501
22600 0.06271533 8.179744770000001 -0.76311009 0.833469 -0.750479 -0.324365
22620 0.40490775 8.821750410000002 -0.90142128 0.627318 -0.8708239999999999 -0.153667
22640 0.03262806 9.61390791 -1.1422764000000003 0.299252 -1.006919 0.065337
22660 -0.6500988900000001 10.15233957 -1.2094847100000001 -0.153257 -1.141181 0.200149
22680 -1.3796784000000002 10.69061427 -0.36554022 -0.586152 -1.2273969999999998 0.29124
22700 0.0038945700000000004 10.581497640000002 0.16600482 -0.747607 -1.313095 0.283812
22720 3.28013046 10.540177920000001 0.28156662 -0.6456970000000001 -0.867441 0.369411
22740 3.74521275 11.149859609999998 -1.16951877 -0.15182 -0.171424 0.376242
22760 1.4921010000000001 13.96835109 -0.9448305300000001 0.638159 -0.419782 0.261369
22780 -2.88524853 15.70833117 -0.5438173500000001 0.381616 -0.108782 -0.033515
22800 -1.09437417 13.825998180000001 2.41552611 -0.439252 -0.311089 -0.144743
22820 1.7890791300000002 11.777660370000001 7.801029720000001 -0.380457 -0.7704949999999999 -0.393708
22840 -1.6570561500000003 10.435848570000001 5.833673460000001 1.299144 -0.6253810000000001 -0.310591
22860 -3.6140824800000004 10.30741605 3.0954081600000007 1.650255 -1.084533 -0.077882
22880 -3.9032812800000003 10.318344390000002 2.29158657 1.677618 -0.050921 0.090832
22900 -4.50982377 11.28517875 1.35438822 0.233427 0.8231729999999999 0.401159
22920 -3.50212095 12.35665638 0.69200721 -1.418297 -0.563587 0.7097289999999999
22940 -0.88945308 11.74876992 -0.04431177000000001 -0.882705 -1.33964 0.64503
22960 1.57727142 10.57131486 -0.32811507000000006 0.151606 -1.064181 -0.13858299999999998
22980 2.28439584 9.353295450000001 -0.56043549 0.36298 -0.501733 -0.317288
23000 1.66184343 8.11058427 -0.5043026700000002 -0.515359 0.281739 0.053723
23020 0.7095278700000001 7.95745017 -0.7714976400000001 -1.480577 0.436036 0.13330899999999998
23040 -0.34892208 7.627088610000001 -1.52262972 -1.1164 -0.030354000000000006 0.299889
23060 -1.116378 8.05595238 -1.92349575 -0.283474 0.520099 0.45028
23080 -0.92806524 7.739059950000001 -1.6127443799999999 -0.138158 0.914375 0.5597479999999999
23100 -0.60130395 6.120625770000001 -1.24226973 -0.631652 0.751105 0.525532
23120 -0.42481224000000006 4.68016461 -1.2100831200000002 -1.318301 0.582097 0.495315
23140 0.0836793 3.72694653 -1.2177153 -1.715853 0.519111 0.340931
23160 0.04759812000000001 3.9053806200000003 -1.7556957000000002 -1.484998 0.5897600000000001 0.322157
23180 -0.23052519000000005 5.7432546900000006 -1.78189821 -1.194565 0.74164 0.184054
23200 -1.13838183 8.21835693 -1.22385636 -1.314512 0.646051 -0.049534
23220 -5.10438825 12.30141627 -1.49433768 -1.294992 0.568812 -0.197782
23240 -8.30742192 16.76453463 -0.44637462000000006 -0.999002 1.073016 -0.270067
23260 -4.1848479 14.246621550000002 -4.7749194 -0.717792 1.356832 -0.360334
23280 0.70697727 11.967012990000002 -8.068224690000001 -0.512858 1.298907 -0.437877
23300 2.8303125300000005 10.349481330000001 -7.754030010000001 -0.42652 0.364336 -0.16581600000000002
23320 1.90389537 12.41173953 -4.38931773 -0.308676 0.258479 0.096857
23340 -1.5603589800000002 15.453859770000001 -0.7370645400000001 -0.454603 0.270977 0.294511
23360 -4.40129574 15.45595911 2.48708025 -0.434043 0.54161 0.26333
23380 -5.88141873 9.87751242 2.5782347700000003 -0.298065 0.502421 0.355129
23400 -1.50347079 8.55710604 0.97627158 0.015456 0.7727109999999999 0.422134
23420 -0.01466595 6.0616480500000005 -0.9291149100000001 -0.116394 0.903008 0.453092
23440 0.8693916300000001 8.11073142 0.8990276400000001 1.097113 0.417722 0.346823
23460 0.68018616 9.48832029 3.3910521300000003 1.602293 0.245738 0.293956
23480 -1.3527401400000003 11.459571120000001 4.22451954 1.809542 0.13704000000000002 0.124627
23500 -4.92056847 11.62048455 0.26794053 1.900865 0.485192 0.093841
23520 -4.06150677 9.19597248 -1.5470370000000002 1.84593 0.471013 -0.042189
23540 -2.45549205 7.779320190000001 -1.23358788 1.804938 0.535257 -0.354478
23560 -1.1723636700000002 7.0623171000000005 0.45400680000000004 1.675457 0.517215 -0.525207
23580 -0.008829 6.49648611 1.26052614 1.563188 0.06561499999999999 -0.447432
23600 0.5505568200000001 7.514224560000001 1.1499085800000002 1.403396 -0.684477 -0.540523
23620 0.60054858 8.74841085 -0.25820901 1.245628 -0.850281 -0.498683
23640 0.70413237 8.87459688 -1.1787990300000002 1.065338 -0.8241780000000001 -0.476475
23660 0.39173292000000004 8.63973567 -0.88765785 0.906718 -0.8444290000000001 -0.336552
23680 0.12798126 8.41370346 -0.7277842800000001 0.691728 -0.821888 -0.192804
23700 0.10687995 8.98985457 -1.3883602500000003 0.302992 -0.869691 -0.155934
23720 -0.26719497000000003 9.81045126 -1.2901719600000003 -0.142431 -0.935461 -0.10555
23740 -0.23964849 10.09006569 -1.5039220500000001 -0.441829 -0.942445 0.035509
23760 0.26135802 11.16288729 0.17947395 -0.5526340000000001 -0.888875 0.054963
23780 0.5755527000000001 11.40119181 0.48215169 -0.53764 -0.7806529999999999 0.151069
23800 1.19286657 11.66764122 0.060772950000000006 -0.32362 -0.481621 0.309209
23820 1.10844171 10.70797797 -1.5344605800000002 0.29037 -0.5500149999999999 0.363792
23840 0.86235786 12.25606464 -1.6085555100000002 0.545138 -0.240438 0.247671
23860 -1.9540342800000001 13.95203706 -0.37632141 -0.15907000000000002 -0.281658 -0.022115
23880 -1.2891222900000001 14.043799800000002 1.4130618300000002 -0.183459 -0.817029 -0.116671
23900 0.58798197 12.6615708 4.13021601 0.864516 -0.805555 -0.164913
23920 0.31749084 9.143282970000001 5.34867687 0.997706 -0.834817 -0.155399
23940 -2.2522190400000004 8.62282323 5.485938389999999 0.836736 0.29316 -0.244495
23960 -4.3963613100000005 10.89119934 3.23956611 -0.20434 0.443379 -0.145137
23980 -4.313878830000001 12.261901589999999 1.1343401100000001 -0.703581 -1.007535 0.289069
24000 -3.52726398 12.554092440000002 -0.03907323000000001 -0.326681 -1.195105 0.515201
24020 -1.8053931600000002 11.512711890000002 -1.05366267 -0.276275 -0.837706 0.33883800000000003
24040 2.17932093 10.88820729 -0.50444982 -0.444361 -0.39341 0.199294
24060 3.7381789800000003 10.07599815 -1.19945889 -0.888475 -0.190643 0.226911
24080 1.7820453600000001 9.42305436 -1.37458701 -1.344311 -0.16076700000000002 0.077342
24100 1.0762649100000001 8.2976904 -1.5802634699999998 -1.2306290000000002 -0.275004 0.30795
24120 -0.18950957999999998 7.34972067 -1.7594431200000002 -0.674906 0.22576 0.603883
24140 -0.81131643 6.6575565 -1.54359369 -0.534733 0.6658470000000001 0.716461
24160 -0.9518741100000001 5.8086677700000005 -1.2244547700000001 -0.948412 0.657979 0.645216
24180 -1.17789651 5.63098905 -1.5639494400000002 -1.235863 0.413477 0.500379
24200 -1.25274681 5.3073669599999995 -1.73938167 -1.346534 0.396079 0.418444
24220 -1.04557923 4.18709439 -1.85764122 -1.240699 0.401207 0.376448
24240 -1.17774936 4.56116931 -2.9228208300000005 -1.16328 0.382377 0.223189
24260 -0.5236087500000001 5.927378580000001 -3.57666714 -1.183856 0.26748 -0.063091
24280 -0.63378486 7.832912220000001 -2.78091918 -1.141551 0.430179 -0.29374
24300 -1.9712508300000002 11.32635132 -2.44037484 -0.901661 0.691053 -0.4718600000000001
24320 -3.70105794 15.79650345 -2.49516369 -0.59041 0.565584 -0.533619
24340 -3.3662034000000003 15.278731650000001 -5.126539230000001 -0.522275 0.476093 -0.590712
24360 -0.7213489200000001 12.095151210000001 -7.737559020000001 -0.526158 0.237942 -0.438746
24380 1.8377269200000002 10.591072200000001 -7.387734419999999 -0.517407 0.220285 -0.027397
24400 0.9485779500000001 13.743966960000002 -3.10993677 -0.561357 0.22885 0.266046
24420 -3.86795547 17.70248835 1.98307188 -0.418526 0.15608699999999998 0.22334
24440 -7.133714280000001 14.2032123 2.87103384 -0.146503 0.082013 0.39625
24460 -4.28154507 7.69324725 -0.25028253 0.144295 0.009503 0.428285
24480 -0.6810788700000001 6.248155769999999 -0.28785483 0.589395 -0.144533 0.4679100000000001
24500 2.23230474 6.4955934 0.31718673000000003 1.009082 -0.284517 0.478499
24520 2.67044877 10.04366439 1.6277144399999999 1.660986 -0.5773560000000001 0.418266
24540 1.2169697400000001 11.029069080000001 3.2141189700000004 1.929818 0.042049 0.331756
24560 -3.0326928300000002 10.941200910000003 2.41956783 1.774228 0.471174 0.24573000000000006
24580 -5.87423781 9.62632737 -0.4197306600000001 1.935625 0.814426 0.047728
24600 -5.17353894 8.68434174 -1.7368408800000001 1.841566 0.721121 -0.24657
24620 -2.9084491800000003 7.44940989 -0.65713266 1.7457790000000002 0.041776 -0.504879
24640 -0.8416980000000001 7.20467001 0.90756234 1.552141 -0.491492 -0.445727
24660 0.6629696099999999 7.028786520000001 0.67643874 1.275906 -0.870075 -0.37026
24680 1.9026887399999999 8.55007227 0.31569561 1.104934 -0.972639 -0.414052
24700 1.68639786 9.167533290000002 -0.7363189800000001 0.8891879999999999 -1.021966 -0.412291
24720 1.16158248 8.54662896 -1.09033245 0.703439 -0.923807 -0.2898
24740 0.5376861000000001 8.15324796 -1.19137545 0.4949310000000001 -0.8428610000000001 -0.10549
24760 0.8150540400000001 8.95079115 -0.8937891 0.149117 -0.932925 0.07274
24780 0.9216298800000001 9.635911740000001 -0.76595499 -0.236916 -1.031049 0.17058199999999998
24800 -0.01437165 10.422977849999999 -0.4451778 -0.494497 -1.264938 0.275905
24820 -1.43087679 10.13557428 -0.8674492500000001 -0.579731 -1.153132 0.361692
24840 -1.64462688 9.55567575 -0.6737508 -0.51607 -0.648848 0.470449
24860 1.1199684600000002 10.363401719999999 -0.83227059 -9.7e-05 -0.79105 0.419756
24880 3.71182932 11.82391452 -1.0827002700000001 0.739512 -0.843258 0.313894
24900 3.38326299 12.11295636 -1.90688742 -0.112143 -0.25000500000000003 0.013424
24920 1.31935671 14.30066484 -0.6033934800000001 -0.482106 -0.620803 -0.17776
24940 -1.55152017 13.43725731 0.9370512 0.115256 -1.046085 -0.103608
24960 -0.5828905799999998 11.209141440000002 4.81129488 1.022257 -1.044861 -0.130389
24980 -0.44577621000000006 8.87025105 6.9171192900000005 1.050062 -0.8284540000000001 0.07249
25000 -2.9572539300000003 10.89255312 5.188656149999999 0.808723 -0.169258 0.06782300000000001
25020 -4.072582260000001 11.670633270000002 2.7660962700000002 -0.5447569999999999 -0.128125 0.012382
25040 -3.8669058 13.06004319 1.28941659 -0.595792 -1.05149 -0.000678
25060 -4.75695729 13.854584520000001 0.68976072 -0.072594 -0.65293 0.30797800000000003
25080 -4.37989032 12.486736980000002 0.26494848000000004 -0.072213 -0.109685 0.053047
25100 -1.4322207599999999 9.988424280000002 -0.45535077 -0.284898 -0.074267 0.171157
25120 2.21749164 9.03476475 -0.80038809 -0.751524 0.378769 0.235683
25140 3.3573645900000004 9.25420464 -0.58737375 -0.971109 0.6501520000000001 0.225256
25160 2.13830532 8.976532590000001 -0.61671546 -0.7985329999999999 0.5327189999999999 0.405005
25180 0.44681607 7.881560010000001 -1.3350723300000003 -0.615927 0.7529239999999999 0.589733
25200 -0.57645522 7.09374834 -1.2295461600000002 -0.703739 0.963968 0.63585
25220 -1.02477222 6.5452908600000015 -1.1076961500000004 -1.070327 0.93697 0.5126149999999999
25240 -1.1115907199999997 5.1594714 -1.1906200800000002 -1.571805 0.7869520000000001 0.368299
25260 -1.25619012 4.7720745 -1.20080286 -1.604935 0.7148680000000001 0.30834
25280 -1.3672589400000001 4.38947469 -1.7877351600000002 -1.451391 0.8754200000000001 0.251523
25300 -1.0105477200000001 4.5036827100000005 -2.99571894 -1.315461 0.981327 0.022669
25320 -0.44996508 5.40346572 -3.1275947700000004 -1.274794 1.054399 -0.170489
25340 -0.8433460799999999 7.66061919 -2.2390442100000003 -1.0838139999999998 1.203234 -0.260144
25360 -2.74873257 12.313992690000001 -1.8901221300000002 -0.8255540000000001 1.384786 -0.331212
25380 -4.67463177 18.05590341 -0.47615778 -0.58044 1.172554 -0.483052
25400 -2.81669625 14.431491000000001 -5.242552290000001 -0.488315 0.5470109999999999 -0.240189
25420 0.5900715000000001 12.338243010000001 -8.2598238 -0.438248 0.396323 0.103253
25440 2.71311246 8.025413850000001 -7.67379402 -0.50465 0.272298 0.273864
25460 1.22969331 9.031468590000001 -3.8233494 -0.385634 0.365781 0.236119
25480 -2.9544090300000003 13.099861980000002 0.20402838 -0.172043 0.31653200000000004 0.37868
25500 -6.69991608 14.56815411 3.69865449 0.061427 0.307074 0.410233
25520 -5.814955980000001 12.0080286 4.35564 0.371103 0.189645 0.47023
25540 -1.9127243700000003 11.076814350000001 -0.42960933 0.8528290000000001 -0.12961199999999998 0.503915
25560 1.8068940900000001 9.521703720000001 -0.031136940000000002 1.277726 -0.496779 0.31400500000000003
25580 0.81924291 9.699980850000001 1.0865948400000003 1.808735 -0.247652 0.157161
25600 0.32153256 9.34357374 1.88772849 1.847616 0.416605 0.24204
25620 -2.02963014 9.81239364 2.13815817 1.901838 0.783138 0.175719
25640 -4.74798114 9.60208686 0.20013381 1.866536 0.939986 -0.122763
25660 -4.4698578300000005 9.1681317 -0.4090966200000001 1.694795 0.603208 -0.468566
25680 -2.7785255400000004 8.311463640000001 -0.31898196000000006 1.555703 -0.26848 -0.54106
25700 -1.3012474500000002 6.917864850000001 0.35640711 1.328522 -0.192192 -0.241506
25720 -0.020208600000000004 6.1469656200000005 0.86909733 1.279815 -0.341294 -0.474528
25740 0.90112698 7.016808510000001 1.0377900899999999 1.222181 -0.7897 -0.443377
25760 1.1223621000000001 8.31011967 -0.0925083 0.8652709999999999 -0.615073 -0.380932
25780 0.5405211900000001 8.829686700000002 -1.1469165300000004 0.388072 -0.590341 -0.291362
25800 0.16660323000000002 8.80394526 -1.3750382700000001 0.038995 -0.8342940000000001 -0.253964
25820 0.67509477 8.91755487 -0.92777094 -0.460344 -0.7084550000000001 -0.121949
25840 1.0135397700000002 9.26857629 -1.10051523 -0.727597 -0.748318 -0.044716000000000006
25860 -0.03398184 9.69024933 -0.96788403 -0.856641 -0.896258 0.033621
25880 -0.36599148000000004 10.026300690000001 -0.18666468 -0.666095 -0.818786 0.207904
25900 0.92956617 10.9554156 0.19130481000000002 -0.208095 -0.591988 0.369978
25920 2.61716085 11.77990686 -0.32377905 0.488768 -0.6069760000000001 0.317181
25940 2.6229978000000003 12.04186329 -1.1832920100000002 0.410033 -0.160156 0.002001
25960 1.0642869000000001 13.00076136 -2.43648027 -0.175603 -0.299158 -0.16000799999999998
25980 -0.6717986100000001 13.44893121 -1.2189121200000002 0.000456 -0.592478 -0.22036
26000 -0.42421383 12.820237740000003 0.16301277 0.979673 -0.5960449999999999 -0.177196
26020 0.92372922 11.295214379999999 3.66602643 1.301244 -0.902122 -0.104054
26040 0.9339120000000001 7.969722480000001 5.844896100000001 0.899223 0.06877 -0.128403
26060 -2.2290183900000002 9.2720196 5.488341840000001 -0.119256 0.06651599999999999 0.25225
26080 -4.0374036 12.177623879999999 3.44822481 -0.93697 -0.815512 0.422857
26100 -4.568046120000002 14.350509450000002 1.4684490900000002 -0.515677 -1.027277 0.001987
26120 -4.55936427 15.2040285 0.40610457000000005 -0.08882999999999999 -0.624762 -0.327764
26140 -3.5064569700000003 13.1332356 -0.34114275 -0.12722999999999998 -0.152584 -0.093628
26160 -0.53379153 10.261309050000001 -0.69245847 -0.968188 0.470691 0.346215
26180 2.53303029 10.054141470000001 -1.02566493 -1.4903110000000002 0.478501 0.44404
26200 4.41731547 9.03715839 -0.33455042999999995 -0.984522 0.484246 0.433678
26220 1.0509649200000002 8.188573770000001 -1.8094348800000002 -0.50921 0.902071 0.495215
26240 -0.37855809 6.58884726 -2.02229226 -0.552455 0.74044 0.459869
26260 -0.72149607 6.491698830000001 -1.43476155 -0.926336 0.601267 0.423252
26280 -1.2009500100000001 6.51235869 -0.91938339 -1.201208 0.6206020000000001 0.355078
26300 -0.74978811 5.2087176 -1.5712873200000002 -1.43452 0.653543 0.311745
26320 0.5965068599999999 4.366872450000001 -1.15829613 -1.394425 0.5214409999999999 0.27908
26340 0.23186916000000002 3.5232222600000003 -1.71513135 -1.192964 0.655219 0.216222
26360 -0.72389952 4.15071891 -2.8340599500000003 -1.206337 0.7871630000000001 -0.000889
26380 -1.33148187 5.404358429999999 -3.31770276 -1.266815 0.84804 -0.25349
26400 -1.55990772 8.42073723 -3.68009397 -1.145534 1.08582 -0.414249
26420 -2.7009873000000004 12.461436990000003 -1.92066066 -0.893797 1.05201 -0.435948
26440 -3.9332214000000003 17.42871087 -0.8137100700000001 -0.75532 0.639883 -0.323358
26460 -3.6368416800000003 15.355220220000001 -5.732483310000001 -0.611015 0.471146 -0.076443
26480 -0.8478390600000001 12.589869509999998 -7.77618099 -0.523295 0.6016630000000001 0.241265
26500 1.4314752 10.38765204 -6.57791892 -0.479077 0.508675 0.280149
26520 -0.9003814200000001 13.251495150000002 -2.8521692100000005 -0.242116 0.585296 0.094767
26540 -2.8940775300000006 15.305817059999999 0.9746235 -0.090106 0.685068 0.32002800000000003
26560 -5.385199500000001 12.20412069 1.69103799 0.251662 0.47848 0.271405
26580 -3.11802021 7.065005040000001 1.28582613 0.5634520000000001 0.403467 0.378365
26600 -0.9726811200000001 6.48196731 -0.34817652000000004 1.200527 -0.031289 0.389781
26620 0.53408583 8.25398685 0.0663156 1.63504 -0.30617 0.289551
26640 0.11001915 11.45493099 1.09138212 1.756244 0.5276069999999999 0.267965
26660 -0.18157329000000003 11.551481009999998 2.36717262 1.593949 0.656329 0.186549
26680 -2.5108793100000004 10.95840765 1.5506274600000003 1.820347 0.7500560000000001 -0.005338
26700 -3.63488949 9.524842920000001 -1.13388885 1.822331 0.901422 -0.297142
26720 -2.3104413900000003 8.5086054 -1.03314996 1.749672 0.549431 -0.387998
26740 -1.7304055200000004 8.582553180000001 -0.1588239 1.4886780000000002 -0.079221 -0.393288
26760 -0.73137474 7.74399438 0.71101899 1.306039 -0.661039 -0.4568430000000001
26780 -0.027389520000000004 6.474639240000001 0.52719921 1.231558 -0.939536 -0.543533
26800 0.22947552000000002 6.91681518 0.46298295 1.057949 -1.05421 -0.486914
26820 0.09460764 8.42044293 0.12109464000000002 0.7857029999999999 -0.937785 -0.328732
26840 0.20447964000000002 8.9105211 -0.7999368299999999 0.402287 -0.844505 -0.146727
26860 -0.07514459999999999 8.46713853 -1.23852231 -0.093888 -0.963691 -0.014376
26880 0.03891627 7.83949473 -0.7506906300000001 -0.398742 -0.763979 0.123176
26900 0.6554845799999999 8.14277088 -0.54037404 -0.662259 -0.943321 0.179249
26920 0.46807434000000003 9.59774103 -0.7095278700000001 -0.68595 -0.908422 0.263428
26940 -0.43649595 10.335708090000002 -0.5626819800000001 -0.465745 -0.6732640000000001 0.40567
26960 -1.12072383 10.31954121 -0.32213097 0.115927 -0.804423 0.466517
26980 1.63654344 10.62161073 0.0896634 0.7631439999999999 -1.008605 0.350591
27000 2.6798761800000004 12.066260760000002 -0.6987466800000001 -0.01923 -0.27783 -0.03503
27020 1.24855794 13.209881130000001 -2.61056853 -0.320202 -0.690565 -0.188291
27040 1.1249127 13.3845678 -1.8968517900000001 0.374527 -1.043787 -0.103937
27060 -0.87941745 13.240713959999999 0.30506157000000006 1.087225 -0.8499620000000001 0.090937
27080 0.33545295 12.852875610000002 3.7854828 1.32204 -0.6777449999999999 0.242975
27100 0.19130481000000002 9.4513464 6.9289403400000005 0.53417 -0.172872 0.14389000000000002
27120 -2.77777017 8.446184370000001 6.41057013 -0.839974 -0.857418 0.162942
27140 -4.145774670000001 11.712247290000002 3.15199224 -0.738574 -1.298889 0.186649
27160 -3.3988314600000002 13.36495761 1.1126403900000001 -0.207201 -0.6157060000000001 -0.092525
27180 -2.8497755700000003 14.93235036 0.44532495 0.039764 -0.322316 -0.149929
27200 -2.64260799 13.3005942 -0.12993344999999998 -0.286566 -0.016552 0.125138
27220 -0.36374499000000005 10.56951963 -0.83076966 -1.106735 0.7003739999999999 0.304361
27240 1.67516541 9.92001915 -1.0585971 -1.081194 0.426597 0.282458
27260 1.16981307 9.95295132 -0.64426194 -0.646332 0.497914 0.452046
27280 1.1533518900000002 8.58674205 -0.9217868400000001 -0.5101829999999999 0.754787 0.5648310000000001
27300 0.08517042 7.39926117 -1.3540841099999998 -0.792787 0.758 0.539352
27320 0.0026977500000000005 6.57657495 -0.6310871100000001 -1.191582 0.7373 0.467159
27340 -0.28755072000000004 5.74086105 -0.62749665 -1.532245 0.782647 0.34508
27360 -0.36374499000000005 4.37644701 -0.89438751 -1.46872 0.79143 0.224804
27380 -0.8782206300000001 4.20460524 -1.16787069 -1.214982 0.93988 0.177248
27400 -0.8827136099999999 3.99938004 -2.00882313 -1.137478 0.8988459999999999 -0.017643
27420 -1.1710197 4.67867349 -2.73796119 -1.1376620000000002 0.869925 -0.24407
27440 -0.7518874500000001 5.59012059 -3.56229549 -1.050312 0.974433 -0.347211
27460 -0.7262931600000001 7.922124360000001 -3.2956989300000004 -0.818108 1.028352 -0.446071
27480 -1.8688638600000003 11.775266730000002 -1.73878326 -0.6572720000000001 0.740135 -0.437101
27500 -3.496284 16.76424033 -0.95531742 -0.561786 0.39684 -0.184962
27520 -3.30797124 15.797700270000002 -4.4640208800000005 -0.5079199999999999 0.364446 0.1434
27540 -0.27093258000000003 12.451411170000002 -7.854768900000001 -0.659633 0.202557 0.266461
27560 2.14773273 9.38518776 -7.15662063 -0.4658479999999999 0.534474 0.210774
27580 0.90696393 10.936256670000002 -3.47187672 -0.225858 0.435022 0.364265
27600 -3.4247298600000002 13.967301420000002 0.29578131 0.020098 0.352029 0.392795
27620 -5.814955980000001 13.764773970000002 4.05880902 0.424317 0.123562 0.433299
27640 -4.05971154 10.531201770000001 2.26209771 0.902911 0.083312 0.493309
27660 -0.9660888000000001 9.52738371 -0.63498168 1.340931 -0.260272 0.255391
27680 0.4713705 8.49303693 -0.12484206 1.698641 0.051533 0.025686
27700 -0.49247181000000007 10.5563448 1.1021535 1.7417080000000005 0.6456770000000001 0.05834
27720 -0.96878655 10.063568880000002 1.9883104200000001 1.535056 0.945777 0.047966
27740 -2.7556191899999996 10.090664100000001 1.87424955 1.679446 0.833132 -0.145297
27760 -4.00716918 10.11565998 -0.5312409300000001 1.6482599999999998 0.802142 -0.360188
27780 -2.1980286 9.14088933 -0.40296537000000004 1.487076 -0.047971 -0.480933
27800 -1.51590006 8.17884225 -0.034276140000000004 1.39582 -0.457601 -0.526979
27820 -0.5194198800000001 6.67656828 0.8328690000000001 1.240521 -0.5902229999999999 -0.526826
27840 -0.05433759 5.8534308 1.01009646 1.120868 -0.823264 -0.486771
27860 0.08935929000000001 6.89675373 0.9026181 0.966719 -0.62383 -0.410123
27880 -0.19654335 8.62192071 -0.30565998000000005 0.620442 -0.6008859999999999 -0.253406
27900 0.004640130000000001 9.0636552 -1.08823311 0.264482 -0.636337 -0.137274
27920 0.14954364 8.35966998 -1.22265954 -0.106151 -0.578132 0.013886
27940 0.7939527300000001 8.02646352 -0.9424368900000001 -0.445859 -0.547635 0.140729
27960 1.1139843600000001 8.62087104 -0.9593591400000001 -0.6994199999999999 -0.637571 0.207439
27980 0.16600482 9.784248750000001 -1.2195105300000002 -0.688224 -0.450403 0.27778
28000 -1.1862840600000002 10.41504156 -0.26255484 -0.270887 -0.088935 0.363554
28020 -0.15178032 10.635678270000001 -0.18786150000000001 0.189229 -0.507033 0.358758
28040 2.7167029200000004 11.160346500000001 0.54097245 0.5442560000000001 -0.530876 0.15296500000000002
28060 2.43992358 11.90354229 -0.9886910400000001 -0.02034 -0.409429 -0.15771400000000002
28080 0.48918546 13.728398490000002 -2.3513098500000003 -0.329818 -0.8030109999999999 -0.29824
28100 -1.4705386200000001 14.15740941 -0.7478457300000001 0.24163 -1.028058 -0.192479
28120 -0.6786852300000001 13.65805098 0.6060912300000001 0.988227 -0.904592 -0.014371
28140 0.7982887500000001 12.04050951 3.5203773600000003 1.237696 -0.667957 0.265875
28160 1.40572395 9.911935710000002 6.38108127 0.6392260000000001 0.11262 0.319446
28180 -2.78914977 8.55156339 5.85492192 -0.655964 -0.060901 0.612928
28200 -4.752464310000001 10.16790804 3.59028342 -1.051769 -1.148732 0.469484
28220 -4.23454536 11.607466680000002 1.20230379 -0.37571 -0.7465229999999999 0.000469
28240 -2.681073 13.233081780000001 0.6454587600000001 -0.080343 -0.14335699999999998 -0.310162
28260 -2.067948 13.089826350000001 -0.15118191 -0.344329 0.38743 -0.151384
28280 0.35491599000000007 11.554924320000001 -0.53169219 -1.110966 0.8626450000000001 0.220802
28300 1.57277844 10.557992880000002 -1.0756665 -1.317719 0.7533270000000001 0.298546
28320 1.88233299 9.80416305 -0.7815234600000001 -0.876647 0.710924 0.396753
28340 1.6543584000000002 9.0810189 -1.08883152 -0.480999 0.8176220000000001 0.54359
28360 0.42796125 7.934700780000001 -1.4890991400000002 -0.56776 0.730615 0.532414
28380 -0.36688419000000005 6.96711105 -1.40452713 -0.8745569999999999 0.710878 0.406382
28400 -0.57674952 6.0444315 -0.81400437 -1.192678 0.53781 0.272991
28420 -1.04393115 4.96682262 -0.95396364 -1.242434 0.201038 0.086136
28440 -1.16293626 4.61400597 -1.5471841500000003 -1.0241209999999998 0.081092 0.055768
28460 -1.1752085700000001 4.30550109 -1.7823396599999999 -0.923438 0.198867 0.08623
28480 -1.3049850600000001 4.627779210000001 -2.0243916 -0.959973 0.282471 -0.010272
28500 -1.3358178900000002 5.22218673 -3.5352002700000003 -0.986843 0.321536 -0.165402
28520 -1.2064926599999997 7.05557763 -2.75771853 -1.02379 0.243501 -0.332203
28540 -1.4687433900000002 9.83425032 -2.95156413 -0.931964 0.132905 -0.459606
28560 -1.99624671 14.181208470000003 -1.77725808 -0.7918569999999999 0.080845 -0.349602
28580 -2.2703283 16.62487947 -1.65330873 -0.7778430000000001 0.0005070000000000001 0.014862
28600 -0.24009975 13.16497095 -6.63240366 -0.666928 0.190004 0.215152
28620 1.8660189600000001 11.829005910000001 -8.239919310000001 -0.472201 0.527112 0.192579
28640 2.141591670000001 10.480160340000001 -5.68412982 -0.24653200000000006 0.69234 0.235604
28660 -0.85008555 13.17425121 -2.7562176 0.046707 0.387954 0.443141
28680 -4.4779412700000005 14.328652770000001 0.9036677700000001 0.454124 0.391724 0.4790970000000001
28700 -6.215527710000001 11.37230136 3.7314395100000004 0.861497 0.263892 0.392376
28720 -4.43692566 10.475216099999999 2.08052442 1.344911 0.009795 0.114067
28740 -1.49449464 8.666830890000002 -0.44008641 1.605294 -0.044213 -0.191692
28760 -1.3651596 7.015611689999999 -0.2576106 1.476892 0.376898 -0.162151
28780 -1.54194561 9.24731802 1.6962765300000002 1.56938 0.707206 0.005783
28800 -1.7289045900000002 10.681932419999999 2.64260799 1.751581 0.715801 -0.17028
28820 -3.0539511 11.042832510000002 1.18987452 1.7263400000000002 0.5772229999999999 -0.391401
28840 -2.9336020200000004 9.919872000000002 -1.34105643 1.612249 0.038906 -0.470556
28860 -1.43850897 8.73523602 -1.4552742600000002 1.398592 -0.26500100000000004 -0.475932
28880 -0.30402171 7.67648196 -1.15364619 1.333633 -0.252996 -0.491356
28900 1.0093509 6.99525594 -0.13501503 1.168029 -0.243082 -0.429501
28920 1.3931573400000001 6.82954542 0.21345579 0.953624 -0.124531 -0.32005500000000003
28940 1.4934449699999999 7.60508478 -0.25102809000000004 0.566976 -0.315508 -0.178301
28960 0.82912158 8.66023857 -1.4124634200000001 0.17590999999999998 -0.330587 -0.064577
28980 0.06137136000000001 9.57049866 -1.8173711700000001 -0.176432 -0.270187 0.054661
29000 0.33755229 8.97743511 -1.77291225 -0.534311 -0.308621 0.119509
29020 0.36539307000000004 7.85177685 -1.38656502 -0.733113 -0.616897 0.128129
29040 0.2891988000000001 7.586073 -0.83676357 -0.768301 -0.637977 0.102273
29060 -0.17977806 8.37942732 -0.6277909500000002 -0.4249 -0.55229 0.220998
29080 -0.06945480000000001 9.102865770000001 -0.49741605 0.154085 -0.598101 0.252875
29100 -0.33739533 10.478061 0.7544282400000001 0.462348 -0.5261319999999999 0.103248
29120 0.30476727000000003 11.514801420000001 1.34734464 -0.151607 -0.384606 -0.12448
29140 0.7369173900000001 12.632984460000001 -0.28441152000000003 -0.352654 -0.872281 -0.271606
29160 0.24519114 13.811930640000002 -1.13763627 0.587609 -0.766917 0.002951
29180 -1.0788057 14.647340430000002 -0.33170553 1.1776879999999998 -0.759229 0.232457
29200 -0.56582118 14.12313327 1.38027681 1.527717 -0.258619 0.478884
29220 0.5104339200000001 12.064759830000002 4.419405 0.279233 0.069966 0.375738
29240 0.3617928 10.025996580000001 6.65770365 -0.98736 -0.8124819999999999 0.241972
