time Ax Ay Az Gx Gy Gz
20 -0.9862974000000001 16.778013570000002 1.0264203 -0.496366 -0.12678399999999998 0.16761099999999998
40 -0.5936619599999999 18.023422500000002 2.25970407 -0.462822 0.167309 0.119398
60 0.5263065 10.521018990000002 2.1604563000000003 -0.489953 0.052404999999999986 0.106537
80 -0.42556761000000004 7.54670547 1.21427199 -0.5712189999999999 -0.212617 0.119128
100 -0.84619098 7.874379090000001 1.71063837 -0.530566 -0.466129 0.07807599999999999
120 -0.9029222100000001 9.53187669 1.95014952 -0.484482 -0.663342 0.072241
140 -1.0118916900000001 10.736721270000002 1.39779747 -0.4722020000000001 -0.735999 0.116217
160 -1.58624757 11.428885440000002 0.13965516000000006 -0.497929 -0.464511 0.177647
180 -0.2555210700000001 10.408007790000001 -1.22775093 -0.523338 0.054366 0.177873
200 0.57330621 9.88813665 -1.3308834600000001 -0.433319 0.494509 0.054024
220 0.97402509 9.57049866 -1.04003658 -0.206241 0.372615 -0.029692000000000007
240 1.22550444 9.06215427 -0.87268779 -0.077052 0.114537 -0.071188
260 1.10874582 9.11993517 -0.90636552 -0.060308000000000014 0.071747 -0.041106
280 0.37422207 9.13565079 -0.66251835 -0.051976 -0.193605 -0.023616
300 -0.16839846000000003 8.99779086 -0.25776756 0.241334 0.127628 -0.157643
320 -0.24519114 9.15960681 -0.4281084 0.480754 0.469782 -0.148931
340 -0.37766538 9.61780248 -0.8872065900000001 0.675707 0.379724 -0.17415999999999998
360 -0.42032907 9.663752520000001 -1.8037450800000001 0.908585 -0.144738 -0.289366
380 -0.45714600000000005 9.568252170000001 -2.718351 1.150143 -0.7253350000000001 -0.493101
400 -0.66057597 9.66106458 -3.294198 1.321342 -1.043678 -0.684845
420 -0.48962690999999997 10.11985866 -2.75277429 1.397767 -0.858834 -0.8885790000000001
440 -0.38051028000000003 10.413844740000002 -1.47772935 1.3420530000000002 -0.733762 -0.948949
460 -0.56627244 10.28765871 0.07739109000000001 1.202431 -0.960098 -0.96993
480 -1.00186587 10.95092262 0.70323966 1.424108 -1.0183719999999998 -0.974716
500 -0.8309266200000001 11.97449802 0.63438327 1.073046 -0.962983 -0.669592
520 -0.08322804 12.242291400000001 0.48155328000000003 0.625846 -0.919035 -0.350169
540 -0.17094906 10.976369759999999 1.31172453 0.272588 -0.8583879999999999 -0.025838
560 -1.3614219900000002 9.406141920000001 1.62097497 0.052743 -1.059057 0.26344
580 -1.8691581600000002 8.06612535 0.9128008800000001 0.012871 -1.065638 0.345423
600 -1.8332339400000002 7.52500575 -0.14983794 -0.041844 -0.880152 0.360826
620 -1.5486752700000002 7.978561290000001 -1.1422764000000003 -0.112753 -0.765868 0.347366
640 -2.15791551 9.405239400000001 -1.79926191 -0.160081 -0.627165 0.334039
660 -2.7137108700000003 10.2785256 -1.7920711800000002 -0.187791 -0.599456 0.355174
680 -2.66521023 10.3883976 -1.93322727 -0.240436 -0.619761 0.41679
700 -2.0430992700000004 11.299256100000001 -2.87641953 -0.31550500000000004 -0.6548579999999999 0.467585
720 -0.97477065 10.812317129999998 -2.70532332 -0.413867 -0.6409090000000001 0.527768
740 -0.7113231000000001 10.20966921 -1.98247347 -0.51951 -0.582206 0.5910489999999999
760 -1.0065060000000001 9.875717190000001 -1.4733835200000003 -0.6281770000000001 -0.5031760000000001 0.635054
780 -1.3666605300000003 9.35225559 -0.26734212 -0.7474930000000001 -0.496239 0.602165
800 -1.5925357800000002 8.403824790000002 -0.01482291 -0.821459 -0.486855 0.451017
820 -2.1323114100000007 7.914345030000001 -0.38410074000000005 -0.663787 -0.387979 0.363329
840 -2.3992120800000003 7.9077527100000005 -0.9533652300000001 -0.283739 -0.398638 0.301904
860 -2.7982828800000004 8.33661648 -1.48236948 -0.05451 -0.219309 0.278706
880 -2.9473752600000003 8.88342588 -1.9904097600000001 0.13081900000000002 -0.13121300000000002 0.198703
900 -2.81070234 9.26288649 -2.1754263600000003 0.39233 -0.231746 0.071404
920 -2.7241879500000006 9.15765462 -2.23784739 0.461194 -0.091412 0.082387
940 -2.4679213200000003 9.12861702 -2.05596999 0.216876 -0.219898 0.190872
960 -2.11375089 9.30839508 -1.7351927999999999 -0.082605 -0.485732 0.329058
980 -2.24428275 9.46332441 -1.37175192 -0.426058 -0.320008 0.474929
1000 -2.43992358 9.45284733 -1.061442 -0.6943590000000001 0.16300599999999998 0.59635
1020 -3.17684097 9.315576 -0.79589511 -0.690938 0.17061800000000002 0.554703
1040 -3.39478974 10.289306790000001 -0.5641731000000002 -0.511841 -0.237446 0.415472
1060 -3.0979587600000005 10.447071209999999 -0.7833186900000001 -0.373214 -0.585888 0.319679
1080 -3.0743068500000006 10.140067259999999 -1.85045049 -0.348631 -0.377025 0.281127
1100 -3.22100559 9.860590170000002 -2.74724145 -0.432019 0.045174 0.266116
1120 -2.81653929 9.402247350000001 -3.5194846500000003 -0.5694739999999999 0.345961 0.290408
1140 -1.79970336 8.92563831 -3.6119929500000003 -0.64503 0.35170100000000004 0.252485
1160 -0.8937891 8.71637139 -2.5607239200000005 -0.687376 0.154904 0.219327
1180 -0.63632565 9.30435336 -1.07102637 -0.65437 -0.301284 0.253257
1200 -0.6575839200000001 9.962535690000001 0.7726944600000001 -0.555863 -0.635309 0.31633
1220 -0.68812245 10.21206285 1.69147944 -0.476002 -0.606017 0.380943
1240 -1.4100697800000002 10.27522944 1.08329868 -0.413208 -0.348657 0.435532
1260 -2.29068405 10.10833191 -0.7438040100000001 -0.33434 -0.13691199999999998 0.428334
1280 -1.8805377600000002 9.661810140000002 -1.9862208900000002 -0.26082 0.031338 0.380561
1300 -0.9512757000000001 9.35659161 -1.6367004000000003 -0.200543 0.105873 0.33709
1320 -0.28410741 9.2202228 -0.32018859000000005 -0.116084 0.102553 0.294955
1340 0.16165899 9.25630398 0.58184091 -0.02361 0.176085 0.207913
1360 0.20956122 9.537419340000001 0.93435345 0.038275 0.315818 0.108821
1380 0.26389881000000004 9.683509860000001 1.01578626 0.069492 0.352032 0.083356
1400 0.18695898 9.69488946 0.6216597000000001 0.09437 0.370285 0.025822
1420 0.5126804100000001 9.891128700000001 0.28425456 0.079151 0.324463 0.042866
1440 0.6245046000000001 10.372681980000001 -0.22184334 0.04991 0.23293000000000005 0.04812
1460 0.44038071 11.06349237 -0.265851 0.017611 0.141535 0.021306
1480 0.17693316 10.65829032 -0.022749390000000005 -0.023528 0.033983 0.046794
1500 -0.16825131000000002 10.493178210000002 0.01272357 -0.06436599999999999 -0.018129 0.060462
1520 -0.15297714 10.24155171 -0.00913311 -0.097617 -0.053184 0.06454800000000001
1540 0.09504909 10.09096821 0.09475478999999999 -0.136956 -0.038073 0.049299
1560 -0.14564907000000002 9.81733788 -0.16944813 -0.172966 0.007912 0.036169
1580 -0.11705292 9.755966520000001 -0.18800865000000003 -0.193107 0.01022 0.00932
1600 0.09684432000000001 9.88155414 0.03907323000000001 -0.17883 0.03918 -0.052574
1620 0.23291883000000002 9.881397179999999 0.17543223 -0.215396 0.014644 -0.012206
1640 0.42781410000000003 9.942327090000001 0.31180104000000003 -0.223787 0.022229 -0.036843
1660 0.59935176 9.998155800000001 0.34802937000000006 -0.228791 0.077714 -0.055109000000000005
1680 0.64950048 9.787996170000001 0.36823797 -0.24032 0.115073 -0.063783
1700 0.52750332 9.85190832 0.45834282000000004 -0.246371 0.173762 -0.083128
1720 0.53603802 10.056682259999999 0.6203059200000002 -0.249792 0.120527 -0.087357
1740 0.38500326000000007 9.89756406 0.61102566 -0.251744 0.175868 -0.072486
1760 0.22363857000000004 9.83769363 0.64575306 -0.212833 0.285465 -0.074492
1780 0.19623924 9.74848149 0.64950048 -0.20368 0.401634 -0.095941
1800 0.23081949000000002 9.6796251 0.61282089 -0.249519 0.255517 -0.012753
1820 0.27707364 9.832150980000002 0.60893613 -0.27089 0.273599 0.012712
1840 0.14893542 9.94995927 0.42841251 -0.294939 0.388708 0.018806
1860 0.06840513000000001 9.790988220000001 0.38245266 -0.26633 0.33962600000000004 0.013728
1880 -0.0928026 9.80954874 0.24519114 -0.144885 0.294481 0.009293
1900 -0.21854718 9.830502899999999 0.29668383 0.039946 0.318474 -0.02363
1920 -0.045351630000000004 9.740241090000001 0.39113451 0.296999 0.418208 -0.145876
1940 -0.47945394 9.921372930000002 0.15687171 0.614102 0.311218 -0.304825
1960 -0.22393287 9.65387385 0.10269108 0.968334 0.149798 -0.470923
1980 -0.21929274 9.72557514 -0.18351567000000002 1.285542 0.103379 -0.592562
2000 -0.19774017000000002 9.977800049999999 -0.56687085 1.519228 0.035757 -0.667755
2020 -0.14998509000000002 10.166259960000001 -0.92642697 1.652075 -0.403248 -0.754927
2040 -0.11121597 10.173146580000001 -0.93869928 1.985675 -0.899025 -0.937832
2060 0.07574300999999999 10.15862778 -1.1573936100000002 1.966813 -1.310106 -0.950256
2080 0.41493357000000003 10.111775220000002 -1.3102235999999998 1.815693 -1.597619 -0.847325
2100 1.2597805800000001 10.76231556 -0.9767228400000001 1.580486 -0.7795340000000001 -0.632099
2120 1.3721933700000002 11.63949633 -0.5170262400000001 1.034174 -0.6311680000000001 -0.232317
2140 1.00501488 11.703114180000002 -0.00359046 0.8640399999999999 -0.960776 0.024358
2160 0.43484787 11.200753890000001 0.22408002000000002 0.8257959999999999 -1.332691 0.090797
2180 -0.36059598 10.671906600000002 0.50804028 0.808515 -1.3837469999999998 0.086469
2200 -1.00456362 10.38899601 0.7318260000000001 0.741658 -1.256937 0.13391
2220 -1.5175481400000002 9.99262296 0.70293555 0.690631 -1.116544 0.233786
2240 -2.3352901200000002 9.32934924 0.59905746 0.614157 -0.969554 0.304634
2260 -2.89887462 9.078919560000001 0.15313410000000002 0.526307 -0.80735 0.310222
2280 -2.5611751800000007 8.88447555 -0.28829628 0.379986 -0.611867 0.30254000000000003
2300 -1.2404745000000001 10.03438413 0.2576106 0.230218 -0.6530859999999999 0.350685
2320 -0.34503732000000004 11.400446250000002 0.4858893000000001 0.091754 -0.772183 0.417169
2340 0.48334851000000006 12.082123529999999 -0.6679138500000001 -0.106181 -0.864303 0.449019
2360 -0.11360961 11.0157471 -0.30416886 -0.376189 -0.886783 0.443957
2380 -1.16652672 10.08797616 -0.7951495500000001 -0.625508 -0.845303 0.410116
2400 -1.69417719 9.561816810000002 -0.84873177 -0.64166 -0.872965 0.41538
2420 -1.8100332900000002 9.1160406 -0.83436012 -0.311652 -0.566226 0.410882
2440 -1.7330934600000003 9.103169880000001 -0.89498592 0.111336 -0.240569 0.389919
2460 -2.0011909500000002 8.97743511 -1.13568408 0.434703 -0.498257 0.348711
2480 -1.84162149 8.645719770000001 -1.36530675 0.5623100000000001 -1.076042 0.33966
2500 -1.68174792 8.33018112 -1.8049419 0.407515 -1.514628 0.396825
2520 -1.90957536 8.12165976 -2.1891996000000002 -0.117622 -0.5468689999999999 0.463488
2540 -1.87111035 8.22569481 -2.09743686 -0.791913 0.02712 0.563796
2560 -1.9432629 8.03589093 -2.1333610800000002 -0.957979 -0.404646 0.5236649999999999
2580 -2.030228550000001 7.547009580000001 -2.39846652 -0.699724 -0.8318959999999999 0.318781
2600 -2.131713 7.2673853400000015 -2.8379447100000004 -0.512742 -1.120783 0.206158
2620 -2.021841 7.5040417800000005 -3.48983883 -0.717619 -0.6227090000000001 0.236135
2640 -1.5715816200000001 8.86995675 -4.34336769 -0.985337 0.113232 0.242936
2660 -1.7419322700000002 10.398727530000002 -5.178630330000001 -1.065161 0.598342 0.20971
2680 -2.02049703 10.40621256 -5.68173618 -0.940062 0.921648 0.235807
2700 -2.47315986 9.477990360000002 -6.023173229999999 -0.8506969999999999 0.658091 0.266679
2720 -1.12924872 8.63434017 -4.82851143 -0.643622 0.013758 0.313817
2740 -0.61582275 9.70117767 -2.57748921 -0.512839 -0.032716 0.367133
2760 -0.51837021 11.036848410000001 0.55190079 -0.6009979999999999 0.31053600000000003 0.385305
2780 -0.11720988 10.608435900000002 2.93898771 -0.568264 0.350329 0.262637
2800 -0.7220944800000001 9.52065405 2.6274907800000005 -0.5381779999999999 0.09376 0.195878
2820 -1.53610866 9.39566484 -0.34802937000000006 -0.445874 -0.122404 0.094251
2840 -0.10882233000000001 9.56930184 -1.7425306800000002 -0.373375 -0.135432 0.092637
2860 1.3873105800000003 9.57064581 -1.24091595 -0.382699 -0.07255199999999999 0.09356
2880 0.9443890800000001 9.60716844 -0.38814245999999997 -0.359945 0.029537 0.118157
2900 -0.03907323000000001 9.98109621 0.3153915 -0.371278 0.132853 0.131832
2920 -0.30177522 9.855655740000001 0.90082287 -0.389405 0.130803 0.127435
2940 0.16286562000000002 10.37043549 1.00681011 -0.387659 0.034960000000000005 0.117956
2960 0.68796549 11.10166308 0.08846658 -0.380651 -0.071575 0.113869
2980 1.17789651 11.089989180000002 -0.67449636 -0.363366 -0.014149 0.12353
3000 1.1719124099999998 10.434200490000002 -0.93719835 -0.26912 0.306159 0.12698299999999998
3020 0.51523101 10.14769944 -0.7670046600000001 -0.03012 0.782578 0.125905
3040 0.04056435 9.934243649999999 -0.5477119200000001 0.366158 1.084952 0.08983
3060 0.28141947 9.65776842 -0.09176274 0.730522 0.908164 0.028508
3080 0.38335518 9.402100200000001 -0.03622833 1.222813 0.465592 -0.27727
3100 0.27377748 9.1940301 -0.16420959 1.817503 0.337546 -0.738697
3120 -0.04565574000000001 9.22770783 0.030391380000000003 2.313759 0.206407 -1.140987
3140 -0.12618603 9.230101470000001 0.04491018000000001 2.872951 0.219337 -1.395607
3160 -0.11032326000000002 9.08550207 -0.1704978 2.590097 -0.8667790000000001 -1.266937
3180 -0.03023442 9.199268640000001 -0.62075718 2.468384 -1.3510950000000002 -1.257552
3200 0.19788732 9.56361204 -1.34630478 2.034031 -0.978568 -1.333703
3220 0.45355554 9.977054490000002 -2.24966844 0.953592 -0.5522520000000001 -0.981805
3240 0.8256782699999999 10.13542713 -2.91728799 1.182564 0.046898 -0.764124
3260 0.6271925400000001 10.58478399 -2.78630487 1.32731 -0.237097 -0.731771
3280 -0.09580446000000001 11.157648750000002 -1.5497249400000002 1.155098 -0.479756 -0.638659
3300 -1.51006311 12.34003824 -0.3094074 0.876016 -0.2768 -0.535115
3320 -3.03957945 12.59405838 0.10463346000000001 0.597368 0.237305 -0.454399
3340 -3.1889661300000003 11.333826540000002 -0.12888378 0.30742800000000003 0.64055 -0.345846
3360 -2.3623853400000003 10.202184180000001 -0.8297199900000001 -0.07155800000000001 0.784887 -0.14892
3380 -2.0131591500000003 10.592121870000001 -0.37751823000000007 -0.422354 1.002738 0.021402
3400 -2.9791008000000003 12.20412069 1.1837432700000001 -0.56388 0.993059 0.166772
3420 -4.2887358 13.282033680000001 2.2053664800000004 -0.651312 0.8757469999999999 0.275271
3440 -4.23454536 12.340940759999999 -0.6479995499999999 -0.761606 0.801499 0.290619
3460 -2.2709267100000003 11.18728476 -1.06548372 -1.031232 0.809175 0.469255
3480 -0.67030749 11.236687920000001 -0.25237206 -1.250873 0.834572 0.701629
3500 -1.4123162700000003 10.81949805 -1.2650191200000003 -1.3468790000000002 0.8488209999999999 0.950904
3520 -2.3932279800000003 8.47732131 -0.9253773000000001 -1.019364 0.997158 0.8675440000000001
3540 -3.0198221100000002 7.79788071 -1.17610128 -0.311868 1.376359 0.26418200000000003
3560 -2.48468661 6.9030419400000005 -1.20963186 0.514524 0.979458 -0.030776
3580 -2.01570975 5.8594149 -1.2840309 0.8620459999999999 0.7361979999999999 0.028579000000000007
3600 -1.86032916 5.55375492 -1.2190690800000001 0.6570819999999999 -0.473258 0.031902
3620 -1.90732887 5.799387510000001 -1.17401175 0.359345 -1.3854879999999998 -0.153811
3640 -1.39555098 5.99967828 -1.44824049 0.127382 -0.8708229999999999 -0.253299
3660 -1.43805771 6.05775348 -2.02648113 -0.001039 -1.068918 0.112458
3680 -1.89026928 5.594760720000001 -2.63617263 0.8512190000000001 -1.55129 0.389289
3700 -2.5352767800000002 5.2750332 -3.6013589100000005 -0.028661 0.34081100000000003 0.310216
3720 -2.59200801 5.55105717 -4.42284831 -1.364206 0.771933 0.214877
3740 -2.59695225 6.515497890000001 -5.313949470000001 -1.457576 0.487525 0.290433
3760 -3.11082948 7.79084694 -6.17346243 -0.248622 -0.044574 0.439496
3780 -4.58661645 10.324475640000003 -7.59879657 -0.166216 1.936668 0.942802
3800 -4.7461761000000005 14.375211030000001 -8.9335746 -1.0439969999999998 2.79798 1.028502
3820 -4.04967591 15.18262308 -8.085588390000002 -1.17792 1.551701 0.855044
3840 -5.60284416 13.22485119 -6.884334270000001 -0.793752 0.157783 0.390564
3860 -7.4989602 13.66178859 -6.09113691 -0.5920300000000001 0.486909 0.227045
3880 -5.9180885100000005 17.71535907 -2.72493351 -0.837356 1.102977 0.354865
3900 -2.65397778 14.49884646 0.31868766000000004 -1.334871 1.445931 0.5357529999999999
3920 1.5527169900000002 4.11928767 0.36778670999999996 -1.752607 1.596355 0.576439
3940 0.9484308 0.9749178000000001 0.6740451000000001 -1.29435 1.340733 0.4346890000000001
3960 -0.27647523 2.12902506 1.40153508 -1.111129 0.941014 0.336069
3980 0.6822855 5.689074060000001 2.37211686 -1.148046 1.281995 0.344988
4000 1.1461709699999998 13.676307390000002 -2.6755401600000006 -1.309662 1.459174 0.399179
4020 1.4579720100000002 15.4989171 -4.559668379999999 -1.442831 1.773756 0.433097
4040 0.8039785500000001 11.078462430000002 -0.9128008800000001 -1.61456 2.054384 0.46679
4060 -1.7248628700000002 7.92467496 0.8038314000000001 -1.776584 2.0540130000000003 0.433612
4080 -2.4801936300000005 7.873182270000001 -1.03180599 -1.7787580000000005 1.303121 0.40358
4100 -1.57172877 10.03917141 -2.9536536600000005 -1.500991 0.24946 0.454941
4120 -0.22947552000000002 10.653944489999999 -1.97379162 -1.415259 0.405471 0.52691
4140 0.6116240700000001 9.55612701 -0.7511418900000002 -1.279579 1.609919 0.5038819999999999
4160 1.2611245500000001 8.100852750000001 1.13912739 -0.858675 1.975838 0.273481
4180 0.9560629800000001 8.97473736 1.39450131 -0.411995 1.76602 0.142274
4200 0.44053767000000005 9.68725728 0.55309761 0.008471 1.50164 0.092138
4220 0.37272114 9.54550278 -0.08547453 0.33223600000000003 1.717296 -0.039404
4240 0.6453116099999999 8.920095660000001 -0.08172711 0.508479 1.6616959999999998 -0.140651
4260 0.9961760700000001 8.59917132 0.25866027 0.842203 1.266825 -0.249977
4280 1.2406216500000002 8.40936744 0.40521186000000003 1.6434540000000002 1.898102 -0.569929
4300 0.89888049 8.737629660000001 0.94752828 2.28475 3.265171 -0.406968
4320 1.1066464800000002 9.01006317 0.89648685 2.6610720000000003 3.253105 -0.113768
4340 0.7174543500000001 9.5236461 1.05350571 2.749954 0.037544 -0.317329
4360 0.8469365400000001 10.21550616 -0.54666225 2.759839 -1.401583 -0.873028
4380 0.7446967200000001 10.02061089 -2.2698770400000003 2.616714 -1.461817 -1.136733
4400 0.48708612000000007 10.415787120000001 -2.54710764 2.807664 -2.389381 -1.108574
4420 0.96219423 11.1227742 -0.9729754200000001 3.683666000000001 -2.714782 -1.212065
4440 0.46134468 11.54144538 -1.66064661 3.247001 -0.888425 -1.218523
4460 -0.10733121 11.710452060000001 -1.8119854800000001 1.6289129999999998 0.372375 -0.760355
4480 -0.63842499 11.26857042 -0.9196875 1.555544 0.090841 -0.621638
4500 -0.85277349 10.938807270000002 -1.15065414 1.414136 -0.23162 -0.5784159999999999
4520 0.020355750000000002 10.92398436 -2.2957754400000003 1.184576 0.177394 -0.366899
4540 1.3739886 12.533285430000001 -0.15777423000000002 0.8811530000000001 0.5312720000000001 -0.155827
4560 0.28261629000000005 14.636117790000002 2.58886881 0.53689 0.549858 0.023342
4580 -1.97843175 14.659465590000002 2.75920965 0.318313 0.454186 -0.104113
4600 -5.09061501 11.30389623 1.77291225 -0.025710000000000004 0.197342 0.221758
4620 -5.39119341 11.10331116 5.60075463 -0.420389 0.275277 0.521208
4640 -2.80606221 12.42805356 3.9005933400000004 -0.951339 0.401689 0.803621
4660 -0.03622833 13.8761469 1.09602225 -1.554998 0.505929 1.099441
4680 1.2451146300000002 15.15748005 -0.20447964000000002 -2.139363 0.562437 1.327091
4700 -0.69200721 13.10494356 -2.6728424100000003 -2.335428 0.766938 1.238933
4720 -2.6414111700000005 8.86680774 -2.32332192 -1.200141 0.548669 0.760034
4740 -1.82889792 7.756570800000001 -0.39323385000000005 1.307456 1.946234 -0.061728
4760 -0.9274668300000001 7.5181191300000005 0.63093996 2.115463 1.922541 -0.165012
4780 -0.43769277 7.20780921 0.43993926 1.973368 -0.950937 0.331196
4800 -0.45654759 6.497692740000001 -0.49846572000000006 0.559954 -1.960782 0.215795
4820 -0.6944106600000001 5.76884898 -1.10260476 -0.290515 -2.380141 0.064046
4840 -1.3892627700000002 4.1412915 -1.22251239 -0.964768 -1.334408 -0.324427
4860 -0.5288472900000001 5.15902014 -1.20978882 0.510163 0.807399 -0.421555
4880 -1.0904796 4.47539067 -2.13845247 0.286597 -0.520696 0.760038
4900 -1.40856885 3.6110904300000004 -2.51731467 0.453205 1.246592 0.350877
4920 -1.68759468 3.7277019 -3.4645486500000002 -1.539407 0.594929 -0.389666
4940 -1.02446811 4.0899459600000005 -4.747078620000002 -0.876969 -2.191505 -0.7788470000000001
4960 -0.79769034 5.21770356 -5.435495370000001 -0.8853790000000001 0.896236 0.149696
4980 -2.55414141 8.44738119 -7.21409742 -2.22595 3.884124 1.362822
5000 -3.3132097800000007 19.36163403 -9.37036485 -2.488989 2.987234 1.306586
5020 -3.57531336 22.33759563 -7.838749170000001 -1.779394 0.583631 0.777307
5040 -4.9175764200000005 9.330094800000001 -12.025245150000002 -1.620919 1.182844 0.774442
5060 -2.83719915 0.86221071 -9.883496520000001 -2.021202 1.79805 0.719583
5080 -1.9745469900000003 4.243227210000001 -4.2858909 -1.929339 1.80833 0.467043
5100 -0.8211951000000001 12.464880299999999 -0.37721412000000004 -1.7326290000000002 1.803762 0.373351
5120 0.7319731500000001 23.34186495 7.294029300000001 -1.486357 2.055048 0.189947
5140 3.52696968 15.86251494 2.24083944 -1.4014 2.6111020000000003 0.121461
5160 1.22385636 4.13724978 -0.41748417 -1.4692379999999998 2.726321 0.137931
5180 -2.61192231 3.10993677 5.420378159999999 -1.349935 1.699122 0.102693
5200 -3.8100274200000004 8.124504660000001 -4.035157110000001 -1.26635 0.736205 0.007303
5220 0.7105677300000001 16.60541643 -6.00820317 -1.59216 0.686044 0.046752
5240 4.83734043 13.81985712 2.71594755 -1.831639 1.871028 0.154656
5260 1.53790389 9.3762018 3.0717660600000003 -1.29439 2.2334080000000003 -0.090952
5280 -1.4245885800000002 9.59429772 -0.283509 -0.412101 1.298024 -0.304712
5300 -0.31120263000000004 8.825497830000002 -0.8385588 -0.033693 1.33874 -0.424967
5320 0.17573634 8.448136560000002 -0.91160406 0.280027 1.37059 -0.403588
5340 -0.18860706000000002 7.970026590000001 -0.18606627000000003 0.5791970000000001 1.371115 -0.261562
5360 0.15178032 8.02361862 0.04475322 1.436534 1.313524 -0.455257
5380 0.63273519 7.92601893 0.0056898 2.365044 2.200328 -0.584504
5400 1.28702295 8.09456454 -0.03562992 2.848327 2.864945 0.08993200000000001
5420 1.77051861 8.665329960000001 0.40670298000000005 3.06696 0.960484 0.103513
5440 1.26786402 8.72729973 0.2228832 3.318756 0.894789 -0.202292
5460 1.29840255 8.742122640000002 0.05463189 3.118292 2.323993 -0.461897
5480 1.31665896 9.23384889 -1.3392612000000002 3.2480130000000003 2.281771 -0.405389
5500 1.3130685 10.213710930000001 -3.75882903 2.382766 -1.560352 0.262198
5520 0.96280245 10.65918303 -3.3036254100000004 2.682218 -3.744481 -0.18477
5540 1.5618501 10.312203330000001 -1.92229893 2.519464 -2.602393 -0.337989
5560 2.6693991 10.33929855 -0.21225897000000002 1.990481 -0.794148 0.0021030000000000003
5580 2.72358954 10.24604469 -0.38979054 1.802941 -0.809095 0.172795
5600 0.35939916000000005 11.182791779999999 -0.86355468 1.912267 -1.062496 0.044629
5620 -0.9949792500000001 13.055403060000002 -2.06615277 1.611699 -0.611542 -0.046711
5640 2.02484286 12.16984455 0.9178922700000001 1.220699 -0.198134 0.005576
5660 1.4256382500000002 14.950459620000002 4.28005395 0.725299 -0.308035 0.212696
5680 -3.7567395 16.11907587 2.19967668 0.184048 -0.437913 0.393884
5700 -8.43855219 12.015817740000001 1.7378905500000001 -0.269615 -0.6061989999999999 0.513777
5720 -6.760090620000001 13.41869679 3.06532089 -0.68509 -0.62426 0.595287
5740 -2.65278096 14.612014620000002 1.6347482100000001 -1.170865 -0.3832 0.67277
5760 -1.1054496600000001 15.78677193 -0.50131062 -1.684726 0.083534 0.815997
5780 0.05239521 13.930925940000002 0.12139875000000001 -2.316606 0.703823 1.022296
5800 0.12169305 12.03437826 -1.47173544 -2.5299720000000003 0.999425 1.077043
5820 0.19863287999999998 10.318197240000002 -1.57277844 -1.289093 0.331115 0.630436
5840 -0.07380063 9.32635719 -0.018707670000000003 1.26324 1.256532 -0.172248
5860 -1.3966006500000003 7.8115068 1.53819819 2.068063 0.12901300000000002 0.043122
5880 -1.34525511 6.3162666000000005 0.9547190100000001 1.888287 -2.778807 0.103277
5900 -1.0645910100000002 4.73405094 -0.7857123300000001 0.621104 -2.679727 0.133823
5920 -0.5858826300000002 4.475989080000001 -1.2927127500000002 -1.119492 -1.453568 0.03784
5940 -0.5683717800000001 4.3004097 -1.83308679 -1.106024 1.582154 -0.161441
5960 -0.61642116 3.8242519200000005 -2.03441742 0.655728 0.115347 0.688095
5980 -1.13868594 3.3235397100000004 -1.8015084000000001 0.232627 -0.159591 0.546623
6000 -1.54807686 3.2793849000000006 -1.79776098 -1.21149 0.925056 -0.380321
6020 -1.2705617700000003 3.5127451800000005 -2.36582865 -1.94535 -0.305547 -0.224705
6040 -0.88481295 3.8369754900000004 -3.6727659000000004 -0.344562 -1.114505 -0.177235
6060 -1.7302485600000002 3.90119175 -5.0569372800000005 -2.089602 3.2076 0.731186
6080 -3.28221999 6.245458020000001 -6.39081279 -2.841327 4.42618 1.139912
6100 -2.3842420200000003 16.016688900000002 -10.697500889999999 -2.30261 2.449428 0.839628
6120 -2.20865283 30.669120720000002 -9.18909567 -1.221618 0.8412379999999999 0.6078210000000001
6140 -4.07557431 16.97949135 -9.4485015 -1.480751 1.082876 0.345055
6160 -3.8871144 3.1600756800000003 -11.59833357 -1.75345 1.171203 0.337696
6180 -2.03800788 4.51625913 -5.73741774 -1.719026 1.425869 0.291677
6200 0.41822973 12.18376494 0.03981879 -1.819697 1.994247 0.232561
6220 1.64717748 20.029547880000003 9.23250492 -1.909995 2.26111 0.174973
6240 2.4900723 10.899135630000002 0.7517402999999999 -1.853556 1.653082 0.065051
6260 -0.79005816 1.71768195 0.61611705 -1.459782 0.597595 -0.060101
6280 -0.9994722300000001 4.2861852 4.17377241 -1.344354 -0.278577 -0.031466
6300 -2.3915799 9.49221486 -1.53730548 -1.427922 -0.032556 0.055228999999999986
6320 2.0658584700000002 18.676209330000002 -5.910456330000001 -1.7219060000000002 1.732578 0.050914
6340 3.74012136 11.494896930000001 1.53730548 -1.165944 2.228031 -0.189392
6360 0.67165146 7.51721661 2.3433735600000007 -0.298754 1.209796 -0.450154
6380 -1.7090001000000001 10.18811664 -1.74177531 0.039668 1.40181 -0.543108
6400 -0.8033801400000001 9.16873011 -0.20312586 0.305171 1.7889689999999998 -0.356947
6420 0.23875578 6.46280838 0.99737289 0.232167 1.198165 -0.133441
6440 0.40296537000000004 7.12293309 0.56028834 0.272735 0.119552 -0.030295
6460 1.1782006200000001 7.73246763 0.47242017000000003 0.622681 0.127891 -0.021452
6480 1.4678506800000002 7.8679339200000005 0.23440995 1.366407 0.941939 -0.177533
6500 1.61873829 8.39679102 0.58394025 2.386398 1.679643 -0.39568
6520 1.9984932000000002 9.434129850000001 0.49023513 2.615414 1.777195 -0.214745
6540 2.21644197 9.30779667 0.45594918 2.8605270000000003 0.958395 -0.26005300000000003
6560 0.45520362000000003 9.886792680000003 0.31524435000000006 2.82761 1.542934 -0.4234020000000001
6580 0.68916231 10.02704625 -1.8768001500000002 2.758381 1.81585 -0.414621
6600 0.41059755000000003 10.18407492 -2.79049374 2.292473 0.250355 -0.392369
6620 0.8491830300000001 10.715619960000001 -1.26681435 2.61341 -2.426539 -0.17412
6640 0.7200049500000001 11.52663228 -0.9497747700000001 3.308099 -4.065405 -0.657482
6660 2.66206122 12.222229950000001 -0.118701 3.673988 -2.775076 -0.778357
6680 4.4304903 10.22284404 0.6948521099999999 2.714246 0.37239 -0.107568
6700 3.78817074 9.73889712 0.21316148999999998 1.484213 1.123579 0.382805
6720 0.60683679 12.15786654 -1.18044711 1.23616 0.46742 0.318888
6740 -1.39060674 12.90480975 -1.15035984 0.958381 0.092552 0.266154
6760 -1.4343200999999999 11.59474311 0.02963601 0.568933 0.116155 0.29545
6780 -0.9123496200000001 11.41585776 2.18994516 0.247616 -0.255087 0.438959
6800 -1.4200956 13.593383460000002 3.17459448 -0.044831 -0.465208 0.491665
6820 -3.3371559900000003 11.495191230000001 1.71094248 -0.418077 -0.677978 0.47758
6840 -6.13858788 12.13765794 4.284988380000001 -0.966013 -0.427404 0.627256
6860 -5.4660339 15.270196950000003 3.98112363 -1.40551 0.03136 0.834038
6880 -2.0474451 15.999030900000001 1.99669797 -1.956167 0.378924 0.973956
6900 -1.29735288 16.106205150000005 2.14099326 -2.272673 0.7165729999999999 0.992677
6920 -1.09676781 15.497269020000001 2.01884895 -0.8022520000000001 0.685055 0.673976
6940 -1.17610128 13.30298784 -0.42855966000000006 1.901614 2.250604 0.030695
6960 -0.057633750000000004 10.43794791 -2.50549362 2.9530000000000003 -0.940233 0.534578
6980 0.28455867 7.6148163 -2.7039793500000004 1.961774 -3.432428 0.191153
7000 0.21539817000000003 4.92026436 0.30910329 -0.183996 -2.785747 0.172132
7020 -0.42391953000000004 3.37412988 0.31689243 -2.006656 -1.1890459999999998 0.190469
7040 0.04101561 2.71311246 -0.92657412 -0.479382 1.241231 0.368939
7060 -0.47930679000000004 3.37472829 -1.21442895 0.26616300000000004 1.481424 0.6611899999999999
7080 -0.56641959 3.00454794 -1.19616273 -0.031095 0.43275 0.231032
7100 -0.7762849200000002 1.5051188700000002 -1.1859799500000001 -1.941257 0.44482 -0.863366
7120 -1.33836849 1.8208144800000001 -1.8188721 -1.536095 -2.587856 -0.989109
7140 -1.89326133 2.3384391300000003 -1.64672622 -0.941803 -1.494199 -0.610346
7160 -1.9925091000000001 3.1743001800000004 -2.5444098900000003 -3.795667 4.743067 1.575083
7180 -1.43536977 5.51872341 -4.66729389 -3.529332 4.3175040000000005 1.473871
7200 -1.54747845 10.803184020000002 -8.060739660000001 -2.029443 1.414693 1.223149
7220 -0.37467332999999997 25.064481330000003 -11.428434180000002 -1.906423 0.287991 0.494788
7240 -2.29967001 27.98295633 -14.4488547 -1.988222 0.58333 0.235329
7260 -0.8027817300000001 7.213803120000001 -14.25845241 -2.137073 1.320314 0.144682
7280 -0.53094663 -0.32018859000000005 -7.4323404900000005 -2.211241 1.855559 0.090067
7300 0.8273263500000001 4.61280915 -3.76676532 -2.094843 1.7586990000000002 -0.030773
7320 2.1609075600000005 14.143783319999999 2.97041895 -1.403312 1.379917 -0.211328
7340 -1.97933427 24.344623530000003 4.59454293 -0.900805 0.851073 -0.263756
7360 -0.26525259 8.6389803 3.3344680500000003 -1.325384 0.313923 -0.099391
7380 -0.16794720000000002 1.79342496 4.5375174000000005 -1.547399 0.604147 -0.024401
7400 -4.49350974 3.1304396700000003 4.10192397 -1.491749 2.422965 0.095434
7420 -1.28762136 14.82920802 -8.304282720000002 -0.909166 2.596906 -0.217982
7440 5.825433060000001 16.09139205 -0.36704115 0.027314 1.1837950000000002 -0.6241
7460 5.713765830000001 11.323800720000001 1.6649924400000002 0.19556 1.054651 -0.442229
7480 1.1858328 10.50905079 0.18561501000000002 0.212414 1.275088 -0.17213399999999998
7500 0.40461345 7.67304846 -0.38694564000000004 0.344045 0.317449 -0.031119
7520 -1.01234295 6.15445065 1.07910981 1.102197 0.650466 -0.317874
7540 -1.1741589000000001 6.896312280000001 1.7419322700000002 2.144695 1.572689 -0.6119439999999999
7560 -0.46118772 7.823033550000001 1.02626334 2.87359 1.482391 -0.507393
7580 0.7457463900000001 7.54356627 0.53498835 3.130097 0.369674 -0.055522
7600 1.88472663 8.27180181 0.9548661600000001 3.320775 -0.180741 -0.303449
7620 2.38484043 8.06971581 0.50131062 3.2707330000000003 0.955421 -0.13861099999999998
7640 0.9157929300000001 9.04569309 0.1505835 3.078437 1.927305 -0.060015
7660 0.01796211 9.74518533 -1.3798353600000002 2.636788 -0.51649 0.335274
7680 2.1296234700000003 9.65461941 -4.2212233800000005 3.280904 -4.2882620000000005 -0.0485
7700 1.72740366 10.75647861 -2.2734675 3.848333 -4.846446 -0.810804
7720 1.16997003 11.813133330000001 -1.2094847100000001 2.398684 -1.245692 -0.118381
7740 2.04953463 13.24370601 -1.57502493 1.384053 -0.518473 0.851023
7760 3.4127518500000003 12.804070860000001 0.6240533400000001 1.544791 -1.562946 0.837461
7780 2.57569398 11.704762259999999 1.5028723800000001 1.7373630000000002 -1.7700360000000002 0.511127
7800 -1.76528007 12.894332670000002 -0.9398961000000001 1.578114 -1.011662 0.14264300000000002
7820 -1.5214329000000002 12.91738617 -0.29189655000000003 1.008289 -0.50602 0.19463
7840 1.67815746 12.803472450000001 1.6799526900000001 0.357779 -0.485354 0.385544
7860 0.71835687 13.54578534 3.7317436200000005 -0.215169 -0.715532 0.6350060000000001
7880 -3.3144066000000003 13.06004319 2.05043715 -0.727119 -0.985013 0.803759
7900 -5.851782720000001 12.148890390000002 3.0502036800000005 -1.239289 -0.938729 0.862079
7920 -4.21223742 14.036461920000002 4.0718367 -1.696022 -0.427111 0.92019
7940 -2.08022031 15.648460740000003 2.1424941900000003 -2.337116 0.129897 0.975887
7960 -0.94169133 15.09850233 1.0985630400000002 -2.522259 0.388697 0.8856
7980 -0.7138638900000001 13.401627390000002 1.70345745 -0.7061569999999999 -0.053453 0.392515
8000 -0.5806440900000001 11.445797879999999 -2.36778084 1.430663 3.23378 -0.075336
8020 0.5730119100000002 9.763294590000001 -4.78824138 2.618607 -1.340539 0.232585
8040 0.56897019 10.106232570000001 -1.61858133 1.333304 -3.683781 0.19029
8060 -0.15642045 7.399408320000001 1.8964103400000003 0.054711 -3.576943 0.155585
8080 0.55759059 4.8557538 1.9700540100000001 -1.238826 -0.622792 -0.356096
8100 0.82463841 2.8150481700000003 1.3811793300000001 0.619653 0.393525 0.684281
8120 -1.19900763 2.2998171600000004 0.054190440000000006 0.015069 -0.083208 1.080184
8140 -1.5732297000000002 2.39906493 -0.87792633 -0.745715 1.954 0.042494
8160 -1.51619436 2.8776163500000003 -1.5658918200000003 -2.511127 0.10513 -0.935278
8180 -1.71288486 2.9990151 -1.72560843 -0.909385 -4.3712480000000005 -0.969628
8200 -1.91961099 2.245028310000001 -1.9809823500000001 -2.116171 1.313704 0.7131310000000001
8220 -1.9118218500000002 2.26135215 -2.42690571 -3.945487 5.890642 1.636659
8240 -2.2122531 2.92970745 -3.48026427 -3.142942 4.532547 1.175056
8260 -2.75277429 6.10026021 -4.21568073 -1.566756 0.948061 0.8328049999999999
8280 -1.06323723 16.79507316 -9.53113113 -1.331581 0.13408299999999998 0.390042
8300 -1.0177384500000002 35.966304900000004 -10.356662250000001 -1.958401 1.268261 0.219704
8320 -5.92183593 16.207101 -17.544262860000003 -2.342101 2.453468 0.131116
8340 -3.79969749 1.4479363800000002 -11.77840593 -2.1664830000000004 1.947555 -0.044334
8360 -1.06937829 6.75709857 -5.43384729 -1.4449809999999998 0.406443 -0.222122
8380 1.7368408800000001 19.320324120000002 2.97146862 -1.331301 0.381219 -0.140111
8400 4.46701293 20.037631320000003 9.01859787 -1.461013 0.987684 -0.108679
8420 1.9717020900000002 4.8083028300000015 2.4441222600000003 -1.6220709999999998 1.510077 -0.070949
8440 -1.06189326 0.00777933 4.37479893 -1.719932 1.337843 -0.071412
8460 -5.095107990000001 1.99325466 4.752464310000001 -1.584788 0.869267 -0.22476
8480 -3.04795719 13.98002499 -7.38728316 -1.041978 0.925418 -0.35136300000000004
8500 5.1623163 19.650832830000002 -0.49980969000000003 -0.191953 0.832026 -0.377353
8520 6.249058290000001 10.94793057 3.37428684 0.357732 1.5928639999999998 -0.378761
8540 1.81153422 8.57656908 1.6313049000000004 0.362765 1.141869 -0.287349
8560 -0.61611705 8.53510221 -1.95747759 0.58087 -0.30280300000000004 -0.170743
8580 -1.11383721 6.123617820000001 1.61618769 1.665389 -0.123686 -0.349268
8600 -1.5370013700000003 7.191946440000001 0.30955455000000004 2.759677 0.6802600000000001 -0.414225
8620 -0.21135645000000003 8.46519615 0.68812245 3.122221 0.738349 -0.071004
8640 0.5104339200000001 8.334664290000001 1.23268536 3.27568 -0.094899 -0.153254
8660 0.67779252 7.618858020000001 0.47256732 3.687818 0.7809689999999999 -0.29677600000000004
8680 1.37414556 8.205937470000002 0.11780829000000001 3.352542 2.18293 -0.02104
8700 2.29398021 8.905135410000002 -1.0946782800000001 3.335294 2.210418 0.046102
8720 2.42151021 9.56346489 -1.34614782 2.480291 -2.8613880000000003 0.527329
8740 1.4668010100000002 10.10324052 -1.0717719300000002 3.275736 -5.409031 -0.019326
8760 0.4397823 10.742862330000001 -1.34525511 3.414325 -3.751069 -0.237331
8780 0.7619132700000001 11.12681592 -1.36934847 2.097098 -0.652299 0.400044
8800 1.3825233000000001 12.30500673 -2.79019944 1.661579 -0.843875 0.733737
8820 3.0112874100000004 11.61254826 -0.7940998800000001 1.784069 -1.30803 0.551454
8840 3.24255816 11.13564492 1.72605969 1.583854 -1.410992 0.366453
8860 1.2029022 13.656854160000002 1.07550954 1.281152 -1.07568 0.15880999999999998
8880 -0.6993450900000001 14.302754370000002 -0.25072398 0.738879 -0.5533239999999999 0.269721
8900 0.11900511 12.89029095 2.4180669 0.091631 -0.461527 0.518251
8920 -1.8510489 13.70414817 4.595445450000001 -0.400563 -0.62979 0.6656479999999999
8940 -4.748726700000001 13.06513458 1.97739189 -0.942292 -0.644552 0.8306620000000001
8960 -5.86764549 12.179870370000002 2.49217164 -1.507532 -0.473701 0.952545
8980 -3.7503041400000003 13.46674617 3.56154012 -2.076353 -0.032839 0.953348
9000 -1.3796784000000002 14.40874161 2.18829708 -2.631055 0.406075 0.896568
9020 -1.8928100700000001 15.590826990000002 0.6974027100000001 -1.95147 -0.219007 0.515419
9040 -0.65533743 14.29467093 1.31142042 0.718571 1.868739 -0.151199
9060 -0.7788257100000001 11.89561581 -1.3129213499999999 2.192328 1.839669 -0.020159
9080 0.65787822 9.829158930000002 -3.861216 1.966486 -3.465892 0.296983
9100 1.27370097 8.95033989 -1.9758909600000003 0.48748 -2.815197 0.294364
9120 0.03562992 7.606428750000001 1.34405829 -0.297784 -2.373681 -0.212683
9140 -0.19774017000000002 4.64034582 1.9124202600000002 -0.826939 0.6718390000000001 -0.260874
9160 -0.13517199 2.9267154 1.2094847100000001 1.223217 -1.352253 0.907583
9180 -0.9330094800000001 3.03553773 0.19310004 0.237981 -0.179533 0.999612
9200 -1.9091339100000002 2.6150615100000003 -0.65818233 -1.480893 1.601035 -0.295475
9220 -1.42593255 3.2680053000000004 -1.19945889 -1.988322 -0.80009 -0.655933
9240 -1.72112526 2.7578656800000005 -1.5001844400000002 -0.377602 -3.402181 -0.814399
9260 -1.90164888 2.6301787200000004 -2.13575472 -2.798787 3.2455580000000004 1.176973
9280 -2.16719577 2.5020503100000004 -2.8009708200000003 -3.4393620000000005 5.1191879999999985 1.247009
9300 -2.39786811 2.96892783 -3.7550914200000003 -2.4043490000000003 1.878836 0.828966
9320 -2.44202292 5.91270282 -4.51431675 -1.06566 -0.778521 0.6077819999999999
9340 -1.51125993 14.753474820000001 -8.98131987 -1.743787 0.342064 0.683862
9360 -1.6287641099999999 34.39532169 -9.07203294 -2.250402 1.545536 0.662758
9380 -5.722898939999999 17.63452467 -17.38693989 -2.1337650000000004 1.860341 0.4249560000000001
9400 -4.42045467 1.9148139000000002 -14.4602343 -2.083721 1.92469 0.273535
9420 -1.7458170300000002 7.58936916 -5.96704041 -1.915933 1.941229 -0.011598
9440 0.8214894 18.72530838 0.49157910000000005 -1.657728 1.262585 -0.219364
9460 4.76174457 19.60892451 11.172020400000001 -1.468819 0.50158 -0.283299
9480 3.7609283700000002 6.63540552 -0.09564750000000001 -1.730861 0.392622 -0.247602
9500 -0.47660904000000004 -1.3780303200000001 2.2760181 -1.977142 1.338657 -0.051845
9520 -3.4218849600000003 1.97918712 5.61362535 -1.552903 1.930677 -0.084892
9540 -3.07670049 10.59871419 -3.45915315 -0.897856 1.0894549999999998 -0.206357
9560 3.50301366 22.89518622 -3.1654711800000004 -0.079706 0.4108350000000001 -0.372824
9580 5.658535530000001 11.07007488 2.7279255600000005 0.101724 1.157939 -0.350082
9600 1.5491265300000001 7.97930685 2.7761319 0.01658 0.515778 -0.326353
9620 -0.32423030999999997 9.31123998 -1.5682854600000002 0.7007720000000001 -0.307205 -0.505322
9640 0.02963601 8.968302000000001 -0.06675705 1.550687 0.5749920000000001 -0.480219
9660 -0.9834525000000001 7.4504595600000005 -0.30746502000000003 2.45171 1.049714 -0.364507
9680 -0.6276438 8.234229509999999 -1.04257737 3.222983 0.947331 -0.205164
9700 -0.61747083 7.13925693 -0.9178922700000001 3.344171 0.6474270000000001 -0.16975
9720 -0.41134311000000007 5.964499620000001 0.36240102 3.3732900000000003 1.105849 -0.017379
9740 0.8327218500000001 6.69407913 1.60047207 3.1699740000000003 2.393527 0.218833
9760 0.7517402999999999 7.715859300000001 1.2117312 2.756668 1.152806 0.495273
9780 1.1972124 8.848845630000001 0.060920100000000005 3.05142 -3.033778 0.51872
9800 1.6224759000000002 10.07509563 -2.3173280099999998 3.650004 -6.162552 -0.250755
9820 1.8308403 9.540558540000001 -2.73301695 3.535799 -3.715771 -0.6445890000000001
9840 1.57996917 10.5389811 -1.3265376300000002 1.802212 -0.460891 0.208664
9860 1.0377900899999999 12.263098410000001 -1.7152785000000002 1.328607 -0.993472 0.604485
9880 3.5296576200000005 11.793670290000001 -0.7132654800000001 1.693468 -1.853839 0.460721
9900 2.61700389 11.84905755 1.10619522 1.465868 -1.490826 0.187338
9920 0.14025357000000002 13.935124620000002 0.14893542 1.213666 -0.738507 0.08099500000000001
9940 -0.11406087000000001 13.515845220000003 -1.53535329 0.698654 -0.607012 0.144527
9960 0.8012807999999999 13.633653510000002 -0.5848329600000001 0.118902 -0.447294 0.398782
9980 -0.044007660000000004 12.46368348 2.7559233 -0.382944 -0.718377 0.6925899999999999
10000 -3.5739693900000002 13.99679028 2.0872638900000005 -0.923843 -0.980458 0.9006559999999999
10020 -3.46993434 12.269239470000002 1.8818817300000001 -1.536064 -0.8306969999999999 1.009419
10040 -3.4905942000000003 12.59001666 3.4305668100000006 -2.126191 -0.145811 1.00976
10060 -2.52210195 14.737150980000001 3.8552319 -2.556341 0.437673 0.921618
10080 -1.8585339300000001 15.41614032 2.2646385 -1.620039 0.507033 0.614012
10100 -0.46792719 14.571450270000001 1.5962832 0.726859 2.222755 0.021457
10120 -0.13441662000000001 13.178744190000002 0.14474655 2.320214 0.952535 0.074807
10140 -0.7054861499999999 10.73867346 -2.6837707500000003 1.648049 -2.483073 0.680196
10160 0.8072747100000001 8.72580861 -5.055142050000001 0.34223200000000004 -2.768035 0.6137560000000001
10180 0.39053610000000005 9.40449384 -0.54426861 -0.014263 -3.107516 0.30512100000000003
10200 0.07184844 6.7585995 2.18276424 -1.360226 -1.108516 0.536712
10220 0.9228267 4.3152228 1.17296208 -0.326362 1.035379 0.299769
10240 0.17858124000000003 2.8174418100000005 1.0145894400000002 -0.5500510000000001 -0.296335 0.789158
10260 -1.06488531 2.9506616100000005 0.16989939 -0.273522 0.578732 0.431046
10280 -1.9375731 3.47442732 -0.68796549 -2.115819 -0.019555 -0.46768
10300 -1.85898519 3.54792384 -1.30109049 -1.760959 -3.758498 -0.552277
10320 -2.1881499300000007 3.17220084 -1.56784401 -1.177592 -0.94686 0.178858
10340 -2.2758709500000003 2.99167722 -2.01675942 -2.854164 4.161269 1.59736
10360 -2.71744848 2.96473896 -2.91189249 -3.26818 5.600717 1.62467
10380 -2.7024784200000003 4.20475239 -4.117933890000001 -2.546049 3.061977 0.7805270000000001
10400 -2.84318325 9.676181790000001 -4.76758152 -1.630978 -0.027807 0.37534
10420 -1.7398329300000002 25.21566324 -9.35479638 -1.422894 -0.483555 0.14770899999999998
10440 -2.29831623 29.09933433 -12.09709359 -1.985458 1.017724 0.292475
10460 -5.41334439 6.708902040000001 -18.922450140000002 -1.826059 0.95814 0.13663599999999998
10480 -0.37123002000000005 1.38447549 -10.20278259 -1.159245 -0.094126 0.034752
10500 0.90875916 4.63810914 -3.9176529300000005 -1.031795 0.028946 0.049372000000000006
10520 1.7847431100000002 9.88589016 2.13471486 -1.170097 0.939791 0.16047
10540 2.4559433100000008 17.277970410000002 7.61242266 -1.4463700000000002 1.663013 0.158682
10560 0.35611281 17.59965012 2.47256145 -1.538918 1.472595 -0.093821
10580 2.46372264 5.20393032 -0.15478218000000002 -1.460928 0.202944 -0.200608
10600 -2.40534333 4.08530583 5.66526519 -1.247314 0.529093 -0.163214
10620 -5.6359332900000005 7.1557181100000005 -1.09212768 -0.605521 1.143618 -0.152041
10640 1.1049984000000002 15.95921211 -4.84602228 0.163746 1.224694 -0.314483
10660 5.96344995 13.261069710000001 -0.60893613 0.360025 0.7881319999999999 -0.268755
10680 3.9772290600000004 8.571928950000002 3.98545965 0.581075 0.040927 -0.348507
10700 0.33590421000000004 7.8740749800000005 1.5329596500000002 1.221356 0.034591000000000004 -0.384619
10720 -1.93726899 7.259606010000001 0.3210813 2.361288 1.358906 -0.351648
10740 -0.82507986 7.54146693 1.41860448 3.395926 1.505648 -0.383065
10760 0.37123002000000005 8.37149103 1.27370097 3.5159550000000004 1.034952 -0.259846
10780 0.07978473 8.84570643 0.7023371400000001 3.574013 1.336365 -0.295078
10800 0.00928026 8.82355545 -0.12259557 2.870132 1.107013 0.127588
10820 0.9773212500000001 8.602908930000002 -0.81999828 2.838766 -0.8339139999999999 0.419344
10840 2.06285661 9.16932852 -1.6293625200000001 4.191825 -4.540832 -0.014039
10860 2.25176778 8.77041468 -1.39031244 3.685205 -6.4122330000000005 -0.977648
10880 2.23170633 9.26678106 0.08891784 2.724134 -1.510125 -0.871002
10900 1.1900216700000001 10.069709940000001 0.038621970000000005 1.7670580000000002 1.187098 -0.29469
10920 -0.23680359 11.299697550000001 -1.49928192 1.647673 -0.725353 0.144898
10940 0.46897686000000005 11.544447240000002 -2.22586938 1.884296 -1.2046709999999998 0.19203
10960 1.9014919200000002 11.39041062 -1.16757639 1.492234 -0.509247 0.049532
10980 2.53917135 11.61658998 1.33177617 1.062591 -0.417291 0.069914
11000 0.39577464 12.585974940000002 2.1863547000000003 0.593013 -0.30969 0.208569
11020 -1.3377700800000003 13.71583188 -0.28905165000000005 0.06343 0.051357000000000014 0.421257
11040 -0.02694807 14.689552860000001 -2.1483311400000003 -0.493293 0.018559 0.5808479999999999
11060 0.58019283 12.920378220000002 0.39038895 -1.109289 -0.380501 0.743699
11080 -1.7024077800000001 12.288094290000002 0.6316855199999999 -1.6724580000000002 -0.15242 0.937094
11100 -2.6180535600000003 11.939917770000001 1.41275772 -2.340803 0.260931 0.97783
11120 -1.9142154900000001 13.627365300000001 4.00147938 -2.7644580000000003 0.6323850000000001 0.894278
11140 -0.21120930000000002 15.653395170000001 5.397471810000001 -1.546101 -0.284118 0.462787
11160 -0.53393868 13.229344170000001 3.7131831 0.8626379999999999 2.497119 -0.242865
11180 -1.5798122100000003 13.554614340000002 -0.91938339 2.920265 0.927738 0.42727
11200 -2.1652435800000003 12.52759563 -2.90306349 1.664722 -3.026501 0.700237
11220 -1.30273857 9.067696920000001 -5.04840258 0.593863 -3.264535 0.15040499999999998
11240 -0.94752828 8.73897363 -1.7480635200000003 -0.556669 -2.372344 -0.056396
11260 0.23516532 9.295367400000002 1.75360617 -1.143675 0.82701 0.103115
11280 1.09647351 6.29531244 1.38806595 0.4606020000000001 0.35485300000000003 0.902205
11300 1.04527512 4.48062921 0.26494848000000004 -0.246867 0.555391 0.6502479999999999
11320 -0.23306598000000003 3.9522331800000003 0.20507805 -1.620851 0.754775 -0.8647299999999999
11340 -1.44539559 3.568878 -0.18486945000000002 -1.485268 -1.822657 -0.8497979999999999
11360 -1.8160272000000002 2.90426031 -1.10245761 -1.161131 -1.46523 -0.20599
11380 -1.63998675 3.13627662 -1.79746668 -2.696352 2.720128 0.884601
11400 -2.1414445200000003 2.63332773 -1.8709632 -2.698449 4.170967 0.903023
11420 -3.0208717800000002 1.94565654 -2.8472249700000005 -1.655057 1.236967 0.589331
11440 -3.04242435 2.57074974 -4.283046 -1.507283 -0.485151 0.8852629999999999
11460 -2.42870094 5.0034924 -5.02025769 -2.147586 0.125611 0.818051
11480 -0.5285529900000001 14.502888180000001 -9.74279169 -2.288959 0.75966 0.621835
11500 -0.6767428500000001 37.20003993 -10.07794053 -2.162042 1.392165 0.313195
11520 -6.62926446 19.31702796 -16.974252810000003 -2.095772 1.7313470000000002 0.149785
11540 -2.9353972500000003 0.17858124000000003 -14.5094805 -2.071213 1.711012 -0.113868
11560 -1.4810157 4.53242601 -5.9062674600000005 -1.858262 1.088362 -0.166062
11580 1.41575958 13.87539153 1.49733954 -1.744069 0.055017 -0.257944
11600 3.76571565 17.430349139999997 11.68036479 -1.772744 -0.353036 -0.220234
11620 1.5521185800000001 10.72878498 0.97088589 -1.929406 0.885416 0.031322
11640 -1.18882485 0.99707859 -0.04146687000000001 -1.326966 2.202244 0.005000999999999999
11660 -2.55997836 3.85762554 3.80718252 -0.5395270000000001 0.8696229999999999 -0.154434
11680 -1.69238196 10.567577250000001 -3.5233694100000004 0.176823 0.218436 -0.432743
11700 2.63422044 19.594101600000002 -3.79445895 0.404456 1.230813 -0.454883
11720 3.56394357 11.00376909 1.5160472100000002 0.767502 0.463154 -0.33813200000000004
11740 1.77126417 8.09381898 2.16000504 1.415745 0.08928 -0.376922
11760 0.41957370000000005 9.257795100000001 -1.7227635300000004 2.727033 1.040328 -0.387141
11780 1.1006623800000002 9.14942403 0.4252635 3.404356 1.049512 -0.34076100000000004
11800 -0.50654916 7.0940524499999995 -0.98988786 3.558654 0.649899 -0.174665
11820 -1.50631569 7.18296048 -1.3503465000000001 3.668928 1.268206 -0.115935
11840 -0.83047536 7.4103366600000005 -0.88450884 3.113371 2.125346 0.200621
11860 0.08816247 6.8829903 0.14579622 2.679991 -0.697383 0.5131319999999999
11880 1.2195105300000002 7.3167885 1.0057604400000002 3.533753 -5.000749 -0.046889
11900 1.12355892 7.854464790000001 1.15904169 3.592035 -5.9932349999999985 -0.717121
11920 0.98390376 8.8587243 0.8256782699999999 2.726151 -1.951287 -0.572389
11940 1.0759608 10.30607208 -1.5901421400000002 1.798346 0.327371 -0.043406
11960 1.81572309 10.88626491 -3.62905254 1.609127 -0.577863 0.323901
11980 1.04886558 11.244918509999998 -0.9906432300000001 1.813974 -1.134318 0.241656
12000 -0.39847239000000007 12.32117361 -1.02192732 1.532758 -0.714068 0.086397
12020 1.6628931 11.914176330000002 -1.0264203 1.049304 -0.509984 0.084895
12040 3.07670049 11.682758430000002 1.10904012 0.547922 -0.371323 0.209402
12060 1.00635885 13.7346867 0.41523768 0.101921 -0.134269 0.454878
12080 -0.46358136 14.447059470000001 -1.26711846 -0.466299 -0.17413299999999998 0.792791
12100 0.34862778 13.85952876 -0.9172938600000001 -0.934447 -0.683391 0.946134
12120 -0.55864026 12.96498429 0.6616256400000001 -1.499148 -0.576673 1.121514
12140 -2.86654086 11.878693560000002 1.1298471300000001 -2.150798 -0.19024 1.219017
12160 -3.4049725200000003 12.87382977 2.5282430099999997 -2.613642 0.500858 1.154009
12180 -1.1088929699999999 16.0627959 4.4598222000000005 -1.194876 0.0861 0.5491550000000001
12200 -1.27025766 15.428412630000002 2.9509657200000006 0.8484440000000001 3.3334650000000003 -0.522842
12220 -2.41478055 14.070443760000002 1.4244414300000001 2.6294310000000003 1.083926 0.248782
12240 -1.45273347 13.812381900000002 -1.58071473 1.221487 -2.445345 0.672895
12260 -1.92858714 11.733495750000001 -3.58818408 0.328597 -2.8454490000000003 0.005942
12280 -1.05350571 8.7627825 -3.4108094700000002 -0.273397 -2.662385 -0.230302
12300 -0.41568894000000006 9.11754153 -0.00628821 -1.285121 -0.127843 -0.480967
12320 -0.28485297000000004 6.805452060000001 1.9184141700000001 0.51695 -0.49092 0.5736020000000001
12340 0.9505203300000001 4.15655586 1.19286657 -0.42119 0.432654 0.858559
12360 -0.04850064 3.7988047800000007 0.49292307 -1.521384 1.741383 0.072599
12380 -1.3774319099999999 2.9666813400000005 -0.12798126 -1.875588 0.664963 -0.295964
12400 -1.6013745900000003 2.7045777600000003 -0.33889626 -0.985244 -2.04093 -0.511672
12420 -1.5010771500000002 2.90770362 -1.17356049 -2.176623 1.771311 0.6149140000000001
12440 -1.0380942 3.0934657800000003 -1.6872905700000003 -3.438448 4.002248000000002 1.112783
12460 -1.71752499 2.0430992700000004 -2.20985946 -2.762022 2.723964 0.7815880000000001
12480 -2.61087264 2.37496176 -3.36036645 -1.719294 -0.399376 0.664687
12500 -2.27541969 3.33042633 -4.83569235 -1.682996 -0.89369 0.639937
12520 -2.48842422 8.4360114 -6.3307854 -2.225595 0.5254409999999999 0.531779
12540 -1.5157431 23.876843490000002 -11.09508057 -2.36608 2.096819 0.363209
12560 -4.191734520000001 32.526457830000005 -12.66831027 -2.366188 2.429551 0.0059960000000000005
12580 -5.84594577 7.929158129999999 -16.664394150000003 -1.863342 1.156511 -0.154435
12600 -3.0647224800000004 0.9351088200000001 -8.88581952 -1.390378 -0.059139 -0.255327
12620 -2.54665638 8.99494596 -2.90201382 -1.382527 0.172474 -0.108154
12640 2.0868126300000003 16.880243580000002 2.12273685 -1.542969 0.746452 0.08226900000000001
12660 2.18216583 17.27887293 8.27628498 -1.61896 1.813325 0.01521
12680 2.96952624 7.634279340000001 0.29024847 -1.295988 1.912516 -0.294582
12700 -0.24369021 0.38723994000000006 1.2117312 -0.7098409999999999 0.295715 -0.341827
12720 -2.2320104400000003 4.35235365 5.407203330000001 0.034151 0.37622 -0.339938
12740 -0.8857056600000001 12.340783800000002 -5.13103221 0.248033 1.254111 -0.28509
12760 3.86855388 17.66626002 -3.2148645300000003 0.507625 0.10605 -0.320261
12780 3.46335183 9.632017170000001 1.04542227 1.002899 -0.502134 -0.5050979999999999
12800 0.57749508 7.88574888 2.57284908 2.167144 0.57362 -0.671396
12820 0.07693983000000001 9.19717911 -0.21840003000000002 3.358862 1.081732 -0.632744
12840 0.64335942 8.16836517 0.6134291099999999 3.228957 1.274561 -0.257885
12860 -0.08502327 6.43556601 -0.6104272500000001 3.161507 1.341538 0.100481
12880 -1.03494519 7.19883306 -0.92403333 3.007376 1.451971 0.322521
12900 -0.23052519000000005 7.85581857 0.29623257000000003 2.417365 -0.00719 0.766786
12920 -0.15268283999999996 8.03484126 1.53056601 2.982803 -3.300042 0.564516
12940 -0.2775249 8.46100728 0.48304440000000004 3.828417 -6.515099 -0.419972
12960 1.4147099099999998 9.42948972 0.18067077 3.410749 -4.556585 -0.7245020000000001
12980 2.31613119 10.47072312 -2.01720087 2.25369 -0.272592 -0.118505
13000 2.42720001 9.832307940000002 -3.64177611 1.636706 -0.017048 0.446221
13020 1.4662026 10.22748417 -1.5816074400000002 1.802774 -1.376444 0.5944010000000001
13040 -0.03202965 11.427688620000001 -0.29278926000000005 1.751783 -1.337984 0.3451
13060 0.8104139100000001 12.401556750000001 -1.62501669 1.302233 -0.8766229999999999 0.17793
13080 3.6673704000000003 11.62378071 0.38484630000000003 0.795317 -0.659716 0.18693
13100 1.85479632 12.32896275 1.8564444 0.395682 -0.716174 0.266464
13120 -1.49778099 13.579315919999999 -0.46837845000000006 -0.043886 -0.762293 0.458937
13140 -0.7906565700000001 13.839918570000002 -1.8745536600000001 -0.564086 -0.750434 0.6080439999999999
13160 0.48679182000000004 12.847931370000001 -1.0931773500000002 -1.198509 -0.476279 0.79661
13180 -0.15208443 11.862830790000002 0.8490358800000001 -1.926124 0.251759 1.046968
13200 -1.12835601 12.94134219 2.14115022 -2.6381900000000003 1.01106 1.19164
13220 -0.8958884400000001 14.281653060000002 2.3773554000000003 -2.56356 0.909849 0.8632790000000001
13240 -2.17812411 16.04767869 3.9381558300000004 -0.213385 0.25208400000000003 0.015278
13260 -1.6673860800000002 14.52849228 3.38326299 1.829019 2.246352 -0.440892
13280 -1.65136635 13.51764045 2.22617349 2.448438 -0.71465 0.502991
13300 -1.62831285 13.175006580000002 -0.17558919000000003 0.852801 -3.319718 0.405453
13320 -1.4778765 11.007065250000002 -3.29120595 0.189081 -3.64017 -0.132883
13340 -0.33066567 8.99344503 -4.2543027 -1.463818 -1.475574 -0.28714
13360 -0.49262877000000005 9.66061332 -1.08883152 0.289293 0.088486 0.5306770000000001
13380 -0.24339591000000002 7.36393536 1.77829794 -0.224482 0.082307 0.656351
13400 0.9249260400000001 4.18245426 1.46216088 -0.653303 0.066662 0.14597100000000002
13420 0.40789980000000003 2.78615772 0.8866081800000001 -2.115148 -1.168323 -0.10194
13440 -0.6542877600000001 2.99272689 0.70922376 -1.877425 -2.739905 0.033126
13460 -1.26786402 2.5538373 0.15687171 -1.531463 0.390146 0.7301489999999999
13480 -1.29720573 2.9045644200000003 -0.57645522 -2.396725 3.728685 1.221891
13500 -2.13979644 2.8996201800000003 -1.23493185 -2.420366 3.5099400000000003 0.801127
13520 -3.4654413600000002 3.20752665 -1.8988039800000003 -1.699138 0.543139 0.444634
13540 -3.61004076 3.29314833 -3.3290725500000002 -1.387972 -0.376661 0.558013
13560 -3.0671259300000004 3.6768076200000004 -4.52718747 -2.0562150000000003 0.587332 0.8907370000000001
13580 -2.6523297 8.07151104 -5.40810585 -2.335156 1.025847 0.960866
13600 -0.92148273 20.364853680000003 -10.52401104 -2.144533 1.141365 0.67897
13620 -3.03075045 35.67366279 -11.925850230000002 -1.999135 1.236509 0.469424
13640 -5.19046119 11.31018444 -17.69485617 -1.747521 0.665833 0.173879
13660 -0.80472411 0.7399094400000001 -11.414660940000001 -1.511624 -0.012647 -0.055408000000000006
13680 -1.15829613 6.855590970000001 -3.6301022100000004 -1.227311 -0.480855 -0.163917
13700 2.0945919600000003 16.05322134 6.59992275 -1.581785 -0.070424 0.06809
13720 2.4742095300000004 15.80203629 8.41535154 -1.783227 1.722896 0.393397
13740 1.30005063 5.426960670000001 0.8521750800000001 -1.001328 1.897035 0.124103
13760 1.02237858 4.27151925 -0.26270199 -0.148084 0.8331569999999999 -0.16554000000000002
13780 -1.3672589400000001 6.316717860000002 3.54417642 0.320809 0.221189 -0.180709
13800 -0.2870994600000001 14.01355557 -2.61252072 0.724619 0.776004 -0.215987
13820 1.91377404 16.03060929 -0.67584033 1.60483 1.223572 -0.4838770000000001
13840 1.08988119 9.078772410000001 1.86391962 3.374275 2.819156 -0.901919
13860 0.283509 7.246127070000001 1.8595836000000001 4.323238 3.026384 -0.800484
13880 -0.7777858500000001 9.53412318 -0.98510058 4.112633 2.333165 -0.686767
13900 0.50340015 9.70686747 -0.15208443 2.667233 -0.025168 -0.014452
13920 1.1017120500000002 8.47282833 -0.09190989000000001 2.560791 -1.711654 0.382208
13940 0.23440995 7.628138280000001 -1.12460859 3.895488 -3.50436 0.252823
13960 0.90561996 6.67357623 -1.0933245 5.161137 -4.793971 -0.154359
13980 1.33447392 6.903346050000001 0.38185425 3.501936 -2.73123 -0.671724
14000 1.1608369200000002 6.949747350000001 0.7429014899999999 2.464595 0.535373 -0.4225100000000001
14020 0.3150972 7.83949473 1.06218756 2.244152 -0.430374 0.186074
14040 0.27827046 8.91530838 0.61432182 1.809328 -1.005197 0.45617
14060 1.1892761100000002 9.59833944 -1.7654272199999999 1.624432 -0.576526 0.242821
14080 0.13127742 10.356367950000001 -1.9390642200000001 1.314533 -0.219836 -0.242637
14100 -0.24369021 11.872258200000001 0.01152675 0.955002 0.003063 -0.261457
14120 -0.0028449 12.43104561 0.20402838 0.487553 0.053357 -0.179329
14140 1.79881065 12.69165807 -0.027095220000000003 -0.120014 0.008329999999999999 -0.114081
14160 -0.49352148 13.1010588 -0.08427771 -0.7569279999999999 0.015972 0.12501500000000002
14180 -2.6596675800000003 13.36600728 -3.06577215 -1.403297 -0.037651 0.5083340000000001
14200 -0.25970994000000003 12.450057390000001 -1.55032335 -1.999968 0.039611 0.8843540000000001
14220 -0.56507562 12.263098410000001 -1.90418967 -2.562743 0.095317 1.293754
14240 -1.9636186500000001 12.057127650000002 -0.77119353 -2.473425 0.244123 1.033541
14260 -1.4868624600000002 16.52608296 2.6381150100000004 0.051996 0.31563800000000003 0.142032
14280 1.23059583 18.842371110000002 8.55291717 1.844838 2.809091 -0.788675
14300 0.01406754 15.777638820000002 5.088064409999999 1.732206 0.119868 0.223454
14320 -1.4293758600000002 16.55662149 0.6099857999999999 0.553588 -2.907769 0.210555
14340 -1.9573304400000002 15.991241760000001 -4.523744160000001 0.115732 -2.403093 -0.142459
14360 -2.37001752 9.20914731 -5.56976484 -0.405472 -0.820809 -0.576484
14380 -2.9473752600000003 8.19770688 -2.3088031200000003 0.036812 -0.072966 -0.432279
14400 -0.82493271 9.36318393 -0.5441214600000001 -0.106221 -0.377774 -0.007735
14420 0.67150431 6.94196802 1.01578626 -0.558467 -0.771746 -0.193055
14440 1.06907418 4.547994480000001 1.7958186 -1.460092 -0.411041 0.427231
14460 0.67524192 2.73107457 1.21053438 -1.366768 0.675335 0.929623
14480 -0.27093258000000003 1.98172791 0.32048288999999996 -2.213633 2.24176 1.013567
14500 -0.32377905 1.62307431 -0.77403843 -2.292949 3.149382 0.814229
14520 -1.20454047 1.63220742 -1.36695483 -1.5525520000000002 1.109365 0.442796
14540 -1.7009166599999999 1.49688828 -1.82844666 -1.598492 -0.44531 0.325895
14560 -2.28230631 1.1407754700000001 -2.6090774100000003 -2.486567 -0.378725 0.96054
14580 -2.53453122 1.72785492 -4.03979724 -3.2701740000000004 0.042527 1.255765
14600 -1.76408325 2.33813502 -5.6872690200000005 -2.455145 0.633357 0.915665
14620 -1.7958186 8.79900102 -8.69721246 -2.195837 1.82548 0.671326
14640 -1.2452617800000003 27.57176037 -13.712084460000002 -2.447291 2.695175 0.515699
14660 -5.4706740300000005 27.201138570000005 -14.300959140000002 -2.580137 3.261393 0.491613
14680 -4.68989613 6.53226318 -14.568301260000002 -2.550207 3.099007 0.315774
14700 -3.4200897300000004 2.9404886400000003 -8.51922963 -2.133997 1.565066 -0.05857200000000001
14720 -4.649331780000001 10.770251850000001 0.14400099 -1.521319 -0.492161 -0.27812
14740 0.11241279000000001 16.62517377 5.6059931700000005 -1.033519 -2.058927 -0.232112
14760 -1.6667876700000002 13.643532180000001 0.48050360999999997 -1.809869 1.18 0.318063
14780 -0.21166056000000003 4.76190153 -2.23170633 -0.8396319999999999 3.75512 0.189081
14800 0.33095997000000005 6.342459300000001 0.36763956000000003 0.020836 1.832865 -0.431628
14820 2.18965086 9.795334050000001 -1.00695726 0.334483 -0.011501 -0.60974
14840 3.61049202 14.56456365 -1.6706724300000002 0.359096 0.083018 -0.292427
14860 2.60757648 12.147840720000001 1.5789195000000003 1.214481 1.024625 -0.476734
14880 0.44561925 9.59759388 -0.32018859000000005 2.321432 2.286537 -0.527235
14900 -1.17939744 10.05428862 -2.7831656700000007 3.03068 1.998674 -0.283699
14920 -1.2651662700000001 9.05407083 -1.0581458400000003 3.519842 0.379226 -0.117973
14940 -2.10986613 5.8366655100000004 -0.30730806 3.258092 -0.018907 0.038805
14960 -0.12678444 6.6184832700000005 0.7071342300000001 2.440634 -0.374558 0.44268
14980 0.47242017000000003 6.77072466 -0.72060336 2.522123 -0.190926 0.537018
15000 0.7117743599999999 7.26199965 -0.6860231099999999 3.450821 -2.28608 0.470346
15020 2.5741930500000003 7.965082350000001 -0.5423262300000001 4.221118 -5.900161 -0.29624
15040 2.30984298 8.11163394 0.8702941500000001 4.342269 -5.7444120000000005 -0.987801
15060 1.77201954 7.15347162 2.20177602 3.059711 -0.506336 -0.7043699999999999
15080 0.31614687 8.02256895 2.5746443100000005 1.798039 0.421527 0.11991
15100 -0.8081674200000002 9.38593332 1.27250415 1.725998 -0.920129 0.566574
15120 0.14309847 11.673174060000001 -4.3724052900000006 1.6577830000000002 -0.793682 0.439886
15140 1.2930070500000002 12.58388541 -4.19098896 1.383426 -0.6678970000000001 0.124819
15160 1.40378157 13.08279258 0.62809506 1.061883 -0.527312 -0.121162
15180 -0.00973152 13.025610090000002 -0.2314179 0.6167159999999999 -0.328773 -0.101025
15200 1.91915973 13.12515216 1.28013633 0.11057 0.039589 0.126772
15220 0.67958775 14.459635890000001 0.37886220000000004 -0.4681270000000001 -0.168766 0.252251
15240 0.84708369 14.041553310000001 -3.03224157 -1.166518 -0.25805500000000003 0.542317
15260 2.06375913 13.73903253 -1.3546825200000003 -1.929591 -0.191856 0.8990290000000001
15280 0.52870014 12.409640190000001 0.5110421400000001 -2.629203 0.147149 1.176787
15300 -0.69260562 11.73080781 -0.10673280000000002 -2.256785 -0.128986 0.6456310000000001
15320 -0.8346642300000001 12.00533085 2.25850725 0.584226 0.035675 -0.103855
15340 0.58109535 15.13772271 4.68016461 2.040193 1.800044 -0.6343300000000001
15360 -0.7113231000000001 15.738124140000002 6.29964846 1.976247 -0.076342 0.327959
15380 -0.8559225 15.55564833 2.88584694 0.414318 -2.780587 0.227579
15400 -2.4688140300000003 15.14685582 1.18403757 0.349874 -3.216819 -0.115211
15420 -2.3352901200000002 12.06685917 -0.23127075 0.006624 -1.890722 -0.041328
15440 -1.6802568 8.9537832 -4.70396367 0.091842 -0.7000649999999999 0.231206
15460 -1.4434532100000004 8.91830043 -2.76071058 -0.51889 0.4779600000000001 0.802271
15480 -0.49951539 8.55636048 0.95097159 -0.561338 1.092087 0.175209
15500 1.1081474100000002 6.45412653 1.24136721 -1.556201 0.7608600000000001 -0.046028
15520 1.35169047 3.66812577 0.7589212200000001 -1.332496 -0.440733 0.016895
15540 0.49038228 2.29967001 0.5245112700000001 -1.608368 0.018982 0.376506
15560 -1.15050699 2.0975840100000003 -0.24114942 -2.353476 2.012887 0.562094
15580 -1.50167556 1.7812998 -0.37721412000000004 -2.019952 1.266864 0.621996
15600 -1.00425951 1.9634715 -1.0865948400000003 -2.014784 -0.673006 0.618108
15620 -2.00688075 2.516265 -1.9782846 -2.642468 0.273994 1.169054
15640 -2.7041265 1.9026887399999999 -3.3525773100000005 -2.539087 0.901327 1.108084
15660 -3.2726454300000007 1.96780752 -5.021160210000001 -2.463375 0.448091 0.8998219999999999
15680 -2.4298977600000002 5.8546276200000005 -6.33153096 -2.185622 0.834498 0.7314189999999999
15700 -0.70338681 17.65893195 -12.29648184 -2.077611 1.610569 0.5004430000000001
15720 -2.02334193 33.15665223 -10.810070640000001 -2.17305 2.49586 0.305294
15740 -6.692882310000001 15.356417040000002 -15.968492370000002 -2.226214 2.71042 0.241623
15760 -4.0460854500000005 0.7878116700000001 -11.214831240000002 -2.117297 1.496774 -0.044481
15780 -2.94183261 5.570667360000001 -4.740192 -1.6735520000000002 -0.193303 -0.291316
15800 -0.9512757000000001 11.55717081 -0.01287072 -1.767538 -0.8866360000000001 -0.250492
15820 1.51664562 14.072386140000003 3.4611053400000005 -2.2641310000000003 1.941137 0.312846
15840 0.25506981 10.680588450000002 1.13179932 -1.119731 2.856176 0.128456
15860 0.3614985 5.234910300000001 -0.67643874 -0.11488 0.993261 -0.272335
15880 0.1707921 6.449633550000001 2.43843246 0.425102 0.38377 -0.435493
15900 -0.046705409999999996 10.50455781 -1.16203374 0.527386 0.521223 -0.266176
15920 1.7794947600000002 15.300735480000002 -3.10678776 1.368016 0.31558200000000003 -0.451252
15940 1.8745536600000001 11.90818242 0.73033488 2.5907310000000003 1.237209 -0.486622
15960 -0.06900354 9.063203940000001 -0.6982954200000001 3.4721870000000004 1.079535 -0.448216
15980 0.50774598 9.58336938 -2.34906336 3.663561 0.616957 -0.286053
16000 -0.42691158 8.09008137 -1.09991682 3.236114 0.94026 -0.046967
16020 1.0234184400000002 7.638164100000001 0.6698562300000002 2.700822 0.816334 0.238941
16040 -0.030391380000000003 7.912098540000001 -0.77059512 3.1783330000000003 -0.480563 0.47147
16060 -0.33755229 7.86854214 -0.5096883600000001 4.049478 -3.3190089999999994 0.121201
16080 0.40445649000000006 6.9123222 -1.03510215 3.985924 -6.350698 -0.643409
16100 0.59202369 7.0624642500000006 -0.42062337 3.55365 -3.733173 -0.836722
16120 0.71206866 6.591839310000001 1.0629429300000002 2.281315 0.8428399999999999 -0.164606
16140 0.63632565 7.495958340000001 1.93726899 1.859674 -0.209767 0.4950270000000001
16160 0.0009025200000000001 8.657099370000001 1.8724543200000003 1.6825709999999998 -1.03842 0.6155609999999999
16180 -0.35521029 10.17568737 -0.45864693000000006 1.570749 -1.030534 0.339168
16200 0.70473078 11.54923452 -3.8314328400000006 1.37237 -0.794465 0.084311
16220 1.71408168 12.29708025 -1.3527401400000003 1.040124 -0.407719 0.093246
16240 1.6527103200000002 12.64286313 -1.3621675500000001 0.529488 0.042049 0.214084
16260 2.7433468800000003 12.99912309 -1.1150340300000001 -0.056819000000000015 0.095552 0.395791
16280 2.2329031500000003 13.0318983 0.89797797 -0.71963 -0.00732 0.588914
16300 -0.47720745000000003 14.452592310000002 -1.4124634200000001 -1.525952 -0.128221 0.8857440000000001
16320 0.11915226000000001 13.74247584 -2.1983327100000003 -2.268968 -0.004036 1.110062
16340 1.8407189700000002 12.90571227 1.01369673 -2.792014 0.394136 1.090943
16360 -1.10530251 13.234131450000001 0.051041430000000006 -1.458234 -0.643544 0.493771
16380 -1.79536734 12.22837101 1.43536977 1.452685 1.906482 -0.369378
16400 -0.75562506 14.3506566 5.34298707 2.935878 1.900683 0.060801
16420 -1.0343467800000004 14.956296570000001 3.99519117 1.308928 -2.1911560000000003 0.699886
16440 -1.8018027 14.89762296 2.8620478800000004 0.367523 -3.949191 -0.26476900000000003
16460 -2.6268825600000003 15.495777900000002 0.5667237 0.117813 -3.18701 -0.4416100000000001
16480 -2.31912324 13.476624840000001 -1.3096251900000002 0.076439 -0.912738 -0.116869
16500 -0.84184515 11.072321370000003 -4.66834356 -0.138992 0.998513 0.8309629999999999
16520 0.08442486000000002 9.41721741 -3.39748749 -0.3567 1.125255 0.493858
16540 -0.50549949 9.28129986 0.07469334000000001 -1.617995 0.8862399999999999 -0.17801199999999998
16560 0.40730139000000004 7.09674039 0.7545852000000001 -1.052993 -0.705913 -0.243596
16580 0.45056349000000007 4.49215596 1.34286147 -1.577135 0.6278239999999999 0.207165
16600 0.30506157000000006 3.2918043600000004 0.8903457900000001 -2.758695 2.291285 0.556771
16620 -0.89079705 1.6890858000000002 0.49651353 -2.317156 0.942795 0.669473
16640 -1.69432434 0.90576711 -0.24384717000000003 -2.116121 -0.165479 1.124155
16660 -1.4584134600000003 1.29345831 -0.9048645900000001 -2.480028 1.130747 1.492762
16680 -2.0404113300000004 1.51619436 -1.6061618700000002 -2.774156 1.32729 1.614369
16700 -2.41028757 1.83143871 -2.5924592700000004 -2.76676 0.918714 1.219702
16720 -3.09212181 1.5920845200000002 -3.9023885700000003 -2.291643 1.407125 0.679739
16740 -2.8445370300000006 4.4737425900000005 -5.39239023 -2.363383 2.529032 0.433177
16760 -0.96534324 14.60543211 -10.87174611 -2.645343 3.541285 0.084875
16780 0.04595004000000001 35.86032747 -12.78775683 -2.745914 3.773414 -0.334868
16800 -7.657627140000001 18.78727815 -19.73211849 -2.092851 1.796434 -0.677082
16820 -2.73421377 0.10508471999999999 -14.646594870000001 -1.510332 -0.629955 -0.7265189999999999
16840 -1.8988039800000003 2.50339428 -4.8816522 -1.872285 -1.093229 -0.177251
16860 -0.29533986 12.801824370000002 2.31464007 -1.444115 3.115082 0.398255
16880 1.84640877 18.263070990000003 4.92506145 -0.253866 2.509004 -0.116083
16900 0.5524992000000001 10.467731070000001 3.08134062 0.25702600000000003 1.027543 -0.376604
16920 0.12843252 4.3683635700000005 1.8220113000000002 0.396584 0.55813 -0.324821
16940 -1.10395854 6.55022529 1.2960089099999998 0.323175 0.6669 -0.023166
16960 0.7595196300000001 14.381793540000002 -3.45032415 0.812078 0.121256 -0.390793
16980 2.7416988 15.43020786 -1.34195895 1.743398 0.034028 -0.6960970000000001
17000 0.44113608000000004 9.7234758 0.17198892 3.152327 0.517546 -0.8225389999999999
17020 0.20642202000000004 8.83028511 -3.1021476299999997 3.815815 0.693386 -0.616236
17040 1.35573219 9.353452410000001 -0.86864607 3.406461 1.392183 0.01026
17060 2.24907003 7.9577542800000005 0.3752717400000001 2.1972970000000003 1.190536 0.602413
17080 0.51432849 6.44843673 -0.78347565 2.087328 -0.117669 0.975062
17100 -1.2253474800000002 5.48100396 -0.97791966 3.305803 -2.695787 0.756141
17120 -1.6190325900000002 4.64679099 -0.6468027300000001 4.312772 -5.462372 0.166379
17140 -0.5095412100000001 5.6018043 -0.83436012 4.7711489999999985 -6.717353 -1.007059
17160 0.9906432300000001 7.3944738899999995 0.45834282000000004 3.499636 -2.422945 -1.040672
17180 2.5950000600000007 8.60051529 2.73495933 1.799295 0.783385 0.202776
17200 1.79850654 9.783807300000001 1.7199186300000002 1.611853 -0.835902 0.647922
17220 0.00973152 11.566146960000001 1.0150407000000001 1.679617 -1.4179190000000002 0.417337
17240 1.19870352 13.3845678 -4.997508300000001 1.343999 -1.223357 0.271602
17260 3.4757712900000004 13.139523810000002 -4.131412830000001 1.125459 -0.729295 0.251282
17280 1.82889792 12.51487206 -1.2650191200000003 0.774092 -0.398643 0.185379
17300 0.95950629 13.684842090000002 0.7939527300000001 0.4 -0.5189060000000001 0.214967
17320 1.62501669 12.90885147 0.02454462 -0.167391 -0.6057779999999999 0.320074
17340 0.58767786 14.504085 1.23987609 -0.919826 -0.559913 0.424786
17360 -1.4310239400000002 13.42123758 -1.87185591 -1.7523939999999998 -0.177643 0.654558
17380 -0.5290042500000001 14.113097640000001 -1.281186 -2.494892 0.484712 0.826916
17400 0.86295627 10.660527 0.9211884300000001 -2.573298 0.510933 0.731262
17420 -0.18396693 11.335631580000001 0.9774684000000001 0.12531199999999998 0.195223 0.088219
17440 0.83660661 11.44610199 2.49500673 1.835425 2.175247 -0.513396
17460 3.01967496 15.779885310000001 4.14113454 2.047907 -0.965007 0.588108
17480 -0.51882147 16.184047500000002 4.5955926 0.885447 -3.846471 -0.02841
17500 -2.6021907900000003 16.29361539 2.1356075700000003 0.284029 -3.4941949999999995 -0.223206
17520 -2.5991987400000003 15.466289040000001 2.8051695 -1.068345 -1.014547 0.493766
17540 -1.2603789900000002 12.63612366 1.8681183 -0.132522 1.395259 0.975778
17560 -0.30386475 8.936115390000001 -4.142037060000002 -0.008109 1.1885139999999998 0.622262
17580 0.7253906400000001 7.6513389300000005 -5.4051138000000005 -1.317003 0.689133 -0.164975
17600 0.13831119 10.149347520000001 -0.39173292000000004 -1.398602 -1.466022 -0.06877899999999999
17620 -0.0023936400000000003 6.996904020000001 0.9572598 -1.278354 -1.053143 -0.060991
17640 0.25820901 3.2196518100000002 1.06608213 -3.058464 3.03059 0.815444
17660 -0.32946885000000004 2.45175444 1.13898024 -3.061387 3.3446870000000004 0.591762
17680 -0.44217594000000005 1.56529341 0.21390705000000002 -2.45427 0.04857 0.370559
17700 -0.9786652200000001 1.3058875799999998 -0.18905832000000003 -1.607423 -0.070146 0.552883
17720 -1.49134563 1.75674537 -0.5070004200000001 -1.972348 0.635366 0.794053
17740 -2.19652767 1.6060147200000001 -0.78286743 -2.1984790000000003 0.661659 0.808463
17760 -2.6440991100000004 1.94819733 -1.79551449 -2.097526 0.890971 0.651846
17780 -3.6187226100000003 2.38393791 -3.4048155600000003 -1.895485 1.549182 0.5092720000000001
17800 -3.66633054 5.291641530000001 -4.5494856000000015 -1.995313 2.190457 0.334701
17820 -0.81430848 14.574589470000001 -9.68575635 -2.328353 3.393986 0.149234
17840 -0.38051028000000003 35.629203870000005 -17.10986625 -2.863611 3.790605 -0.0034950000000000003
17860 -6.60351321 19.39367349 -19.71609876 -2.41739 1.240679 -0.475674
17880 -2.09923209 2.24966844 -14.096038050000002 -1.624095 -1.382193 -0.855605
17900 -1.98412155 6.122715300000001 -3.88486791 -1.630956 -0.7321850000000001 -0.099116
17920 1.18717677 12.43164402 4.66594992 -0.772225 3.736069 0.365833
17940 3.34898685 17.58303198 4.68436329 0.041408 2.258525 -0.070971
17960 0.19414971 9.05077467 2.86549119 0.196111 -0.518626 -0.476529
17980 -0.8610138900000001 5.353317 2.2192868700000004 0.12132 -0.066694 -0.475494
18000 -1.1768566500000002 5.4922266 0.9322639200000001 0.5577810000000001 0.565084 -0.338659
18020 1.78833357 13.596826770000002 -3.7706598900000006 1.328689 0.410388 -0.15041
18040 4.00911156 12.87801864 0.61941321 2.138594 -0.320885 -0.196159
18060 1.0910780100000002 7.880510340000002 2.18455947 3.188643 -0.694507 -0.379557
18080 -1.23358788 7.61720994 -2.3942678400000004 3.943804 -0.979531 -0.61854
18100 -0.9383951700000001 9.35704287 -2.08846071 3.515714 0.4186220000000001 -0.109507
18120 0.6785380799999999 8.29889703 0.33470739 3.079677 2.193766 0.16932
18140 0.28874754 6.821766090000001 -1.2274468200000002 3.094932 2.038357 0.657803
18160 -1.40347746 6.551422110000001 -2.06450469 3.090862 -2.7762290000000003 0.5464399999999999
18180 -0.75038652 5.75373177 -2.04340338 3.093858 -6.737635000000001 0.18941
18200 -0.2080701 6.30624078 -2.1833626500000003 3.688061 -6.074091 -0.560387
18220 1.84850811 8.047868939999999 -1.4834191500000002 2.703406 -1.238735 -0.257267
18240 3.5146875600000005 8.34604389 0.9714843000000001 1.968093 -0.213795 0.343034
18260 1.21847067 7.8894963 3.4178432400000003 2.086226 -1.567761 0.240908
18280 -1.6902826200000003 9.83814489 1.9278415800000002 1.85453 -1.81221 0.034504
18300 -0.03517866 12.440629979999999 -1.28567898 1.234658 -0.866209 0.03003
18320 2.59979715 14.68820889 -6.31806183 0.662172 -0.25811 0.30299
18340 3.17684097 13.22050536 -0.90457029 0.277116 -0.21000700000000005 0.329081
18360 0.39218418 13.06273113 0.69859953 -0.138653 -0.019422 0.4477100000000001
18380 2.0670552900000003 12.793299480000002 0.45849978 -0.616334 -0.269809 0.607064
18400 2.82552525 13.60520451 1.02312414 -1.077901 -0.4713479999999999 0.791037
18420 2.37885633 15.545926620000001 -0.44637462000000006 -1.601527 -0.423604 1.0266
18440 1.16038566 15.254177220000003 1.3989942900000003 -1.7615759999999998 -0.131504 0.8456459999999999
18460 -0.92403333 12.068801550000002 1.77037146 -0.374605 -0.041144 0.223899
18480 -1.7554014000000002 10.04650929 1.3359748500000002 0.432425 0.8470559999999999 -0.414671
18500 -2.65278096 10.191854250000002 0.65055015 1.163034 1.258123 0.049241
18520 -0.69664734 13.1907222 3.3793684200000005 0.8451200000000001 -1.602989 0.269672
18540 0.10733121 14.9233644 3.70389303 0.42155 -2.75982 -0.17618499999999998
18560 -2.27272194 15.71597316 1.58401089 -0.031708999999999994 -1.833337 -0.23929
18580 -3.84805098 14.68371591 -0.41568894000000006 0.162363 -0.546479 0.123612
18600 -1.9258992000000001 12.788355240000001 1.2843252 -0.504861 0.8397469999999999 0.8916360000000001
18620 -0.3902418 10.65349323 -3.2787864900000003 -0.7492449999999999 1.535058 0.649756
18640 1.9056906 8.22060342 -3.83128569 -1.437872 0.5588810000000001 0.011673
18660 0.72254574 8.44558596 -0.27093258000000003 -0.634698 -1.080446 0.081341
18680 -1.0844955 7.03596744 1.44764208 -1.91014 0.670239 0.278492
18700 -0.79005816 4.28484123 0.6441147900000002 -2.704475 2.848687 0.444272
18720 -0.35281665 2.6740392300000004 -0.10463346000000001 -2.388562 1.516786 0.513347
18740 -0.77135049 2.5363264500000002 -0.38110869 -2.3370990000000003 -0.591461 0.485429
18760 -0.33395202000000007 2.4556392 -0.30775932000000006 -2.325088 0.205447 0.986556
18780 -1.57248414 2.5680618 -0.8614553400000001 -2.330864 0.737479 1.142863
18800 -2.3252643 3.0680186400000005 -1.3859666099999999 -2.555794 0.515612 0.877725
18820 -3.14750907 3.27833523 -2.61640548 -2.107343 0.653148 0.46087
18840 -3.6646824600000003 3.74356467 -5.18791059 -1.869581 1.633068 0.288223
18860 -3.0231182700000003 5.1970437 -8.133333660000002 -1.971615 2.909611 0.291216
18880 -3.3801237900000003 12.71844918 -12.31893693 -2.409431 4.215053 0.018361
18900 -2.7415516500000003 21.852010440000004 -12.692256480000001 -2.406601 3.091437 -0.312396
18920 -4.5075772800000005 16.316973 -13.74501663 -1.985542 -0.145101 -0.6193649999999999
18940 -4.38648264 7.94907243 -10.816506 -2.050476 -0.5806 -0.612851
18960 -4.36627404 7.458837300000001 -4.336785180000001 -1.4942950000000002 2.273005 0.036856
18980 -2.0969856 13.91296383 -1.04527512 -0.279636 2.7656 -0.059977
19000 1.7615326500000001 19.34577126 1.89371259 0.309245 0.868159 -0.5234489999999999
19020 1.8419157900000003 14.09364441 2.83555107 0.355905 -0.101577 -0.48022
19040 0.33440328 2.6440991100000004 3.5278623900000006 0.588982 -0.010589 -0.259723
19060 -1.3687500600000002 3.92289147 2.5084856700000002 1.5240209999999998 0.303691 -0.277096
19080 1.5037749000000002 12.41862615 -3.3311718900000002 2.489967 0.209458 -0.459303
19100 3.7124277300000004 14.01625332 -2.7141523199999997 3.529385 -0.6348520000000001 -0.408232
19120 1.33267869 8.041580730000002 1.10395854 3.560395 -0.044136 -0.307291
19140 -0.37871505 6.62087691 -2.245028310000001 3.087999 1.589102 0.325045
19160 -0.23935419000000002 8.272400220000002 -3.0638297700000003 2.94813 1.942807 0.703902
19180 0.7716447900000001 8.75783826 0.32841918 2.746505 -0.254848 0.876225
19200 0.9204330600000001 7.70881572 -0.34009308 2.770301 -5.291059 0.752522
19220 -0.9500788800000001 6.295008330000001 -0.98390376 3.340812 -7.309707 -0.01964
19240 -1.5705319500000001 5.96763882 -1.4111194500000002 3.802453 -4.429316 -0.39078
19260 0.43289568 7.0440508799999995 -1.7649759600000003 2.479173 -0.75961 0.26505
19280 1.49928192 7.63098318 -1.16232804 1.803135 -0.510671 0.6680689999999999
19300 2.1200391 8.31550536 1.4711370300000002 1.964395 -1.227048 0.39024
19320 0.29818476 8.362956330000001 3.04916382 1.557336 -1.515802 0.226465
19340 -1.40662647 10.32732054 0.8333202600000001 1.15501 -0.695733 0.3572
19360 0.3305087100000001 12.495261870000002 -1.1976636600000001 0.821276 -0.491851 0.276627
19380 3.0816447300000003 13.89934755 -4.850064000000001 0.530917 -0.534492 0.269312
19400 1.3494439800000002 13.630210200000002 -2.2614993 0.045073 -0.532109 0.360987
19420 0.55639377 12.880569240000002 -0.87118686 -0.542377 -0.576282 0.461626
19440 2.88285489 12.83401098 1.27939077 -1.228036 -0.524674 0.670415
19460 2.40145857 13.865071410000002 0.28829628 -1.848986 -0.087633 0.8727530000000001
19480 1.42039971 14.978604510000002 -1.25394363 -2.110296 0.386333 0.8532290000000001
19500 0.8035272900000001 13.25688084 0.80233047 -0.506059 -0.023914 0.291325
19520 -0.27961443 12.357853200000003 1.1523022199999997 0.924558 1.0746790000000002 -0.488438
19540 -1.4226462000000002 11.85190245 1.6564577400000002 1.870195 0.534345 0.082881
19560 -0.9457330500000001 12.91693491 4.48677027 1.034967 -2.184804 0.4148850000000001
19580 -0.31225230000000004 15.684983370000001 3.0049992 0.5566810000000001 -3.5061730000000004 -0.128351
19600 -3.1605269400000005 16.35214185 3.8377210500000003 0.213629 -2.031468 -0.188185
19620 -3.74431023 15.02141535 0.30117681 0.244295 -0.500274 0.219197
19640 -2.33514297 13.95577467 1.1750516100000001 -0.345006 0.755323 1.086209
19660 0.3065625 11.863429200000002 -1.00635885 -0.733338 1.494598 0.630691
19680 0.91055439 9.08460936 -3.37608207 -1.697817 0.27152600000000005 -0.362584
19700 0.5465151 7.7306724 -1.54269117 -0.356227 -2.067916 -0.435673
19720 -0.70099317 6.849901170000001 1.6211319300000002 -2.1684650000000003 1.119599 0.282521
19740 -0.30790647 4.6051769700000005 1.1231174700000002 -3.845661 4.106772 0.901501
19760 -0.8087658299999999 2.36897766 0.8521750800000001 -2.749467 2.516695 0.389904
19780 0.04415481 2.03831199 0.2806641000000001 -1.607214 -0.818919 -0.008041
19800 -0.7144623 2.40863949 -0.26420292 -1.903658 -0.353036 0.425126
19820 -1.1599344 2.5135770600000003 -0.76805433 -2.527486 1.210761 0.972104
19840 -1.6055634600000002 2.7795654000000005 -1.17565983 -2.434455 0.8775809999999999 0.8289709999999999
19860 -2.54246751 3.0582871199999997 -1.8486552600000001 -2.058312 -0.02684 0.503745
19880 -2.7126612 2.9562042600000003 -3.1611253500000003 -1.730468 0.56295 0.312999
19900 -2.94362784 3.78876915 -5.072201639999999 -1.7576009999999995 1.786377 0.214033
19920 -3.0708635400000004 7.779624300000001 -7.36109046 -2.118821 2.937621 0.074371
19940 -1.3967478000000002 18.75000996 -13.816119509999998 -2.330347 3.057779 -0.219953
19960 -2.1713846400000003 24.489075780000004 -13.48575795 -2.34243 2.057312 -0.4324
19980 -4.203114120000001 13.34384649 -14.418169020000002 -2.083935 -0.188365 -0.371101
20000 -3.2052801600000005 4.992122610000001 -9.573941970000002 -1.491695 -1.172154 0.048766
20020 -3.72859461 8.36431011 -3.32458938 -0.953897 2.5878 0.232507
20040 -0.11810259 16.171922340000002 -0.41208867000000005 -0.15731099999999998 2.564318 -0.179573
20060 1.25483634 19.447706970000002 0.13037490000000002 0.39323 0.141031 -0.709938
20080 1.79910495 7.103175750000001 4.032616320000002 0.168669 0.032177 -0.466744
20100 -2.171531790000001 1.9923521400000002 6.36087267 0.402444 0.532162 -0.229675
20120 -2.42495352 4.64993019 -1.43401599 1.279858 -0.01765 -0.158748
20140 3.24629577 15.609240360000001 -4.30849314 1.986824 -0.058641999999999986 -0.111029
20160 6.00416145 13.30777512 2.43528345 2.92461 -0.217874 -0.264508
20180 2.245028310000001 8.048310390000001 2.95081857 3.2120900000000003 -0.109154 -0.262639
20200 -0.89244513 7.93319985 -2.9812001400000003 3.062865 0.581032 0.16058699999999998
20220 -1.15035984 9.61780248 -2.7590625 3.013568 2.220664 0.426265
20240 -0.27617112 8.56384551 -0.69231132 2.5743720000000003 1.1685290000000002 0.717238
20260 0.8405011800000001 7.5357771300000005 -0.7568218800000002 2.219826 -2.894456 0.7637649999999999
20280 0.4858893000000001 6.90423876 -0.5634275400000002 2.993623 -6.547429 0.12971400000000002
20300 -0.10762551000000001 7.348671 -0.8107180199999999 4.017005 -6.318741 -0.403951
20320 0.29159244 7.00992189 -1.09602225 3.246016 -2.545498 -0.27744
20340 0.9292718700000001 7.365436290000001 -1.00320984 1.914719 -0.289919 0.511537
20360 1.3841713800000002 7.375766220000001 0.7459033500000001 1.82267 -0.8497469999999999 0.730597
20380 0.8328690000000001 8.61997833 2.41432929 1.768112 -1.497744 0.588973
20400 -0.38065743 10.71337347 2.3297572800000004 1.501521 -0.8847200000000001 0.6974199999999999
20420 -0.7062317100000001 12.27656754 -1.39524687 1.168227 -0.519392 0.203242
20440 0.41748417 13.107042900000001 -6.656958090000001 0.989488 -0.493924 0.116503
20460 1.4923952999999999 13.10615019 -0.7460505000000001 0.58192 -0.7672140000000001 0.08196
20480 0.48184758000000005 13.23038403 -1.16143533 0.09511 -0.749884 0.166131
20500 2.35056429 12.58238448 -0.39742272 -0.41251 -0.6503140000000001 0.214801
20520 1.6453822500000002 14.184357480000001 0.89962605 -0.908441 -0.238999 0.34861
20540 1.60735869 15.342192540000001 -1.08344583 -1.432026 0.152437 0.68201
20560 0.9767228400000001 14.63925699 -0.9593591400000001 -1.040346 0.338883 0.603322
20580 1.0268617500000001 11.06004906 1.4907472200000003 0.0048590000000000005 0.402522 0.033701
20600 -0.01362609 10.7382222 1.8016555500000002 1.038957 0.892223 -0.248123
20620 -0.44188164 11.167380269999999 1.72965015 1.142475 0.126391 0.16912
20640 -0.96414642 12.597354540000001 2.89677528 0.698241 -1.715583 0.315792
20660 0.00104967 15.83512542 4.645290060000001 0.288456 -2.430209 0.09486
20680 -3.2648562900000004 15.823892970000001 2.3343974100000002 0.145606 -1.950256 0.074019
20700 -3.56154012 15.21690903 2.08186839 0.095082 -0.8069850000000001 0.592425
20720 -1.8652734000000002 13.07351232 2.05029 -0.908406 1.521753 0.917853
20740 -0.22917141000000002 11.933188110000001 -0.4784042700000001 -0.843627 2.219807 0.255114
20760 -0.22512969000000002 10.24020774 -3.25049445 -0.88726 -0.503729 -0.5984149999999999
20780 0.12513636 8.87249754 -2.65547871 -0.207436 -2.335039 -0.097801
20800 -0.7429014899999999 8.8442055 0.54785907 -1.744787 0.234966 0.5611470000000001
20820 -0.5313978900000002 7.263490770000001 0.28201788000000005 -2.951531 3.161892 0.654721
20840 -1.03374837 2.3397831 0.99138879 -2.487839 2.781142 0.364687
20860 -0.40371093 1.3293825300000004 0.7289811 -1.748641 0.4716260000000001 -0.009614
20880 -0.12768696000000002 2.3316996600000004 0.33126408 -2.276221 -0.084673 0.503365
20900 -0.49921128000000003 3.04421958 -0.37587015 -3.100682 0.263342 1.033407
20920 -1.31606055 2.9286577800000004 -0.57225654 -2.745937 0.238187 0.8895709999999999
20940 -1.78534152 2.8565052300000002 -1.08179775 -2.190123 -0.264459 0.633452
20960 -2.55997836 3.5711244900000003 -2.57958855 -1.922841 0.273776 0.334458
20980 -3.16246932 4.51685754 -5.518125 -1.854026 1.2443959999999998 0.236487
21000 -3.60540063 6.83882568 -9.28744092 -1.788946 2.3820810000000003 0.187414
21020 -3.0178699200000003 15.109881930000002 -13.29564996 -2.274065 3.5601550000000004 0.105604
21040 -1.29436083 20.105438040000003 -12.54646026 -2.589552 3.072516 -0.21751
21060 -2.56866021 14.36338017 -12.042903149999999 -2.224733 0.551235 -0.589881
21080 -1.8778498200000002 8.2162674 -10.945536930000001 -1.790755 -1.105955 -0.528111
21100 -2.09908494 5.89069899 -6.019435620000001 -1.238783 0.26721 0.051893
21120 -2.7547166700000005 10.57715181 -3.8779812900000006 -0.301712 2.798971 0.138516
21140 0.48693897 14.161147020000001 -1.7458170300000002 0.102783 1.948049 -0.269902
21160 0.68048046 14.163844769999999 3.26006901 0.175061 -0.011355 -0.508305
21180 -2.30924457 6.460120440000001 5.48848899 0.118996 0.305448 -0.297594
21200 -4.36178106 4.820123880000001 1.8651262499999999 0.767324 0.825641 -0.411237
21220 -1.0377900899999999 10.356210990000001 -5.1861153600000005 1.317101 0.638459 -0.431726
21240 4.22196894 13.67451216 -4.58750916 2.4435860000000003 0.31303800000000004 -0.481124
21260 2.9728224000000005 10.01462679 2.1752792100000002 3.351068 1.163165 -0.478011
21280 1.4883535800000003 6.9648645600000005 1.47593412 2.971191 1.552863 0.16510999999999998
21300 0.91459611 8.09037567 -2.7158004000000004 3.169257 0.848722 0.258195
21320 -0.83047536 8.816668830000001 -2.067948 3.02845 0.695385 0.098243
21340 -0.5252568299999999 8.25338844 -1.43776341 3.241083 -0.824829 -0.069239
21360 -0.53020107 7.860301740000001 -0.3010198500000001 3.112161 -3.733362 -0.407175
21380 -0.16914402 6.67102563 0.23636214000000003 2.694228 -5.243882 -0.321633
21400 -0.5999501700000001 6.115681530000001 -1.28776851 2.840086 -2.029117 -0.12284
21420 0.25671789 6.99764958 -1.65390714 2.043871 0.024585 0.337916
21440 1.74507147 8.35188084 -1.27744839 1.7759630000000002 -0.809056 0.718468
21460 1.98232632 8.16057603 0.07155414 1.87927 -1.471316 0.809769
21480 1.61125326 8.24006646 2.47794714 1.947848 -0.930504 0.571342
21500 -0.23007393000000004 9.3124368 2.4069914100000003 1.39768 -0.4711010000000001 0.714325
21520 -0.6247989 12.365936640000001 1.41770196 0.934105 -0.282398 0.546339
21540 0.6590750400000001 13.780793700000002 -4.7306174400000005 0.5732970000000001 -0.240053 0.393145
21560 2.42391366 13.607598150000001 -2.38962771 0.232011 -0.809363 0.26971300000000004
21580 0.65937915 12.548706750000001 1.01668878 -0.210911 -0.999904 0.35125300000000004
21600 0.14100894 12.12464007 0.52406001 -0.710733 -0.766379 0.460694
21620 0.31434183000000004 13.20629067 1.18209519 -1.357566 -0.395279 0.658663
21640 0.12229146 13.312719360000001 -1.20469743 -2.024343 0.17671099999999998 0.985489
21660 0.3793134600000001 12.59914977 -1.52592588 -1.963959 0.521788 0.951286
21680 0.69231132 12.69075555 -0.21720321 0.03079 0.357318 0.392863
21700 1.3572233100000002 11.62362375 1.4705386200000001 1.80261 0.942408 -0.14030399999999998
21720 0.8529304500000001 13.30568559 2.9222224200000007 2.031755 -0.6788310000000001 0.4316680000000001
21740 -1.5762217500000002 13.90069152 2.5346783700000004 0.949586 -3.324677 0.229879
21760 -3.7422207 14.045290920000001 3.2698005300000004 0.5035609999999999 -3.551302 0.014477
21780 -2.8113007500000005 13.57078122 3.1957056 -0.048194 -1.491114 -0.0262
21800 -2.05223238 13.33876491 0.8791231500000001 0.382491 0.445949 0.56719
21820 -2.1115044 14.49556011 -1.52592588 -0.541145 1.671256 0.774949
21840 -0.68527755 13.655206080000001 -2.0704986 -0.934871 1.306102 -0.5391100000000001
21860 -0.34473321000000007 11.812839030000001 -2.7952908300000003 -0.528783 -2.451041 -0.645759
21880 -0.6209043299999999 10.39707945 -1.58624757 -0.436463 -1.163015 0.045443
21900 -0.7186511700000001 9.15421131 0.88630407 -2.800936 3.363106 0.821089
21920 -0.6620769 7.632180000000001 1.89371259 -3.143596 4.201884 0.750323
21940 -0.90756234 5.71885722 0.95276682 -1.789337 1.05295 0.370712
21960 -1.11008979 2.17377828 0.6063855300000001 -1.874019 -0.122157 0.470971
21980 -0.22094082 1.7904231000000002 -0.07139718 -2.906092 0.591731 0.793996
22000 -0.17543223 2.59949304 -0.81744768 -3.119004 0.788111 0.8862610000000001
22020 -0.51298452 2.3599917 -0.8930435400000001 -2.382152 0.458434 0.640798
22040 -1.3491398700000001 2.3460713100000006 -1.09602225 -2.041886 0.20361 0.402083
22060 -1.9170603900000003 2.1405518100000007 -1.90583775 -1.86053 1.421405 0.198827
22080 -2.7882472500000004 3.03283998 -3.74670387 -2.053836 3.108023 0.028673
22100 -2.66849658 3.99848733 -5.607337139999999 -2.54279 3.707406 -0.254316
22120 -2.58272775 8.52776433 -7.5573297 -2.464887 2.05996 -0.721679
22140 -1.0093509 21.429591840000004 -12.06042381 -1.748042 0.171676 -0.922555
22160 -2.1245320800000003 23.57283159 -12.24992358 -1.832613 -2.252432 -0.431862
22180 -2.39562162 10.33406001 -14.737307940000003 -1.5840379999999998 1.348556 0.32797
22200 -0.18037647 4.716991350000001 -10.915449660000002 -0.606036 3.11045 0.031305
22220 -2.5267420800000004 10.9434474 -3.7482048 -0.041127 0.443745 -0.377938
22240 1.39045959 17.12543472 2.3403815100000003 -0.113336 -0.98528 -0.458865
22260 -0.5095412100000001 15.34788234 3.39973398 -0.088337 -0.014464 -0.301837
22280 -3.0994498800000003 2.83839597 5.13656505 0.749442 1.014788 -0.27807600000000005
22300 -6.890171220000001 2.31224643 2.94302943 1.339813 0.5232220000000001 -0.138726
22320 -2.66566149 7.8838065 -3.87424368 2.275314 -0.934152 -0.131393
22340 3.32219574 17.568366030000004 -5.1190542 3.445386 -1.538906 -0.426888
22360 4.23215172 11.032208279999999 2.4266016 3.391947 -1.042473 -0.3841
22380 2.36044296 7.34238279 1.96451136 2.621024 0.1783 0.025557
22400 0.35236539 9.29492595 -3.30766713 2.110168 1.575864 -0.044964
22420 -0.45879408 8.96634981 -1.52532747 2.184402 1.56778 0.047432
22440 -0.42107463000000006 7.271427060000001 -0.83915721 1.553112 -2.41292 0.269246
22460 -1.5946351200000002 8.08289064 -0.6869256300000001 1.4505629999999998 -5.946416 0.086118
22480 -0.00373761 7.53517872 0.12857967 2.630371 -6.320004 -0.484138
22500 -0.08188407 6.5132514 -0.8608569300000001 3.509271 -4.219308 -0.706086
22520 0.8803199700000001 6.90409161 -0.5870794500000001 3.566787 -0.822725 -0.610692
22540 1.9871136 7.05588174 0.35341506000000006 3.061903 0.337941 -0.584727
22560 1.8010571400000002 7.674539580000001 2.38783248 2.32919 0.050202 -0.453813
22580 1.64058516 9.31153428 2.4983028899999997 1.523831 0.26968000000000003 -0.030294
22600 1.0762649100000001 12.49946055 3.6410305500000004 1.209031 0.001435 0.191109
22620 0.9198346500000001 12.9277161 -5.67050373 1.030307 -0.91694 0.106648
22640 2.8243284300000004 12.37596246 -6.32300607 0.462013 -0.953796 0.225571
22660 1.41860448 13.69726155 -1.72770777 -0.385629 -0.936365 0.596711
22680 1.19197386 13.03084863 -1.3329828000000001 -1.265223 -0.7247180000000001 0.91183
22700 2.4727086000000003 12.978159119999999 0.31703958 -2.011197 -0.099623 1.346994
22720 1.2873270600000002 14.821879950000001 -0.49771035 -2.124642 0.6682939999999999 1.48195
22740 0.13995926999999997 15.978969450000001 0.26808768000000005 0.122884 0.610991 0.810856
22760 -0.30476727000000003 14.705719740000001 1.0961694000000002 1.832678 1.64867 -0.428351
22780 -0.95561172 9.68321556 1.40722488 1.5243799999999998 0.111969 -0.550312
22800 -0.6848262900000002 9.14433264 1.27025766 1.075937 -2.250455 0.014672
22820 -1.02237858 10.719063270000001 0.4288539600000001 0.795792 -3.36047 -0.009363
22840 -0.28769787 12.079582740000001 1.98547533 -0.009718 -1.907209 -0.6983779999999999
22860 -0.3182364 16.076265030000002 3.36470247 0.33434200000000003 -1.293509 0.042449
22880 -3.3151521600000002 16.308438300000002 2.55024684 0.302456 0.699573 0.34838800000000003
22900 -4.8737159100000005 17.045954100000003 -0.27198225000000004 -1.170244 1.636413 0.17773599999999998
22920 -3.10843584 15.46882983 0.98809263 -1.933237 0.880732 0.406247
22940 -2.17796715 11.91582441 2.4496551 -1.038062 -1.753697 -0.102212
22960 0.38080458 9.1852011 2.01451293 -3.179839 2.476657 0.917855
22980 1.85927949 7.093297080000001 2.48348979 -3.511543 3.695493 1.165008
23000 1.30214016 5.12608797 1.61140041 -1.820138 1.683199 0.495739
23020 -0.21555513 4.08500172 1.08179775 -1.6526580000000002 0.100235 0.341909
23040 -1.77665967 2.41956783 -1.10380158 -3.164083 0.691585 1.087963
23060 -1.71572976 2.36987037 -0.01287072 -3.828013 0.427615 1.608161
23080 -0.76011804 2.09339514 0.24279750000000003 -2.501473 1.111518 1.2586959999999998
23100 -1.57936095 2.07124416 -0.6674625900000001 -1.967297 1.384789 0.656395
23120 -2.34817065 2.14773273 -1.5507746100000002 -1.928822 2.196899 0.264654
23140 -2.0796219000000002 2.51387136 -2.26508976 -2.2385900000000003 3.083038 0.043438
23160 -2.36089422 1.69223481 -3.9025357200000004 -2.409079 2.906741 0.05636
23180 -2.9273138100000002 3.49478307 -5.93979804 -1.915058 1.5018 -0.4105430000000001
23200 -2.3333477400000002 10.552303080000002 -8.9509383 -1.524058 0.487021 -0.590246
23220 -1.5004787400000001 24.66525357 -14.636117790000002 -1.30248 -0.547871 -0.122696
23240 -4.830600960000001 23.1598404 -13.016035530000002 -1.268817 1.35225 0.4626270000000001
23260 -8.04726072 8.43420636 -8.08303779 -0.200228 3.142389 0.216765
23280 -7.18266618 5.501212560000001 -8.79002487 -0.02132 1.6936400000000005 -0.210622
23300 -2.49141627 15.029498790000002 -6.499635120000001 0.164026 -0.130367 -0.30740300000000004
23320 2.5207579800000004 21.60651519 -0.320787 0.218704 0.107347 -0.127865
23340 0.8842145400000001 8.60440986 3.67037226 0.921897 0.469664 -0.501568
23360 -1.07910981 -1.65062079 6.386319810000001 1.909092 0.8133630000000001 -0.461998
23380 -1.4218908300000002 -1.3970421 6.9647174099999996 2.786193 0.5931350000000001 -0.228058
23400 -0.8408052900000001 11.37424374 -3.4798130100000004 3.4437519999999995 0.40348 -0.256336
23420 3.97184337 18.77650677 -1.4874608700000003 3.1945900000000003 1.000006 0.232541
23440 5.99129073 14.383588770000001 2.6915500800000003 2.453568 1.959693 0.37355
23460 2.7707364000000005 9.327102750000002 0.30491442 2.030766 1.248322 0.681292
23480 -0.53558676 7.693698510000001 -3.8833767900000002 2.443702 -1.449048 0.34687
23500 -2.97386226 7.669448190000001 -0.73781991 2.126347 -5.5952720000000005 -0.133938
23520 -2.89393038 6.782094450000001 -1.96706196 2.665756 -6.606222 -0.333973
23540 0.16091343000000002 6.959478870000001 -1.2507946200000002 3.733819 -5.00636 -0.415089
23560 1.34719749 6.858887129999999 1.4605127999999998 3.918297 -1.457432 -0.166248
23580 0.93735531 7.042854060000001 -0.00509139 3.06356 0.565735 -0.010304
23600 0.9681881400000001 7.402557330000001 0.11032326000000002 3.258 2.319325 -0.215224
23620 0.37991187 8.15085432 1.33822134 2.155797 0.576347 -0.278373
23640 0.36599148000000004 9.055571760000001 1.1972124 1.137527 -0.41425 -0.222259
23660 -0.16256151000000002 10.15743096 1.9758909600000003 0.548242 -1.177075 0.043794
23680 -0.01362609 11.737537470000001 0.95247252 -0.080986 -1.7429400000000002 0.373409
23700 1.1166821100000002 13.080104640000002 -8.58150351 -0.520456 -1.972416 0.598165
23720 1.8606332700000001 13.48710192 -2.5210620900000005 -1.09595 -1.261219 0.93186
23740 1.24107291 12.857662890000002 0.29309337 -1.809008 -0.398822 1.402201
23760 1.46665386 11.912675400000001 0.7027884 -2.271612 0.686121 1.67959
23780 0.9231308100000001 13.529461500000002 0.62001162 -1.271855 0.942342 1.207682
23800 -0.73077633 14.418914580000001 -0.63826803 1.622586 0.954002 0.046431
23820 0.16106058000000004 13.36495761 -0.8797215600000001 1.7804369999999998 0.121693 -0.53999
23840 0.9767228400000001 11.91432348 0.7337781900000001 1.709817 -3.265347 -0.081081
23860 0.69066324 10.11926025 1.33822134 0.614042 -3.66765 0.24293
23880 0.55728648 12.818893769999999 2.2656881700000002 -0.69224 -1.775766 0.32111100000000004
23900 -0.43499502 13.25329038 4.22765874 -1.302968 0.39226 -0.261704
23920 -3.3519789 15.873590430000002 4.81309011 -0.20478 1.659414 -0.017444
23940 -5.9029713 15.560739720000003 1.4265309600000002 0.798387 -0.269611 0.130904
23960 -4.45518207 16.64657919 -1.48191822 -0.6345430000000001 0.119142 0.05950800000000001
23980 -3.0397266000000003 15.98616018 0.82299033 -2.017212 -0.951134 0.6430170000000001
24000 -0.8012807999999999 13.08848238 1.36022517 -1.0172450000000002 -1.59073 0.4168810000000001
24020 0.76760307 9.89053029 1.40347746 -2.586168 3.240742 0.865475
24040 1.9863680400000001 7.19852895 1.37833443 -3.276182 4.447067 0.8227899999999999
24060 2.6017395300000006 4.84707195 1.36366848 -2.666439 2.034542 -0.052211
24080 2.3252643 2.7634083300000003 4.448599560000001 -2.30839 -0.024447 0.122776
24100 -0.94633146 0.3013239600000001 -3.6354878999999998 -2.815897 0.104198 0.8913909999999999
24120 -1.4430019500000002 0.29084688000000003 -2.00807757 -2.829399 0.069668 1.013118
24140 -0.52840584 2.91399183 -2.6114710500000005 -2.271623 0.023828 0.538509
24160 -0.7722432 3.95776602 -2.38154427 -1.831918 0.709526 0.242668
24180 -0.7952967000000001 3.0576887100000003 -1.7090001000000001 -1.573813 1.989704 0.356062
24200 -2.2432330800000004 2.41447644 -2.54890287 -2.030992 2.473339 0.4857770000000001
24220 -2.8436345100000002 2.51238024 -4.738995180000001 -2.529865 2.911202 0.111058
24240 -2.7910921500000003 4.366568340000001 -6.261330600000001 -2.456706 1.901744 -0.32404
24260 -2.93465169 10.429864470000002 -8.68389048 -1.471733 -0.311618 -0.44892
24280 -2.5806382200000004 25.247997 -13.84530426 -1.302906 -1.102937 -0.1081
24300 -2.28095253 22.774837140000002 -12.94238205 -1.573895 1.938704 0.323012
24320 -5.65150176 6.227348760000001 -9.32276673 -0.283381 2.974036 0.032666
24340 -4.4914104 -1.04003658 -6.790325040000001 0.39064 1.291385 -0.405919
24360 -1.63729881 8.21251998 -1.91122344 0.543137 1.032019 -0.411999
24380 -0.14070483 17.9656416 3.3495852600000005 0.971952 0.318857 -0.394203
24400 -1.6789128300000002 22.582786770000002 2.94063579 2.029452 0.56365 -0.190577
24420 1.8037450800000001 9.13744602 -0.7614620100000001 2.882764 0.997425 -0.183036
24440 -0.94034736 3.1183145100000003 4.02078546 3.635739 0.368814 -0.278452
24460 -2.81908989 2.10506904 -0.07289811 3.399222 0.043361 -0.203843
24480 0.65174697 13.182334650000001 -8.299495440000001 2.822176 0.861075 -0.13201
24500 4.99376088 13.999792140000002 0.8458868700000001 2.408606 0.082499 0.190839
24520 4.54230468 9.37156167 1.7462682900000002 1.962265 -2.53471 0.267987
24540 1.1300040900000001 8.89061661 -0.8884034100000001 2.192143 -5.909652 0.106206
24560 -0.8916995700000001 7.919583570000001 -2.45414808 3.040967 -5.850375 0.26374699999999995
24580 -2.81549943 7.60523193 -0.39084021 3.79769 -2.370987 0.357509
24600 -1.4305726800000003 7.985742210000001 0.04969746 4.221202 0.408148 0.299222
24620 1.0380942 8.216561700000002 -0.43693740000000003 4.944541 1.498975 0.208874
24640 2.39261976 9.4889187 -0.8880993 2.039439 -0.469866 0.116329
24660 2.9117453400000004 8.67206943 -0.27422874 0.790934 -0.089202 0.309014
24680 1.9401138900000001 6.973252110000001 -1.1088929699999999 0.46009 -0.819915 0.312981
24700 1.2283493400000003 6.626419560000001 0.6694049700000001 0.234172 -1.466842 0.318641
24720 0.09160578000000001 7.66107045 3.1481074800000006 -0.014358 -1.838124 0.409248
24740 -1.19556432 9.44880561 2.69319816 -0.417594 -1.774082 0.460828
24760 -1.06218756 10.62535815 -2.15311842 -0.904831 -1.277776 0.644796
24780 -0.24129657000000002 11.395207710000001 -5.68458108 -1.530608 -0.6344310000000001 0.940839
24800 -0.27108954 13.13174448 0.05673123 -2.163974 0.106335 1.123473
24820 0.07813665 12.09679929 -1.4198013 -2.030754 0.189457 1.000383
24840 1.19271942 12.598100100000002 2.059119 0.497213 0.432153 0.18879
24860 1.13464422 15.494276970000001 0.6548861700000002 1.536434 0.7399979999999999 -0.705925
24880 0.51358293 15.873296130000002 -0.393381 1.621135 -0.6998949999999999 -0.337088
24900 1.3401637199999998 13.317055380000001 2.3104413900000003 0.918268 -3.015311 0.148079
24920 -0.022749390000000005 13.162881420000001 1.3373188200000001 -0.232534 -2.73311 0.104427
24940 -1.8369813600000002 11.42604054 1.4331232800000002 -1.135734 -1.593777 -0.049688
24960 -2.59874748 11.832145109999999 3.33791136 -0.611085 0.254748 -0.039846
24980 -4.07542716 15.71701302 1.7721666900000002 -0.509694 2.3586970000000003 0.397205
25000 -3.22653843 17.4450249 0.28874754 0.4975479999999999 0.493989 0.175894
25020 -1.73638962 17.3382921 -1.2543948900000002 -1.277159 0.32774000000000003 -0.13325499999999998
25040 0.21420135 16.34421537 -0.35776089000000005 -1.438699 -1.661444 0.351002
25060 1.0279114200000001 11.98602477 1.97574381 -0.5903149999999999 -2.456666 -0.25200700000000004
25080 2.11525182 7.629482250000001 2.60547714 -2.881597 5.028884 0.969011
25100 2.88524853 4.9311926999999995 5.057378730000001 -3.193157 6.402008 0.444851
25120 1.1469165300000004 3.1240043100000006 -1.7411769000000001 -2.017225 2.148642 0.421127
25140 -1.78324218 0.94528179 -2.21613786 -1.729194 -0.038022 0.617153
25160 -0.6650689500000001 1.42428447 -2.33260218 -2.570171 0.042002 0.5150359999999999
25180 0.55385298 2.7988812900000006 -1.90119762 -2.6738630000000003 -0.133946 0.383146
25200 0.28889469 3.7619780400000002 -1.25768124 -2.030758 1.572021 0.243379
25220 -0.27198225000000004 3.83681853 -1.04452956 -2.061933 2.354504 0.127858
25240 -1.1132388 3.0735612900000002 -1.23298947 -2.198058 2.649156 0.087006
25260 -2.07633555 2.46013218 -1.61604054 -2.404569 2.692728 0.025687
25280 -3.02535495 2.96847657 -2.83390299 -2.292452 1.545914 -0.193182
25300 -3.4248770100000003 5.13462267 -4.97475891 -1.977471 -0.361771 -0.255836
25320 -3.6721674900000005 10.283312879999999 -9.03880647 -1.935728 -1.561137 -0.059591
25340 -1.32265287 24.071591610000002 -14.21878077 -2.035874 0.925349 0.26019499999999995
25360 -1.0773145800000001 24.44851143 -13.945297590000001 -1.039623 2.566435 0.055679
25380 -4.80590919 7.41738024 -10.20697146 0.060861 1.896877 -0.490183
25400 -4.99945068 -3.17040561 -6.511161870000001 0.562283 0.95657 -0.474793
25420 -2.31942735 5.52351069 -2.0676537 0.98404 -0.391415 -0.471188
25440 -1.40407587 14.800170420000002 0.45580203 1.926959 -0.330375 -0.835353
25460 0.053140770000000004 22.09660317 1.12536396 3.229161 0.6573479999999999 -0.685449
25480 0.9774684000000001 19.8804555 2.7644481900000004 3.746051 1.870535 -0.294561
25500 1.03689738 7.015611689999999 1.73564406 3.180156 2.632734 0.329692
25520 -3.8112242400000005 0.24729048000000003 4.93029999 2.0929450000000003 2.165706 0.582275
25540 -3.2763830400000002 5.04525357 -5.21934183 2.350543 0.299913 0.748835
25560 2.98329948 13.57901181 -2.9093517 3.005996 -1.978062 0.285246
25580 8.475526080000002 11.430229409999999 3.8040433200000003 2.692174 -4.751608 -0.082997
25600 2.81833452 11.035945890000002 1.34734464 3.0584860000000003 -6.401649 -0.152031
25620 -2.25805599 9.59968341 -3.9234898800000004 4.306005 -4.288798 -0.003951
25640 -2.89063422 7.94622753 -0.7774817399999999 4.271636 -0.673447 0.340485
25660 -2.3185248300000003 6.69407913 -1.50466761 2.667421 -0.51581 0.404921
25680 -0.93570723 7.58398347 -1.5968816099999998 1.428894 -0.441365 0.444245
25700 0.6908103900000001 7.56092997 -1.2025980900000002 1.1653870000000002 -0.764996 0.353088
25720 0.65533743 7.96792725 -1.07102637 1.028507 -1.593229 0.067978
25740 1.62756729 7.85326797 -0.31524435000000006 0.562553 -1.839422 0.233818
25760 2.09145276 8.21431521 1.12116528 -0.037373 -2.1026700000000003 0.518385
25780 1.9908610200000003 10.20292974 0.62180685 -0.648505 -1.993103 0.8205549999999999
25800 2.00537982 10.9670895 -0.19998666 -1.2224389999999998 -1.118076 1.208531
25820 2.13830532 10.817104409999999 -4.1794622100000005 -1.809711 -0.142793 1.578125
25840 1.2614286599999998 11.766427920000002 -6.20983791 -2.192097 0.997115 1.627404
25860 0.22617936000000002 13.312562400000001 -3.6627302700000004 -1.239956 1.288866 1.102775
25880 1.1394315000000002 12.54526344 -1.22385636 1.49946 1.502145 -0.260643
25900 0.46598481 12.437490780000001 1.27160163 1.404484 0.290273 -0.281118
25920 -3.01727151 12.70333197 -1.5658918200000003 1.704323 -3.783974 0.149213
25940 -1.35678186 11.79622089 -0.8985861900000001 0.535166 -3.254798 0.163869
25960 1.5203930399999999 12.0484458 1.5051188700000002 -1.35181 -0.91185 -0.432358
25980 1.6015217400000001 15.902029620000002 3.2648562900000004 0.228395 1.633523 -0.045363
26000 -0.08203122 16.80690402 5.138360280000001 0.5455180000000001 -0.078611 0.802941
26020 -4.24996668 16.208592120000002 4.794676740000001 -0.54478 0.189094 0.336715
26040 -6.7876371 14.64060096 1.12371588 -2.273555 -0.207284 0.261054
26060 -4.53077793 15.640828560000001 -0.5577377400000001 -0.703371 -2.857193 -0.424268
26080 -2.6803274400000006 14.98608954 0.0663156 -3.223202 3.4541120000000003 1.338247
26100 -0.053739180000000004 13.258980180000002 1.1183203800000001 -4.369268 5.55356 1.584993
26120 2.17392543 11.588150790000002 0.90576711 -3.4445620000000003 2.09136 0.797927
26140 2.80905426 9.954295290000001 0.85951296 -3.12772 -0.719052 0.843266
26160 1.87230717 6.2843841000000005 -1.6542112500000001 -2.628926 1.068972 1.086945
26180 -0.5830377300000001 2.36178693 -0.24219909 -2.014825 1.504108 0.429448
26200 -0.81175788 0.8972324100000001 1.2769971300000003 -1.804204 1.016881 0.080098
26220 -0.21809592 0.9318126600000001 -0.18427104 -1.7556759999999998 1.849735 0.085779
26240 -0.5116405499999999 1.32624333 -0.89333784 -2.038123 2.793761 0.016367
26260 -0.80651934 1.6128915300000002 -1.2278980800000001 -1.980073 2.5213810000000003 -0.116407
26280 -1.5030293400000003 1.4831150400000002 -1.13912739 -1.881873 1.49871 -0.199868
26300 -2.7533727 1.3594698 -1.35573219 -1.821278 0.133339 -0.330154
26320 -3.2955517800000003 1.4126105700000002 -2.5098296400000004 -1.365797 -0.176958 -0.383191
26340 -2.9262641400000002 3.40841583 -3.6498595500000004 -1.201549 2.395439 0.06758600000000001
26360 -3.20632983 10.78268112 -6.97698972 -0.345206 2.787563 -0.167285
26380 -2.6952975 25.502615549999998 -14.272225650000001 0.219084 1.075836 -0.432478
26400 -3.2921084700000005 25.88402835 -16.20021438 0.20546 0.5935630000000001 -0.49498
26420 -4.984784729999999 3.7630277100000002 -13.048967700000002 0.176612 0.441059 -0.161701
26440 -4.80291714 0.8885505600000001 -6.42583449 1.130641 0.215141 -0.43569
26460 -1.8917702100000002 15.3454887 0.34458605999999997 2.364671 0.915557 -0.8381649999999999
26480 0.18741024 31.69135215 7.12204038 3.361334 0.5369970000000001 -0.540162
26500 4.4159715 13.88512305 2.38094586 3.326081 -0.14471099999999998 -0.260729
26520 1.45587267 -0.03023442 2.7217943100000004 3.028165 -0.027084 0.15150999999999998
26540 -4.2929246700000006 -1.7564510700000002 4.737199950000001 2.72636 1.033691 0.472782
26560 -2.53303029 11.244761550000002 -5.87258973 2.639512 1.509781 0.5698409999999999
26580 3.32308845 14.791194270000002 -0.52795458 2.646567 -0.331751 0.4814520000000001
26600 5.114718180000001 11.434722390000001 3.62216592 1.958976 -4.632352 0.565481
26620 1.8625756500000001 10.46983041 -1.3232512800000003 3.151826 -6.539221 0.070988
26640 1.31845419 8.96201379 -3.8736452700000004 4.211169 -4.494199 -0.237222
26660 0.4197306600000001 7.615267560000001 2.9999078100000007 3.302679 -1.610003 0.159728
26680 -0.10523187 6.0713697600000005 3.0448179900000003 1.822649 -1.060797 0.761846
26700 -0.025594290000000002 6.33033414 0.27348318 1.640573 -1.230554 0.747973
26720 0.6182163900000001 7.70462685 -0.40985199 1.650575 -1.775478 0.34922600000000004
26740 1.58146029 7.21918881 -0.46778004 1.410844 -1.232515 0.106506
26760 1.5181465500000002 7.56497169 -0.3005784 0.98506 -0.683862 0.200037
26780 0.7815234600000001 8.43855219 1.00396521 0.551739 -0.859582 0.29658
26800 -0.08412075 9.399108150000002 1.3709965499999999 -0.008936 -1.037334 0.478762
26820 0.38350233000000006 10.18482048 -1.03195314 -0.7756649999999999 -0.687399 0.745355
26840 1.13134806 11.82375756 -5.992938810000001 -1.668826 -0.013056 0.980738
26860 1.23583437 12.07014552 -0.5017520700000001 -2.339607 0.857108 1.071078
26880 0.30371760000000003 12.88311003 -0.68796549 -2.05062 1.455119 0.989009
26900 2.3724209700000003 11.57497596 -0.22603221 0.180552 1.7220099999999998 0.244746
26920 3.26052027 13.111084620000002 1.2391207199999998 1.334058 1.398711 -0.357806
26940 -0.97013052 13.890214440000001 -1.5825099599999999 2.135659 -2.0810310000000003 -0.115943
26960 -0.9080136000000001 13.475280870000002 -0.7499450700000001 0.893423 -3.104622 0.126655
26980 1.7283061800000001 11.68080624 1.35109206 -0.035342 -2.643772 0.236013
27000 1.6807080600000002 14.38119513 1.20080286 -0.96332 -0.510625 0.657291
27020 -1.3069274400000002 14.631026400000001 2.76879402 0.150645 1.579175 0.8247639999999999
27040 -3.86915229 15.72869673 4.125870180000001 -0.306521 1.812533 0.938776
27060 -4.84317738 14.781315600000001 3.88307268 -1.131351 1.714055 -0.091284
27080 -3.71646945 15.101043120000002 0.9723770100000001 -1.284449 -3.197434 -0.614829
27100 -2.4620843700000004 14.471456940000001 -0.14564907000000002 -0.368069 -3.895316 -0.578692
27120 -0.98375661 15.343840620000002 1.9426644900000003 -3.022719 3.409615 0.8376399999999999
27140 0.85188078 12.88849572 1.0431855900000004 -3.766397 5.982712 0.569571
27160 1.6040625300000002 10.446178500000002 -0.24683922000000003 -2.768264 3.174509 0.005438
27180 1.57502493 8.31281742 -1.85434506 -1.738104 -0.832691 0.618109
27200 -0.35939916000000005 5.5067454 0.31150674000000006 -2.390223 -0.915421 0.8262360000000001
27220 -0.5626819800000001 3.28431933 2.33484867 -2.513258 -0.02131 0.846664
27240 0.11570895 1.56110454 1.9267919100000002 -2.091213 0.049821 0.5418729999999999
27260 -0.49531671000000005 1.8808418700000002 1.37115351 -1.920338 0.844698 0.348699
27280 -1.2644207100000002 2.5518949200000005 -0.10463346000000001 -2.13412 2.586376 0.27981300000000003
27300 -1.30244427 2.85561252 0.16211025 -2.7032990000000003 3.442506 0.062164
27320 -2.0719897200000004 2.8689345 0.35790804000000004 -2.496432 2.549604 -0.33262600000000003
27340 -2.85022683 2.61520866 -0.7235954100000002 -1.829951 0.431061 -0.716225
27360 -3.4922422800000006 2.56476564 -2.1881499300000007 -1.558647 -1.085012 -0.63868
27380 -3.8526911100000003 4.843922940000001 -4.438573740000001 -1.341409 1.229278 0.109764
27400 -3.5473254300000003 11.529624329999999 -7.68412395 -0.280239 3.529721 0.127047
27420 -2.42870094 24.58517454 -13.34474901 0.111076 1.772847 -0.153183
27440 -3.9972905100000005 24.74443989 -13.00510719 0.062921 -0.814873 -0.336074
27460 -2.63691819 7.1551197 -15.465543480000001 0.147076 -0.5649930000000001 -0.294146
27480 -0.05687838 4.09054437 -9.17367435 0.8697219999999999 0.257954 -0.260243
27500 -1.07760888 8.90303607 -3.76332201 1.529556 0.35584 -0.269646
27520 3.2576753700000003 14.399304390000001 3.29823972 2.986984 -0.041632 -0.436281
27540 2.3137375500000004 18.460065600000004 3.1789403100000007 3.605996 0.376461 -0.300034
27560 0.13367106 6.90079545 4.912779330000001 3.405404 0.9765 0.067401
27580 -4.61221074 3.1575348900000004 4.4828757 3.100597 2.325946 0.39576
27600 -5.69654928 5.820047370000001 -6.4914045300000005 3.2373830000000003 2.249388 0.507908
27620 2.88075555 14.3913681 -4.451591610000001 3.233179 -0.226785 0.629625
27640 6.55741602 10.50590178 3.4546699800000003 3.260344 -4.240595 0.302741
27660 3.46739355 8.93716506 2.69350227 3.801391 -6.611872 -0.438197
27680 -0.155979 8.93207367 -2.83390299 3.495281 -4.806836 -0.553743
27700 -1.31366691 9.178314480000001 -2.84542974 2.358993 -0.036639 0.190645
27720 -0.66416643 7.568258040000001 0.52315749 1.894532 -0.03312 0.512135
27740 -0.52540398 6.19142454 0.9156457800000001 1.940437 -1.194617 0.292823
27760 0.00538569 5.90372667 -1.03285566 1.7092580000000002 -1.118401 -0.184249
27780 0.6436635300000001 7.11216171 -1.20350061 1.053525 -0.109307 -0.217896
27800 1.77081291 7.624547820000001 -0.10628154000000001 0.4856140000000001 0.048341 0.010808
27820 1.81273104 8.19695151 2.19743019 0.023975 -0.029124 0.33562600000000004
27840 -0.55400013 9.05706288 3.15588681 -0.451962 -0.477104 0.622364
27860 -1.7714211300000002 10.82623752 2.12722983 -1.079354 -0.7378899999999999 0.847984
27880 0.28365615 12.85646607 -2.37046878 -1.840664 -0.519354 1.202377
27900 2.50609203 14.036461920000002 -7.103332710000001 -2.429752 -0.136664 1.382574
27920 2.62658826 13.18832856 -2.70891378 -2.556628 0.210581 1.234896
27940 1.64507814 12.09214935 0.38784816000000005 0.355469 0.644981 0.368057
27960 3.1584276000000004 11.558809080000001 -0.04190832 1.988121 3.648023 -0.25463800000000003
27980 2.57629239 12.7426995 -0.30746502000000003 2.428368 -1.2424540000000002 0.643464
28000 0.48739023 12.653340210000001 -1.3329828000000001 0.772556 -3.340863 0.43483
28020 -1.16232804 12.9131973 0.65039319 0.067379 -3.257964 0.029215
28040 -1.4769739800000001 11.576329740000002 1.7064495 -0.983909 -1.606745 -0.13513699999999998
28060 -2.11644864 13.019625990000002 3.0261103200000004 0.41219 0.186806 0.345539
28080 -2.02858047 13.63244688 3.0169772100000003 0.15299300000000002 0.659794 0.568517
28100 -3.1495986000000005 15.65639703 4.93748091 -1.177492 1.240881 -0.269393
28120 -4.3902202500000005 15.775696440000003 2.9467768500000004 -1.908168 -0.1594 -0.041966
28140 -4.94212104 15.50386134 1.57816413 -1.374755 -1.063758 0.013125
28160 -2.7273271500000003 15.24774186 1.28597328 -2.517676 1.230963 0.707227
28180 -0.8108651700000001 12.95540973 0.8451413100000001 -2.52693 1.857188 1.020418
28200 -0.32527017 11.088645210000001 -2.90007144 -2.409955 0.350579 1.262447
28220 1.20230379 9.238037760000001 -3.1969024200000002 -2.493223 0.33703 1.2597459999999998
28240 0.32467176000000003 8.9597673 0.5263065 -2.302069 1.805363 1.264541
28260 -1.8467128800000001 5.46213933 2.70023193 -2.197498 1.968191 0.947801
28280 -0.77463684 0.7896069 1.89326133 -2.064922 1.913762 0.592011
28300 0.3558087 0.04730382 -0.03143124 -1.996583 1.985616 0.4129350000000001
28320 -0.5490558900000001 1.2379239 -0.73481805 -2.16206 2.56083 0.29887800000000003
28340 -1.05395697 2.29637385 -0.9204330600000001 -2.655132 3.466882 0.051787
28360 -1.11592674 3.05364699 -0.94767543 -2.402064 2.868007 -0.119798
28380 -1.58475645 2.60757648 -1.1720595600000001 -1.735472 0.850358 -0.4266140000000001
28400 -2.15566902 2.213449920000001 -2.092051170000001 -1.470526 -1.189572 -0.408262
28420 -2.8749186 2.6298844200000007 -3.6405792900000002 -1.964259 0.289896 0.069229
28440 -2.80007811 4.66444899 -5.9639012099999995 -1.120104 3.500608 0.143651
28460 -2.1576114 15.219753930000001 -10.791362970000002 -0.149058 1.51408 -0.217694
28480 -1.3859666099999999 35.85688416 -15.051953880000001 0.142652 0.488974 -0.392736
28500 -7.0130709 21.142188270000002 -18.07401267 0.13872 0.646316 -0.30964400000000003
28520 -3.56333535 1.9811295 -11.07172296 0.401622 0.300242 -0.040308
28540 -2.9572539300000003 3.4658926200000004 -4.058514720000001 1.212556 0.477667 -0.357474
28560 0.35341506000000006 12.29782581 2.5692586200000003 2.273669 0.8244530000000001 -0.620767
28580 1.7884807200000001 18.80075709 3.6937200600000004 3.617301 1.077877 -0.691823
28600 0.5848329600000001 8.602908930000002 3.84729561 3.543661 1.601076 -0.399247
28620 -0.38679849 3.4370021700000004 3.03134886 3.091839 1.913157 0.269109
28640 -0.85202793 5.73427854 1.8154287900000001 2.571947 2.049426 0.474674
28660 1.4144058000000002 13.10510052 -2.47240449 2.455892 -0.452621 0.769763
28680 3.3564718800000004 15.851586600000001 -1.3642668900000001 3.164475 -3.88363 0.627421
28700 1.04812002 9.921068819999999 1.3927060800000002 4.227753 -5.424862999999998 -0.348077
28720 -0.26554689 6.8272989299999995 -1.3989942900000003 4.750263 -5.008364 -1.06067
28740 -0.23591088000000002 9.29581866 -2.43124173 3.573707 -1.245409 -0.674195
28760 -0.5342427900000001 8.36221077 -0.36554022 1.77663 0.177726 0.3679
28780 -0.11137293000000001 6.662795040000001 -1.2461544900000001 1.626274 -0.821667 0.539046
28800 -0.77344002 5.49926037 -0.9110056500000001 1.562919 -1.037304 0.17461600000000002
28820 -0.8138572199999999 5.517379439999999 -0.25911153 1.201604 -0.713291 0.179155
28840 0.9060614100000001 6.508169820000001 0.022003830000000002 0.913618 -0.354885 0.044224
28860 2.22242607 7.44566247 0.33006726 0.460139 -0.341685 0.066677
28880 2.71744848 8.438100930000001 1.58909247 -0.077429 -0.576076 0.273662
28900 1.6094482200000002 9.91373094 1.87769286 -0.708711 -1.035873 0.453576
28920 -0.00194238 11.103909569999999 1.16009136 -1.540861 -0.989352 0.7297140000000001
28940 0.12034908 12.06760473 -4.09368357 -2.199797 -0.351273 1.03942
28960 2.21644197 12.51637299 -4.4045919 -2.599389 0.62741 1.195608
28980 1.66992687 11.972104380000001 -0.5375291400000001 -1.865038 0.867907 0.889576
29000 0.64620432 14.033469870000001 -1.48401756 1.277464 1.88045 -0.101377
29020 3.3281798400000002 11.815831080000002 0.66581451 2.486946 1.295769 -0.123158
29040 3.1439088000000006 13.15389546 2.24263467 1.94203 -1.28189 0.803556
29060 -0.18905832000000003 13.61703537 -2.25026685 0.111272 -3.252568 0.239954
29080 -1.4985363600000001 13.913415089999999 -1.42399017 -0.644853 -3.436303 0.223157
29100 -0.24055101 12.190798710000001 0.33141123 -1.061138 -1.248117 0.556072
29120 -0.11316816 11.76718329 2.13022188 0.117963 1.562552 0.481658
29140 -0.9692378100000001 12.71830203 2.97565749 -0.114294 1.185198 0.74437
29160 0.040711500000000005 15.64427187 5.048255429999999 -1.140542 1.568144 -0.091161
29180 -2.98629153 16.30229724 4.24592496 -1.741385 -0.8436879999999999 -0.091199
29200 -4.32765207 16.25619024 0.96848244 -0.808186 -4.02479 -0.585873
29220 -2.98284822 14.992220790000001 2.89617687 -2.922907 2.544562 1.02959
29240 -0.29338767 14.0702868 2.78945388 -4.042462 4.6470660000000015 1.554254
29260 -0.00194238 10.46967345 -1.2049917300000001 -2.53987 2.508459 1.467078
29280 0.48619341000000005 8.92623672 -5.21545707 -1.612427 1.7344970000000002 1.338883
29300 0.8671451400000001 8.968302000000001 -2.10327381 -2.308157 2.25202 0.927436
29320 -0.30177522 6.2026471800000005 1.15065414 -2.165777 1.892385 0.697087
29340 -0.44053767000000005 2.9969157600000003 0.6334807499999999 -1.927311 1.668176 0.34973200000000004
29360 -0.39352815 1.1332904400000001 0.8072747100000001 -2.100717 2.5526020000000003 0.172199
29380 0.13486788 0.35116857000000007 0.39756987000000005 -2.409191 2.552375 -0.036122
29400 -0.31718673000000003 1.3088796300000003 -0.35730963 -2.0207900000000003 1.365308 -0.285057
29420 -0.48514374000000005 2.09085435 -0.90770949 -1.825083 0.363893 -0.440503
29440 -0.91026009 1.47832776 -1.16636976 -1.940197 0.729268 -0.33709
29460 -2.4328898100000007 1.3362691500000001 -1.61199882 -1.840134 1.7319939999999998 -0.23299
29480 -3.30168303 1.94056515 -2.43857961 -1.564493 2.67004 -0.090193
