time Ax Ay Az Gx Gy Gz
20 -4.4976986100000005 13.56299208 -4.518358470000001 -0.574497 0.543603 0.419375
40 -3.0121899300000003 10.593024390000002 -5.225482889999999 -0.452777 0.831749 0.449766
60 -1.31935671 10.071053910000002 -2.306850930000001 -0.650633 0.976193 0.463154
80 -3.1554355500000004 12.27178026 1.12700223 -1.021088 0.913601 0.4531689999999999
100 -4.60352889 11.54144538 3.3434442000000004 -1.273753 0.906159 0.402275
120 -1.69312752 9.77077962 0.8253839700000001 -1.367378 0.8823139999999999 0.319399
140 0.69231132 9.696537540000001 0.28365615 -1.3200040000000002 0.936644 0.277999
160 1.29046626 11.4413049 1.32698889 -1.270464 0.93052 0.168326
180 1.0121958 10.90123497 1.64792304 -1.211748 0.735125 -0.036112
200 -1.00920375 9.3007629 1.55421792 -1.028658 0.68096 -0.235589
220 -3.52307511 8.95019274 -1.0000706400000001 -0.828594 0.818691 -0.220481
240 -3.35123334 8.58898854 -1.03195314 -0.593831 0.781844 -0.266864
260 -2.61356058 8.61458283 -0.07948062 -0.443434 0.547979 -0.254832
280 -2.08007316 8.20742859 0.6479995499999999 -0.341202 0.256958 -0.027282
300 -0.91894194 7.736509350000001 0.37451637000000004 -0.270393 0.240197 0.106762
320 0.20043792 7.88110875 -0.11181438 -0.138824 0.302644 0.093714
340 1.06773021 8.15863365 -0.45879408 0.059266999999999986 0.341962 0.212552
360 1.3504936500000002 8.52911811 -0.8675963999999999 -0.561652 0.914729 0.305757
380 0.9078664500000001 8.62297038 -1.2084350400000001 1.204835 -0.004852 0.168655
400 0.95261967 9.08939664 -1.3873105800000003 1.64368 0.065026 0.162017
420 1.11652515 9.78005988 -1.40737203 1.514717 -0.266394 0.037627
440 0.34772526 10.706781150000001 -1.5507746100000002 1.690178 -0.0067280000000000005 -0.049074
460 -0.27497430000000006 10.23107463 -1.7398329300000002 1.7215630000000002 0.586442 -0.029319
480 0.37482048 10.885509540000001 -0.89993016 1.617194 0.757684 -0.138158
500 1.37848158 11.525582609999999 -1.6151380200000003 1.472981 0.493832 -0.363153
520 1.20454047 12.081672270000002 -2.39801526 1.3272469999999998 -0.6495569999999999 -0.416117
540 1.6576545599999999 12.275969129999998 -1.31007645 1.263324 -1.377836 -0.453018
560 0.70742853 13.47856722 0.46163898000000003 1.220405 -1.392759 -0.413775
580 0.6969514500000001 13.946052960000001 4.45414221 1.03627 -1.687532 -0.331362
600 -0.31479309 10.036483470000002 3.5790607800000003 0.954415 -1.992335 -0.226857
620 -2.7943883100000004 9.52948305 5.433405840000001 0.851392 -1.972355 -0.07271
640 -4.3086402900000005 10.525060710000002 3.5079579000000005 0.653749 -1.810636 0.14895999999999998
660 -3.8357688600000004 12.24124173 0.25536411 0.30993200000000004 -1.764068 0.25652600000000003
680 -1.8383253300000002 13.284878579999999 -1.05216174 -0.137232 -1.666086 0.3836
700 -0.7384183200000001 11.8113381 -1.05276015 -0.320261 -1.298027 0.407487
720 1.71244341 10.73552445 -0.89199387 -0.317449 -0.906031 0.4112770000000001
740 2.7214902000000003 9.90968922 -0.61866765 -0.292799 -0.6249600000000001 0.430317
760 2.2023744300000003 9.25315497 -1.27460349 -0.039597 -0.618101 0.360506
780 0.8340658200000001 8.207732700000001 -1.4200956 -0.025282 -0.66762 0.211119
800 0.030832830000000002 7.67648196 -1.1049984000000002 -0.27513200000000004 -0.739186 -0.056522
820 -0.5665765500000001 7.40600064 -0.6108785100000002 0.087493 -1.134073 -0.187011
840 -1.17550287 7.14718341 -0.32122845000000005 0.867125 -1.14126 -0.13135
860 -1.45542141 6.4674485100000005 -0.40894947000000004 1.157215 -0.401997 0.159218
880 -1.7887848300000002 6.405930000000001 -1.1000639700000001 0.8329219999999999 0.22600100000000006 0.302494
900 -1.65016953 5.586078870000001 -1.7501628599999999 -0.3884260000000001 -0.225667 0.027486
920 -1.57292559 5.71990689 -2.44067895 -0.8302799999999999 -1.875497 0.073516
940 -1.15799202 6.50980809 -2.90620269 -0.290632 -1.987783 0.246208
960 -1.3548296699999998 7.444769760000001 -2.6882637300000005 0.120615 -1.05223 0.362182
980 -2.4501063600000004 10.15952049 -2.32227225 -0.068453 -0.839686 0.387294
1000 -3.01891959 13.971195990000002 -2.744838 -0.723176 -0.652488 0.494644
1020 -2.33813502 14.424898680000002 -4.445460360000001 -1.16916 -0.422955 0.490167
1040 -0.67643874 11.44474821 -6.33991851 -0.93545 -0.31442800000000004 0.5867319999999999
1060 1.01369673 11.21303601 -6.316717860000002 -0.485048 0.260071 0.65003
1080 2.68781247 12.92217345 -2.05596999 -0.455915 0.523282 0.602895
1100 -3.32114607 14.48972316 1.1651729400000002 -0.937815 0.483873 0.486348
1120 -6.2087882400000005 14.72502582 2.9701246500000003 -1.298894 0.239616 0.344202
1140 -1.8443192400000001 7.938144090000001 -0.58498011 -1.41686 0.306217 0.308041
1160 0.91385055 6.30339588 -1.2347847 -1.373529 0.42124 0.277218
1180 3.4091613900000004 8.041129470000001 -0.26121087000000004 -1.260569 0.45033 0.09744
1200 2.2549069800000003 9.899810550000002 1.5675399000000003 -1.186232 0.341433 -0.17323
1220 -0.46986957000000007 10.43090433 2.9340532800000005 -1.0841610000000002 0.425537 -0.248468
1240 -3.8663073900000002 11.722871520000002 1.2868758 -0.812832 0.492801 -0.255205
1260 -5.3627444099999995 10.196945640000001 -0.58528422 -0.524645 0.4653890000000001 -0.309773
1280 -4.367019600000002 8.250994799999999 -1.10590092 -0.387586 0.432575 -0.21477
1300 -2.63541726 7.385046480000001 -0.19235448000000002 -0.206123 0.24763 0.056995
1320 -0.7973960400000001 7.46512551 0.9759674700000001 -0.163369 0.219014 0.24961
1340 0.6491963700000001 7.9876944 0.7469432100000001 -0.029958 0.228143 0.248394
1360 1.28252997 8.351733690000001 0.08607293999999999 0.260151 0.249342 0.289918
1380 1.3554280800000003 8.63538984 -0.5522049 0.6911109999999999 0.28068000000000004 0.337753
1400 0.8809183800000001 8.64617103 -0.73826136 1.086898 0.285646 0.351193
1420 0.76011804 8.57656908 -0.72703872 1.334928 -0.113478 0.313913
1440 1.03869261 9.496550880000001 -0.58992435 1.696851 0.06893099999999999 0.205112
1460 0.09460764 10.406958119999999 -0.9855518400000001 1.871458 0.763692 0.269535
1480 -1.33836849 10.29424122 -1.2250531800000002 1.7808580000000005 0.991029 0.239769
1500 -0.9605559600000001 9.743841360000001 -1.05770439 1.243975 1.115648 0.177107
1520 0.74485368 11.054064960000002 -1.1696659200000001 1.466406 -0.130905 -0.236349
1540 2.0568725100000003 11.37844242 -1.45437174 1.50601 -1.143749 -0.328778
1560 2.28350313 11.52423864 -1.1051553600000001 1.275427 -1.400784 -0.319377
1580 1.44673956 12.632533200000001 -0.01466595 0.995391 -1.50849 -0.314785
1600 -1.06682769 13.107190050000002 2.17707444 0.7712899999999999 -1.69651 -0.254153
1620 -0.8960355900000001 10.64406582 5.5411785 0.599984 -1.7420779999999998 -0.16555999999999998
1640 -3.5072025300000003 10.415787120000001 5.58353808 0.4320600000000001 -1.667601 0.003018
1660 -4.76563914 12.083026049999999 2.36029581 0.165663 -1.691741 0.143262
1680 -3.3991355700000003 13.40851401 -0.11675862 -0.171228 -1.707218 0.309708
1700 -2.02453875 13.815373950000001 -0.18771435 -0.309987 -1.561436 0.469853
1720 0.28231218 11.61419634 0.81251325 -0.261044 -1.258387 0.565947
1740 0.0028449 10.12090833 -1.75659822 -0.209775 -1.005042 0.569185
1760 2.00672379 9.24807339 -1.15409745 0.013775 -1.00531 0.44256
1780 2.19054357 9.17023104 -0.7511418900000002 0.072253 -1.030204 0.224015
1800 1.49134563 8.477017200000002 -0.9137034 -0.284657 -0.722109 -0.056611
1820 0.5619266099999999 7.9504164 -0.93600153 -0.150952 -0.8866120000000001 -0.059739
1840 0.03577707 7.22636973 -0.7071342300000001 0.544269 -0.904229 0.013506
1860 -0.35191413000000005 7.028786520000001 -0.6447132 0.866504 -0.955184 -0.043998
1880 -0.76296294 6.9031989 -0.9050215500000001 0.57024 -0.524263 0.075158
1900 -1.0904796 6.390508680000001 -1.45886472 0.234801 -0.54906 -0.092728
1920 -1.24256403 6.1432280100000005 -1.9760381100000002 -0.411923 -1.273552 -0.30462
1940 -1.08014967 6.13454616 -2.7476829 -0.449329 -2.104871 -0.17135699999999998
1960 -0.8678907000000001 6.74107884 -2.43723564 -0.09685 -1.994219 0.089473
1980 -1.64942397 7.5815800200000005 -0.68931927 -0.22155100000000005 -1.40917 0.410455
2000 -2.97416637 10.61323299 -1.16263215 -0.491788 -1.28968 0.599626
2020 -3.6715690800000003 14.53522194 -1.63086345 -0.8485299999999999 -1.094745 0.6449550000000001
2040 -3.0680186400000005 14.337334620000002 -4.51506231 -0.867238 -0.807875 0.583568
2060 -0.22213764000000003 11.53261638 -6.937926300000001 -0.527561 -0.366363 0.699674
2080 1.8495577800000003 9.20017116 -5.08178601 -0.193233 -0.058530999999999986 0.684524
2100 1.6639427700000002 11.335327470000003 -2.09190402 -0.339521 0.062712 0.594684
2120 -1.9922049900000003 12.75512877 -0.39562748999999997 -0.729508 0.045409 0.4648640000000001
2140 -5.0766946200000005 14.65212771 0.78272028 -0.931306 0.121193 0.336239
2160 -3.4522665300000006 11.91073302 0.06107706 -1.065424 0.111325 0.256266
2180 0.10059174 7.9361919 -0.27123669 -1.062151 0.055145000000000007 0.183722
2200 3.4624493100000002 6.94885464 1.20903345 -0.860972 0.108035 0.102806
2220 3.3611120100000003 9.628279560000001 2.53228473 -0.671759 0.104529 0.016538
2240 0.83676357 10.69376328 2.3173280099999998 -0.5184380000000001 -0.028906 -0.047381
2260 -2.80845585 11.66135301 1.6661892600000001 -0.317196 0.008125 -0.158186
2280 -4.54904415 10.66008555 -0.55040967 -0.257651 0.093571 -0.26577
2300 -3.8484924300000003 8.78522778 -0.9060614100000001 -0.210609 0.077582 -0.303877
2320 -2.37211686 7.885003320000001 -0.49157910000000005 -0.140431 0.060151 -0.268113
2340 -0.9648919800000001 7.540721370000001 0.58737375 -0.044586 0.139237 -0.148973
2360 0.30117681 7.7269347900000005 0.64710684 0.066294 0.098574 0.066567
2380 0.86953878 8.11357632 0.32167971 0.009567 -0.400797 0.321047
2400 0.92896776 8.621469450000001 0.22782744000000002 0.05374 -0.601939 0.5000060000000001
2420 0.76026519 8.99389629 -0.39113451 0.199241 -0.732587 0.27899999999999997
2440 0.65713266 9.46392282 -0.7201521000000001 0.4117020000000001 -0.779984 -0.039922000000000006
2460 0.70159158 9.75850731 -0.64650843 0.410501 -1.138719 -0.370619
2480 0.20687328 10.08617112 -1.05335856 0.303302 -1.49636 -0.6166010000000001
2500 -0.6647648400000001 9.565711380000002 -1.4374593 0.207795 -1.714028 -0.7120609999999999
2520 -0.75278016 9.497453400000001 -0.8373619800000001 0.362777 -1.528637 -0.58837
2540 -1.00425951 10.05608385 -0.38305107000000005 0.51967 -0.5151359999999999 -0.29801700000000003
2560 -0.8539703100000001 10.614724110000001 -0.57645522 0.470221 -0.493016 -0.192637
2580 -0.04281084 11.31916059 -0.45699885 0.467548 -0.924146 -0.266878
2600 1.07012385 12.00757734 0.68063742 0.436722 -1.1880190000000002 -0.319098
2620 1.0627859700000002 13.34759391 1.6850440800000002 0.369368 -1.407428 -0.270149
2640 2.09025594 13.937665410000003 2.7508319100000005 0.35045 -1.488695 -0.177242
2660 0.93899358 11.70641034 2.27706777 0.320983 -1.478573 -0.019364
2680 0.35131572000000005 9.484572870000001 2.3716656 0.218165 -1.686418 0.098757
2700 -1.3651596 7.52365197 2.5176187800000003 0.193761 -2.059468 0.17063499999999998
2720 -3.4624493100000002 6.61474566 1.6958252700000003 0.109024 -2.5888 0.216655
2740 -3.47696811 8.04531834 -0.57569985 0.07776 -2.631422 0.246402
2760 -1.33237458 11.68814412 -2.06720244 0.083906 -2.18945 0.270447
2780 0.19623924 14.546454390000001 -1.8616829400000001 0.156124 -1.614198 0.207189
2800 0.00703377 12.74164983 -0.74230308 0.324589 -1.036956 0.095463
2820 -0.51807591 10.21835106 -0.26719497000000003 0.489165 -0.432836 -0.074009
2840 -0.79664067 8.499177990000002 -0.48933261000000006 0.501787 0.05151 -0.262548
2860 -0.79664067 7.52919462 -0.19683765 0.328926 0.4211 -0.363574
2880 -0.84499416 7.606281600000001 0.05687838 0.065624 0.703267 -0.368979
2900 -1.19945889 8.132892210000001 0.13426947 0.048602 1.108454 -0.449734
2920 -1.96720911 8.57416563 0.68332536 0.06709 1.311246 -0.563096
2940 -1.8669214800000002 8.63808759 1.0629429300000002 -0.052784000000000005 1.418373 -0.6089359999999999
2960 -0.8702941500000001 8.818915319999999 1.1546958600000001 -0.111486 1.433411 -0.589069
2980 -0.18935262 8.68823631 1.09602225 -0.094823 1.357658 -0.573901
3000 0.37032750000000003 8.87444973 1.6566048900000003 -0.159348 1.286338 -0.5315310000000001
3020 -0.36793386 9.53891046 2.25850725 -0.309246 1.242882 -0.456679
3040 -1.58760135 10.94733216 2.8940775300000006 -0.402218 1.079782 -0.348161
3060 -2.5800300000000003 12.49556598 3.6356350500000003 -0.371751 0.844882 -0.239756
3080 -3.12879159 12.76829379 4.0300657200000005 -0.243883 0.6428149999999999 -0.168102
3100 -3.1190600699999997 11.555817030000002 3.8261943 -0.135893 0.49634 -0.128704
3120 -2.0187018 10.161315720000003 3.62486367 -0.100214 0.416109 -0.07600900000000001
3140 -1.2081407400000002 9.19388295 4.12632144 0.017240000000000002 0.203695 -0.071711
3160 -0.7080269400000001 8.4596535 3.5313057000000003 0.061468 0.04175 -0.10431
3180 -0.49786731 8.940009960000001 2.1664404000000004 0.109544 0.062862 -0.097592
3200 -0.35955612 9.939933450000002 1.11472992 0.045326 0.016219 -0.099049
3220 -0.24488703 10.27912401 0.70757568 0.110112 -0.035197000000000006 -0.08464400000000001
3240 0.17662905 10.065521069999999 0.36359784 0.15243199999999998 -0.074918 -0.044773
3260 0.53678358 9.78545538 -0.04011309 0.162096 0.030143 0.047027
3280 0.11661147000000001 9.476489429999999 -0.6336279 0.119225 0.051337 0.111862
3300 -0.21989115 9.636363 -1.05754743 0.096778 0.095939 0.166127
3320 -0.36958194 9.590256 -1.11623085 0.085248 0.209691 0.234267
3340 -1.1078433 10.007887320000002 -1.20049875 0.0083 0.274561 0.328719
3360 -1.74597399 10.067169150000002 -1.3563306 -0.118093 0.234236 0.399458
3380 -2.37391209 10.43644698 -1.24226973 -0.183354 0.293717 0.499339
3400 -2.73227139 10.423723410000001 -0.88001586 -0.0032990000000000003 0.29499200000000003 0.557211
3420 -2.7803207700000003 10.170301680000001 -0.7607164500000001 -0.145397 0.208302 0.5146689999999999
3440 -2.8038157200000002 9.994565340000001 -0.7403607000000001 -0.054514 1.039554 0.351869
3460 -3.14586099 10.156528439999999 -0.96204708 -0.707804 1.777408 0.214968
3480 -3.28207284 9.946967220000001 -1.43506566 -0.6274430000000001 0.920581 0.231583
3500 -2.7057745800000004 9.493254720000001 -1.07327286 -0.240548 0.513699 0.149349
3520 -2.4427684800000002 9.18085527 -1.30214016 -0.13328199999999998 0.697395 0.20541
3540 -2.19503655 8.971441200000001 -1.49778099 -0.218827 0.617943 0.168595
3560 -2.37840507 8.46340092 -1.77037146 -0.399491 0.601274 0.231448
3580 -2.77657335 7.7489386200000006 -1.9411635600000001 -0.626538 0.499432 0.32186
3600 -2.4816847500000003 7.010226 -2.7939370500000003 -0.661894 0.504728 0.360062
3620 -1.22879079 6.69721833 -3.83652423 -0.577381 0.543895 0.348851
3640 -0.94812669 6.60995838 -3.0650265900000004 -0.461882 0.5522279999999999 0.296236
3660 -1.8251505000000001 8.00909982 -1.13239773 -0.583281 0.317417 0.247619
3680 -2.44052199 11.346108659999999 -0.30716091 -0.71865 0.0762 0.214936
3700 -3.48370758 17.86086099 0.73048203 -0.748527 0.11874 0.25847
3720 -3.8464029 14.209206210000001 0.84184515 -0.598152 0.014188999999999997 0.166719
3740 -2.65009302 8.787179970000002 0.42391953000000004 -0.304933 -0.014571 0.178418
3760 -0.9892894500000001 7.4762010000000005 -0.07409493 0.013299 0.17769300000000002 0.306445
3780 -0.47960109000000006 7.48339173 0.32138541 -0.020975 0.240292 0.399061
3800 -0.3614985 8.687039490000002 0.7637085 -0.138169 0.009656 0.368627
3820 -0.46448388 10.127637990000002 0.69276258 -0.0893 -0.130752 0.274077
3840 0.08696565000000002 10.210866030000002 0.11166723 0.004275 -0.0434 0.193434
3860 -0.36958194 10.228229729999999 -0.60159825 0.068893 0.284656 0.149668
3880 -0.33425613 9.943975170000002 -1.01518785 0.154292 0.600472 0.21822600000000006
3900 0.33949467 9.42814575 -0.32093415000000003 0.24048200000000006 0.634983 0.304241
3920 0.11032326000000002 8.9944947 0.6192660600000001 0.309035 0.710318 0.319579
3940 -0.21884148000000003 8.92309752 1.2379239 0.271534 0.923459 0.33079400000000003
3960 -0.92686842 9.61555599 1.7872839 0.247317 0.93444 0.269722
3980 -1.61663895 10.839108240000002 0.84305178 0.284387 0.700757 0.334374
4000 -0.6114769200000002 11.577977820000001 -0.6020495100000001 0.216177 0.422123 0.27657
4020 0.8195470199999999 10.861867440000001 -0.6944106600000001 0.285547 0.257446 0.10635
4040 1.49674113 9.77032836 0.09864936 0.416088 0.331602 0.096485
4060 1.3124700900000001 9.166336470000001 0.20537235 0.52386 0.26970500000000003 0.031087
4080 0.6155186400000001 9.18190494 -0.0113796 0.706176 0.320843 -0.12793800000000002
4100 -0.23246757 9.32905494 -0.08636724000000001 0.759133 0.327631 -0.272855
4120 -0.6590750400000001 9.67812417 -0.5029587000000001 0.686198 0.122766 -0.392743
4140 -0.7789826700000001 10.14664977 -0.36240102 0.706742 0.092169 -0.4844270000000001
4160 -1.1380875300000002 10.00145196 -0.05343507 0.7541869999999999 0.229322 -0.458634
4180 0.29414304 9.64129743 0.34009308 0.613834 0.12212 -0.434908
4200 1.16413308 9.895170420000001 -0.01018278 0.533122 -0.272804 -0.43817
4220 -0.4625415 10.587628890000001 0.14115609 0.58604 -0.079313 -0.386774
4240 -0.86909733 11.474688330000001 0.95651424 0.610748 0.18165 -0.400823
4260 0.01332198 11.66823963 1.1201254200000001 0.50463 0.020303 -0.452632
4280 0.9139977 11.923907849999999 1.08344583 0.341208 -0.042957 -0.475057
4300 0.48304440000000004 12.120294240000002 1.3697997299999998 0.261829 -0.132189 -0.469088
4320 -0.57540555 10.880271 1.6597440900000002 0.308731 -0.294613 -0.384162
4340 -1.16413308 9.739946790000001 1.7227635300000004 0.25393000000000004 -0.436836 -0.201697
4360 -1.61199882 9.02293389 1.5224825700000002 0.147781 -0.19726 -0.082036
4380 -1.9374259500000002 8.527617180000002 0.80173206 0.282189 0.054665 -0.062192
4400 -2.19683178 8.71143696 -0.12094749 0.424148 0.063778 -0.066553
4420 -1.8979014600000002 9.230552730000001 -0.48110202 0.454872 0.04438 -0.037472000000000005
4440 -1.24466337 9.6859035 -0.26794053 0.440744 0.030405 0.006244
4460 -0.19235448000000002 10.456508430000001 -0.74978811 0.4376100000000001 0.047452 0.008337
4480 0.3614985 10.74300948 -1.65136635 0.362227 0.137165 0.016241
4500 -0.5084915400000001 10.48434921 -1.14631812 0.231265 -0.008453 0.048628
4520 -1.3548296699999998 9.25090848 -0.46118772 0.070694 -0.04445 0.131942
4540 -1.7488090800000002 7.79039568 -0.6291447300000002 -0.06969600000000001 0.104971 0.183113
4560 -1.85494347 7.932601440000001 -0.57136383 0.072787 -0.291598 0.131205
4580 -1.5432895800000002 9.31332951 -0.5578947 0.136 -0.210943 0.152908
4600 -1.34764875 10.599459750000001 -1.1469165300000004 0.097665 -0.21711100000000005 0.130215
4620 -2.15222571 11.03579874 -2.1664404000000004 0.040035 -0.265733 0.08501
4640 -2.75188158 10.37192661 -2.2040127000000003 0.002218 -0.178072 0.040836
4660 -2.19952953 9.46796454 -1.77994602 -0.070137 -0.198868 -0.023736
4680 -1.21876497 8.93372175 -1.72411731 -0.113145 -0.126976 -0.115996
4700 -0.32722236 8.661592350000001 -2.0279820600000003 -0.168811 0.044823 -0.140105
4720 -0.26569404 8.96216094 -2.37046878 -0.31105700000000003 0.172217 -0.173309
4740 -0.79439418 9.20196639 -2.4343907400000004 -0.381297 0.126993 -0.258131
4760 -1.3482471600000001 8.760231899999999 -2.3900789700000002 -0.380269 0.166212 -0.210104
4780 -1.34659908 8.87713767 -2.4598378800000003 -0.467766 0.197274 -0.176572
4800 -1.0207305 9.095537700000001 -2.36717262 -0.534208 0.2174 -0.090536
4820 -0.9806076 9.18534825 -3.5465700600000005 -0.557106 0.187332 -0.010541
4840 -0.57390462 9.453288780000001 -3.0849310800000005 -0.588553 0.145609 0.060864
4860 -1.0782072900000002 9.106613190000001 -2.71819404 -0.6196699999999999 0.16677899999999998 0.121508
4880 -1.7160338700000002 8.952135120000001 -2.8038157200000002 -0.6254310000000001 0.101698 0.15146099999999998
4900 -2.3396359500000004 9.20196639 -2.4932115 -0.6751010000000001 -0.012187 0.16942000000000002
4920 -3.0277584 9.60687414 -2.4610347 -0.7029489999999999 0.005849 0.211931
4940 -3.2445005400000007 10.389300120000001 -2.14519194 -0.720784 0.084695 0.223456
4960 -2.84348736 10.635531120000001 -1.73444724 -0.707102 0.033553 0.21400300000000005
4980 -2.21838435 10.55784573 -1.46545704 -0.6127859999999999 0.091963 0.1772
5000 -2.0688505200000002 10.833869700000001 -1.0493168400000001 -0.516045 0.236568 0.161667
5020 -1.5491265300000001 10.531947330000001 -0.7198578 -0.49354 0.257799 0.160728
5040 -1.47009717 10.17508896 -0.46792719 -0.460146 0.315263 0.147001
5060 -1.49614272 9.81987867 -0.12962933999999998 -0.491869 0.392018 0.16056800000000002
5080 -1.5447905100000001 10.0733004 -0.03023442 -0.564263 0.396652 0.130146
5100 -1.5441921 10.12913892 -0.17244018 -0.632326 0.414059 0.09867
5120 -1.11891879 10.11551283 -0.12005478000000001 -0.633273 0.382339 0.039952
5140 -0.5972622300000001 9.986187600000001 -0.06856209 -0.631197 0.346206 0.016512
5160 0.028439190000000003 9.56076714 0.14983794 -0.6017899999999999 0.226856 0.0008470000000000001
5180 0.44083197 9.25240941 0.17872839 -0.499385 0.195716 -0.026172000000000004
5200 0.51882147 9.27531576 0.39457782 -0.34777600000000003 0.181496 -0.06461900000000001
5220 -0.12484206 9.43503237 0.08935929000000001 -0.231291 0.192935 -0.095866
5240 -0.92552445 9.79697232 -0.13876245 -0.137096 0.267154 -0.089962
5260 -1.1085986700000001 9.67797702 -0.33291216 -0.037432 0.376487 -0.078724
5280 -0.91774512 9.72722322 -0.17394111 0.040727 0.443306 -0.072923
5300 -0.7506906300000001 9.99995103 -0.22228479 0.206803 0.4508970000000001 0.015822
5320 -0.47930679000000004 9.77333022 -0.029341710000000003 0.365826 0.39427 0.185784
5340 -0.49966254000000004 9.35165718 0.34652844000000005 0.309877 0.282748 0.417341
5360 0.07289811 9.00497178 0.42391953000000004 0.330807 0.240932 0.466679
5380 0.15732297 9.32276673 0.27482715 0.372966 0.08212699999999999 0.184098
5400 0.29369178 9.82212516 0.14729715000000002 0.370182 -0.115899 -0.108361
5420 -0.03262806 10.11206952 -0.23605803000000003 0.439051 -0.089089 -0.2126
5440 0.16226721000000002 10.02704625 -0.6604288200000001 0.551127 -0.342902 -0.240334
5460 0.1790325 10.16401347 -1.02147606 0.716973 -0.550899 -0.316889
5480 0.11197134000000002 9.96418377 -1.20379491 0.839266 -0.4743350000000001 -0.388772
5500 -0.0663156 9.833946209999999 -1.3687500600000002 0.791871 -0.335691 -0.387144
5520 -0.18456534000000002 9.77706783 -1.18074141 0.7028800000000001 -0.398373 -0.352434
5540 -0.31449879 9.8213796 -1.13957865 0.6120800000000001 -0.583727 -0.274851
5560 -0.5680676700000001 10.171194390000002 -1.28986785 0.700715 -0.535154 -0.244384
5580 -0.0865242 10.63208781 0.23456691000000002 0.772478 -0.436479 -0.207689
5600 0.6450075000000001 11.03744682 1.52278668 0.835742 -0.523308 -0.127019
5620 -0.6412698900000001 11.898009450000002 0.9876413700000001 0.850352 -0.560786 -0.091618
5640 -1.21232961 10.85991525 1.08344583 0.784914 -0.610745 -0.062101
5660 -1.64657907 11.113641090000002 0.9216298800000001 0.735301 -0.685321 -0.017487
5680 -0.96130152 11.68455366 0.8035272900000001 0.691148 -0.709937 0.049535
5700 -0.6921641700000001 11.78603811 1.3373188200000001 0.645985 -0.721767 0.116532
5720 -1.01623752 10.67864607 1.45497015 0.5700649999999999 -0.7237779999999999 0.152324
5740 -1.56904083 9.18220905 0.7434999 0.455017 -0.670172 0.166407
5760 -1.79476893 8.670421350000002 0.10687995 0.37971 -0.552805 0.184958
5780 -2.20776012 8.912620440000001 -0.14579622 0.358761 -0.422942 0.228443
5800 -2.10178269 9.19702215 -0.3013239600000001 0.375769 -0.402898 0.262719
5820 -1.36261881 9.52214517 -0.40610457000000005 0.348136 -0.357085 0.2849
5840 -0.7292852099999999 10.26535077 -0.7857123300000001 0.27745 -0.423925 0.278082
5860 -0.28845324000000006 10.07090676 -0.56926449 0.24652 -0.434418 0.265061
5880 -0.71087184 8.89121502 -0.47885553000000003 0.24717 -0.529222 0.26305100000000003
5900 -1.4714411400000003 8.342002169999999 -0.5049010799999999 0.236396 -0.49957 0.316349
5920 -2.15072478 8.489897730000001 -0.8903457900000001 0.199233 -0.406975 0.369382
5940 -2.1751222500000003 9.05631732 -1.06548372 0.120501 -0.369372 0.358101
5960 -1.7730594000000002 9.35135307 -1.08688914 -0.078993 -0.430204 0.292692
5980 -1.2832853400000002 9.38682603 -0.9994722300000001 -0.176238 -0.31977300000000003 0.200004
6000 -1.34001657 9.50688081 -1.19481876 -0.252141 -0.239119 0.076525
6020 -1.75031001 9.529188750000001 -1.6256151 -0.316239 -0.41616 -0.082861
6040 -1.82875077 9.619892010000001 -1.79132562 -0.3531 -0.324357 -0.098191
6060 -1.7911784700000002 9.62992764 -1.9357778700000001 -0.4366100000000001 -0.07297999999999999 -0.01898
6080 -1.7148370499999999 9.12801861 -2.04893622 -0.530993 -0.135694 0.028512
6100 -1.55361951 9.14179185 -2.0430992700000004 -0.645559 -0.184468 0.070503
6120 -1.65046383 8.87280165 -2.32227225 -0.671425 -0.446569 0.103773
6140 -1.7341431300000003 9.15600654 -2.62568574 -0.661528 -0.5682470000000001 0.154204
6160 -1.52667144 9.13505238 -2.9509657200000006 -0.7112649999999999 -0.697045 0.172182
6180 -0.96429357 9.00991602 -2.6195544900000005 -0.714432 -0.676845 0.184952
6200 -0.85920885 9.130559400000001 -2.45414808 -0.690645 -0.552508 0.239438
6220 -1.54269117 9.29851641 -2.4872274 -0.587637 -0.405923 0.255993
6240 -1.78279092 10.24169886 -2.9452759200000003 -0.384298 -0.063472 0.221724
6260 -1.83847248 11.41930107 -2.4468102000000003 -0.401277 -0.053783 0.21091
6280 -2.4237567 10.76711265 -1.79656416 -0.361467 0.055661 0.2463
6300 -2.7653507100000003 10.245897540000001 -1.4756300100000002 -0.341808 0.189685 0.27938
6320 -2.25566235 10.555903350000001 -0.89393625 -0.397213 0.211163 0.28430700000000003
6340 -2.0945919600000003 11.22275772 -1.16308341 -0.476386 0.143335 0.265681
6360 -1.87365114 10.230623370000002 -1.04228307 -0.531997 0.07550499999999999 0.226923
6380 -1.1771509500000001 9.53981298 -0.31598991000000004 -0.5889340000000001 -0.066821 0.17115999999999998
6400 -0.72060336 9.14433264 -0.15822549 -0.561109 -0.105038 0.11372
6420 -0.01197801 9.22935591 0.4221243 -0.48098 -0.109459 0.084375
6440 0.50459697 9.0289278 0.84843747 -0.374212 -0.137346 0.039223
6460 0.7220944800000001 9.05002911 0.78541803 -0.308153 -0.182216 0.014103999999999997
6480 0.62615268 9.497149290000001 0.55400013 -0.219517 -0.193058 -0.015173
6500 -0.40835106000000004 10.110127140000001 0.35790804000000004 -0.062142 -0.091264 -0.033432
6520 -1.4162010300000003 10.324328490000001 -0.16810416000000003 0.041905 0.056352 -0.009394
6540 -1.95283746 10.344537090000001 -0.17274429 0.091445 0.17648699999999998 0.007890000000000001
6560 -1.84416228 10.00459116 -0.61432182 0.150295 0.22630300000000006 0.019988
6580 -1.30109049 9.727821630000001 -0.5975565300000001 0.243242 0.289754 0.055807
6600 -0.41658165 9.3070413 -0.39861954000000005 0.332839 0.366877 0.138587
6620 0.34712685000000004 8.967556440000001 -0.09640287000000002 0.33612600000000004 0.497445 0.250606
6640 0.8176046400000001 8.97923034 -0.13981212 0.273471 0.362224 0.28773000000000004
6660 0.9979713 9.43891713 -0.22228479 0.369165 0.32860100000000003 0.088684
6680 0.8828607600000001 9.959386680000001 -0.3793134600000001 0.532985 0.237308 -0.13331400000000002
6700 0.6914088 10.1544291 -0.56792052 0.597383 -0.025592 -0.24469
6720 0.44786574 10.12854051 -0.74530494 0.724529 -0.340877 -0.364107
6740 0.02963601 9.97406244 -1.0370445300000004 0.783396 -0.6081770000000001 -0.435992
6760 -0.35071731 9.721386270000002 -1.42143957 0.803455 -0.668913 -0.449661
6780 -0.60354063 9.819584370000001 -1.6995628800000002 0.8531540000000001 -0.454207 -0.372677
6800 -0.47196891 9.89772102 -1.51035741 0.8985190000000001 -0.222571 -0.263699
6820 -0.32646699000000007 10.01881566 -1.15065414 0.8446959999999999 -0.248275 -0.182857
6840 -0.1935513 10.138115070000001 -0.73137474 0.818463 -0.368637 -0.163658
6860 0.17858124000000003 10.26041634 -0.12393954 0.7763760000000001 -0.4750180000000001 -0.16381600000000002
6880 -0.16825131000000002 10.716218370000002 0.47331288 0.694605 -0.621767 -0.157789
6900 -0.57974157 11.227701960000001 0.49083354000000007 0.675912 -0.728298 -0.140692
6920 -1.10425284 11.677362930000001 0.47256732 0.588309 -0.7344649999999999 -0.121
6940 -0.69604893 11.86567569 0.5477119200000001 0.484867 -0.706479 -0.103598
6960 -0.27857457 11.62138707 0.6544349100000001 0.423109 -0.64674 -0.070991
6980 0.11720988 11.13430095 1.42279335 0.373918 -0.629694 -0.028628
7000 -0.21735036 9.96193728 1.50826788 0.340649 -0.625509 0.019204
7020 -0.63587439 8.9480934 0.94034736 0.231138 -0.712745 0.084781
7040 -1.28223567 8.65769778 0.05268951 0.053860000000000005 -0.8628389999999999 0.210853
7060 -1.35678186 9.19852308 -1.1713140000000002 -0.072001 -0.740358 0.326253
7080 -1.55945646 9.947859930000002 -1.5314685300000002 0.055976 -0.5032909999999999 0.33752600000000005
7100 -1.15664805 10.018962810000001 -1.02372255 0.258083 -0.461138 0.276927
7120 -0.44457939 10.03318731 -0.9391505400000001 0.297854 -0.452523 0.219509
7140 0.09550035000000001 10.370131380000002 -1.14272766 0.231814 -0.417185 0.230753
7160 -0.07648857 9.878709240000001 -1.01264706 0.222093 -0.418319 0.256324
7180 -0.6155186400000001 8.8991415 -1.0412334 0.280971 -0.361051 0.269481
7200 -1.34255736 8.408612069999998 -0.91190817 0.206569 -0.225796 0.342495
7220 -1.89191736 8.150255910000002 -1.14481719 -0.015880000000000002 -0.239295 0.447781
7240 -1.88697312 8.299191330000001 -1.57248414 -0.158103 -0.344132 0.414875
7260 -1.5423968700000001 9.02548449 -1.6902826200000003 0.085021 -0.090666 0.22183200000000006
7280 -0.905463 9.003323700000001 -1.70675361 0.072921 -0.37742 0.01488
7300 -0.55414728 8.760683160000001 -1.61589339 0.00493 -0.472416 -0.145707
7320 -0.25492266 9.110802060000001 -1.38387708 -0.145215 -0.474822 -0.212982
7340 -0.24040386000000002 9.976456080000002 -1.46170962 -0.267804 -0.423376 -0.185062
7360 -1.2560331599999999 10.79809263 -2.1369515400000005 -0.420336 -0.34112 -0.110389
7380 -2.8020204900000003 10.39513707 -2.6343675900000005 -0.5114270000000001 -0.32525 -0.004224
7400 -3.0229613100000003 9.56630979 -2.50549362 -0.6072890000000001 -0.405303 0.118055
7420 -1.8851778900000002 8.81576631 -2.4677643600000003 -0.653662 -0.461819 0.172283
7440 -0.70159158 8.57506815 -2.85456285 -0.661806 -0.6236659999999999 0.160683
7460 -0.17543223 8.678357640000002 -3.18851487 -0.639656 -0.7512909999999999 0.08943
7480 -0.34203546 8.95273353 -3.37773015 -0.6495340000000001 -0.641267 0.02299
7500 -0.6071409 8.9105211 -3.1424176800000003 -0.678176 -0.569934 0.05795
7520 -0.7553307600000001 8.718019470000002 -3.0587383800000003 -0.615953 -0.421303 0.130833
7540 -1.3853682000000003 9.66195729 -2.6726952600000002 -0.5332720000000001 -0.221649 0.213408
7560 -1.86931512 12.48373512 -2.69290386 -0.408577 0.039761000000000005 0.267355
7580 -2.20326714 13.516737930000001 -0.9078664500000001 -0.383838 0.13003900000000002 0.313346
7600 -1.8027052200000002 9.64983213 -0.98285409 -0.386249 0.052347000000000005 0.29740500000000003
7620 -1.61858133 8.48151018 -1.2394248300000001 -0.383384 -0.046636 0.272983
7640 -1.2406216500000002 8.76756978 -1.3265376300000002 -0.4305850000000001 -0.140071 0.236454
7660 -1.4533318800000001 9.98438256 -1.01698308 -0.49044 -0.195132 0.20512800000000006
7680 -1.5892494300000002 11.05226973 -0.63826803 -0.533263 -0.273629 0.158996
7700 -1.5187449600000003 11.0157471 -0.46897686000000005 -0.534665 -0.400183 0.106805
7720 -1.05665472 10.13153256 0.029488860000000002 -0.497167 -0.400173 0.07181599999999999
7740 -0.5694116400000001 9.421553430000001 0.36599148000000004 -0.438231 -0.372562 0.042282
7760 -0.01302768 8.83208034 0.47211606000000006 -0.419013 -0.390653 0.021075
7780 0.08262963000000001 8.97459021 0.58423455 -0.350393 -0.330112 0.006520999999999999
7800 -0.42032907 9.69579198 0.42841251 -0.289074 -0.225895 -0.00173
7820 -1.07446968 10.121653890000003 -0.5089428 -0.207551 -0.131357 -0.004486
7840 -1.71094248 10.4000715 -0.9749178000000001 -0.058152 -0.113808 0.006149
7860 -1.1802999600000001 9.937981259999999 -1.10290887 0.133739 -0.08702 0.067275
7880 -0.6423097500000001 9.69938244 -0.76236453 0.269518 0.051753 0.14389000000000002
7900 -0.31703958 9.71809011 -0.69889383 0.41968 0.31295 0.228994
7920 0.20178189000000002 9.39102471 -0.61896195 0.5064 0.232391 0.319433
7940 0.6393177000000001 9.10630908 -0.58004568 0.5025430000000001 0.0015810000000000002 0.234244
7960 0.6908103900000001 9.12203451 -0.55144953 0.526205 -0.214775 -0.025959
7980 0.46149183000000005 9.54175536 -0.6905160899999999 0.630161 -0.261404 -0.176861
8000 0.41942655 9.775723860000001 -0.92193399 0.798442 -0.413968 -0.265221
8020 0.57989853 9.72617355 -0.9618999300000001 0.908183 -0.772992 -0.353725
8040 0.17499078 9.664498080000001 -0.8761311 0.8394659999999999 -1.132714 -0.379381
8060 -0.32198382000000003 9.560315880000001 -0.9954305100000002 0.8320549999999999 -1.093379 -0.35277800000000004
8080 -0.70728138 9.71390124 -1.31980797 0.82357 -0.710392 -0.217664
8100 -0.6033934800000001 10.03318731 -1.55287395 0.801984 -0.695685 -0.147331
8120 -0.03517866 10.07090676 -1.37548953 0.814866 -0.919422 -0.151227
8140 0.22467843 10.10637972 -0.58138965 0.7639319999999999 -1.103503 -0.159892
8160 0.23022108 10.540177920000001 0.78541803 0.7077979999999999 -1.191956 -0.102487
8180 -0.2863539 10.96724646 0.78092505 0.697703 -1.239046 -0.039472
8200 -1.20469743 11.43546795 0.29697813 0.635614 -1.240078 0.006029
8220 -1.18882485 11.225161170000002 0.69664734 0.562919 -1.229347 0.049304
8240 -0.053886329999999996 10.953620370000001 0.96848244 0.510834 -1.149418 0.086226
8260 0.35521029 11.33173701 0.6619199400000001 0.4114100000000001 -1.139706 0.141067
8280 0.40954788000000003 11.647432620000002 1.02372255 0.35582800000000003 -1.110958 0.192984
8300 -0.33081282000000006 10.571020560000001 1.24466337 0.284477 -1.035262 0.239391
8320 -1.1892761100000002 9.05811255 0.75607632 0.183231 -0.957361 0.293063
8340 -1.28417805 8.270604990000002 0.02664396 0.192948 -0.8989370000000001 0.326171
8360 -1.16172963 9.11978802 -1.14780924 0.242325 -0.8065329999999999 0.352035
8380 -0.66701133 10.163866320000002 -1.4437475100000001 0.250402 -0.634135 0.389258
8400 -0.34817652000000004 10.37522277 -1.3680045 0.341792 -0.331547 0.297642
8420 -0.30910329 10.5907779 -1.01758149 0.092123 -0.818539 0.287976
8440 -0.36823797 10.710381420000001 -0.82089099 0.129152 -0.8910950000000001 0.285123
8460 -0.49217751000000004 9.64893942 -0.64650843 0.174454 -0.989486 0.07619400000000001
8480 -0.9632439 8.601417810000001 -0.7699967099999999 -0.153625 -0.740775 -0.031102
8500 -1.5949294200000002 8.60261463 -1.00320984 -0.333537 -0.253017 -0.106691
8520 -2.0787291900000002 8.987460930000001 -1.56918798 -0.7882979999999999 -0.380058 -0.177003
8540 -2.10626586 9.13295304 -1.81423197 -0.429242 -0.658551 -0.107908
8560 -1.59777432 9.174272760000001 -1.84207275 -0.483386 -0.6113310000000001 0.118116
8580 -1.30723155 8.84570643 -1.74132405 -0.6799689999999999 -0.8229850000000001 0.204608
8600 -1.1439244800000001 8.35083117 -1.7561469600000001 -0.65037 -0.882749 0.20596
8620 -1.05410412 8.24889546 -1.88503074 -0.758179 -0.634256 0.228389
8640 -1.31187168 8.74226979 -2.34652257 -0.622833 -0.454598 0.204535
8660 -1.58580612 9.2634849 -2.87223066 -0.520302 -0.140908 0.25719200000000003
8680 -1.51559595 9.38114604 -2.8744771500000006 -0.52398 0.047429 0.314609
8700 -1.7904231000000002 10.34124093 -1.8788896800000001 -0.480893 0.166478 0.342532
8720 -2.65113288 10.69541136 -3.0726587700000003 -0.429166 0.27073800000000003 0.332077
8740 -1.4277277800000001 10.505303370000002 -4.147726860000001 -0.468635 0.240111 0.299794
8760 -1.41201216 10.11282489 -4.02962427 -0.536982 0.207399 0.281199
8780 -1.5630469200000001 9.616154400000001 -1.4437475100000001 -0.577858 0.103264 0.251136
8800 -1.79686827 9.7695828 1.02432096 -0.554665 -0.0074090000000000015 0.202302
8820 -2.55278763 11.60087436 0.33425613 -0.47145 -0.057566999999999986 0.15274100000000002
8840 -1.9407123000000002 11.78783334 -1.44104976 -0.397855 -0.110892 0.104185
8860 -0.0170694 9.01066158 -0.65219823 -0.399932 -0.13948 0.062547
8880 0.01032993 8.11268361 1.18972737 -0.384804 -0.121325 0.03806
8900 -0.36673704 9.15944985 0.8372050200000001 -0.360633 0.029877 0.033762
8920 -0.41373675 9.90026181 0.80936424 -0.35133600000000004 0.197103 0.031476
8940 -1.3506408 10.023907050000002 0.18980388 -0.319759 0.32276 0.015513
8960 -1.4593159800000002 10.027801620000002 -0.63632565 -0.272563 0.359957 -0.003433
8980 -1.3638156300000002 9.85340925 -0.64591002 -0.136688 0.403325 -0.0442
9000 -0.98959356 9.75176784 -0.7105677300000001 0.009755 0.450811 -0.058194
9020 -0.2721294 9.36811836 -0.8828607600000001 0.081388 0.532395 -0.009728
9040 0.13113027000000002 9.29177694 -0.58887468 0.138907 0.579858 0.058979
9060 0.6271925400000001 9.36063333 -0.40176855 0.193833 0.545222 0.14807
9080 0.98524773 9.44431263 -0.15148602000000003 0.221842 0.418154 0.198635
9100 0.9458802000000001 9.66719583 -0.15942230999999998 0.265497 0.336227 0.13602
9120 0.79618941 9.77333022 -0.41239278 0.442951 0.274385 -0.003667
9140 0.65698551 9.990072360000001 -0.6652161000000001 0.586863 0.116751 -0.134919
9160 0.5445629100000001 9.90655002 -0.86505561 0.71334 -0.123905 -0.268323
9180 0.22318731000000003 9.67333689 -0.8583161400000001 0.770668 -0.269715 -0.351057
9200 -0.12229146 9.553134960000001 -1.02896109 0.828885 -0.437968 -0.416665
9220 -0.39008484000000004 9.5987907 -0.91175121 0.95126 -0.26371999999999995 -0.408556
9240 -0.41777847 9.902204189999999 -0.74650176 1.008925 0.087211 -0.306053
9260 -0.37871505 10.1481507 -0.59830209 0.893704 0.126871 -0.267385
9280 -0.20627487000000003 10.061773650000001 -0.52226478 0.864043 0.160054 -0.281521
9300 0.04999176 10.09396026 -0.48888135 0.926635 0.285671 -0.31436
9320 0.41478642000000004 10.20697146 -0.15837263999999998 0.876239 0.184825 -0.359448
9340 0.23935419000000002 10.53883395 0.19923129 0.727576 0.092708 -0.371051
9360 -0.06735546 10.79749422 0.30821058 0.6069479999999999 0.095187 -0.353737
9380 -0.34038738 11.076215939999999 0.52376571 0.455214 0.083833 -0.313121
9400 -0.16944813 11.210338259999999 0.62494605 0.401607 0.060443 -0.278215
9420 -0.07394777999999999 11.67078042 0.16944813 0.31716700000000003 0.058474 -0.245687
9440 -0.15253569 11.69637471 0.4601478600000001 0.17848 0.115197 -0.191181
9460 -0.2894931 10.991496779999999 1.1298471300000001 0.041581 0.128103 -0.103491
9480 -0.43424946000000003 9.78620094 1.64358702 -0.120191 0.067588 -0.014813
9500 -1.16368182 8.94974148 1.22295384 -0.180988 0.119803 0.033834
9520 -2.01570975 9.15585939 0.09340101 -0.046923 0.075512 0.071146
9540 -2.34322641 9.846826740000001 -1.06039233 0.06263300000000001 0.072712 0.143486
9560 -2.37541302 10.326123720000002 -1.21383054 0.140279 0.105122 0.229445
9580 -2.29233213 10.532545740000002 -1.08299457 0.182 -0.04972 0.287618
9600 -1.43611533 10.402317990000002 -1.4341631400000003 0.14297200000000002 -0.309974 0.403047
9620 -0.8918467200000001 10.51039476 -1.36307007 0.008203 -0.6565409999999999 0.607649
9640 -0.9737209800000001 9.377702730000001 -1.30483791 0.011653 -0.5374979999999999 0.671614
9660 -1.0759608 8.28077796 -1.38058092 -0.003603 0.053983 0.6216109999999999
9680 -1.3504936500000002 7.97616765 -1.80015462 -0.627185 -0.306226 0.133812
9700 -1.5521185800000001 8.50426938 -2.0809756800000003 -0.862086 -0.799786 0.155236
9720 -1.5789195000000003 9.12577212 -2.47944807 -0.629644 -1.058542 -0.072476
9740 -1.39883733 9.25331193 -2.7623586600000003 -0.405678 -0.955521 -0.188548
9760 -1.26322389 8.5979745 -2.4947124300000003 -0.609598 -0.466037 -0.14253
9780 -1.38207204 7.98634062 -2.30520285 -0.827044 -0.012165 0.02949
9800 -1.54283832 8.03514537 -2.6309242800000003 -0.7998109999999999 0.35640900000000003 0.274899
9820 -1.49164974 8.5865949 -2.9370453300000006 -0.586997 0.630918 0.439472
9840 -1.4804172899999999 8.88821316 -3.49298784 -0.402725 0.713721 0.35199
9860 -1.35902835 8.78852394 -3.62785572 -0.477008 0.652798 0.20093
9880 -1.03674042 8.89435422 -3.65734458 -0.756015 0.49837 0.167133
9900 -0.59485878 9.23234796 -3.81660993 -0.967982 0.294748 0.123184
9920 -0.20118348 9.078174 -3.9300821999999997 -0.967179 0.219179 0.106195
9940 0.00718092 8.419540410000002 -4.281250770000001 -0.78452 0.295134 0.134079
9960 -0.73931103 8.55890127 -3.36724326 -0.522756 0.412332 0.168872
9980 -2.86474563 13.14805851 -1.85659155 -0.398599 0.314753 0.221139
10000 -4.66115283 17.97238107 -0.08786817 -0.390879 0.136811 0.224626
10020 -2.4766031700000006 11.01634551 1.13404581 -0.346608 -0.014485 0.193082
10040 -2.24114355 7.4720121299999995 0.20851155000000002 -0.272555 -0.17976 0.168174
10060 -1.1337417 6.4264329 0.32991030000000005 -0.20032 -0.236524 0.18157
10080 -0.67000338 7.364386620000001 1.0837499400000001 -0.166689 -0.272108 0.259831
10100 -1.5331166100000002 10.04545962 0.40535900999999996 -0.107743 -0.160669 0.312442
10120 -1.67860872 12.13032006 -0.7984359000000001 -0.004696 -0.02466 0.309783
10140 -1.2695121 11.133545580000002 -1.5470370000000002 0.007672 0.08620499999999999 0.279817
10160 -1.1514095100000001 9.65821968 -1.32684174 0.025576 0.177073 0.184754
10180 -0.57390462 8.85453543 -0.36449055 0.429103 0.575669 0.055671000000000005
10200 -0.05194395 7.87976478 0.6081807600000001 0.339398 0.817703 0.079303
10220 -0.16211025 7.974970830000001 0.6962058900000001 0.328777 0.8485520000000001 0.099486
10240 -0.11750418000000001 9.20765619 0.07170129 0.386546 0.8866870000000001 0.103045
10260 0.18306441 10.59092505 -0.3990708 0.687368 0.793299 0.019808000000000003
10280 0.22228479 11.08564335 -0.74949381 0.963872 0.646081 -0.167147
10300 0.12304683000000001 10.85991525 -0.8102667600000001 0.984994 0.403906 -0.362174
10320 0.13771278 9.932742720000002 -1.24466337 0.905151 0.380997 -0.424659
10340 0.16914402 9.27261801 -1.19137545 0.987489 0.621616 -0.462848
10360 0.39772683000000003 8.87144787 -0.96878655 0.941832 0.870136 -0.5008729999999999
10380 0.6243476400000001 9.16424694 -0.82239192 0.807057 0.816184 -0.478245
10400 0.29114118 9.47829447 -0.6800390100000001 0.706897 0.7689 -0.554728
10420 0.26344755000000003 9.92720988 -0.62615268 0.7134699999999999 0.784946 -0.5771350000000001
10440 -0.20851155000000002 10.84434678 -0.63228393 0.616528 0.572258 -0.585017
10460 -0.50145777 10.72190817 -0.3469797 0.491851 0.37877 -0.574958
10480 -0.67839093 10.087377750000002 0.39712842 0.357057 0.36618 -0.5064489999999999
10500 -0.83107377 9.32006898 -0.6710530499999999 0.288239 0.513309 -0.477208
10520 -0.69979635 9.57663972 0.38036313000000005 0.107241 0.582176 -0.492447
10540 -1.1280519 10.90647351 0.47091924000000007 -0.08109 0.7074199999999999 -0.481105
10560 -0.36808101 12.839396670000001 0.98360946 -0.281013 0.908165 -0.4261430000000001
10580 -0.38964339 13.442799960000002 1.4638089600000002 -0.379064 1.0072709999999998 -0.350042
10600 -1.5015284100000001 11.987672850000001 2.26539387 -0.5473020000000001 1.160934 -0.27023
10620 -2.89737369 9.80416305 1.5025780800000001 -0.773582 1.259243 -0.150159
10640 -3.2310314100000004 8.69302359 0.40954788000000003 -1.025285 1.441623 0.013424
10660 -2.98569312 9.712400310000001 -1.40019111 -1.061069 1.7116790000000002 0.175197
10680 -2.3074493400000002 11.58710112 -2.10926772 -0.748236 1.586774 0.237363
10700 -0.57361032 11.870168670000002 -1.63295298 -0.517576 1.239323 0.08025399999999999
10720 0.26150517 11.10750003 -1.63565073 -0.3758 0.795333 -0.099784
10740 0.28769787 9.832602240000002 -1.80075303 0.034611 0.700235 -0.117092
10760 -0.50999247 8.77011057 -2.03127822 0.537319 0.753843 -0.106171
10780 -1.0011203100000001 7.7189985000000005 -1.4084217 0.497907 1.000189 0.127178
10800 -1.45257651 7.40031084 -1.5329596500000002 0.31608 1.5932959999999998 0.34733800000000004
10820 -1.4611112100000003 8.052204960000001 -1.4443459200000002 -0.371056 1.132189 0.370903
10840 -2.10147858 7.805071440000001 -1.6691813100000001 -0.6143890000000001 0.593019 0.08467899999999999
10860 -2.28843756 7.739207100000001 -1.7931208500000002 -0.404713 0.541867 -0.092184
10880 -2.1603091500000002 7.77363039 -1.9459508400000003 0.054025 0.908312 0.045147
10900 -2.31718086 7.622448480000001 -2.22362289 -0.13542300000000002 1.458869 0.256763
10920 -2.4971060700000005 7.426807650000001 -2.5842286800000003 -0.6562560000000001 1.296161 0.371906
10940 -2.5722506700000003 7.319780550000001 -2.8083087000000004 -0.710879 1.519924 0.40542
10960 -2.2748212800000003 7.96268871 -3.08598075 -0.437154 1.6542580000000002 0.40716
10980 -1.64328291 8.445890069999999 -3.70389303 -0.207471 1.6876810000000002 0.374539
11000 -1.29735288 9.1302651 -3.1293900000000003 -0.15263 1.670899 0.261712
11020 -1.94939415 10.40485878 -4.07887047 -0.225431 1.496922 0.142854
11040 -1.39225482 11.19087522 -4.383039330000002 -0.531565 1.247753 0.115397
11060 -0.38964339 11.46944979 -4.6158012 -0.788451 1.125887 0.177852
11080 -1.81392786 11.92300533 -4.388572170000001 -0.748193 1.069261 0.184615
11100 -2.9334450600000004 13.66478064 -2.96009883 -0.763884 1.082326 0.127873
11120 -2.5717994100000006 13.54129236 -1.40751918 -0.8343879999999999 0.935011 -0.000617
11140 -3.91511214 11.130102270000002 -0.34458605999999997 -0.796636 0.8514280000000001 -0.176503
11160 -3.06487944 8.360268390000002 -0.19578798 -0.708429 0.911182 -0.277444
11180 -1.2404745000000001 6.793326899999999 0.24997842000000003 -0.7128399999999999 0.873934 -0.282769
11200 0.23591088000000002 7.68052368 -0.7038380700000001 -0.8151010000000001 0.899897 -0.29313
11220 0.9291149100000001 10.0647657 -0.31749084 -0.723454 0.830628 -0.100121
11240 -0.79439418 11.93139288 0.9681881400000001 -0.797191 0.4702520000000001 0.041899
11260 -2.22362289 10.94404581 0.22768029 -0.681311 0.43447 0.098302
11280 -2.44546623 10.20548034 -1.79926191 -0.548296 0.521654 0.025412
11300 -0.9806076 9.67018788 -1.9553880600000002 -0.354556 0.624463 -0.011823
11320 0.057633750000000004 9.1937358 -1.11023694 -0.133802 0.695763 0.081495
11340 0.57569985 8.54124327 -0.32691825 0.152623 0.762165 0.27675900000000003
11360 0.55085112 8.362357920000001 -0.04295799 0.411869 0.660571 0.416501
11380 0.26001405 8.63808759 0.4122456300000001 0.790463 0.7926989999999999 0.346337
11400 0.26255484 9.02249244 -0.22722903 1.086576 0.988369 0.175102
11420 -0.21495672000000002 9.00377496 -0.9398961000000001 0.8751770000000001 0.428864 -0.115145
11440 -0.07380063 8.38122255 -0.8815167900000002 1.269165 0.738425 -0.347799
11460 0.28156662 8.15833935 -1.03120758 1.474687 1.443667 -0.26715
11480 0.6704546400000001 8.51204871 -1.24031754 1.544702 1.286039 -0.335894
11500 0.7776288900000001 8.99315073 -1.44824049 1.432945 1.181625 -0.501047
11520 0.5201654400000001 9.06140871 -1.53460773 1.383422 0.787875 -0.5585720000000001
11540 0.98464932 8.251593210000001 -1.99744353 1.392566 0.34935 -0.658359
11560 1.7564510700000002 9.6508818 -0.49906413000000005 1.194051 0.039208 -0.715964
11580 1.4154554700000002 11.14791723 0.04116276 0.998194 0.150635 -0.705725
11600 1.06967259 12.09350313 -0.5566880700000002 0.882117 0.256268 -0.6479189999999999
11620 0.15433092 11.704762259999999 -1.11757482 0.57019 0.308988 -0.508091
11640 -0.47406825 11.852952120000001 -1.3218975000000002 0.193132 0.320509 -0.398577
11660 -0.85247919 12.178075140000002 -0.59905746 -0.122258 0.23825900000000005 -0.335513
11680 0.60923043 12.249776429999999 0.87013719 -0.34996 0.30867 -0.164142
11700 0.7852708800000001 11.39370678 2.51896275 -0.7071069999999999 0.211579 -0.08319
11720 -0.56402595 10.27972242 4.26209184 -0.892069 -0.060697 -0.031791
11740 -3.82918635 10.107576540000002 4.46072472 -1.084201 0.095857 0.14506
11760 -5.74609959 11.009007630000001 1.73908737 -0.965048 0.617997 0.269137
11780 -5.970787830000001 12.48044877 -0.1938456 -0.425532 -0.06936 0.131712
11800 -4.20415398 13.24161648 -0.8559225 -0.010028 -0.109629 -0.014885
11820 -1.7221651200000003 12.62385135 -0.62584857 -0.013116 -0.342829 -0.035972000000000004
11840 0.6515998200000002 11.780652420000001 -0.54352305 0.02334 -0.782892 -0.041563
11860 2.18575629 10.226434500000002 -0.8340658200000001 0.491263 -0.537806 0.067146
11880 1.54792971 8.40936744 -0.5881291200000001 0.54685 -0.422252 0.159253
11900 0.5402268900000001 6.89196645 -1.2114270900000004 1.013623 0.231141 0.458642
11920 -0.66072312 5.882762700000001 -1.8062956799999998 0.696237 0.570021 0.436763
11940 -1.8884740500000001 6.40712682 -2.1430926 -0.548564 0.011291 0.049565
11960 -2.19877416 7.252866540000001 -1.7437275 -0.748714 -0.154104 0.025946
11980 -1.99609956 6.844064220000001 -2.04264801 -0.380146 0.249188 0.08462
12000 -1.5817644000000004 6.03709362 -2.8219347900000002 -0.342499 0.441372 0.209618
12020 -0.73332693 6.248008620000001 -2.8855526400000002 -0.357215 0.4278270000000001 0.146508
12040 -0.8222447700000001 6.442001370000001 -2.72074464 -0.713046 0.8156140000000001 0.181981
12060 -0.6210612900000001 6.136037280000001 -3.2368683600000003 -0.975997 0.7821319999999999 0.258168
12080 0.23800041000000002 6.9787849500000005 -3.4886420100000004 -0.810804 0.6000800000000001 0.353558
12100 0.15208443 9.79593246 -2.9186319600000004 -0.632269 0.756814 0.430448
12120 -1.4837134500000002 12.33884142 -4.49530497 -0.75445 0.899869 0.459322
12140 -2.27391876 13.91611284 -3.8202102 -0.988296 0.623692 0.463383
12160 -2.6223993900000004 13.11168303 -5.334452370000001 -1.178763 0.401042 0.364062
12180 -1.41904593 11.633953680000001 -7.061414580000001 -1.293251 0.44878 0.246765
12200 -0.50939406 9.524538810000001 -6.094276110000001 -1.226581 0.649436 0.093149
12220 -2.47704462 10.428216390000003 -3.7479105 -1.052493 0.800611 -0.034015
12240 -4.1472756 11.327391180000001 -1.20110697 -0.957504 0.729226 -0.113377
12260 -6.17301117 13.726004849999999 3.1027460400000004 -0.85393 0.8561549999999999 -0.243139
12280 -5.08492521 16.607662920000003 4.316419620000001 -0.716557 0.965685 -0.313891
12300 -1.66214754 9.860747130000002 0.48828294 -0.53318 0.594861 -0.179675
12320 0.5300441100000001 8.825193720000001 -1.90613205 -0.563421 0.39857 0.182493
12340 0.73885977 8.84091915 -0.91310499 -0.425084 0.459308 0.324386
12360 -1.00875249 8.548571339999999 0.1588239 -0.235583 0.612025 0.330855
12380 -1.5892494300000002 7.692648840000001 0.53843166 -0.0054280000000000005 0.6449159999999999 0.4306970000000001
12400 -1.93621932 9.26543709 -0.43155171000000003 0.377453 0.879964 0.459776
12420 -1.0336012199999998 9.3531483 -0.72569475 0.7982229999999999 0.909643 0.398584
12440 -0.10028763 8.100852750000001 -0.84305178 1.288156 0.487038 0.163266
12460 0.61941321 7.5955004100000005 0.02170953 1.536276 0.29785500000000004 -0.160566
12480 0.5150740500000001 7.32801114 0.7536826799999999 1.708527 1.000805 -0.2767
12500 -0.29637972 7.176230820000001 0.67464351 1.667952 1.420856 -0.324523
12520 -0.7309332900000001 7.40270448 -0.08756406 1.686003 1.355995 -0.370248
12540 -0.69350814 8.61398442 -0.8535288600000001 1.469413 0.972763 -0.51548
12560 -0.06151851 8.90917713 -0.7550266499999999 1.440661 0.370479 -0.655914
12580 0.42736284 8.660836980000001 -0.24683922000000003 1.420072 0.019183 -0.699405
12600 -0.1966905 8.992552320000001 -0.64335942 1.225136 -0.068883 -0.6184
12620 -0.20492109000000003 9.47889288 -1.7805444300000002 0.916108 -0.15119000000000002 -0.546746
12640 0.40430934 10.407703680000001 -0.7352693100000001 0.475633 -0.079501 -0.510391
12660 1.25992773 11.912979510000001 0.45520362000000003 0.460616 -0.503704 -0.441586
12680 2.01765213 12.62549943 -0.2894931 0.288894 -0.329061 -0.277435
12700 1.2810388499999998 12.721146930000002 -0.66102723 -0.111109 -0.326431 -0.055905
12720 -0.04221243000000001 14.02463106 -0.24833034 -0.587879 -0.35638000000000003 0.121332
12740 -2.5632745200000002 14.439123180000001 0.58887468 -0.911145 -0.508993 0.204728
12760 -0.0073378800000000015 12.76845075 3.75269778 -1.011011 -0.5972850000000001 0.259691
12780 0.12544047 9.923315310000001 5.807922210000001 -0.756608 -0.43116 0.32000700000000004
12800 -3.1897215 9.899810550000002 4.277052090000001 -0.15496 -0.488491 0.282622
12820 -4.564612620000001 10.30801446 2.0827709100000003 0.447314 -0.745686 0.142949
12840 -4.55412573 12.26159748 -0.28755072000000004 0.046882 -0.34917800000000004 -0.09857
12860 -3.3293766600000003 13.786777800000001 -0.40565331 -0.123688 -0.470375 -0.012012
12880 -0.51343578 11.79127665 -0.7161103800000002 0.777595 -0.24348000000000006 0.273867
12900 2.61072549 10.913654430000001 -0.54950715 1.459989 -0.160278 0.453716
12920 2.8331574300000004 10.30906413 -1.18777518 1.301299 -0.213591 0.337307
12940 1.90957536 8.433460799999999 -1.17490446 -0.178511 -0.246898 -0.172914
12960 0.57660237 6.649473060000001 -0.72149607 -0.66635 -0.707825 -0.100956
12980 -0.8961827400000001 5.7212508600000005 -0.8238830400000001 -0.5554439999999999 -0.029431 0.115799
13000 -1.7238132000000002 5.864957550000001 -1.7973097200000003 -0.241605 0.5137109999999999 0.147205
13020 -1.3349251800000002 6.6722224500000005 -2.4051961800000003 -0.309865 0.5139670000000001 0.142455
13040 -0.79903431 6.49499499 -1.7887848300000002 -0.968868 0.968432 0.282548
13060 -0.37451637000000004 5.76001998 -1.52982045 -1.204342 0.95361 0.197601
13080 -0.5580418500000002 5.06591343 -1.97948142 -1.013525 0.7980109999999999 0.315569
13100 -0.6529437900000001 5.03747424 -3.16142946 -0.714012 1.039579 0.38465
13120 -0.36209691 5.953865580000001 -3.8127251699999998 -0.697604 1.301842 0.319267
13140 -0.7807779 8.07975144 -3.7720038600000003 -1.132584 1.141405 0.32498
13160 -1.84640877 12.09544551 -2.3620910400000006 -1.452125 0.654079 0.193049
13180 -3.2693492699999998 15.59457441 -2.0938464 -1.336388 0.305174 -0.033227
13200 -3.5374467600000004 14.520850290000002 -4.525088129999999 -1.175153 0.776662 -0.065819
13220 -1.67217336 11.61599157 -6.8535014400000005 -1.034913 1.009914 -0.176234
13240 -0.19025514000000002 9.880651620000002 -5.73756489 -1.078942 0.905833 -0.217
13260 -1.08030663 12.043952820000001 -1.3961493900000002 -1.024139 0.961164 -0.248735
13280 -4.5318276 14.317430130000002 3.7323420300000003 -0.830169 1.125716 -0.275365
13300 -4.571646390000001 13.251043890000002 5.52561003 -0.619344 0.446956 -0.146972
13320 -2.20161906 10.743313590000001 -0.60698394 -0.475938 0.302774 0.087086
13340 0.21211182 9.56076714 -1.7009166599999999 -0.35299200000000003 0.298439 0.265276
13360 -1.25409078 10.097550720000001 -0.73916388 -0.125538 0.558732 0.24303
13380 -1.91197881 9.57767958 1.01758149 0.097235 0.600214 0.332127
13400 -1.9383186600000002 9.544453110000001 1.64792304 0.561272 0.627196 0.374858
13420 -3.04916382 10.16820234 -0.22663062000000003 0.937649 0.559898 0.36155
13440 -1.75105557 9.58621428 -0.44217594000000005 1.3784530000000002 0.316727 0.317939
13460 -0.47945394 8.20129734 -0.6304887000000001 1.673672 -0.021974 0.048038
13480 0.08471916 6.81188742 0.00030411 1.803982 0.995834 0.083964
13500 0.7714976400000001 5.391938970000001 0.97821396 1.6459150000000002 1.869113 0.282566
13520 0.35910486 6.73898931 0.90756234 1.676864 1.667423 0.077942
13540 0.06122421 7.904309400000001 -0.2891988000000001 1.43044 1.143216 -0.217936
13560 0.20028096 8.85857715 -1.4009366699999999 1.337993 0.129986 -0.365767
13580 0.37871505 8.46968913 -0.9629496000000001 1.349149 -0.450721 -0.342512
13600 0.9093575700000001 8.4331665 -0.6748004700000001 1.388652 -0.496457 -0.39452
13620 0.7825731300000001 9.22471578 -1.5483809699999997 1.113589 -0.957708 -0.425761
13640 0.70099317 9.92824974 -2.26418724 0.692596 -1.229385 -0.319395
13660 0.22168638000000002 10.1714985 0.13022775 0.160028 -0.928612 -0.21561
13680 1.53819819 11.04703119 -0.28441152000000003 -0.13225599999999998 -0.957157 -0.016789
13700 1.60092333 12.70124244 -0.63587439 -0.468598 -0.996441 0.241558
13720 0.8590617000000002 13.18293306 -1.4732363700000002 -0.735891 -1.321641 0.279632
13740 -0.4340925 13.81925871 -0.6875240400000001 -0.860383 -1.198895 0.327744
13760 -1.4730892199999999 12.748389300000001 1.6856424900000002 -0.698156 -0.8812129999999999 0.395768
13780 -0.6888680100000001 9.286087140000001 5.696107830000001 -0.08319700000000001 -0.8659879999999999 0.31779
13800 -2.00672379 7.78740363 7.13686329 0.7049 -0.8956569999999999 0.127849
13820 -5.02415226 11.9903706 3.42652509 -0.14341700000000002 -0.482555 -0.145662
13840 -3.63818565 15.62002155 0.33574725 -0.484515 -0.7015680000000001 0.041312
13860 -2.0242444500000003 15.769408230000002 -0.64007307 1.231031 -1.104241 -0.1139
13880 -1.5304188600000002 13.0059999 -0.9993250800000001 2.197568 -1.04813 0.200427
13900 1.1687732100000001 11.14103061 -0.30775932000000006 1.329354 -0.075476 0.405693
13920 2.7523230300000003 9.80865603 -1.09647351 -0.540397 -0.376115 0.219966
13940 2.27063241 9.222174990000001 -1.53250839 -1.146573 -1.568318 0.252511
13960 1.07686332 8.16611868 -1.63310013 -0.555992 -1.328041 0.126005
13980 -0.52496253 7.60613445 -1.43820486 -0.270855 -0.665984 0.014985
14000 -0.45819567 6.61414725 -0.6126737400000001 -0.23786 -0.271692 -0.048315
14020 -0.15118191 5.642221500000001 0.46613196000000007 -0.7855300000000001 0.372642 0.199134
14040 -0.44921952000000004 4.664301840000001 -1.13613534 -1.130978 0.996632 0.29740300000000003
14060 -0.38319822000000003 3.8233494 -1.79087436 -0.707484 0.625987 0.179058
14080 0.02679111 4.1962275 -2.78570646 -0.252914 0.5820350000000001 0.120333
14100 0.237402 4.878208890000001 -3.48624837 -0.122942 0.935682 0.279953
14120 0.35939916000000005 5.71211775 -3.2945021100000003 -0.293731 1.066701 0.430279
14140 -0.42406668000000003 7.769745629999999 -1.9366705800000001 -0.6283449999999999 1.27818 0.315508
14160 -2.2986203400000003 11.15286147 -0.99423369 -1.5143950000000002 0.645676 0.749169
14180 -3.76482294 17.76864699 0.70532919 -2.532118 -3.380888 0.255837
14200 -2.2350024900000003 15.26840172 -5.15617524 -0.95218 -0.261234 0.086619
14220 -1.40722488 14.1915384 -9.143282970000001 -0.261297 1.198208 -0.249052
14240 1.8037450800000001 13.7346867 -5.17279338 -1.073523 0.7288100000000001 -0.175075
14260 0.66072312 13.822103610000001 1.20049875 -0.8444790000000001 0.502782 -0.325941
14280 -3.74012136 10.993586310000001 3.95148762 -0.510386 0.7371949999999999 -0.362364
14300 -3.5705260800000005 9.12936258 0.7220944800000001 -0.479897 0.372981 -0.150176
14320 -0.10148445 9.03237111 -1.56649023 -0.5151939999999999 0.077222 0.049713
14340 0.6192660600000001 9.226962270000001 -1.20963186 -0.389021 0.233 0.144399
14360 -1.1768566500000002 11.754008460000001 0.0896634 -0.171255 0.584497 0.233064
14380 -2.8241812800000003 11.48815746 1.25169714 0.105837 0.60661 0.323633
14400 -3.63354552 10.729383390000002 1.17925029 0.647628 0.797553 0.321832
14420 -3.85957773 10.177639560000001 -1.29181023 0.964989 0.7979539999999999 0.21295300000000006
14440 -2.47914396 8.987313780000001 -0.87089256 1.2580360000000002 0.410421 -0.097492
14460 0.91894194 7.0066257300000006 -0.8768766600000001 1.311854 0.396864 -0.21674
14480 1.2669614999999999 6.3105768 -0.14086179000000001 1.328473 0.762231 -0.225638
14500 1.04602068 6.6752145 0.88945308 1.372267 0.653903 -0.345902
14520 1.91392119 8.887918860000001 2.6488962 1.2339870000000002 0.206168 -0.412524
14540 0.32213097 7.146585000000001 2.4002617500000003 1.235685 0.06890299999999999 -0.452929
14560 1.45572552 7.4269548 -1.79282655 1.274212 0.049778 -0.498569
14580 -0.6230036700000001 8.36190666 -6.519392460000001 1.185794 -0.170375 -0.5117229999999999
14600 0.7039852200000001 7.753578750000001 0.38919213 1.022114 -0.20840100000000006 -0.450861
14620 0.026496810000000003 8.136776970000001 -0.6779396700000001 0.734926 -0.154527 -0.354659
14640 -0.8720893800000001 9.16559091 -3.3163489800000003 0.494398 -0.1764 -0.270854
14660 0.73736865 10.070161200000001 -1.4052825 0.214845 -0.27508 -0.126333
14680 0.8604154800000001 10.5588954 0.85456872 -0.062225 -0.306613 0.007436
14700 0.54336609 12.152029590000001 0.6222581100000001 -0.361623 -0.292377 0.16983199999999998
14720 -0.18427104 13.1127327 -0.30072555 -0.6066199999999999 -0.364281 0.24833
14740 -0.5688132300000002 14.264740620000001 -0.58543137 -0.695975 -0.5015569999999999 0.289542
14760 -0.44532495 13.90159404 0.8039785500000001 -0.455489 -0.412879 0.282563
14780 0.67643874 11.75805018 3.64342419 0.08896 -0.404921 0.217989
14800 -0.18486945000000002 10.810364940000001 4.78958535 0.137299 -0.124908 -0.051224
14820 -3.41949132 12.207711150000002 2.0570196600000004 -0.273183 -0.581378 -0.095167
14840 -3.3820661700000003 14.402149290000002 -0.43574058 0.094235 -0.976764 -0.104912
14860 -2.4975573300000002 13.27379328 -1.0005219 1.128422 -0.827239 -0.032719
14880 -1.0033668 12.101733720000002 -0.54067815 1.283865 -0.35709 0.27434400000000003
14900 1.06323723 11.06708283 -0.52974981 0.7411939999999999 -0.013337 0.294683
14920 0.4197306600000001 10.7325324 -1.20634551 -0.469851 -0.253384 -0.163191
14940 -0.24878160000000002 9.34102314 -0.86011137 -0.46756 -1.362516 -0.120093
14960 -0.49935843 7.627539870000001 -0.26569404 -0.250438 -0.711438 0.175419
14980 -0.69545052 6.199203870000001 -0.008681849999999998 -0.366852 -0.173433 0.265783
15000 -1.07506809 5.79070566 -0.42646032 -0.452416 -0.223193 0.263113
15020 -0.90007731 5.46393456 -0.8646043500000001 -0.5968859999999999 -0.017358000000000002 0.329138
15040 -0.10628154000000001 5.667060419999999 -1.03030506 -0.94469 -0.153971 0.428365
15060 0.019011780000000002 5.07234879 -1.6859465999999999 -0.851936 -0.147984 0.449301
15080 -0.34323228 5.4983676599999995 -2.21958117 -0.567388 -0.010368 0.420134
15100 -0.82897443 6.340968180000001 -2.95201539 -0.485791 0.270863 0.349841
15120 -0.08951625 7.35211431 -3.1418192700000005 -0.733579 0.52071 0.421497
15140 -0.24189498000000004 8.980280010000001 -2.62149687 -0.932771 0.555636 0.38481
15160 -0.8496342900000001 10.71247095 -2.6701446600000005 -0.961504 0.39665 0.208556
15180 -1.839375 12.46473315 -0.7738912800000001 -0.94783 0.357063 -0.026306
15200 -1.2325382100000002 13.0839894 -4.2110406 -0.8393 0.321302 -0.234874
15220 -0.43470072 12.13332192 -7.21230219 -0.849576 0.38641 -0.257462
15240 0.7198578 12.15786654 -6.45457779 -0.8486290000000001 0.391605 -0.225415
15260 0.54890874 12.70722654 -1.2763987199999998 -0.884497 0.222441 -0.247881
15280 -4.0058154 15.274984230000001 2.3125407300000003 -0.717234 0.251354 -0.164497
15300 -4.86472995 13.301938170000001 2.6551746 -0.539972 0.376079 -0.073688
15320 -1.08315153 9.262288080000001 -0.30476727000000003 -0.426832 0.522149 0.062579
15340 1.06488531 8.8439112 -0.48065076 -0.421416 0.581619 0.104202
15360 -0.21704625 9.8968185 -0.03098979 -0.28878000000000004 0.699235 0.14663800000000002
15380 -1.3763920500000002 10.95452289 0.7054861499999999 0.017278 0.5591649999999999 0.277142
15400 -1.52592588 11.16138636 0.48753738 0.503324 0.743698 0.32837
15420 -1.9589785200000003 10.72744101 0.22527684 0.85259 0.775728 0.27415300000000004
15440 -1.33537644 10.080039870000002 -0.8610138900000001 1.219281 0.64568 -0.022221
15460 -0.5457695400000001 8.55935253 -1.0990143 1.2898889999999998 0.386831 -0.08655800000000001
15480 -0.23186916000000002 7.343726760000001 -0.5676164100000001 1.416694 0.886719 -0.264705
15500 0.44143038000000007 6.6202784999999995 0.38979054 1.465652 0.779391 -0.107197
15520 -0.18231885 7.178320350000001 0.29264211 1.29079 0.320789 -0.35459
15540 -0.45385965 7.631130330000001 -0.11061756 1.126155 -0.117022 -0.482298
15560 -0.60803361 8.23213017 -0.46058931000000003 1.100191 -0.223353 -0.509048
15580 -0.14714019 8.26611201 -0.7461976499999999 0.957814 -0.266789 -0.445894
15600 1.03689738 7.75238193 -0.46463103000000006 0.832239 -0.385854 -0.398548
15620 1.02805857 7.761809340000001 -0.6236020800000001 0.7262649999999999 -0.341238 -0.275432
15640 0.01392039 8.374031819999999 -1.73279916 0.56261 -0.138502 -0.217015
15660 -0.11256975000000001 9.310043160000001 -1.793268 0.348663 -0.164793 -0.116994
15680 -0.33664977 9.96717582 -0.53154504 0.091619 -0.22207800000000005 0.04579
15700 0.65878074 11.260486980000001 0.5632803900000002 -0.215043 -0.383652 0.22438400000000006
15720 0.31854051 12.54271284 -0.50055525 -0.504433 -0.520704 0.382772
15740 -0.05837931 13.466000610000002 -1.2325382100000002 -0.711047 -0.592763 0.466879
15760 -0.23576373 13.99814406 -0.08502327 -0.6069140000000001 -0.49812 0.418347
15780 -0.07499745000000001 12.800186100000001 2.32930602 -0.082677 -0.6491899999999999 0.180784
15800 -0.10867518 10.79615025 3.8769414300000005 0.362909 -0.634204 0.042872
15820 -1.6293625200000001 8.92279341 4.62627828 -0.157224 -0.377411 -0.054026
15840 -3.67501239 10.10353482 1.4105210400000001 -0.217944 -0.857534 -0.08054
15860 -3.3087168000000005 13.51000827 -0.63632565 0.868293 -1.076453 -0.088696
15880 -2.4138780300000002 16.40154501 -1.03510215 1.389595 -0.983135 0.09856
15900 -1.35872424 12.083320350000001 -0.47945394 1.054785 -0.468384 0.33270700000000003
15920 0.92836935 10.376125290000001 -0.46553355 0.176201 -0.15621500000000002 0.28451
15940 0.66880656 10.122252300000001 -1.14900606 -0.556848 -0.789079 0.143468
15960 -0.17992521 9.22007565 -0.70039476 -0.4025510000000001 -0.895012 0.12759
15980 -0.6717986100000001 8.582553180000001 -0.7039852200000001 -0.331716 -0.6699510000000001 0.260256
16000 -1.0990143 7.285347450000001 -0.7924517999999999 -0.294264 -0.387863 0.280452
16020 -0.52810173 6.644528820000001 -0.9253773000000001 -0.320324 -7e-05 0.29472800000000005
16040 -0.19054944000000001 5.904923490000001 -1.15155666 -0.515831 0.19867 0.314472
16060 -0.26569404 5.220244350000001 -1.3518376200000002 -0.71029 0.01883 0.435122
16080 -0.52315749 4.831199370000001 -1.7003182500000003 -0.52012 0.085248 0.443843
16100 -0.86909733 5.50300779 -2.03367186 -0.255491 0.434278 0.30958
16120 -0.0606258 6.209092350000001 -3.0084425100000005 -0.426105 0.717067 0.334731
16140 -0.38245266 7.13146779 -3.1735546200000004 -0.7529100000000001 0.700925 0.392289
16160 -0.8825664599999999 8.93836188 -2.28005982 -0.8920290000000001 0.536575 0.32102600000000003
16180 -1.3031898300000002 11.07367515 -1.74057849 -0.825658 0.441054 0.175265
16200 -1.6572033000000002 12.81350808 -0.26644941 -0.742203 0.340181 0.021085
16220 -2.27242764 13.76103636 -3.7283003100000003 -0.6340140000000001 0.315789 -0.099905
16240 -1.11982131 12.446172630000001 -6.87610368 -0.5914189999999999 0.479916 -0.155365
16260 1.10829456 13.20344577 -6.114180600000001 -0.715328 0.40382 -0.198862
16280 0.8270320499999999 13.078152450000001 -1.68145362 -0.884758 0.372762 -0.276918
16300 -3.0855294900000003 13.690679040000001 1.061442 -0.66771 0.548553 -0.204056
16320 -4.0499800200000005 13.14251586 2.29113531 -0.644098 0.437301 -0.108677
16340 -0.76580784 8.79765705 0.053739180000000004 -0.5984619999999999 0.477245 -0.014406
16360 0.3381507 8.67520863 0.77463684 -0.450651 0.694756 0.07501000000000001
16380 -0.33351057 9.982293030000001 -0.29907747 -0.27455100000000005 0.833192 0.201045
16400 -1.4528806200000002 10.145452950000001 -0.07275096 0.030962 0.767861 0.289789
16420 -2.50713189 10.196641529999999 0.49681764000000006 0.5061720000000001 0.916208 0.342056
16440 -2.3743633500000003 10.05624081 0.41868099000000003 0.81905 1.034204 0.399638
16460 -1.4218908300000002 9.88469334 -0.56313324 1.001395 0.6081340000000001 0.23161
16480 -0.61387056 8.66323062 -1.09227483 0.785683 0.275549 -0.058958
16500 -0.08592579000000002 7.87422213 -0.45774441000000005 1.226445 0.699386 -0.138676
16520 0.22648347000000002 7.492367880000001 0.7351221600000001 1.703825 1.607001 -0.286055
16540 -0.18905832000000003 7.976010690000001 0.5351355 1.531773 1.295629 -0.059327
16560 -0.31285071000000003 8.412359490000002 -0.15402681000000001 1.190169 0.239144 -0.362666
16580 -0.11152008000000001 8.381968109999999 -0.8072747100000001 1.083666 -0.34683800000000004 -0.516483
16600 0.26075961000000003 8.39364201 -0.9544149000000001 1.064465 -0.534457 -0.467239
16620 0.69276258 8.19754992 -0.66447054 0.942884 -0.784283 -0.4902
16640 0.35191413000000005 8.233474140000002 -0.11945637 0.879524 -0.619025 -0.470558
16660 -0.34877493 8.22614607 -0.90711108 0.73035 -0.4506979999999999 -0.344698
16680 -0.42691158 8.697810870000001 -2.5042968 0.404511 -0.350223 -0.147345
16700 -0.0981981 9.636510150000001 -1.01877831 0.034858999999999994 -0.247537 0.067859
16720 0.20357712 10.293495660000001 0.29173959000000005 -0.312681 -0.232191 0.260896
16740 0.29623257000000003 11.500881029999999 -0.00643536 -0.559081 -0.385025 0.33307800000000004
16760 0.30565998000000005 12.401409600000001 -1.1154754800000002 -0.5801689999999999 -0.323191 0.33926100000000003
16780 -0.25057683000000003 13.75100073 -1.46545704 -0.570183 -0.26559 0.311483
16800 -1.04542227 14.424457230000002 -0.93630564 -0.151662 -0.268896 0.24284
16820 0.9818044200000001 13.0723155 1.6639427700000002 0.217123 -0.411611 0.181505
16840 1.3822290000000002 10.381059720000001 4.2511635000000005 -0.107067 -0.304365 0.016734
16860 -1.57382811 8.435560140000002 4.4854263 -0.127977 -0.607139 0.093888
16880 -3.4163423100000005 10.00489527 1.71063837 0.452303 -0.869087 0.09614
16900 -3.55285827 10.51488774 -1.5519714300000003 1.245408 -0.8736 0.004478
16920 -2.07213687 15.23726478 -1.64986542 1.2865719999999998 -0.649316 0.091004
16940 -0.28245933 13.365408870000001 -0.31749084 0.60249 -0.302408 0.243878
16960 0.6643233900000001 9.82766781 -0.48843009000000004 -0.5382060000000001 -0.446098 0.136749
16980 1.22998761 8.9944947 -1.19137545 -0.642676 -1.289782 0.223627
17000 0.07903917 8.55845001 -1.12850316 -0.481088 -1.392716 0.250525
17020 -0.23725485000000002 7.875271800000001 -1.3063290300000001 -0.432778 -1.010873 0.090139
17040 -0.60698394 6.975341640000001 -1.4988306599999999 -0.334112 -0.676651 0.073309
17060 -0.17004654 6.15235131 -1.31950386 -0.709976 -0.32773 0.255039
17080 0.05478885000000001 6.60501414 -1.27924362 -0.886912 -0.163572 0.381779
17100 -0.23591088000000002 6.64184088 -1.99445148 -0.728113 -0.059233 0.524828
17120 -0.65129571 6.08365188 -2.6941006800000005 -0.505467 0.116774 0.538976
17140 -0.92806524 6.27659496 -3.4935862500000003 -0.44953 0.198687 0.518966
17160 -0.98540469 7.13296872 -3.84430356 -0.532868 0.431119 0.540519
17180 -0.5496543 7.68891123 -3.48939738 -0.745154 0.382011 0.484619
17200 0.050295870000000006 9.83080701 -2.1444365700000003 -1.045398 0.221382 0.421839
17220 -1.1771509500000001 11.315266020000001 -1.40483124 -1.118695 0.134918 0.263341
17240 -2.36807514 13.170366450000001 -1.4769739800000001 -0.958103 0.30451100000000003 0.070898
17260 -1.67516541 12.824279460000001 -5.288649480000001 -0.709692 0.572769 -0.09649
17280 -0.54112941 10.777736879999999 -7.08282 -0.811552 0.377447 -0.180273
17300 -0.30596409 11.27305359 -6.110894249999999 -0.860208 0.181815 -0.232705
17320 0.69231132 13.18338432 -2.3831923500000003 -0.676461 0.4582060000000001 -0.24673
17340 -2.0853117 14.1220836 0.7478457300000001 -0.583507 0.322304 -0.174336
17360 -3.53998755 12.91454127 2.19309417 -0.497815 0.330907 -0.002833
17380 -0.6665600700000001 8.78403096 0.12453795000000001 -0.426342 0.285137 0.192141
17400 1.69043958 7.574850360000001 -0.15866694 -0.25219400000000003 0.4587560000000001 0.312776
17420 1.61858133 8.0460639 -0.30926025 0.060741 0.657439 0.438621
17440 0.30357045 10.217007090000001 -0.5450141700000001 0.508993 1.003924 0.515015
17460 -1.08509391 11.080856070000001 0.67030749 0.8248709999999999 1.018812 0.513998
17480 -2.7834599700000004 10.71292221 -0.5578947 1.177353 0.7993859999999999 0.203752
17500 -2.7735813000000005 9.663752520000001 -1.43327043 1.162582 0.725205 -0.146633
17520 -1.60810425 9.39791133 -1.14811335 1.183952 1.105842 -0.248452
17540 -0.70652601 8.435707290000002 -0.32093415000000003 1.370902 1.679196 -0.203016
17560 -0.2863539 8.0372349 -0.14235291 1.225751 1.770898 -0.099461
17580 -0.40789980000000003 7.7826163500000005 0.18845991 0.973097 1.070847 -0.371657
17600 0.29862621000000006 7.60702716 0.57674952 1.074801 0.662429 -0.621456
17620 0.5900715000000001 7.81779501 -0.15657741000000003 1.306514 0.547322 -0.54171
17640 -0.05957613 8.51175441 -1.1335945500000002 1.243476 0.255792 -0.575959
17660 0.57225654 8.681643990000001 -1.5413472000000001 1.077679 -0.043109 -0.542551
17680 1.1843416800000002 8.62910163 -0.5751014400000001 0.694026 -0.38176 -0.503137
17700 0.8689403700000001 8.669224530000001 -1.26771687 0.459705 -0.222505 -0.432338
17720 0.1704978 9.14224311 -2.48543217 0.272594 0.050352 -0.306877
17740 -0.35880075000000006 10.032137640000002 -0.13457358 -0.06789400000000001 0.139464 -0.185455
17760 1.10485125 10.344684240000001 0.9171467100000001 -0.454541 -0.060001 -0.052236000000000005
17780 1.96451136 11.70296703 0.69530337 -0.674513 -0.216329 0.071409
17800 1.3216032000000002 12.61142208 -0.34248672 -0.751181 -0.337837 0.154351
17820 -0.74095911 14.03182179 -0.71072469 -0.7344609999999999 -0.35094000000000003 0.219646
17840 -2.02963014 14.24812248 0.039367530000000005 -0.427051 -0.409171 0.130001
17860 0.8029288800000001 12.719950110000001 3.80209113 0.044588 -0.544429 -0.020355
17880 -0.16406244 11.076363090000001 5.332509990000001 0.29858 -0.422279 -0.151197
17900 -2.6005427100000005 9.33204699 3.9914535600000005 0.102113 -0.757969 -0.215165
17920 -3.37697478 8.782088580000002 1.8226097100000003 0.244008 -0.8909790000000001 -0.109317
17940 -3.88098315 10.843748370000002 -0.7890084900000001 0.859247 -0.366332 0.023563
17960 -2.15102889 12.60393705 -1.5488322300000001 1.00779 -0.227637 0.108812
17980 -0.8306225100000001 12.32671626 -0.8414037000000001 0.436095 -0.215962 0.082371
18000 0.6686594100000001 10.774146420000001 -1.08045378 -0.4881430000000001 -0.349901 0.013062
18020 1.46470167 10.29034665 -1.72471572 -0.7334390000000001 -0.783764 0.033269
18040 0.66820815 8.31925278 -1.17595413 -0.463087 -0.7079270000000001 0.014764
18060 0.2459367 6.796466100000001 -0.75218175 -0.388187 -0.195746 0.003949
18080 0.27677934 6.15385224 -0.43454376000000006 -0.5440659999999999 0.205644 0.193557
18100 0.164808 6.6720753 -1.3796784000000002 -0.878347 0.493921 0.320108
18120 -0.07199559 7.4443185000000005 -2.4927700500000003 -0.8867430000000001 0.5587949999999999 0.354149
18140 -0.24758478 7.89712848 -3.07220751 -0.8130470000000001 0.167318 0.4203270000000001
18160 -0.53364438 7.655979060000001 -2.77268859 -1.148299 -1.171133 0.560706
18180 -0.96563754 6.8713065900000005 -2.91997593 -1.181926 -0.580858 0.561851
18200 -1.24301529 7.247628000000001 -3.10709187 -0.7759689999999999 0.900842 0.500831
18220 -0.57375747 7.494163110000001 -3.84894369 -0.752961 1.070001 0.536026
18240 -0.34667559 8.89540389 -3.6030069900000004 -0.967584 0.8584940000000001 0.601028
18260 0.09849240000000001 10.47296961 -3.67740603 -0.896568 0.901225 0.509602
18280 0.05747679000000001 11.52423864 -2.86219503 -0.6856270000000001 1.183293 0.384664
18300 -2.20326714 12.91649346 -2.6867628000000003 -0.632406 1.228511 0.219403
18320 -3.3678416700000002 13.047172470000001 -5.88381237 -0.661274 1.037576 0.041053
18340 -1.7404313400000002 12.496762799999999 -7.29343089 -0.6149020000000001 0.7387630000000001 -0.13129200000000002
18360 0.048353490000000006 11.707303049999998 -4.0897988100000005 -0.618131 0.670844 -0.193184
18380 -1.73474154 12.07703214 -0.57989853 -0.640389 0.59477 -0.063988
18400 -4.694085 10.906620660000002 1.9267919100000002 -0.629598 0.458081 0.00997
18420 -4.10865363 9.35614035 1.2560331599999999 -0.547231 0.332898 0.074799
18440 -1.41844752 8.212372830000001 0.8734333500000001 -0.536632 0.105854 0.100802
18460 0.88121268 8.96964597 0.23830452000000002 -0.288506 0.232855 0.093826
18480 0.91160406 10.63538397 0.42167304000000005 -0.030714 0.178557 0.12881199999999998
18500 -0.40835106000000004 10.7382222 0.51477975 0.392047 0.35133600000000004 0.243706
18520 -1.48206537 9.64698723 0.02544714 0.962914 0.31017 0.186858
18540 -1.94445972 9.162598860000001 -1.5328125000000001 1.2209219999999998 0.044924 -0.038531
18560 -1.16098407 8.26491519 -0.8238830400000001 1.458498 0.38299 -0.337475
18580 1.07715762 8.486454420000001 0.27228636 1.333428 0.625007 -0.278839
18600 -0.04086846000000001 8.261766180000002 -0.7782273000000001 1.158135 0.399442 -0.195384
18620 -0.5070004200000001 7.8879953700000005 -1.54613448 1.033688 0.17538900000000002 -0.267537
18640 -0.26704782000000005 8.34843753 0.45520362000000003 1.055968 0.000134 -0.41564
18660 -0.33844500000000005 8.41684266 0.65263968 1.1853790000000002 0.04347 -0.442565
18680 -0.17708031000000002 8.21670885 -0.64395783 1.236359 -0.067258 -0.501888
18700 0.16705449 8.680594319999999 -1.18882485 1.1403530000000002 -0.303406 -0.5043920000000001
18720 0.39502908 9.34850817 -0.9530709300000001 0.978332 -0.530721 -0.5276649999999999
18740 1.41830037 8.493939450000001 -0.39158577000000006 0.780927 -0.714568 -0.46792
18760 1.2265541100000001 8.70065577 -0.6710530499999999 0.372901 -0.739038 -0.388486
18780 0.34188831000000003 9.15376005 -1.44104976 0.007106 -0.549838 -0.233186
18800 0.7399094400000001 10.19305107 -0.63962181 -0.179887 -0.483664 -0.103186
18820 1.1681748 10.91874582 0.05747679000000001 -0.301993 -0.481547 0.005985
18840 1.38911562 12.04574805 0.6195603599999999 -0.256324 -0.45006 0.084244
18860 0.11720988 12.48313671 -0.44277435000000004 0.08809 -0.5331239999999999 0.045096
18880 -0.47301858 13.302389430000002 -1.72501002 0.26393 -0.61879 0.003705
18900 0.39802113000000006 14.07118932 -1.2115840500000001 0.187203 -0.669373 -0.06726900000000001
18920 2.6316796500000006 13.53261051 1.3154621400000002 -0.075571 -0.784395 -0.112754
18940 2.9473752600000003 11.564950140000002 6.34006566 0.079248 -0.6797850000000001 -0.033827
18960 -1.91691324 10.82114613 4.58241777 0.695341 -0.582807 -0.044603
18980 -4.3180677 9.417511710000001 1.7007597 0.810192 -0.237869 -0.091244
19000 -3.0729628800000004 10.21206285 1.0285098300000002 0.329059 0.154171 0.054444000000000006
19020 -2.1139078500000004 11.47963257 0.2633004 -0.282756 -0.214211 0.267491
19040 -0.4568517 11.565999810000001 0.22453128 -0.304117 -0.617121 0.34477
19060 0.9907903800000001 11.78603811 -0.1907064 -0.384311 -1.057208 0.180268
19080 1.83308679 11.41016796 -0.7457463900000001 -0.5332140000000001 -1.303384 0.06738
19100 0.46134468 9.488771550000001 -0.51762465 -0.6984600000000001 -0.82642 0.280327
19120 -0.8062250400000001 8.6244615 -0.3715243200000001 -0.952865 -0.553401 0.423479
19140 -1.59777432 7.923026879999999 -0.77463684 -0.93312 -0.32168800000000003 0.535483
19160 -1.35812583 7.49535993 -1.24107291 -0.729213 0.002279 0.594176
19180 -1.17041148 6.34425453 -0.75428109 -0.7063729999999999 0.144763 0.640087
19200 -0.6236020800000001 5.84968338 -0.93735531 -0.6674260000000001 -0.077593 0.53489
19220 -0.6216597000000001 5.17489272 -1.3994357400000002 -0.71951 -0.145144 0.423517
19240 -0.39158577000000006 6.11014869 -1.97648937 -0.797272 -0.254049 0.286381
19260 -0.31299785999999996 6.86098647 -2.18994516 -0.8255979999999999 -0.242912 0.190029
19280 -0.9632439 8.750058930000002 -2.6249401800000003 -0.75915 -0.250302 0.115727
19300 -1.56784401 10.08243351 -2.1442894200000007 -0.75605 -0.315124 0.073103
19320 -1.7989578 11.475590850000001 -2.5114777200000002 -0.8693290000000001 -0.362644 0.067031
19340 -2.00851902 12.918887100000001 -3.1299884100000006 -0.864894 -0.385852 0.006204
19360 -0.9886910400000001 11.25135387 -3.97663065 -0.827041 -0.359002 -0.081161
19380 -1.11877164 10.64750913 -3.496284 -0.792297 -0.28325300000000003 -0.139767
19400 -0.7764320700000001 14.61665475 -1.0761079500000001 -0.6911729999999999 -0.133256 -0.175573
19420 -2.0881566 15.55176357 0.61102566 -0.530511 0.043935 -0.13729
19440 -2.3457672 11.34640296 -2.28395439 -0.428864 0.002573 -0.005135
19460 -0.59815494 8.852593050000001 -2.3366439000000003 -0.271769 0.027834 0.201028
19480 1.3639627800000003 8.06927436 0.16002072 -0.028745 0.15729200000000002 0.383089
19500 3.0262574700000004 6.67896192 2.01480723 0.32039 0.084274 0.491376
19520 2.0619639 8.78687586 1.67951124 0.8330059999999999 0.33865100000000004 0.635636
19540 -0.30446316 10.80932508 0.63153837 1.229229 0.26549 0.472923
19560 -1.64792304 11.121126120000001 -0.28860039000000004 1.398275 0.246122 0.108796
19580 -1.4949459 9.6133095 -1.2195105300000002 1.6336959999999998 0.8769040000000001 -0.129649
19600 -0.19878984000000002 8.85319146 -0.7864677000000001 1.866206 1.435916 -0.266542
19620 0.27422874 9.36661743 -0.25581537 1.746071 1.372098 -0.187183
19640 0.47496096000000004 8.91097236 0.05852646 1.350912 0.912738 -0.32074600000000003
19660 0.64859796 8.57731464 0.11900511 1.14321 0.334674 -0.501985
19680 0.6652161000000001 8.803042740000002 -0.00494424 1.390049 -0.146254 -0.593648
19700 0.4504163400000001 8.418647700000001 -0.19968255000000001 1.507625 -0.142224 -0.637698
19720 0.20207619000000002 8.27868843 -0.20611791 1.253208 -0.229847 -0.615862
19740 0.40296537000000004 8.251141950000001 -0.18097488 1.000294 -0.161119 -0.534395
19760 0.21255327 8.18797536 -0.45594918 0.834708 0.15320799999999998 -0.408836
19780 0.0290376 7.93709442 -0.31734369000000007 0.45752 0.104138 -0.331291
19800 -0.03697389 7.9766091 -0.24444558 0.113382 0.083577 -0.219369
19820 -0.37272114 9.12442815 -0.52870014 -0.269619 0.001207 -0.068115
19840 -0.3990708 10.09829628 -0.8852544000000001 -0.6814399999999999 -0.12881900000000002 0.038134
19860 0.20087937 10.34693073 0.12034908 -0.923869 -0.347715 0.110429
19880 2.08650852 11.17006821 0.022003830000000002 -0.8747299999999999 -0.630901 0.289528
19900 2.52989109 12.8551221 -0.30342330000000006 -0.497212 -0.7935180000000001 0.4024
19920 1.6058577600000001 14.68371591 0.48918546 0.148091 -0.986887 0.24799
19940 -0.68916231 15.27962436 2.2601455200000005 0.358239 -0.735342 0.031218
19960 0.7312275899999999 12.37342167 6.17929938 -0.19652 -0.937107 -0.179633
19980 -2.2159907100000003 9.93948219 5.05154178 -0.22835100000000005 -1.033282 -0.077183
20000 -2.83016538 9.80640954 2.4830385300000004 0.4931140000000001 -0.487136 0.181393
20020 -3.3641040600000003 9.98124336 0.75727314 0.742872 0.008532 0.41858
20040 -3.2061826800000004 13.692327120000002 -0.36808101 0.406961 0.10416 0.23878600000000005
20060 -2.16674451 13.31885061 -0.08816247 -0.282359 -0.231052 -0.315733
20080 0.063765 11.221560900000002 0.13981212 -0.407407 -0.854468 -0.416221
20100 1.16727228 10.49512059 -0.10208286000000001 -0.30193200000000003 -0.13264 -0.134399
20120 1.18673532 10.274631029999998 -0.78556518 -0.397245 0.467789 0.310683
20140 0.011673900000000001 8.749303560000001 -0.9993250800000001 -0.667283 0.520722 0.627059
20160 -0.6300374400000001 7.71390711 -0.53618517 -0.8698239999999999 0.692397 0.761089
20180 -0.31434183000000004 6.486607439999999 -0.6619199400000001 -0.802511 1.046408 0.617963
20200 -0.41313834 5.24898765 -1.04078214 -0.810811 0.971316 0.489815
20220 -1.04063499 5.55914061 -1.40213349 -0.8239780000000001 0.8352280000000001 0.43435
20240 -0.9187849800000001 5.926024800000001 -2.0707929000000003 -0.839173 0.687571 0.343634
20260 -0.5545985400000001 5.1452469 -2.5596742500000005 -0.879225 0.677537 0.223726
20280 -0.50879565 5.26874499 -2.9526138000000004 -0.811226 0.754393 0.125826
20300 -0.15148602000000003 7.05992346 -4.16090169 -0.845469 1.005769 0.162653
20320 -0.22199049 8.30248749 -5.03373663 -0.963982 1.044298 0.22052800000000006
20340 -0.32662395 11.01514869 -4.440967379999999 -1.003935 0.8434809999999999 0.125434
20360 -0.34772526 13.18802445 -3.4347556800000003 -0.954682 0.698109 -0.059906
20380 -2.3493674700000002 14.615310780000002 -2.97865935 -0.8419040000000001 0.763112 -0.16281900000000002
20400 -3.28491774 12.698691839999999 -5.82918048 -0.868352 0.553434 -0.185168
20420 -1.32205446 9.4368276 -7.44551532 -0.710733 0.6703 -0.242969
20440 0.11690577 8.53749585 -4.17272274 -0.544745 0.431768 -0.143227
20460 -2.2526703000000006 11.34355806 -1.22086431 -0.530904 0.173028 0.080459
20480 -4.012702020000001 13.675708980000001 2.80666062 -0.373109 0.221193 0.153071
20500 -3.47696811 15.204626910000002 5.13821313 -0.165185 0.7590279999999999 0.005351
20520 -0.39712842 11.29775517 1.5383551500000001 -0.069846 0.971242 0.132864
20540 0.36209691 9.3648222 0.72524349 0.15871500000000002 0.8466389999999999 0.192304
20560 -0.36403929000000007 10.23301701 0.55968993 0.5784739999999999 0.660036 0.139927
20580 -0.5587874100000001 9.3759075 1.3096251900000002 1.077954 0.928906 0.134526
20600 -0.8104139100000001 8.29409994 1.48086855 1.213901 0.870482 -0.024683
20620 -1.79776098 8.82310419 0.67135716 1.408629 0.53301 -0.248285
20640 -1.77530589 9.453141630000001 0.4784042700000001 1.533315 0.771069 -0.215673
20660 -1.3245952500000002 9.1911852 0.49277592000000003 1.6025049999999998 1.059172 -0.12903299999999998
20680 -1.19900763 7.54985448 0.04909905 1.642844 1.180648 -0.438691
20700 -0.7954438500000001 7.38429111 -0.034727400000000005 1.4107379999999998 0.629314 -0.62334
20720 -0.06151851 7.933651110000001 -0.37302525000000003 1.458743 0.117957 -0.658669
20740 0.7714976400000001 8.24500089 -0.49277592000000003 1.476175 -0.040823000000000005 -0.6604800000000001
20760 0.75906837 7.855210350000001 -0.8146027800000001 1.2905 -0.283071 -0.658262
20780 0.47855142 7.6769332200000004 -1.0285098300000002 1.048404 -0.282152 -0.678114
20800 0.6950090700000001 8.42508306 -1.27684017 0.760315 -0.459316 -0.6126010000000001
20820 0.88765785 8.729693370000001 -1.24017039 0.577789 -0.54035 -0.436447
20840 0.36883638 9.02967336 -0.30611124000000006 0.231291 -0.52609 -0.239128
20860 0.22617936000000002 9.80909748 0.2228832 -0.102522 -0.255326 0.003884
20880 0.18576216000000004 11.400446250000002 1.0225257300000001 -0.403645 -0.161145 0.15548399999999998
20900 0.53723484 12.9971709 0.7776288900000001 -0.621937 -0.277674 0.181882
20920 -0.19699461000000001 12.99597408 -1.3212990900000001 -0.559778 -0.341192 0.294561
20940 -1.50002748 13.079496420000002 -2.77028514 -0.246941 -0.501107 0.320452
20960 -0.5851370700000001 13.064977620000002 -1.47039147 -0.008901000000000001 -0.561239 0.233529
20980 0.11106882000000001 13.4713863 0.14400099 0.11391 -0.504374 0.026011000000000003
21000 1.27160163 12.25890954 1.66095072 -0.291984 -0.572465 -0.176494
21020 1.53895356 9.72273024 5.288806439999999 -0.183051 -0.8654719999999999 -0.256543
21040 -0.14385383999999998 8.300241 6.5274759 0.664068 -0.558701 -0.184789
21060 -2.66325804 10.27403262 3.9133169100000003 1.0563 -0.5105390000000001 -0.048583
21080 -2.83465836 14.42235789 0.8750814299999999 0.70158 0.118023 -0.01982
21100 -1.38641787 14.527138500000001 -0.62001162 0.006689 0.330205 0.267747
21120 -1.8721600200000001 11.4615135 -1.24735131 -0.599955 -0.209163 0.345386
21140 -0.72149607 10.228975290000001 -1.17146115 -0.526679 -0.615975 0.251347
21160 1.04946399 11.444453910000002 -0.91459611 -0.515912 -0.536459 0.07079099999999999
21180 0.66701133 9.99411408 -0.88376328 -0.534452 -0.053155 0.16938699999999998
21200 -0.23276187000000004 8.17345656 -0.7455992400000001 -0.903754 0.179285 0.43677
21220 -0.42481224000000006 6.66982881 -0.37257399 -1.314465 0.030195 0.514208
21240 -0.56177946 5.50570554 -0.76356135 -1.212904 -0.12795399999999998 0.548235
21260 -0.5266008 4.73555187 -0.57705363 -0.898719 0.083619 0.646299
21280 -0.47151765 4.753818090000001 -0.94453623 -0.6993149999999999 0.205802 0.5546
21300 -0.66596166 5.35496508 -1.38776184 -0.775934 -0.011154 0.530842
21320 -0.9695321100000001 5.17384305 -2.33993025 -1.02061 -0.09126 0.529235
21340 -1.22385636 5.29044471 -2.89811925 -1.079899 -0.050328 0.46788
21360 -1.00456362 6.74826957 -3.5923827600000005 -1.088485 0.062014 0.353376
21380 -1.3995927 8.77714434 -4.38168555 -1.115633 0.08067200000000001 0.239931
21400 -1.22819238 11.15554941 -3.83652423 -1.088904 -0.074277 0.071538
21420 -0.62958618 13.29220665 -2.48244012 -0.957467 0.014469 -0.124211
21440 -2.7973803600000005 16.05381975 -2.9198287800000005 -0.8803200000000001 0.276456 -0.173146
21460 -3.49268373 14.2780626 -6.934178879999999 -0.8509200000000001 0.384045 -0.197648
21480 -1.3096251900000002 12.059521290000001 -6.83912979 -0.6568069999999999 0.547664 -0.25739
21500 -0.054936000000000006 13.06183842 -3.1118791500000005 -0.588329 0.4957220000000001 -0.114772
21520 -1.71468009 13.95488196 -0.24428862 -0.518713 0.297529 0.103886
21540 -4.21209027 11.622731040000001 1.5111029699999998 -0.378353 0.381504 0.29383400000000004
21560 -4.16614023 9.011711250000001 0.08772102000000001 -0.204377 0.423404 0.320633
21580 -1.48027014 6.86233044 0.8821152000000001 0.048843 0.500306 0.316962
21600 0.11016630000000001 7.33639869 0.75982374 0.365629 0.473671 0.309595
21620 0.7412632200000001 9.67408245 0.95396364 0.871175 0.623388 0.259523
21640 0.19054944000000001 10.2295737 1.05515379 1.318119 0.502929 0.159182
21660 -1.32894108 10.123145010000002 1.22864364 1.512681 0.368914 -0.061477
21680 -1.87365114 9.29192409 -0.24055101 1.553931 0.422453 -0.165944
21700 -2.25550539 8.576863379999999 -1.4436003599999998 1.432038 0.32089 0.029888
21720 -1.14961428 8.51699295 -1.0976703300000001 1.607557 0.484056 -0.166716
21740 -0.59815494 8.136178560000001 -0.37287810000000005 1.682856 0.35702399999999995 -0.432015
21760 0.04266369 7.493564699999999 0.3010198500000001 1.495082 -0.570376 -0.648987
21780 0.07409493 7.61451219 0.15074046 1.423002 -0.248332 -0.669131
21800 -0.02140542 8.02481544 0.17348985 1.336883 -0.195777 -0.6836869999999999
21820 0.01511721 8.15609286 0.15373251000000002 1.109683 -0.437807 -0.699919
21840 -0.20432268 8.11896201 -0.10612458 0.7659739999999999 -0.6149060000000001 -0.602748
21860 -0.30252078000000004 7.82093421 -0.17693316 0.4749310000000001 -0.453489 -0.490688
21880 0.18561501000000002 8.67790638 -0.057633750000000004 0.201819 -0.278526 -0.3187
21900 0.47122335000000004 9.1043667 0.14714019 -0.06765299999999999 -0.249493 -0.152909
21920 -0.25193061 10.280919240000003 -1.05335856 -0.324975 -0.36432 0.014219999999999997
21940 -0.8427476700000002 11.43771444 -1.1892761100000002 -0.66271 -0.576833 0.171299
21960 0.12229146 11.491904880000002 0.17798283 -0.799908 -0.78265 0.344724
21980 1.69043958 12.4244631 0.08007903000000001 -0.297761 -0.70726 0.503027
22000 1.72710936 13.2661611 -1.4492901599999999 0.331282 -0.520009 0.54991
22020 0.6730052400000001 13.952184210000002 -2.0474451 0.646088 -0.61971 0.434732
22040 0.17169462000000002 14.25021201 -0.49277592000000003 -0.082481 -0.439155 -0.129268
22060 0.24968412 12.725041500000001 1.93592502 -0.216436 -0.507233 -0.304237
22080 0.6406714800000001 10.205921790000001 5.773489110000001 0.708226 -0.202205 -0.396445
22100 -0.44427528000000005 8.70964173 5.854176360000001 1.2898379999999998 0.511876 -0.188199
22120 -2.1206375100000003 9.81554265 4.16628738 0.820681 1.531877 -0.181033
22140 -2.443671 13.070216160000001 1.7863813800000001 -0.362484 0.281376 -0.253925
22160 -2.56206789 15.098355180000002 0.29474145 -0.408251 -0.106368 0.047491000000000005
22180 -3.5266655700000005 12.44586852 -0.52420716 -0.395849 0.333439 0.340775
22200 -1.42069401 11.19971403 -0.83676357 -0.587491 0.456475 0.37453
22220 0.65473902 10.43030592 -0.25402014 -0.705026 0.046226 0.239639
22240 2.2820022 9.524695770000001 -0.29757654 -1.014116 0.315898 0.201883
22260 0.942741 8.322843240000001 -0.36853227000000005 -1.1345610000000002 0.368407 0.228748
22280 -0.08592579000000002 7.158867120000001 -0.32497587 -1.001714 0.231788 0.445632
22300 -0.38290392 6.01958277 -0.43439661 -0.8608040000000001 0.213442 0.648534
22320 -0.8357139 5.55330366 -0.86325057 -0.8440340000000001 0.228922 0.492671
22340 -1.17176526 4.30773777 -1.3624618499999999 -1.104231 0.440967 0.4382390000000001
22360 -1.26351819 4.47898113 -1.75449888 -1.46064 0.477157 0.488046
22380 -1.41844752 4.5002394 -2.2129986600000002 -1.538492 0.326792 0.329598
22400 -1.1365866 5.344939260000001 -2.7982828800000004 -1.463992 0.238199 0.04288
22420 -0.93855213 6.0655328100000006 -4.08679695 -1.293807 0.48202 -0.07268
22440 -1.09662066 8.97024438 -4.432736790000001 -0.973665 0.6028819999999999 -0.205195
22460 -0.47406825 11.673625320000001 -3.02266701 -0.8502040000000001 0.651946 -0.327241
22480 -1.51006311 13.926138660000001 -2.121687180000001 -0.7365149999999999 0.470763 -0.404195
22500 -5.19075549 16.49329794 -2.12498334 -0.5638770000000001 0.253651 -0.338617
22520 -4.774468140000001 13.0142403 -5.3968734 -0.459696 0.14272 -0.127308
22540 -1.9091339100000002 12.637320480000001 -4.67507322 -0.400697 0.0072099999999999985 0.14247
22560 -1.3564777500000003 14.49585441 -0.32302368 -0.370364 0.10831 0.141484
22580 -5.80926618 15.891856650000001 4.67822223 -0.086529 0.396908 0.184758
22600 -4.39935336 8.724003569999999 1.24017039 0.272568 0.263699 0.152185
22620 -0.71670879 5.469173100000001 -0.35071731 0.7254229999999999 0.195834 0.214188
22640 1.9154123100000002 6.8969106899999995 -0.42377238 1.09625 0.184595 0.30545500000000003
22660 2.37376494 10.2554721 0.47855142 1.446738 -0.220157 0.25501
22680 0.99033912 11.488608720000002 1.00425951 1.718593 -0.123777 0.159578
22700 -0.26748927000000006 10.11955455 1.29809844 1.801916 0.075387 0.097948
22720 -2.12422797 9.51152094 0.31569561 1.666612 -0.16376 -0.18577
22740 -1.85509062 9.39266298 -0.63153837 1.6438689999999998 -0.199104 -0.384573
22760 -0.7587740700000001 8.84300868 -0.36059598 1.639172 -0.16456700000000002 -0.49254
22780 -0.02170953 7.942931370000001 0.30625839 1.519207 -0.603719 -0.590024
22800 0.09759969 6.810239340000001 1.1560496400000002 1.271527 -0.595577 -0.546899
22820 -0.40445649000000006 6.70381065 1.0377900899999999 1.073292 -0.437676 -0.435254
22840 -0.43155171000000003 6.79467087 0.34578288 0.934408 -0.397043 -0.352955
22860 -0.33291216 7.6929529500000005 0.06421626 0.753351 -0.494699 -0.283592
22880 0.19219751999999998 9.365577570000001 -0.29907747 0.354165 -0.650383 -0.165472
22900 0.45520362000000003 9.30404925 -0.43963515000000003 0.010959 -0.641359 0.00624
22920 0.9930368700000001 8.92878732 -0.1707921 -0.202128 -0.704972 0.114859
22940 0.55923867 10.06911153 -0.94408497 -0.432442 -0.82596 0.201
22960 -0.3924882900000001 11.05481052 -1.06263882 -0.49247 -0.8270629999999999 0.262539
22980 0.46403262 10.714423140000001 -0.42077052000000004 -0.208747 -0.768694 0.33815300000000004
23000 2.73421377 11.593536480000001 0.01915893 0.13209500000000002 -0.6495340000000001 0.346791
23020 1.41770196 12.74420043 -1.6872905700000003 0.45294 -0.498231 0.326405
23040 -0.5051953800000001 13.71223161 -2.43648027 -0.0707 -0.392362 0.146355
23060 -2.1782712600000003 13.04567154 -0.47870838000000004 -0.298648 -0.954419 -0.024364
23080 0.6509916 12.150832770000001 1.9208078100000001 0.423414 -1.101312 0.11973699999999997
23100 0.18172044 9.70686747 5.35257144 1.124366 -0.900028 0.324133
23120 -1.6566048900000003 10.65484701 5.932617120000001 1.451142 -0.207209 0.476147
23140 -3.7077876000000005 11.80310751 3.6803980800000002 0.634646 0.512138 0.31356100000000003
23160 -4.41880659 14.585223509999999 1.93113774 -0.594357 -0.200459 0.295207
23180 -4.29112944 12.43988442 1.22670126 -0.5715210000000001 -0.773938 0.099549
23200 -2.262990420000001 12.34572804 0.26090676 -0.4159100000000001 -0.720615 -0.050052
23220 0.00030411 11.79576963 -0.54995841 -0.391157 -0.6186520000000001 0.00447
23240 0.60234381 10.759627620000002 -0.9174410100000001 -0.6877439999999999 -0.354487 0.266979
23260 -0.29309337 9.23534982 -0.91519452 -1.049811 -0.096925 0.373078
23280 0.00164808 8.30188908 -0.7044364800000001 -0.943499 -0.195243 0.35899200000000003
23300 -0.16466085 7.099134030000001 -0.6107313599999998 -0.658848 -0.129574 0.473059
23320 0.02829204 6.46295553 -0.29324052 -0.461932 0.114316 0.5830810000000001
23340 0.013469130000000001 5.35286574 -0.73077633 -0.485142 0.440249 0.613479
23360 -0.11406087000000001 4.816680570000001 -1.3790799900000001 -0.681624 0.635891 0.6097199999999999
23380 -0.39653001 4.6090617300000005 -1.87484796 -1.001079 0.691658 0.5273
23400 -0.6846791400000001 5.10214176 -1.6810023600000001 -1.150893 0.712888 0.40979
23420 -0.7614620100000001 5.27413068 -2.09714256 -0.984403 0.791825 0.238869
23440 -0.69380244 6.4435023000000005 -2.62763793 -0.891373 0.861608 0.023648
23460 -1.04707035 8.84091915 -3.5342977500000003 -0.960784 0.898818 -0.163823
23480 -0.51298452 10.890905040000002 -1.7422265700000001 -1.007922 0.800134 -0.219574
23500 -1.21082868 14.102473410000002 -0.41449212 -0.8316979999999999 0.71587 -0.345353
23520 -2.7045777600000003 14.323865490000001 -4.01090679 -0.74003 0.643329 -0.399099
23540 -1.06967259 13.181883390000001 -8.109387450000002 -0.77403 0.376418 -0.22167
23560 0.23995260000000002 10.821293279999999 -7.355999070000001 -0.628212 0.329027 0.047533
23580 -0.55624662 12.98190654 -3.4130559600000003 -0.4959310000000001 0.468609 0.19142
23600 -2.15431524 15.75429102 2.3623853400000003 -0.313744 0.726527 0.269274
23620 -3.5094490200000004 13.96849824 4.01195646 -0.08218500000000001 0.559295 0.330926
23640 -2.13007473 8.752295610000001 0.36568737 0.339245 0.589669 0.361605
23660 -0.9607031100000001 7.00812666 -0.036826740000000004 0.7713479999999999 0.657146 0.42863
23680 -0.6824326500000001 9.671983110000001 0.47885553000000003 1.076987 0.542058 0.439458
23700 -0.38140299 10.48958775 1.4733835200000003 1.249588 0.628034 0.101927
23720 -0.44472654 10.217752650000001 1.51035741 1.397732 0.872257 -0.094972
23740 -1.41380739 10.21909662 0.9505203300000001 1.437691 0.305131 -0.29586
23760 -1.5880428 9.69818562 -0.25791471 1.546725 0.131045 -0.278852
23780 -1.22101146 8.63943156 -0.18995103 1.628995 0.14455 -0.530395
23800 -0.66896352 8.02001835 -0.07574300999999999 1.418739 -0.206934 -0.628622
23820 -0.84244356 7.14119931 0.12573477 1.344538 -0.146831 -0.676219
23840 -0.83915721 6.8036470200000005 0.46403262 1.273303 -0.098618 -0.683187
23860 -0.6277909500000002 7.40809017 0.2832147 1.044033 -0.047856 -0.658148
23880 -0.38364948 7.92242847 -0.51791895 0.959598 0.018084 -0.5584100000000001
23900 -0.23680359 8.03005398 -1.2479595300000004 0.80315 -0.010628 -0.4355520000000001
23920 0.22768029 7.73980551 -1.0207305 0.482023 -0.155817 -0.345742
23940 1.01129328 8.163420930000001 -0.5858826300000002 0.10384000000000003 -0.135855 -0.214881
23960 1.24316244 8.726250060000002 -1.14137388 -0.187602 -0.295108 -0.097072
23980 0.46089342000000005 9.58681269 -1.91257722 -0.391083 -0.376787 -0.00759
24000 0.3634408800000001 10.430158770000002 -0.5273561700000001 -0.471457 -0.290885 0.158381
24020 0.3441348 11.05466337 0.31419467999999995 -0.288747 -0.274193 0.354052
24040 0.6563871 12.23735697 -0.01497006 0.06536900000000001 -0.306272 0.343748
24060 -0.12708855 13.18293306 -2.07633555 0.202012 -0.564389 0.30550900000000003
24080 0.16046217000000002 14.54914233 -1.9989444600000001 0.0034100000000000003 -0.693394 -0.02793
24100 -0.32018859000000005 14.101875000000001 -0.6556317300000001 -0.028143 -1.006828 -0.206141
24120 0.78302439 13.07291391 1.51394787 0.370608 -1.127173 -0.026945
24140 1.4876080200000001 11.43127908 5.43400425 0.677049 -0.775876 0.034565
24160 -0.6664129200000001 9.39775437 6.6984249600000005 0.8219190000000001 -0.454145 0.170829
24180 -2.89318482 10.6286445 3.9912966 0.723155 0.13736700000000002 0.185405
24200 -2.00268207 9.93678444 1.59133896 -0.189242 -0.043203 0.045735000000000005
24220 -2.0528307900000007 13.933623690000001 0.76805433 -0.5776319999999999 -1.12368 -0.078439
24240 -1.68923295 14.19079284 0.00718092 -0.314898 -1.289751 -0.067845
24260 -1.4004854100000002 12.111465240000001 -1.3475016 -0.243536 -0.957059 0.055073
24280 0.41164722000000004 11.86357635 -1.8676670400000002 -0.47615 -0.748324 0.271098
24300 0.58198806 9.77482134 -1.8143791200000001 -0.916333 -0.501309 0.418326
24320 0.38290392 8.23287573 -1.4022806400000003 -1.18524 -0.504664 0.4249979999999999
24340 0.49157910000000005 7.56062586 -0.73407249 -1.0733700000000002 -0.626035 0.576554
24360 0.31598991000000004 5.929016850000001 -0.32827203 -0.906896 -0.578833 0.616112
24380 -0.12334113000000002 5.25557016 -0.21151341 -0.903641 -0.321081 0.62435
24400 -0.42406668000000003 4.8210264 -0.5959084500000001 -0.937973 0.019232 0.5318069999999999
24420 -0.7044364800000001 4.82655924 -1.2603789900000002 -1.058248 0.309447 0.520981
24440 -1.55152017 4.47254577 -1.77126417 -1.144585 0.485837 0.441104
24460 -1.4994290700000001 4.804408260000001 -2.4623786700000005 -1.138632 0.522442 0.339617
24480 -0.9952833600000001 5.83741107 -3.1798330200000002 -1.036921 0.416307 0.153525
24500 -0.8089129800000001 7.475151330000001 -4.1763132 -0.973449 0.34759 -0.032882
24520 -0.49322718000000004 9.74458692 -4.37120847 -0.8281229999999999 0.464952 -0.204001
24540 0.54262053 13.318703460000002 -2.52958698 -0.629316 0.640606 -0.347048
24560 -1.8762017400000002 15.8746401 -3.2927068800000003 -0.469457 0.746948 -0.439003
24580 -1.9728989100000003 14.268929490000003 -6.60187494 -0.542983 0.438748 -0.291707
24600 -0.24818319 9.60148845 -7.89158583 -0.593183 0.239622 -0.002314
24620 -0.39068325000000004 10.736721270000002 -5.619168 -0.557132 0.255322 0.302361
24640 -1.28567898 13.467942990000003 -2.49725322 -0.359089 0.32961 0.467087
24660 -3.3810165000000003 14.53357386 1.3657580100000002 -0.108086 0.13281500000000002 0.445592
24680 -4.48407252 13.304930220000001 3.91855545 0.19707 0.109497 0.417843
24700 -2.16435087 9.41571648 0.5611810500000001 0.605254 0.250819 0.420513
24720 0.34787241 7.444916910000001 -0.66911067 0.987229 0.200712 0.365561
24740 0.6039918900000002 9.007963830000001 -0.52750332 1.373946 0.097962 0.151545
24760 0.58213521 9.869880240000002 0.38844657000000005 1.548412 0.364062 0.055215
24780 0.8000839800000001 9.565260120000001 1.79282655 1.510446 0.39854 -0.009188
24800 -0.5921708400000001 9.65911239 1.66528674 1.4261700000000002 -0.110225 -0.045444
24820 -1.13120091 9.612259830000001 0.37302525000000003 1.51804 -0.277016 -0.239005
24840 -1.5658918200000003 9.33623586 -0.44188164 1.341619 -0.533509 -0.411893
24860 -1.4804172899999999 8.07705369 -0.46178613 1.2642799999999998 -0.472278 -0.472332
24880 -1.0811993400000002 7.1551197 -0.8422964100000001 1.151806 -0.296272 -0.433819
24900 -0.24997842000000003 6.69048867 -0.38529756 0.981684 -0.628101 -0.420695
24920 -0.13022775 7.21484298 -0.08547453 0.813721 -0.7732859999999999 -0.464411
24940 -0.25776756 7.75836603 0.00074556 0.6307560000000001 -0.8304159999999999 -0.404727
24960 -0.31239945 7.998318629999999 -0.08502327 0.414077 -0.780946 -0.333665
24980 -0.0038945700000000004 8.203386870000001 -0.04146687000000001 0.14052 -0.771896 -0.228765
25000 0.38574882000000005 8.52551784 -0.27393444 -0.15571600000000002 -0.800145 -0.100475
25020 0.33545295 9.32650434 -0.6468027300000001 -0.403956 -0.825392 0.034556
25040 -0.32033574000000004 10.140067259999999 -1.3979446199999999 -0.531622 -0.8478600000000001 0.16935699999999998
25060 -0.8786718900000001 11.0160414 -0.85367601 -0.394117 -0.752957 0.293041
25080 1.07536239 10.71382473 0.0068866199999999995 -0.017044999999999998 -0.579851 0.365956
25100 2.7276312600000003 11.872709460000001 -0.39368511 0.262327 -0.402819 0.340975
25120 2.11525182 13.67166726 -2.1562674300000007 0.054315 -0.3417 0.155709
25140 1.0699767 14.771731230000002 -1.25483634 -0.155891 -0.576538 -0.075126
25160 0.50145777 14.121779490000002 -0.23471406 0.269274 -0.7673399999999999 -0.147755
25180 1.0827002700000001 12.757522410000002 2.62644111 1.016224 -0.413432 -0.055397
25200 0.27482715 10.83192732 5.38624917 1.173922 0.051403 -0.01964
25220 -2.88000999 8.640029970000002 5.38055937 0.538125 0.7218859999999999 0.15879400000000002
25240 -3.9504379500000004 10.44123426 3.7368252 -0.259146 -0.0773 0.374303
25260 -2.64050865 9.89053029 2.06689833 -0.391722 -0.481225 0.26920900000000003
25280 -1.6703781300000002 11.30254245 0.8732862 -0.473722 -0.5582590000000001 0.15764
25300 -2.4727086000000003 14.678477370000001 0.27677934 -0.489713 -0.341857 0.13375
25320 -1.48117266 12.31788726 -1.0568018700000001 -0.6963630000000001 -0.14668399999999998 0.25597
25340 -0.41538483 10.921885020000001 -1.71962433 -1.124149 0.148623 0.30387800000000004
25360 0.36240102 9.61435917 -1.57756572 -1.168051 -0.042238 0.386069
25380 0.69530337 9.13565079 -1.22415066 -0.8381049999999999 -0.142762 0.463278
25400 0.70039476 8.04966417 -0.91923624 -0.609283 0.109415 0.60449
25420 0.53094663 6.64483293 -0.8201454300000001 -0.641702 0.54077 0.652849
25440 0.09550035000000001 6.10386048 -0.82628649 -0.746869 0.816233 0.588737
25460 -0.31210515000000005 5.377420170000001 -1.22474907 -0.96768 0.810664 0.574383
25480 -0.5611810500000001 4.61670372 -1.47098988 -0.96384 0.59913 0.457176
25500 -0.91698975 4.33588266 -1.3052891699999998 -0.8976370000000001 0.467386 0.312529
25520 -1.0463247900000001 5.28326379 -1.72785492 -0.8671459999999999 0.433879 0.140802
25540 -1.05306426 5.91645024 -2.6286875999999997 -0.8704790000000001 0.462311 -0.039788
25560 -1.08014967 7.69654341 -3.24315657 -0.8606450000000001 0.5790850000000001 -0.212921
25580 -0.7878116700000001 9.799670070000001 -2.65547871 -0.774514 0.656935 -0.308559
25600 -0.6170195700000001 12.37985703 -1.5715816200000001 -0.670151 0.777246 -0.382759
25620 -2.1751222500000003 14.500945799999998 -1.7950632300000002 -0.689983 0.6727770000000001 -0.347513
25640 -2.3622381900000002 14.435679870000001 -5.46947721 -0.635803 0.398862 -0.093615
25660 -1.30333698 12.060119700000001 -6.7847922 -0.5530520000000001 0.515929 0.129004
25680 -0.5987533500000001 15.257473379999999 -3.58654581 -0.449629 0.641771 0.27057
25700 -2.4340866300000004 17.579294370000003 0.87118686 -0.141111 0.5327529999999999 0.359391
25720 -4.8121974 13.96371096 2.45159748 0.204138 0.18646 0.346223
25740 -2.1442894200000007 7.178026050000001 -0.59485878 0.5959399999999999 0.303097 0.40863
25760 -1.2322341 6.8057463600000005 -0.27572967000000004 0.992803 0.280481 0.392203
25780 -0.35401347000000005 7.658971110000001 0.75562506 1.198479 0.23701 0.16296
25800 -0.3153915 9.92735703 1.31441247 1.338897 0.411003 -0.046722
25820 -0.06496182 9.791439480000001 1.42593255 1.393681 0.375071 -0.165934
25840 -0.4391838900000001 9.38892537 1.16457453 1.403173 -0.078952 -0.120421
25860 -0.51327882 9.930653190000001 -0.17154747 1.309997 -0.363296 -0.326874
25880 -0.44846415 9.953098469999999 -1.28013633 1.17838 -0.6708770000000001 -0.549589
25900 -0.40236696 8.92728639 -1.08823311 1.206069 -0.28078600000000004 -0.623603
25920 -0.51028677 7.98184764 -0.65937915 1.167017 -0.154014 -0.590923
25940 -0.32048288999999996 7.498361790000001 -0.10119015 1.039495 -0.282454 -0.594854
25960 0.033383430000000006 8.00580366 0.67779252 0.926981 -0.381175 -0.584832
25980 -0.04116276 8.17449642 0.329616 0.755454 -0.5150020000000001 -0.535652
26000 0.01182105 8.01238617 -0.14893542 0.509653 -0.5537770000000001 -0.48284
26020 0.24788889 8.00145783 -0.45176031000000005 0.243818 -0.447975 -0.337417
26040 0.43245423 8.44393788 -0.67599729 -0.002541 -0.276216 -0.186603
26060 0.8508311099999999 8.71248663 -0.38469915000000005 -0.142736 -0.226248 -0.040231
26080 0.91624419 9.1362492 -0.5568450300000001 -0.257701 -0.278558 0.087219
26100 0.27093258000000003 9.23698809 -0.68662152 -0.265845 -0.295048 0.22178
26120 -0.5833418400000001 9.97914402 -0.31778514 -0.003718 -0.290946 0.30051700000000003
26140 0.08861373 11.109746520000002 -0.8665467300000002 0.28975100000000004 -0.31205700000000003 0.264138
26160 0.9234251100000002 12.65363451 -1.4117178600000002 0.35222800000000004 -0.341449 0.101174
26180 1.0731159000000003 14.1075648 -2.2598512200000003 0.016972 -0.375633 -0.116905
26200 1.24376085 14.97097233 -1.4295230100000003 -0.045659 -0.632849 -0.207811
26220 1.0255177800000002 14.08855302 0.28261629000000005 0.307075 -0.663083 -0.145488
26240 2.1555218700000003 13.10270688 3.2272839900000005 0.5334840000000001 -0.534223 -0.066092
26260 0.5522049 10.91051523 6.015992310000001 0.657895 -0.5191100000000001 0.042648
26280 -2.63736945 9.38802285 5.281762860000001 0.515338 0.216804 0.213762
26300 -2.8551612600000005 10.078087680000001 3.8167668900000002 0.144026 0.5151439999999999 0.519502
26320 -2.4632811900000005 9.974955150000001 1.85808267 -0.222449 0.158384 0.278117
26340 -2.13890373 11.964168090000001 1.1829879 -0.385161 -0.387845 0.08860499999999999
26360 -2.87013132 14.16788649 0.55983708 -0.373396 -0.5003270000000001 -0.030809
26380 -1.80359793 12.096348030000001 -0.86011137 -0.414379 -0.0191 0.074042
26400 -0.32467176000000003 10.76816232 -1.70450712 -0.703129 0.224147 0.233015
26420 -0.08547453 9.76943565 -1.12101813 -0.995054 0.161969 0.317581
26440 0.16660323000000002 9.027132570000001 -0.95247252 -0.910127 0.050952 0.301225
26460 0.33634566000000005 7.699839570000001 -0.71955369 -0.749591 0.054134 0.431597
26480 0.25746345000000004 6.965315820000001 -0.49906413000000005 -0.645986 0.159979 0.512302
26500 -0.023799060000000004 6.16014045 -0.6228565199999999 -0.814994 0.35635100000000003 0.568554
26520 -0.23306598000000003 5.1105195000000005 -0.9292718700000001 -0.985929 0.503046 0.528716
26540 -0.41418801000000005 4.49260722 -1.34794305 -1.046117 0.5430689999999999 0.4289
26560 -0.6554845799999999 4.635107280000001 -1.2567885300000001 -0.966824 0.551588 0.361076
26580 -1.02761712 5.2867071 -1.4983794 -0.830117 0.518352 0.295844
26600 -1.1596401 5.988445830000001 -2.1016257300000003 -0.742563 0.393973 0.15561
26620 -1.1731092300000001 7.653281310000001 -2.7590625 -0.7208899999999999 0.312499 -0.001163
26640 -1.22220828 9.880053210000002 -3.1168233900000004 -0.653561 0.419421 -0.157858
26660 -0.91026009 12.363690150000002 -2.30131809 -0.62341 0.360147 -0.279349
26680 -1.4079704400000002 14.78834937 -1.84117023 -0.52513 0.325967 -0.341644
26700 -1.78683264 14.178069270000002 -5.27308101 -0.609016 0.309746 -0.208681
26720 -1.08315153 12.23210862 -7.59864942 -0.6862060000000001 0.200506 0.003496
26740 -0.57540555 13.43905254 -6.4346733 -0.6531140000000001 0.412608 0.212827
26760 -1.71947718 13.98511638 -3.9083726700000003 -0.5884050000000001 0.466164 0.34994200000000003
26780 -2.5485987600000004 13.18039227 -1.0096550100000001 -0.411253 0.54835 0.422645
26800 -3.62635479 12.115202850000001 0.06452037000000001 -0.083901 0.246895 0.400749
26820 -3.45556269 9.37006074 0.24309180000000002 0.195387 0.136431 0.344089
26840 -2.5896143700000005 7.8866514 1.05081777 0.616009 0.15642899999999998 0.306409
26860 -1.5525698400000003 6.4315242900000005 1.03644612 0.974414 0.319469 0.248883
26880 -0.9952833600000001 7.991284860000001 0.8146027800000001 1.105756 0.35401900000000003 0.020089
26900 -0.28410741 9.57454038 1.98172791 1.484853 0.4515810000000001 -0.197442
26920 -0.05957613 10.141264080000001 2.20850568 1.735485 0.358325 -0.270347
26940 -1.0285098300000002 9.28399761 0.64335942 1.3496290000000002 -0.227485 -0.22529
26960 -0.50549949 9.155712240000002 -0.23905008000000003 1.045252 -0.513178 -0.443899
26980 -0.38948643000000005 9.21318903 -0.7637085 1.175651 -0.363926 -0.585253
27000 -0.5783976000000002 8.02960272 -0.66461769 1.129238 -0.029184 -0.606302
27020 -0.57256065 7.556731290000001 -0.56897019 0.995521 -0.117101 -0.6156699999999999
27040 -0.38155995000000004 7.650289260000001 -0.6212084400000001 0.944473 -0.399958 -0.697917
27060 0.14086179000000001 7.8658443899999995 -0.7587740700000001 0.877848 -0.5179239999999999 -0.7099810000000001
27080 0.45475236 8.19800118 -0.76790718 0.771787 -0.4765680000000001 -0.570838
27100 0.3305087100000001 8.121806910000002 -0.8897473800000001 0.634095 -0.27667800000000004 -0.356275
27120 0.46178613 8.271046440000001 -1.01009646 0.3864530000000001 -0.15391300000000002 -0.206475
27140 0.9864445500000001 8.506358910000001 -0.87193242 0.03577 -0.16609100000000002 -0.054017
27160 0.92238525 8.97818067 -0.5352826500000001 -0.226239 -0.199688 0.04995
27180 0.39203703 9.33698142 -0.81924291 -0.376902 -0.183456 0.117243
27200 0.37212273 9.577532430000002 -1.07985537 -0.404621 -0.11862 0.177855
27220 -0.38036313000000005 10.541973150000002 -0.08772102000000001 -0.112387 -0.134573 0.18419
27240 -0.018707670000000003 12.008175750000001 -0.21584943000000004 0.309287 -0.183556 0.080376
27260 0.48843009000000004 13.366752840000002 -0.82029258 0.325818 -0.196937 -0.050883
27280 0.5641731000000002 14.958248759999998 -2.15492346 -0.14038699999999998 -0.37036 -0.23337800000000006
27300 1.1337417 15.5999601 -1.35333855 -0.135347 -0.7100529999999999 -0.270296
27320 0.67030749 14.677280549999999 -0.79364862 0.364448 -0.694156 0.115599
27340 1.35857709 13.406120370000002 0.97761555 0.545446 -0.601749 0.293001
27360 0.8075690100000001 10.981314 3.8209557600000004 0.466501 -0.6904859999999999 0.441046
27380 -0.98375661 8.856036360000001 5.77453878 0.591134 -0.193589 0.7457229999999999
27400 -2.53317744 8.332123500000002 4.0433877 0.16331700000000002 0.356222 0.817874
27420 -2.46491946 9.48772188 1.9429587900000003 -0.45865 -0.044773 0.404914
27440 -1.77081291 10.570863600000001 1.3385156400000002 -0.608125 -0.985245 -0.039305
27460 -2.00552697 11.953543860000002 1.25708283 -0.426617 -0.714245 -0.03518
27480 -1.52487621 12.257114310000002 -1.14347322 -0.56413 -0.32969 0.086213
27500 -0.4363389900000001 11.543250420000001 -1.0792569600000002 -0.8967510000000001 -0.13415 0.225712
27520 -0.39936510000000003 9.86014872 -0.5041555199999999 -1.058418 -0.165925 0.319695
27540 -0.37632141 8.95063419 -0.36284247000000003 -0.926235 -0.201387 0.548195
27560 -0.35970327 8.406963990000001 -0.59202369 -0.645305 -0.112936 0.562863
27580 -0.16780005000000003 7.35570477 -0.71012628 -0.581013 0.221196 0.5981350000000001
27600 0.19549368000000003 6.66159822 -0.82612953 -0.770644 0.499974 0.577226
27620 -0.11286405000000001 5.876484300000001 -1.11293469 -0.983566 0.537195 0.5115970000000001
27640 -0.3873969 5.273983530000001 -1.11083535 -1.088037 0.436837 0.391355
27660 -0.79484544 4.94122833 -1.34719749 -1.051375 0.350053 0.217602
27680 -0.7994855700000001 4.85709777 -1.6257720600000003 -0.962485 0.28002 0.07196699999999999
27700 -0.7156591200000001 5.67544797 -2.135911680000001 -0.893755 0.30246300000000004 -0.005562
27720 -0.65787822 6.8653224900000005 -2.7378042300000005 -0.8226620000000001 0.314493 -0.145018
27740 -1.01279421 9.18370017 -3.8817287100000004 -0.637265 0.368697 -0.274116
27760 -0.83421297 11.55222657 -3.12520113 -0.538721 0.409021 -0.320481
27780 -0.88825626 15.00300198 -1.9622648700000003 -0.666538 0.11385 -0.187468
27800 -1.70735202 15.332912279999999 -4.28798043 -0.542812 0.037107 -0.017726
27820 -0.44217594000000005 12.34872009 -7.36378821 -0.532254 0.223708 0.194685
27840 0.48498678000000006 10.59451551 -7.96433679 -0.371673 0.4337180000000001 0.2842
27860 -0.19788732 12.22612452 -4.84707195 0.025842 0.12542899999999998 0.311941
27880 -1.60630902 12.02449959 -2.8080144000000002 0.519406 0.103194 0.382715
27900 -1.81991196 10.15308513 -0.19100070000000002 1.012059 0.312291 0.412593
27920 -2.39232546 11.75505813 2.4920146800000005 1.222435 0.321178 0.139518
27940 -2.77403256 10.794502170000001 2.68436916 1.326848 0.448852 -0.177178
27960 -2.75607045 7.632180000000001 0.7246450799999999 1.303952 0.463238 -0.291656
27980 -1.0806009300000001 7.20512127 -0.28500993 1.218165 0.004902 -0.41665
28000 -0.37018035000000005 8.47313244 1.05201459 1.148898 -0.345868 -0.549144
28020 -0.21764466000000002 9.62632737 1.7036045999999998 1.145052 -0.403833 -0.701852
28040 -0.40550616000000006 10.23481224 0.6418683000000001 1.1723629999999998 -0.04697 -0.7245510000000001
28060 -0.38919213 10.818752490000001 -0.42391953000000004 1.1251790000000002 0.188413 -0.6728390000000001
28080 -0.39577464 9.27291231 -1.2234051000000001 1.013775 0.097154 -0.664955
28100 -0.24129657000000002 7.69953546 -0.8002311300000001 0.902169 -0.104629 -0.72316
28120 -0.36059598 7.37756145 -0.20252745000000003 0.724912 -0.131736 -0.7168859999999999
28140 -0.39443067000000004 7.729024320000001 0.06526593 0.490116 -0.03232 -0.6000810000000001
28160 -0.3646377 7.61646438 0.0023936400000000003 0.25610900000000003 0.020162 -0.468255
28180 -0.30625839 7.7505866999999995 -0.055083150000000004 0.027086 0.024569 -0.306422
28200 0.03652263 8.35847316 -0.33994593000000006 -0.245812 0.042803 -0.101116
28220 0.48723327000000005 8.5319532 -0.5611810500000001 -0.423688 0.022572 0.050423
28240 0.56507562 8.5809051 -0.63438327 -0.480845 0.050872 0.215562
28260 0.6559358399999999 9.31348647 -1.1404811700000002 -0.210418 0.035637 0.327497
28280 0.30985866000000006 10.335708090000002 -1.45302777 0.200786 -0.140343 0.290002
28300 0.06556023 10.5534999 -0.09999333 0.37434 -0.29085900000000003 0.2177
28320 -0.18441819 10.78222986 -0.99348813 -0.137853 -0.274412 0.012207
28340 0.53379153 12.62294883 -0.8301712500000001 -0.017314 -0.685347 -0.15734
28360 0.7689470400000001 14.741496810000001 -1.0054563300000001 0.647471 -0.6154069999999999 -0.10898900000000003
28380 0.09564750000000001 16.414121429999998 0.5516064900000001 0.967611 -0.561281 -0.06943400000000001
28400 0.08502327 15.457607190000001 2.00597823 0.74758 0.090388 -0.07501100000000001
28420 1.6986701700000002 13.508654490000001 5.141656439999999 0.121274 0.211358 0.052919000000000015
28440 -0.82059669 11.12681592 5.47306767 -0.096923 -0.468154 0.208226
28460 -1.21861782 8.66038572 3.1257995400000005 -0.224656 -0.5681350000000001 0.28010100000000004
28480 -1.6407421200000003 8.208625410000002 2.43154584 -0.435885 -0.613011 0.230613
28500 -2.45474649 9.875265930000001 1.32669459 -0.543708 -0.369836 0.250913
28520 -2.8081615500000003 11.073076740000001 0.20462679 -0.796339 -0.161865 0.409115
28540 -1.87904664 11.9935098 -0.9717786 -1.182577 -0.270889 0.302939
28560 -0.13785993 11.62048455 -1.5736809600000001 -1.202813 -0.5644680000000001 0.477294
28580 0.37855809 10.612330470000002 -1.05725313 -0.832408 -0.5771430000000001 0.661496
28600 -0.15074046 9.23325048 -0.55833615 -0.569852 -0.243857 0.73661
28620 -0.33844500000000005 8.03319318 -0.26360451 -0.6471359999999999 0.152591 0.7622680000000001
28640 -0.33455042999999995 6.678510660000001 -0.21735036 -0.82244 0.284357 0.729896
28660 -0.24773193000000002 5.95087353 -0.4770603 -0.883026 0.29538000000000003 0.689934
28680 -0.44083197 5.5522539900000005 -1.1425707 -0.8378629999999999 0.263708 0.579195
28700 -0.8705884500000001 4.8759624 -1.32968664 -0.7445229999999999 0.220347 0.419669
28720 -0.8984292300000001 4.57913142 -1.36066662 -0.795349 0.135987 0.248507
28740 -1.06054929 4.9280535 -1.62861696 -0.918935 0.194817 0.029651
28760 -1.0876347 5.78187666 -2.4996566700000002 -0.967745 0.27363000000000004 -0.189776
28780 -1.06832862 6.97040721 -3.50331777 -0.8638709999999999 0.191916 -0.357725
28800 -1.6103507400000001 9.65791557 -4.7563588800000005 -0.730689 0.287736 -0.459467
28820 -0.7876645200000001 12.54990357 -3.26141298 -0.671376 0.257436 -0.392784
28840 -0.6649218 15.82104807 -1.4771309400000001 -0.607549 0.293232 -0.07619
28860 -2.2547598300000002 15.913409220000002 -4.906196820000001 -0.5307970000000001 0.58044 0.22735300000000006
28880 -1.3834258200000003 13.26032415 -7.527997800000001 -0.285241 0.7495 0.360243
28900 -0.25102809000000004 14.188693500000001 -4.86503406 0.065385 0.368213 0.302292
28920 -2.20266873 16.33328703 -0.621954 0.5368569999999999 0.230685 0.187189
28940 -3.4385031 13.377082770000001 3.0954081600000007 0.929367 0.186787 0.168622
28960 -3.99549528 8.28377001 -0.9430353 1.229524 0.240179 0.142876
28980 -2.00478141 5.27413068 -0.57705363 1.187094 0.241606 0.089167
29000 -0.9517171500000001 6.4289835 -0.01018278 1.177763 0.537791 0.087654
29020 0.11675862 8.031849209999999 -0.1212516 1.470692 0.602032 0.019115
29040 1.0044066600000001 9.25300782 1.24421211 1.562514 0.165921 0.042748
29060 1.06263882 10.14380487 2.6018866800000002 1.488831 0.04187 -0.305848
29080 -0.5580418500000002 9.22980717 1.49464179 1.177828 -0.248245 -0.478564
29100 0.12948219000000002 9.87301944 0.65084445 1.11804 -0.404043 -0.626197
29120 -0.65713266 9.58726395 -0.9457330500000001 1.082074 -0.325129 -0.615867
29140 -0.89199387 8.267907240000001 -0.7186511700000001 0.903433 -0.425723 -0.6127130000000001
29160 -0.93031173 8.121806910000002 -0.23680359 0.6109479999999999 -0.709088 -0.625075
29180 -0.29383893 8.15923206 -0.01182105 0.395307 -0.633123 -0.5209239999999999
29200 -0.02365191 8.204142240000001 -0.14385383999999998 0.272007 -0.408414 -0.39816
29220 0.17214587999999997 7.87587021 -0.19578798 0.134329 -0.273233 -0.25188
29240 0.39443067000000004 7.76450709 -0.22588506000000003 -0.17765 -0.250268 -0.130175
29260 0.6448603500000001 7.8002743500000005 -0.27093258000000003 -0.497256 -0.249699 0.004324000000000001
29280 0.7155119700000001 8.1414171 0.31434183000000004 -0.588788 -0.351992 0.090342
29300 0.6619199400000001 9.01649853 0.4801995 -0.43959 -0.316585 0.16397799999999998
29320 0.03652263 9.77871591 -0.30716091 0.039865 -0.455695 0.17071
29340 -1.2998936700000001 10.13557428 0.40071888000000006 0.4159310000000001 -0.573137 0.17669200000000002
