time Ax Ay Az Gx Gy Gz
20 -4.65157827 10.19424789 -2.8391415300000005 0.947038 -3.825723 0.057451
40 -0.07095573000000001 10.09186092 -1.90329696 0.944085 -2.966514 -0.088949
60 0.20103633 9.04883229 0.85367601 0.955428 -1.346453 -0.042876
80 -2.8026189 9.266035500000001 0.9744763500000001 0.999825 -0.232406 -0.023697
100 -4.032616320000002 9.91178856 1.19870352 1.057519 0.679603 0.159272
120 -4.474341 10.39917879 -0.24264054000000002 0.7725479999999999 -0.362038 0.09025
140 -2.54665638 9.86433759 -2.9792577600000003 0.273548 -1.788442 0.256303
160 -2.6262841500000005 8.971598160000001 -2.6045844300000005 0.145469 -1.055218 0.288652
180 0.44202879000000006 7.95536064 0.11406087000000001 -0.014549 -0.326066 0.301555
200 -0.55204794 10.297537380000001 1.00695726 -0.28775500000000004 -0.476805 0.405594
220 -2.53034235 9.28399761 0.34263387 -0.481844 -1.06989 0.5054109999999999
240 -4.207450140000001 8.59662072 -0.58767786 -0.400781 -1.146583 0.433436
260 -3.52472319 8.79481215 -1.2771442800000001 -0.13835699999999998 -1.098715 0.489687
280 -2.4718060800000003 7.37411814 -1.3931573400000001 0.044803 -1.332019 0.333169
300 -4.268674350000001 6.931785240000001 -2.70771696 0.352665 -0.8745280000000001 -0.055168
320 -6.29710767 6.37868763 -1.95553521 0.474768 -0.269019 -0.26873600000000003
340 -3.8285879400000002 6.04876752 -0.7463448 0.349926 0.340198 -0.130451
360 -3.2242919400000005 6.420900060000001 -1.93621932 0.14039400000000002 0.369196 -0.008038
380 -3.06756738 7.66196316 -2.2113505800000004 0.028244 0.042902 0.16892100000000002
400 -4.119886080000001 7.86778677 -2.45175444 -0.303274 0.28208 0.582906
420 -5.23311507 7.365730590000001 -1.6700740200000002 -0.935141 0.432684 1.030157
440 -4.64842926 9.3446136 -2.55892869 -1.048459 1.213555 1.388356
460 -3.3183011700000002 9.3559932 -3.37697478 -0.828933 1.403438 1.398192
480 -4.193824050000001 9.56645694 -2.9951205300000003 -0.409692 0.8704879999999999 1.113383
500 -6.557268870000001 10.18168128 -3.67231464 -0.192577 0.51902 0.641059
520 -6.458619510000001 9.855351630000001 -4.40309097 0.182334 0.760748 0.072938
540 -6.112091070000001 8.400077370000002 -5.2775739900000005 0.14766500000000002 0.812276 0.004263
560 -5.350472100000001 6.390057420000001 -3.81212676 -0.7692899999999999 0.522289 0.058051
580 -3.33506646 6.57463257 -3.5096059800000003 -1.44154 0.878791 0.199244
600 -1.3624618499999999 5.90940666 -3.1596342300000004 -1.542298 0.914687 0.101286
620 -3.8826214200000004 8.548718490000002 -2.50294302 -1.424336 0.419655 0.184998
640 -4.60652094 10.12045707 -3.1537874700000006 -1.356693 0.926744 0.121795
660 -3.7125748800000005 11.563449210000002 -4.820123880000001 -1.404891 1.21735 0.21722600000000006
680 -2.92970745 12.64779756 -3.3855094800000005 -1.3649209999999998 1.629213 0.282139
700 -3.1653142200000004 10.607994450000001 -2.06330787 -1.3286950000000002 1.01388 0.15179
720 -3.86047044 9.783650340000001 -1.5871500900000002 -1.182472 0.470409 0.070186
740 -2.5727019300000005 7.682024610000001 0.16136469000000003 -0.6256729999999999 0.701683 0.093007
760 -1.22355225 7.36199298 2.64081276 -0.683517 0.821462 0.02622
780 -0.58138965 9.20990268 1.37758887 -0.907172 0.705986 0.06005700000000001
800 -0.39158577000000006 10.2062259 -0.31030011 -1.217 0.430926 0.116997
820 0.09430353000000001 10.304875260000001 -0.79005816 -1.298686 0.344731 0.164607
840 -1.24765542 11.00077704 0.03143124 -1.350063 0.327785 0.184566
860 -2.61192231 9.115295040000001 0.03458025 -1.118801 0.440175 0.116603
880 -2.6839179 9.389670930000001 -0.24114942 -0.925936 0.50284 -0.003907
900 -2.08846071 10.456351470000001 0.06496182 -0.90328 0.218746 -0.107003
920 -1.2249060300000003 10.37282913 2.38948056 -0.947815 0.176705 -0.210877
940 -0.64335942 9.8564013 -0.04086846000000001 -1.001573 0.25705 -0.276517
960 -0.43559343 10.05294465 -0.2484873 -0.923057 0.202279 -0.234238
980 -0.40700709 9.94202298 -0.40940073 -0.6836979999999999 0.058657000000000015 -0.222768
1000 -0.21794877000000001 9.9167328 0.31090833 -0.348354 0.22968 -0.125573
1020 -0.37137717000000003 9.59968341 1.10336013 -0.137551 0.173381 -0.082368
1040 -1.06787736 9.274266090000001 1.42203798 -0.006658 0.5225420000000001 -0.133176
1060 -1.9597240800000002 8.503818120000002 1.12640382 0.054186 0.474614 -0.188237
1080 -2.9743135200000004 8.26476804 0.3501189 0.153745 0.472447 -0.265519
1100 -2.27451717 8.370745470000001 0.15237873000000005 0.45267 0.734604 -0.282995
1120 -1.16697798 9.32889798 0.04355640000000001 0.988429 0.664049 -0.153112
1140 -0.87702381 10.07764623 0.03023442 1.5485870000000002 0.481879 -0.1041
1160 -0.57569985 10.193953590000001 -0.5194198800000001 2.058183 0.249536 -0.250862
1180 -0.6478524 10.36369602 -0.7331797800000001 2.295026 0.434165 -0.5400010000000001
1200 -0.99722574 10.3189428 -1.1337417 2.384095 0.6506529999999999 -0.676389
1220 -0.2026746 11.259584460000001 -0.10912644 2.257728 1.614794 -0.317448
1240 -1.8217071900000001 12.08931426 -0.09968922 1.828727 1.694807 0.024489
1260 -3.5735181300000005 10.29394692 -1.6714278 0.989238 0.181277 -0.103349
1280 -2.6882637300000005 10.43434764 -0.88960023 0.718234 -1.274007 -0.371501
1300 -0.8704413 12.41128827 0.12154590000000001 1.432929 -1.479139 -0.308562
1320 0.45250587000000003 11.41525935 1.02506652 2.110562 -1.644636 -0.268365
1340 -0.53588106 11.36421792 1.2846293100000001 2.6937450000000003 -1.339441 -0.106586
1360 -3.5956691100000002 11.20839588 1.4043799799999999 2.898717 -1.202107 0.003628
1380 -4.882093650000001 10.740164580000002 1.10679363 2.839773 -1.4004370000000002 0.101747
1400 -4.643043570000001 11.49743772 1.11204198 2.426879 -1.752107 0.225364
1420 -3.74102388 12.59196885 0.7893126 1.950395 -1.895222 0.463637
1440 -1.79491608 11.301944040000002 -0.18755739000000002 1.41452 -1.692143 0.492749
1460 -1.91661894 12.27328119 0.32856633 0.911903 -1.201594 0.531338
1480 -2.82163068 11.491306470000003 2.36178693 0.509959 -0.686647 0.5086430000000001
1500 -2.83719915 9.3733569 3.14256483 0.125364 -0.59039 0.480196
1520 -2.8023246000000004 8.93850903 3.1034916 -0.225543 -0.6357659999999999 0.410505
1540 -2.6161111800000003 8.95138956 1.8498520800000002 -0.586816 -0.558822 0.396132
1560 -3.1418192700000005 8.77250421 0.8960355900000001 -1.069419 -0.370848 0.426703
1580 -3.50839935 7.860605850000001 -1.0225257300000001 -1.477601 -0.226866 0.471738
1600 -3.54881655 7.271574210000001 -1.39495257 -1.501765 -0.095945 0.519471
1620 -3.2970429 6.734643480000001 -2.00387889 -1.008594 -0.345584 0.449529
1640 -3.17998998 6.21223155 -2.46402675 0.733766 -0.204365 -0.145232
1660 -2.8150481700000003 5.99698053 -2.8240243200000004 1.912217 0.30103800000000003 -0.482684
1680 -3.1549842900000007 5.85611874 -2.9156399100000003 1.090877 -1.291793 0.023162
1700 -3.83681853 5.15273193 -2.31598404 0.15394000000000002 -1.866427 0.68072
1720 -3.2346218700000002 4.7660904 -1.5763689 -0.989229 -0.448098 1.026635
1740 -2.95156413 5.629497929999999 -1.7453657700000003 -1.383377 0.912408 1.064867
1760 -3.4389445500000004 6.12855225 -2.52030672 -1.570234 0.795041 0.74111
1780 -3.8842695000000003 7.100634960000001 -3.6452194200000005 -1.698002 0.230092 -0.124319
1800 -4.2568434900000005 8.963809020000001 -5.2175466 0.07172100000000001 0.370989 -0.396285
1820 -3.61977228 12.64765041 -7.27008309 -0.103692 0.123255 0.168965
1840 -4.744832130000001 15.800545170000001 -9.17920719 -2.185328 1.042607 0.636083
1860 -4.5984375 10.8771318 -9.619892010000001 -2.137098 0.317128 0.335043
1880 -2.84947146 3.98426283 -7.733968560000001 -1.535012 1.461976 0.692431
1900 -1.08494676 3.1253482800000003 -2.8315093499999997 -1.80614 2.623096 0.93474
1920 -1.17490446 7.9327584 -1.0264203 -2.225223 2.191736 0.214521
1940 -4.79452959 10.00369845 -1.64447973 -1.791019 0.7824770000000001 -0.71854
1960 -5.371730370000001 12.736715400000001 -2.39562162 -1.532694 0.6270140000000001 -0.427048
1980 -6.323300370000001 18.6248736 1.1404811700000002 -1.865995 0.799886 0.319226
2000 -7.683819840000001 10.58030082 4.29816321 -2.04471 0.586869 0.464597
2020 -1.35453537 1.3218975000000002 1.39764051 -1.502219 0.795411 0.323909
2040 1.02836268 4.34831193 -0.6468027300000001 -0.956528 0.4312180000000001 0.084633
2060 1.09407006 13.344601860000001 -3.80299365 -0.582054 -0.084455 0.046249
2080 1.20439332 15.168555540000002 -0.26989272000000003 -0.6273340000000001 -0.364714 0.108249
2100 -0.8210381400000001 11.216028060000001 1.05605631 -0.797982 -0.131822 0.090735
2120 -2.73301695 6.01523694 1.16368182 -0.998061 0.116421 -0.010325
2140 -4.4453034 5.80462605 0.53723484 -1.09409 0.28215300000000004 -0.08064299999999999
2160 -4.54619925 9.21693645 1.64926701 -1.047702 0.33868200000000004 -0.138075
2180 -3.68099649 11.23444143 0.9398961000000001 -0.791346 0.127031 -0.178742
2200 -1.0135397700000002 10.38720078 1.4844590100000001 -0.404248 0.16478099999999998 -0.098107
2220 0.283509 9.131010660000001 2.97237114 -0.133267 0.5393180000000001 0.043243
2240 0.27348318 9.290128860000001 2.80965267 0.009134 0.739804 0.132644
2260 -0.98839674 9.847121040000001 2.39082453 0.08995800000000001 0.785867 -0.0014470000000000002
2280 -1.84416228 9.962977140000001 0.92777094 0.142546 0.684105 -0.172933
2300 -1.8383253300000002 9.11275425 -0.34832367 0.363235 0.8974129999999999 -0.160982
2320 -1.8558361800000003 8.67431592 -1.05156333 0.887523 0.953392 0.037024
2340 -1.92066066 8.995691520000001 -0.6247989 1.538923 0.720583 0.149763
2360 -1.88608041 9.1561635 0.14400099 2.092915 0.443154 0.050371
2380 -1.8000074700000002 9.480531150000001 0.164808 2.460689 0.470037 -0.330586
2400 -0.70039476 9.78261048 -0.39323385000000005 2.6988790000000003 0.6972430000000001 -0.87828
2420 -0.86430024 11.065287600000001 0.13921371000000002 2.618408 1.555033 -0.869259
2440 -1.4732363700000002 11.42873829 0.90576711 2.498128 2.251608 -0.470409
2460 -2.7596609100000005 11.079659249999999 0.69245847 2.015112 1.347987 -0.25150300000000003
2480 -3.5372898000000004 10.685375729999999 -1.1795445900000001 2.074227 -0.163105 -0.436092
2500 -2.8557596700000003 10.938199050000001 -1.22579874 2.943311 -1.494339 -0.480658
2520 -1.02746016 12.44512296 0.67704696 3.434138 -1.572275 -0.330784
2540 0.5806440900000001 12.19543884 1.04826717 3.280555 -1.7339220000000002 -0.266488
2560 -0.15792137999999997 13.3757388 0.79484544 3.059266 -1.42915 -0.100713
2580 -3.3920919900000004 11.897862300000002 0.85637376 2.6086240000000003 -1.270927 0.149105
2600 -4.90275351 9.75372003 1.36561086 2.093536 -1.562623 0.281545
2620 -5.40750744 11.93063751 1.4714411400000003 1.531124 -1.461188 0.178142
2640 -5.013822330000001 12.752578170000001 1.2361286699999998 0.687379 -0.912974 0.21107
2660 -3.20573142 11.37679434 -0.2817137700000001 -0.020975 -0.298479 0.334589
2680 -2.67808095 12.88370844 1.9978947900000001 -0.5212899999999999 0.061709 0.204583
2700 -2.6521825500000005 11.99126331 3.33057348 -0.8839299999999999 0.018606 0.375157
2720 -2.28469995 10.074497220000001 2.45923947 -1.322211 0.00451 0.550507
2740 -2.7580128299999997 9.31183839 0.47182176000000003 -2.027484 0.058895 0.614945
2760 -3.3531757200000003 8.2424601 -0.80233047 -2.456283 -0.1442 0.627165
2780 -3.9401080200000003 7.314385050000001 -1.67935428 -2.065444 -0.6085699999999999 0.798201
2800 -3.56962356 6.311479320000001 -1.30214016 0.097503 -0.974376 0.359784
2820 -1.64657907 4.814286930000001 -0.8584632900000001 2.760042 1.603113 -0.761509
2840 -2.38574295 3.63324141 -1.8989511300000002 1.931784 -0.5321100000000001 -0.208015
2860 -3.9218418000000006 3.36455532 -2.3215266900000002 1.0136690000000002 -3.025634 0.515158
2880 -2.14624161 3.21845499 -2.53273599 -0.775893 -1.966518 0.942477
2900 -2.79483957 3.35407824 -2.7723844800000004 -1.5427620000000002 0.6768270000000001 0.443419
2920 -2.7928873800000003 3.9025357200000004 -2.8035214200000005 -0.231087 1.518718 -0.240706
2940 -3.3242852700000003 4.4569773 -3.18612123 1.118042 0.110437 -0.34805
2960 -3.7335388500000004 4.61610531 -4.4439594300000005 -2.066663 -0.06389 0.186472
2980 -5.226081300000001 7.08686172 -5.82139134 -2.397453 0.387918 0.173968
3000 -4.06435167 15.513592860000001 -9.47335023 -2.0151380000000003 0.529094 0.23521
3020 -4.93418475 23.900946660000002 -9.621245790000001 -2.720227 2.391048 0.882719
3040 -10.068209009999999 11.54848896 -12.716958060000001 -2.270068 2.097866 1.082792
3060 -4.33019286 -0.06151851 -8.52386976 -1.792423 1.275874 0.569094
3080 0.18950957999999998 2.92432176 -4.47270273 -1.886043 0.659994 -0.11016
3100 0.67016034 9.787544910000001 1.3537800000000002 -2.068954 1.165136 0.263929
3120 -5.251979700000001 17.835561000000002 0.8689403700000001 -1.972977 1.539189 0.411535
3140 -10.05997842 16.47788643 2.9963173500000004 -1.563103 1.2876459999999998 0.357036
3160 -7.681279050000001 -0.71581608 -0.25880742 -1.311855 0.637178 0.301941
3180 -2.04849477 0.8747773200000001 4.870272600000001 -1.252129 0.109852 0.253896
3200 -2.23440408 11.47483548 -5.219194679999999 -1.36123 0.218096 0.185697
3220 1.55466918 16.5136635 -1.4293758600000002 -1.509323 0.213488 0.134462
3240 -0.35685837000000004 13.193410140000001 2.46043629 -1.418637 -0.094409 0.063919
3260 -3.53774106 8.76891375 1.3780303200000001 -1.259304 -0.476379 0.076204
3280 -4.466257560000001 6.35967585 -1.18807929 -1.407378 -0.382296 0.119914
3300 -4.2728632200000005 7.38234873 -0.79170624 -1.377135 0.307254 0.014556
3320 -2.52719334 10.43465175 0.062273880000000004 -1.255554 0.290769 -0.230265
3340 -0.9904862700000001 9.33937506 0.9398961000000001 -0.684037 0.14843199999999998 -0.295525
3360 -0.7894597500000001 8.85902841 0.5363323200000001 -0.277936 0.203974 -0.151754
3380 -0.65323809 9.0608103 -0.20447964000000002 -0.052229 0.436079 -0.050062
3400 -0.31868766000000004 9.50164227 -0.40086603 -0.042146 0.753605 -0.07710399999999999
3420 -0.24863445 8.91396441 0.09445068 0.074792 0.597917 -0.139113
3440 -0.7831715400000001 8.52701877 0.63587439 0.580408 0.605631 -0.108885
3460 -1.5452319600000002 8.71083855 0.85501998 1.396031 0.642628 0.054861
3480 -2.5857198000000006 8.3435031 -0.3010198500000001 2.062079 0.6660560000000001 0.012482
3500 -2.43633312 8.448136560000002 -0.98824959 2.519935 0.8617379999999999 -0.301833
3520 -1.7866854900000002 9.67034484 -0.25162650000000003 2.667306 0.688407 -0.506748
3540 -0.48828294 10.839853800000002 -0.32946885000000004 2.682164 1.188862 -0.463488
3560 -0.59501574 11.359126530000001 -1.4582663100000002 2.997243 1.904037 -0.297698
3580 -2.1465359100000003 11.82735783 -1.47832776 2.719605 1.57821 -0.094121
3600 -1.4726379600000001 12.09305187 -0.22931856000000003 2.1576150000000003 -0.261698 -0.095689
3620 -3.5236735200000004 11.95579035 -0.00808344 2.501864 -1.953797 -0.283396
3640 -4.4004030300000005 11.741137740000001 -1.3816305900000003 3.360707 -1.998161 -0.323273
3660 -2.47854555 11.300904180000002 -0.36943479 3.623413 -1.560872 -0.416002
3680 -0.19429686000000002 11.572288020000002 0.24892875000000003 3.345803 -1.049978 -0.33207
3700 -0.1966905 11.21363442 0.08786817 2.69268 -1.111429 -0.1165
3720 -3.75868188 13.404776400000001 1.06548372 2.121844 -1.29718 -0.056156
3740 -4.53436839 11.43621351 1.9955011500000002 1.635432 -1.29329 -0.074513
3760 -5.09076216 11.732004629999999 2.81175201 1.020952 -0.93165 -0.202114
3780 -4.279298580000002 12.84359535 2.245332420000001 0.393728 -0.399094 -0.17085899999999998
3800 -4.03201791 13.84814916 1.0057604400000002 -0.224108 -0.08415700000000001 -0.07196
3820 -4.6881009 15.03698382 1.13314329 -0.7632909999999999 0.057408 0.15803299999999998
3840 -3.86001918 12.93010974 3.46619673 -1.256867 0.090351 0.339345
3860 -2.82177783 10.4663871 2.7719332199999998 -1.811685 -0.008440999999999999 0.484079
3880 -2.82552525 8.54887545 0.90022446 -2.369481 -0.196039 0.728251
3900 -3.4856499600000004 6.8832846000000005 -0.5081972400000001 -2.39222 -0.483573 0.991243
3920 -3.45077541 6.311322360000001 -1.52877078 -1.325873 -1.0128469999999998 0.824182
3940 -2.9562042600000003 5.399424000000001 -1.08958689 1.463233 0.423818 -0.162306
3960 -2.5553382300000003 4.38093999 -0.40744854 2.137662 1.2477 -0.319952
3980 -2.4171741900000003 3.9046350600000013 -0.7455992400000001 1.136407 -1.15433 0.239085
4000 -2.97701127 3.4763697000000002 -1.8024011100000001 -0.01483 -2.172651 0.4171510000000001
4020 -2.8951272 3.06787149 -2.31942735 -1.114507 -1.296651 0.751246
4040 -2.7719332199999998 3.19360626 -2.74215006 -0.743255 -0.005471 0.147571
4060 -2.59695225 4.02902586 -3.1823836200000004 1.438779 0.8385030000000001 -0.48027
4080 -2.8644415200000006 3.92977809 -3.6312990300000005 0.324178 -0.346934 0.165079
4100 -3.7914669 4.30474572 -4.85874585 -3.255779 1.114967 0.784474
4120 -4.48108047 6.843171510000001 -6.602473350000001 -1.537909 -0.531994 -0.425599
4140 -4.663399320000001 13.125750570000001 -9.45464256 -2.24996 0.82042 0.312245
4160 -6.02482131 22.363641180000002 -9.96792138 -2.75591 1.66747 0.977401
4180 -8.615338200000002 12.979208790000001 -10.20921795 -2.289089 1.162727 1.056084
4200 -5.537882340000001 1.17640539 -10.18407492 -2.361048 0.66494 0.662045
4220 -1.65794886 1.3189054500000001 -5.19329628 -2.417302 0.82634 0.042945
4240 -1.1006623800000002 6.542298810000001 -1.1258054100000001 -2.466781 1.322485 0.154127
4260 -5.5519498800000004 18.08704035 -0.93451041 -2.297555 1.6673099999999998 0.354624
4280 -8.79361533 22.40764884 2.08441899 -1.934954 1.345611 0.30309
4300 -6.28003827 1.9254479400000002 -0.24683922000000003 -1.479535 0.5283180000000001 0.231475
4320 2.32406748 -2.2372489800000004 7.1578174500000005 -1.1731120000000002 -0.091844 0.275002
4340 -2.69933922 9.10900683 -4.1156874000000006 -1.0333139999999998 -0.072139 0.287704
4360 0.58617693 15.85398024 -2.2589487 -1.234187 0.275023 0.224967
4380 1.3169630700000001 16.193474910000003 0.4192794 -1.569091 0.273092 0.19913
4400 -2.8472249700000005 9.749227050000002 1.23583437 -1.512959 0.045473 0.063081
4420 -4.14218421 7.41722328 0.21644784 -1.381973 0.085012 -0.081333
4440 -4.81114773 6.360568560000001 -0.07993188000000001 -1.320009 0.01803 -0.16734000000000002
4460 -4.3423180200000004 8.792114399999999 0.42346827 -0.843203 -0.000685 -0.162918
4480 -3.09361293 9.736650630000002 1.1289544200000001 -0.35065 0.172248 -0.14687999999999998
4500 -1.34420544 9.206606520000001 1.7163281700000002 -0.11876 0.6088020000000001 -0.029383
4520 -0.8433460799999999 9.32485626 1.7787492000000003 -0.125217 0.928028 0.065234
4540 -0.77298876 9.36916803 1.3705452900000001 0.06292 0.481236 0.012641
4560 -0.8931906900000001 8.85932271 0.51223896 0.410509 0.191351 0.0101
4580 -1.15320474 8.34410151 -0.32856633 0.932754 0.569746 0.034627
4600 -1.37175192 7.945923420000001 -0.44128323 1.592374 0.92834 0.096459
4620 -1.56005487 7.96792725 0.10269108 2.155962 0.991237 -0.13683
4640 -2.15311842 8.08214508 0.46058931000000003 2.699122 0.8779379999999999 -0.5121100000000001
4660 -2.63661408 8.851994640000001 -0.2633004 2.754903 0.541786 -0.679
4680 -2.20701456 10.0123803 -0.59845905 2.564616 0.944117 -0.428744
4700 -1.6705252800000003 9.823920390000001 -1.5075125100000002 2.512662 1.975555 -0.180465
4720 -1.29929526 10.69945308 -1.47293226 2.040254 1.654007 -0.078667
4740 0.05972328000000001 11.945607570000002 -0.0022464900000000003 1.679491 -0.141455 -0.180367
4760 -1.3736943 12.76979472 1.32624333 2.496709 -1.883483 -0.01433
4780 -4.39186833 11.320357410000002 -0.5843817000000001 3.794446 -2.4508080000000003 -0.190409
4800 -4.43168712 10.669964219999999 -1.1886777000000002 4.034204 -1.763637 -0.14902200000000002
4820 -1.24421211 12.085272540000002 0.06706116000000001 3.5303370000000003 -1.150169 0.053907
4840 0.9241804800000001 11.18235033 0.9110056500000001 2.794311 -1.130415 0.280545
4860 -2.4932115 12.023449920000001 1.83038904 2.0531080000000004 -1.577126 0.47997
4880 -6.2289968400000015 11.78753904 2.3447273400000004 1.503784 -1.6822689999999998 0.34380900000000003
4900 -6.404429070000001 12.019555350000001 1.7880294600000002 0.912538 -1.209626 0.14252
4920 -5.12728479 14.78071719 1.6127443799999999 0.31466 -0.6406149999999999 0.089545
4940 -2.9409300900000006 13.98167307 1.1981051100000002 -0.208553 -0.222433 0.128083
4960 -3.4546699800000003 15.09610869 0.6577310700000001 -0.731234 -0.029553 0.29830500000000004
4980 -4.448148300000001 12.80227563 3.9914535600000005 -1.228924 -0.05799600000000001 0.383528
5000 -3.4516681200000003 11.12801274 4.29965433 -1.844089 -0.125393 0.455161
5020 -1.54568322 9.836045550000001 2.44920384 -2.215522 -0.13686600000000002 0.715364
5040 -2.92177116 7.95969666 0.06811083000000001 -1.842583 -0.3581 0.8389610000000001
5060 -3.96885132 6.43931343 -1.7090001000000001 -0.270666 -0.491702 0.386504
5080 -4.34307339 5.132827440000001 -1.92753747 2.013219 0.267482 -0.43707
5100 -3.1121734500000002 4.02932016 -1.2457130400000003 1.826402 -0.6014470000000001 -0.093294
5120 -2.1933884700000004 3.34688751 -0.7394581800000001 0.827147 -2.277142 0.509692
5140 -2.3692719600000003 3.0419730900000004 -1.4801229900000001 -0.253471 -2.120371 0.869411
5160 -2.5334815500000003 3.24360783 -1.9734973199999999 -0.349237 -0.646949 0.384018
5180 -2.60668377 3.4753200300000002 -2.21149773 1.761614 0.410582 -0.573607
5200 -2.8978249500000004 3.7342844100000003 -2.40235128 0.530674 -0.494716 -0.352445
5220 -2.7354105900000003 3.79326213 -2.7542752200000002 -3.691296 1.373992 0.854807
5240 -3.00949218 4.22107623 -4.09128993 -1.903913 -0.620853 -0.264604
5260 -3.61647612 6.86008395 -6.07825638 -3.326483 1.856269 0.878101
5280 -4.97086434 11.331884160000001 -8.823996900000001 -3.987012 2.136543 1.423263
5300 -4.7403391500000005 18.11188908 -10.25712018 -2.631871 1.549736 1.274315
5320 -6.73599726 14.06205621 -10.7237034 -2.324264 0.85826 0.503957
5340 -3.59447229 4.856205060000001 -10.584185580000002 -2.328442 1.01707 -0.311329
5360 -1.3075356599999999 2.88435582 -7.470364050000001 -2.515059 1.484529 -0.100655
5380 -1.8934084800000002 8.93701791 -2.7940940100000002 -2.341326 1.6494 0.342591
5400 -8.18303112 23.522388570000004 -1.5275739600000002 -1.833137 1.603494 0.459431
5420 -8.120315790000001 23.15400345 1.6965708300000002 -1.180557 1.045162 0.458296
5440 -2.8433402100000005 -9.43862283 7.98334857 -0.793141 0.12236199999999997 0.4568430000000001
5460 -2.52719334 -1.2549933 5.456900790000001 -0.911392 -0.039298 0.493612
5480 -5.28730551 13.52197647 -8.36146521 -1.20976 0.179349 0.15369000000000002
5500 1.79671131 22.662718650000002 0.8038314000000001 -1.380793 0.090523 0.137654
5520 0.19054944000000001 14.002784190000002 3.2470511400000004 -1.544183 -0.187984 0.13046
5540 -3.3888056400000006 7.5637748700000005 2.5613223300000003 -1.613472 -0.261961 0.042477
5560 -3.97349145 5.71047948 0.59396607 -1.418052 -0.102377 -0.074935
5580 -4.084109010000001 6.91188075 -0.34458605999999997 -0.975702 -0.271916 -0.151745
5600 -3.4682862600000006 8.76352806 -0.5263065 -0.28717800000000004 -0.16256199999999998 -0.123575
5620 -2.6069780700000003 9.26378901 -0.05163984 0.099187 0.298719 0.069744
5640 -1.45362618 9.458684280000002 1.24181847 0.006393 0.870727 0.161299
5660 -0.95995755 8.42013882 1.8595836000000001 0.152635 0.693102 -0.034005
5680 -0.53259471 7.540721370000001 1.16172963 0.544449 0.494741 -0.052379
5700 0.5363323200000001 7.55328798 0.36823797 0.98093 0.971629 -0.07557799999999999
5720 0.41957370000000005 8.609197140000001 -0.16705449 1.818704 1.410117 -0.167496
5740 -1.3979446199999999 8.259078240000001 -0.046107 2.550386 1.503838 -0.262918
5760 -2.22122925 8.796607380000001 0.62061003 2.832122 1.16776 -0.378024
5780 -2.31613119 8.58375 0.86909733 2.461703 1.248544 -0.013247
5800 -2.04295212 9.345212010000001 -0.44547210000000004 2.276318 1.413652 -0.382222
5820 -1.84207275 10.523118329999999 -1.6284600000000002 2.541386 1.753632 -0.385079
5840 -1.2150273600000001 12.102930540000001 -1.74057849 2.592073 1.182388 -0.364765
5860 -0.5701670100000001 12.872328840000002 -1.01129328 2.308402 -0.5929369999999999 -0.507613
5880 -0.08217837 12.171492630000001 0.37572300000000003 2.999601 -1.457627 -0.386309
5900 -4.14637308 11.5628508 0.5423262300000001 3.881265 -1.403025 -0.419745
5920 -5.85716841 9.525147030000001 -1.14137388 3.854443 -0.973468 -0.192951
5940 -3.6739627200000005 8.891656470000001 -0.7996327200000001 2.868698 -1.013383 -0.012847
5960 -2.12108877 8.65755063 0.49427685 2.147748 -0.901358 0.036453
5980 -1.4437475100000001 10.25382402 1.33432677 1.642507 -1.3308 -0.024209
6000 -2.9353972500000003 15.537244770000001 1.64478384 1.011615 -1.220818 -0.074691
6020 -4.659357600000002 16.833547980000002 3.54597165 0.203841 -0.8480639999999999 -0.15024500000000002
6040 -5.582341260000001 13.06842093 2.51417547 -0.275818 -0.483251 -0.123085
6060 -4.74408657 12.790748879999999 2.3213697300000002 -0.708363 -0.319821 0.14074
6080 -3.72739779 14.076575009999999 1.23462774 -1.238857 -0.190882 0.323808
6100 -3.9972905100000005 15.184869570000002 -0.07603731000000002 -1.878166 -0.089145 0.477309
6120 -4.8539585700000005 11.485165410000002 3.3403050000000003 -2.314006 -0.417876 0.744946
6140 -4.44605877 10.81291554 3.89938671 -1.884755 -1.081844 0.714612
6160 -3.2686037100000003 9.32920209 1.01893527 0.450054 -0.977405 0.012942
6180 -3.00918807 7.625587680000001 -1.60257141 3.229598 1.351306 -0.801704
6200 -2.9195246700000004 5.84728974 -1.281186 2.542371 -0.234844 -0.218018
6220 -2.5972465500000004 3.8622656699999998 -0.6029422200000001 1.28743 -2.048316 0.163305
6240 -2.2409865900000003 2.49246594 -0.1300806 -1.163755 -1.787659 0.772896
6260 -1.16263215 1.9999941300000001 -1.23777675 -1.544473 0.104704 0.728287
6280 -0.95845662 2.3872340700000003 -1.08315153 0.08603999999999999 0.7201930000000001 -0.623095
6300 -1.99774764 3.01338675 -1.39225482 2.503304 -0.37992 -0.932745
6320 -1.55960361 3.2391148500000004 -1.93652343 -2.208883 0.882294 0.254769
6340 -1.1771509500000001 2.99466927 -3.02401098 -2.784924 0.8991100000000001 0.01251
6360 -2.3999576400000002 3.3720403500000002 -4.56849738 -1.7125259999999998 -1.552274 -0.337917
6380 -3.8537407800000003 7.189847100000001 -7.120843560000001 -3.0531740000000003 2.165298 1.148806
6400 -5.63817978 16.123716 -10.10637972 -2.5126470000000003 2.4526220000000003 1.287878
6420 -10.477158480000002 25.28796294 -10.40920461 -2.264002 1.529066 1.063267
6440 -10.02854718 8.23213017 -11.88258813 -2.929568 0.097382 0.297742
6460 -2.17677033 -4.01958864 -8.56399266 -2.8889560000000003 0.5755979999999999 0.285663
6480 -0.75697884 2.7590625 -4.076476830000002 -2.597607 1.31821 0.53671
6500 -4.179903660000001 9.743537250000001 -0.38589597 -2.072152 1.202393 0.539461
6520 -10.88686332 23.325541110000003 -3.1699543500000003 -1.566113 0.6950529999999999 0.434687
6540 -8.70560001 22.499411580000004 -0.9231308100000001 -1.406671 0.20708 0.315717
6560 -0.7189552800000001 -4.8499168500000005 3.57755985 -1.3055370000000002 0.301913 0.222298
6580 -0.21943989 1.51095582 5.74894449 -1.383133 0.12748199999999998 0.220911
6600 -4.76773848 10.523863890000001 -8.776545930000001 -1.371467 -0.22052 0.125299
6620 -0.12948219000000002 20.994439860000004 0.31330197000000004 -1.416827 -0.023726 -0.031231
6640 -1.4349185100000001 15.760422270000001 3.3082655400000003 -1.531976 0.30225100000000005 -0.198027
6660 -5.41858293 7.85536731 0.51253326 -1.472968 0.288547 -0.285192
6680 -6.2095338 5.636531700000001 -2.17123749 -0.957853 0.087227 -0.203355
6700 -4.639001850000001 5.7031416 0.04850064 -0.341279 0.197474 -0.069935
6720 -2.7906507 9.21693645 1.10140794 0.003677 0.478816 0.13614500000000002
6740 -1.72306764 9.13550364 0.8270320499999999 0.019756 1.003807 0.169767
6760 -0.19578798 7.437579030000001 0.71955369 0.336065 0.938442 -0.008468999999999999
6780 -0.48215169 6.784645050000001 0.22512969000000002 0.912629 0.6600229999999999 -0.14615899999999998
6800 -1.1223621000000001 7.21050696 0.13531914 1.743904 0.509917 -0.09209
6820 -1.72261638 8.089031700000001 0.21584943000000004 2.557716 0.722165 -0.063176
6840 -1.39225482 7.888740930000001 -0.0925083 3.044747 1.007199 -0.369924
6860 -1.6560064800000003 7.687410300000001 -0.50654916 2.808867 0.981515 -0.13652999999999998
6880 -2.67673698 8.260422210000002 -1.0178856 2.780272 1.860939 -0.254293
6900 -3.1889661300000003 9.36886392 -0.8994789 3.797614 2.926994 -0.265644
6920 -2.4671659500000005 10.350079740000002 -1.3108220099999999 3.702258 1.071081 -0.13254100000000002
6940 -1.4167994400000001 11.26692234 -1.97694063 2.530621 -1.7481060000000002 -0.065541
6960 -1.38701628 12.963346020000001 -0.99124164 2.681695 -2.901884 -0.175171
6980 -1.5549634799999998 12.8465874 -0.38080458 2.965336 -2.410917 -0.123612
7000 -4.865779620000001 12.391383780000002 -1.38716343 3.035915 -1.2963360000000002 0.005776
7020 -3.7848745800000003 11.595037410000002 -2.4219614700000003 2.883188 -0.8568030000000001 0.244495
7040 -2.28245346 9.78470001 -1.43626248 2.590851 -0.994679 0.345179
7060 -1.2460073400000002 9.03326382 -0.26989272000000003 1.884644 -1.500273 0.055679
7080 -1.6976205000000002 9.705366540000002 1.46261214 1.030804 -1.613251 0.011404
7100 -4.79692323 15.486497640000003 1.8726014700000002 0.321971 -1.230481 0.009167
7120 -6.0616480500000005 15.96923793 2.24248752 -0.246482 -0.8496610000000001 0.106189
7140 -4.82267448 13.86491445 3.57755985 -0.728158 -0.603459 0.226423
7160 -2.22782157 13.78213767 1.7681249700000001 -1.263239 -0.333784 0.383641
7180 -2.8139985000000003 15.50326293 -1.1608369200000002 -1.924554 -0.231615 0.448326
7200 -3.9737857500000002 15.45595911 0.53364438 -2.354542 -0.520647 0.640109
7220 -3.7791945900000004 11.909830500000002 0.30565998000000005 -1.837224 -0.963712 0.701974
7240 -4.11733548 9.85864779 0.97312257 -0.078534 -1.156257 0.176122
7260 -3.9844099800000006 7.907458409999999 0.17483382000000003 2.895657 0.961168 -0.71701
7280 -2.9539577700000006 6.71338521 -0.10972485000000001 2.500768 0.10673 -0.353342
7300 -1.7639361 5.003198100000001 -0.6453116099999999 1.366402 -2.6263810000000003 0.532066
7320 -1.0880859600000001 2.2528174499999998 -1.3218975000000002 -0.356114 -2.727732 1.262578
7340 -2.14773273 1.9077801300000001 -0.5833418400000001 -0.441709 -0.24950300000000006 0.705466
7360 -1.7030061900000002 2.8657953000000003 -0.7212017700000001 1.362658 1.041087 -0.19371
7380 -1.6167861 2.01480723 -1.1569423499999998 1.622975 -0.09901 -0.621992
7400 -2.28035412 2.84348736 -1.2958519500000003 -3.110729 0.251826 -0.072258
7420 -2.31299199 2.92356639 -2.06990019 -1.1799110000000002 -1.24973 -0.800329
7440 -2.8669921200000004 3.05649189 -3.17759634 -1.691297 -0.768472 0.23593000000000006
7460 -3.92663889 4.91038569 -4.78225728 -2.838984 2.279976 1.322139
7480 -6.135438870000001 9.09508644 -6.854541300000001 -2.325374 1.7802369999999998 1.440667
7500 -6.773412600000001 19.85605803 -10.171194390000002 -2.25684 0.532921 1.08489
7520 -8.78418792 19.78106058 -11.324399130000002 -2.273263 -0.209146 0.193761
7540 -5.8679496 4.50697887 -12.91394286 -2.393138 0.8927649999999999 0.193648
7560 -2.0713913100000005 1.82904507 -7.7210978400000005 -2.284971 1.384953 0.358279
7580 -0.24384717000000003 7.691304870000001 -2.8626462900000007 -1.7293599999999998 0.929981 0.434314
7600 -6.927890669999999 21.32285904 -0.8780734800000001 -1.329519 0.093694 0.365539
7620 -7.591909950000001 20.23477308 -0.5783976000000002 -1.3095 -0.284209 0.28070500000000004
7640 -5.26111281 -0.6188148 -0.10927359 -1.471939 -0.093016 0.294281
7660 -3.3763763700000005 -3.36515373 10.877278950000001 -1.6420400000000002 0.251767 0.267014
7680 -7.554494610000001 8.478066870000001 -5.80926618 -1.916365 0.314029 0.119739
7700 -1.061442 20.041820190000003 -6.487509960000001 -2.09001 0.109028 -0.145062
7720 3.46739355 17.32542138 1.11742767 -1.987361 0.054763 -0.250029
7740 -5.14689498 8.67595419 2.22782157 -1.7345580000000005 0.049597 -0.242915
7760 -6.637200750000001 7.35016212 -1.87604478 -1.234345 -0.095408 -0.112117
7780 -5.84983053 5.654042550000001 -2.14369101 -0.6717420000000001 -0.018423 0.12779100000000002
7800 -4.08320649 7.73516538 -1.14706368 -0.31808800000000004 0.29062 0.32535
7820 -1.49224815 9.10915398 -0.14025357000000002 0.009052 0.8246120000000001 0.236152
7840 -0.31359627000000007 9.01859787 0.77673618 0.831341 0.733332 -0.027179
7860 -0.36224406000000003 8.21641455 0.27228636 1.773937 0.55887 0.160158
7880 -1.28613024 7.11111204 -0.5926221000000002 2.416912 0.66443 0.111103
7900 -1.97319321 6.5092096800000006 -1.62157338 2.857214 1.103554 -0.32756
7920 -1.9696027500000002 5.977223189999999 -1.67561667 2.762563 0.982246 -0.278928
7940 -2.2571534700000004 6.54393708 -0.52840584 2.846242 2.111901 -0.200742
7960 -2.53303029 7.667505810000001 0.59322051 3.207253 2.744207 -0.130665
7980 -2.80292301 7.64490357 0.16121754000000002 3.241893 1.920568 -0.115481
8000 -2.3156799300000004 9.12622338 -1.16712513 2.922137 -1.105792 -0.126655
8020 -1.94490117 10.12464594 -1.79881065 3.498676 -2.360873 -0.047312
8040 -1.3853682000000003 12.41862615 -2.01241359 4.047541000000002 -1.809781 -0.076231
8060 -0.37362366 13.803091830000001 -1.4322207599999999 3.5849660000000005 -1.317695 0.07586799999999999
8080 -2.8062191700000003 13.14236871 -1.51200549 3.054742 -0.905336 0.244688
8100 -4.774468140000001 13.19027094 -1.4153083200000003 2.376918 -1.104776 0.357713
8120 -2.4810863400000005 11.83558842 1.57203288 1.672883 -1.427851 0.243183
8140 -0.7232913 10.293642810000001 1.17655254 0.971525 -1.3707200000000002 0.150616
8160 -5.32337688 14.90705037 1.38491694 0.277431 -1.042288 0.13786900000000002
8180 -7.011422820000001 14.23779255 1.68114951 -0.294362 -0.694471 0.232774
8200 -5.21485866 12.51831537 3.1445072100000004 -0.845939 -0.602367 0.321739
8220 -3.9573245700000004 13.79306601 2.6801802900000005 -1.472705 -0.556077 0.477535
8240 -4.28184918 14.10232626 1.4000341500000002 -2.107203 -0.65323 0.548003
8260 -5.501212560000001 14.526844200000001 -0.09700128 -2.522869 -0.587642 0.756523
8280 -5.13866439 11.99051775 2.6900589600000004 -2.226698 -0.584805 0.8557969999999999
8300 -4.17496923 10.62460278 1.6404380100000002 -0.424548 -0.631443 0.301219
8320 -2.86503993 10.067012190000002 -0.73766295 2.611513 0.112414 -0.538446
8340 -3.25198557 7.222328010000001 -1.44449307 2.530104 -0.363658 -0.22862
8360 -3.1022947800000003 4.85171208 -1.53924786 1.413514 -2.212711 0.671802
8380 -2.40954201 3.1533460200000003 -1.16652672 0.31852600000000003 -2.852823 1.058079
8400 -2.23005825 1.8778498200000002 -1.08942993 1.202687 -0.089738 0.086496
8420 -1.62606636 2.3343974100000002 -1.2440649600000002 2.75038 -0.048018 -0.498815
8440 -1.8821858400000002 3.1388272200000005 -1.40992263 -2.481148 0.7461840000000001 0.16331099999999998
8460 -1.9739485800000003 2.4959092500000004 -1.31636466 -1.557593 -0.247161 -0.509423
8480 -1.9666107000000002 2.2638929400000003 -1.78324218 -2.441047 0.420876 -0.303874
8500 -2.5740459 3.3756308100000005 -3.06323136 -4.016419 2.628087 1.335902
8520 -2.6048787300000003 3.5154429300000003 -3.98920707 -2.344352 1.54518 1.6309790000000002
8540 -3.89998512 6.21627327 -6.5490284700000005 -2.5690880000000003 1.158079 1.3948969999999998
8560 -5.871392910000001 11.37768705 -9.01021032 -3.3425550000000004 -0.216066 0.7193430000000001
8580 -7.89562755 19.4406732 -11.71583775 -3.232986 0.475667 0.532283
8600 -7.45718922 13.73199876 -11.62392786 -2.610203 1.368306 0.5408310000000001
8620 -3.00350808 1.8928100700000001 -11.05511463 -1.988381 1.547204 0.285367
8640 -2.17901682 4.01869593 -7.150028310000001 -1.615787 0.921421 0.0794
8660 -5.232516659999999 15.525865170000001 -3.73787487 -1.378274 0.289157 0.012435
8680 -9.11663901 35.4772764 1.7937192600000003 -1.407671 0.071335 0.164196
8700 -4.88898027 -5.4862425 10.41070554 -1.655446 0.073027 0.222284
8720 -3.1990017600000002 -4.13649441 9.52663815 -1.724445 0.281425 0.114712
8740 -10.10173959 10.49078457 -13.97104884 -1.895016 0.317039 -0.118329
8760 3.2955517800000003 23.71069152 -0.41658165 -1.720924 -0.041906 -0.282227
8780 -0.00703377 18.03629322 4.04294625 -1.201788 -0.12473800000000003 -0.264608
8800 -6.3105768 8.443045170000001 -2.18530503 -0.6290819999999999 0.084114 -0.242715
8820 -5.23327203 6.348747510000001 -2.1833626500000003 -0.268131 0.5923390000000001 -0.045361
8840 -3.9986344800000007 5.91061329 0.09595161 -0.290079 0.976906 0.239208
8860 -3.9146608800000005 7.95086766 0.5980077900000002 -0.249455 0.7647470000000001 0.246173
8880 -2.8276245900000005 7.144044210000001 0.38469915000000005 0.288944 0.575692 -0.094859
8900 -1.3768335 6.8889744 0.57315906 0.868236 0.587448 -0.073737
8920 -0.7024842900000001 7.81509726 0.8402068800000001 1.501185 0.526196 0.042926
8940 -1.06578783 8.0110422 0.23007393000000004 2.118562 0.8407610000000001 -0.036486000000000005
8960 -0.88166394 6.732249840000001 -0.79589511 2.733257 0.855533 -0.533207
8980 -0.9801661500000001 7.438785660000001 -1.0353964500000001 2.764622 1.0478459999999998 -0.434958
9000 -1.54283832 7.198676100000001 0.004492980000000001 3.029117 2.0426900000000003 -0.367087
9020 -2.7665475300000004 7.873025310000001 0.7369173900000001 3.3217 2.738763 -0.200361
9040 -2.9696733900000005 9.318725010000001 -0.01497006 3.129462 1.790201 0.08259
9060 -1.99191069 10.041722009999999 -1.37489112 2.608356 -0.513092 -0.222541
9080 -1.3497480900000003 10.55380401 -1.6628931 2.84385 -2.154777 -0.13653900000000002
9100 -0.18920547 12.105922590000002 -1.3534857000000002 3.454303 -1.872485 -0.13156900000000002
9120 -0.44532495 13.71538062 0.27542556 3.300485 -1.258123 -0.188978
9140 -4.24038231 13.435913340000003 -0.6448603500000001 3.07646 -0.450229 -0.098643
9160 -3.1942046700000004 11.665836180000001 -1.02237858 2.580863 -0.784176 -0.072835
9180 -2.2103009100000004 12.40664814 -0.30835773000000005 2.031086 -1.167596 -0.148823
9200 -1.1518509600000002 10.89748755 0.88510725 1.269167 -1.476919 -0.18899999999999997
9220 -3.63279996 9.83095416 1.04782572 0.720296 -1.149941 -0.23064
9240 -7.513027740000001 11.621828520000001 1.54343673 0.213244 -0.626634 -0.121621
9260 -6.05925441 11.724372449999999 2.4670188000000004 -0.22399 -0.262192 -0.038616
9280 -3.9275316 14.224323420000001 3.5010712800000006 -0.629417 -0.121801 0.102582
9300 -3.59612037 14.359789710000001 2.17123749 -1.040993 -0.107314 0.299446
9320 -4.74169293 13.632603840000002 -1.09736622 -1.510434 -0.186219 0.458638
9340 -5.336257409999999 14.034666690000002 -0.26794053 -2.022794 -0.271559 0.665608
9360 -5.40301446 11.816576640000001 1.63355139 -2.185779 -0.384081 0.97333
9380 -4.11584436 9.22815909 0.5469663599999999 -1.554153 -0.501899 0.851842
9400 -2.8192370400000004 8.057443500000002 0.2803698 0.780857 0.082074 0.110035
9420 -2.8199826 7.49760642 -0.45699885 2.025009 0.440324 -0.514121
9440 -2.8130959800000004 5.42456703 -0.77135049 1.352151 -0.533558 -0.142627
9460 -2.7584640900000004 3.43355886 -0.61118262 0.279873 -2.083273 0.454346
9480 -2.70083034 2.9912259600000004 -1.2406216500000002 -0.895264 -2.094268 1.025128
9500 -2.78121348 4.1992195500000005 -1.5705319500000001 -1.135539 -1.075507 1.143921
9520 -2.5376704200000004 4.113597870000001 -2.15267697 -0.343727 0.239533 -0.196056
9540 -3.0430227600000004 4.16478645 -2.78630487 1.6759080000000002 0.371415 -0.295349
9560 -3.3555693600000005 3.93427107 -2.97416637 0.304715 0.119307 -0.262943
9580 -3.41619516 4.53317157 -3.6079512300000003 -3.176764 0.790084 0.443611
9600 -3.2953948200000003 4.4459018100000005 -4.04294625 -1.922641 -0.235219 0.016782
9620 -3.2217511500000002 4.63526424 -4.60293048 -2.084107 0.640125 0.5005729999999999
9640 -3.7955086200000006 6.41925198 -6.03934011 -2.645365 2.523574 0.976008
9660 -4.58241777 10.32013962 -8.642727720000002 -2.343109 2.3839330000000003 1.002867
9680 -6.6303141299999995 17.07948468 -10.563986790000001 -2.617984 0.6437149999999999 0.598321
9700 -10.02749751 14.974111530000002 -9.93185001 -2.929745 -0.344996 0.369879
9720 -5.443284510000001 2.7650466000000002 -8.71682265 -2.683387 1.125023 0.438082
9740 -3.94025517 1.6254679500000002 -7.966887389999999 -2.399282 2.038464 0.333142
9760 -1.8154287900000001 5.896840050000001 -5.158725840000001 -1.766702 1.7477080000000005 0.301614
9780 -4.7187865800000015 11.3396733 -3.03957945 -1.218379 0.403067 0.158684
9800 -8.75874078 21.49470081 -1.56110454 -1.028733 -0.399616 0.126854
9820 -6.051318120000001 15.63318657 0.9662359500000001 -1.170282 -0.4103770000000001 0.276498
9840 -4.47359544 0.09415638000000001 -0.0026977500000000005 -1.281424 0.036308 0.289037
9860 -1.58535486 -0.39488193 7.809260310000001 -1.303116 0.379614 0.236102
9880 -6.47718003 9.16035237 -3.9944456100000005 -1.460846 0.033474000000000004 0.088029
9900 -1.6386427800000003 16.95478977 -3.4581132900000005 -1.558607 -0.337077 -0.13436900000000002
9920 2.0329263000000006 15.452221500000002 1.90389537 -1.612684 -0.122378 -0.23223
9940 -3.62142036 9.612858240000001 2.8400440500000004 -1.475008 0.019251 -0.338272
9960 -5.27068737 6.12870921 -0.08487612 -0.592917 -0.18125 -0.246396
9980 -5.27383638 6.88462857 -0.7253906400000001 -0.12823900000000002 -0.124943 -0.078716
10000 -4.251310650000001 8.346946410000001 0.11960352 -0.293681 1.082552 0.196319
10020 -2.24263467 9.2256183 0.8478390600000001 -0.243265 1.080498 0.133649
10040 -0.79589511 9.32516037 1.44509148 0.33310500000000004 0.280002 -0.246928
10060 -0.6509916 9.118738350000001 0.8511254100000001 0.690842 0.26324699999999995 -0.096993
10080 -1.1573936100000002 8.663083470000002 0.63962181 1.228924 0.634121 0.195779
10100 -1.4855086800000001 8.09307342 0.07035732 1.830081 0.889241 0.343861
10120 -1.09377576 8.74421217 -0.74514798 2.464641 0.50285 0.250512
10140 -0.84933018 8.061190920000001 -0.69754986 2.644686 0.437055 -0.234187
10160 -1.78189821 7.72648353 0.05957613 3.1017240000000004 1.251309 -0.459569
10180 -2.96653419 8.04711357 0.6027950700000001 3.4776300000000004 2.499642 -0.476703
10200 -2.97505908 8.25592923 0.055534410000000006 3.075445 2.165057 -0.106274
10220 -2.4599850300000004 9.46811169 -0.24084531 2.307227 -0.085979 -0.212373
10240 -1.7700673500000002 9.64174869 -0.23755896 2.7035240000000003 -1.826099 -0.158237
10260 -1.1720595600000001 10.84824135 -1.4867055 3.297467 -1.752159 -0.249255
10280 -0.28111536000000004 12.383153190000002 -1.09198053 3.544779 -0.683195 -0.320468
10300 -2.6761385700000004 13.49069238 0.6259957199999999 3.384853 -0.77262 -0.196489
10320 -4.8041139600000005 12.32432262 0.17543223 3.156447 -1.447441 -0.139535
10340 -4.05282492 11.71433682 -0.8157996000000001 2.685663 -1.620065 -0.25156100000000003
10360 -1.53984627 13.02531579 0.28575549 1.841734 -1.428403 -0.29722600000000005
10380 -0.5803399800000001 12.03227892 1.4492901599999999 1.185642 -1.016755 -0.373907
10400 -3.7652742000000003 12.243193920000001 1.25124588 0.604823 -0.465742 -0.203482
10420 -5.570363250000001 11.00601558 0.94618431 0.004342 -0.307531 -0.08717000000000001
10440 -5.1013962 9.60716844 1.6090067700000001 -0.473111 -0.273476 0.068617
10460 -5.31230139 12.12239358 2.65353633 -0.926851 -0.34634000000000004 0.301618
10480 -4.14712845 12.75348069 0.8783775899999999 -1.445243 -0.385706 0.472167
10500 -4.49081199 13.329327690000001 -1.58564916 -2.100047 -0.1137 0.683026
10520 -4.114941840000001 13.05973908 0.72943236 -2.240592 0.040996 1.012995
10540 -3.70869012 11.270512799999999 2.26659069 -1.299995 -0.5057520000000001 0.7959390000000001
10560 -2.83765041 10.380314160000001 1.54568322 1.560017 -0.5312560000000001 -0.099518
10580 -3.14885304 8.45606304 0.30746502000000003 2.08409 -0.027207 -0.596431
10600 -4.114941840000001 7.27053435 -0.23261472000000002 1.50854 -1.196128 0.246011
10620 -3.2120196300000003 6.278694300000001 -0.16705449 0.400432 -2.432435 0.8198989999999999
10640 -2.28619107 5.03972073 -1.4010838200000002 -0.632814 -1.61678 1.268836
10660 -2.26030248 3.84625575 -1.79027595 -0.411421 0.339183 0.24986
10680 -3.2985438300000003 4.01509566 -1.9634715 1.706039 0.843469 -0.355564
10700 -3.01263138 3.54328371 -2.29502988 -0.635042 0.101504 -0.323964
10720 -3.0425714999999998 3.35692314 -2.15581617 -3.38452 1.01896 0.13101400000000002
10740 -2.77148196 3.5025624000000004 -2.4062458500000004 -1.296373 -1.227931 -0.024573
10760 -2.72208861 4.12976475 -3.1106823300000004 -2.711566 1.353062 1.243032
10780 -2.94197976 3.6408834000000003 -3.70135224 -3.140977 2.175086 1.706861
10800 -3.49208532 3.81032172 -5.2497332100000005 -2.620962 1.800309 1.47276
10820 -4.99840101 6.996904020000001 -8.38571553 -3.199027 -0.34115 0.706619
10840 -5.88127158 14.15157246 -11.695030740000002 -3.119486 0.302695 0.267311
10860 -8.927433540000001 18.593285400000003 -10.58673618 -2.77738 1.683015 0.306387
10880 -6.57463257 7.2371509199999995 -11.04014457 -2.4642880000000003 1.962364 0.23985
10900 -3.6645255000000003 1.0129413600000001 -8.889115680000002 -1.796334 1.2920120000000002 0.266739
10920 -2.2129986600000002 5.61302694 -5.58353808 -1.237479 0.296173 0.26657800000000004
10940 -4.33812915 11.89141713 -1.02327129 -1.22405 -0.135877 0.408231
10960 -9.35988777 23.80783995 0.90142128 -1.478573 0.122075 0.323869
10980 -5.501359710000001 13.40941653 0.57390462 -1.5126620000000002 0.330086 0.282772
11000 -1.5645478499999999 -7.8658443899999995 4.929544620000001 -1.489647 0.07495800000000001 0.128368
11020 -7.42306023 3.47787063 0.70264125 -1.505901 0.046034 -0.083217
11040 -5.119652610000001 16.08630066 -8.553515580000001 -1.56877 -0.053412 -0.201033
11060 4.10461191 20.517379560000002 -1.21127994 -1.29193 0.00232 -0.258991
11080 -0.55608966 10.566674729999999 3.45931011 -0.61465 0.070882 -0.143253
11100 -5.87094165 6.899755590000001 0.35207109 -0.116562 0.394638 -0.020548
11120 -5.924533680000001 6.38512299 -1.4126105700000002 -0.107586 0.6867770000000001 0.174625
11140 -5.320237679999999 6.187382820000001 0.8211951000000001 0.019373 0.8941819999999999 0.145336
11160 -3.6956624400000004 7.673489910000001 0.621954 0.567769 0.664176 -0.086616
11180 -1.1220678 9.36811836 1.4424035400000002 1.386968 0.554126 0.083753
11200 0.18427104 9.38024352 2.0821725 2.163685 0.537764 0.304981
11220 -0.79769034 8.19486198 0.94333941 2.837597 0.697216 0.072338
11240 -1.8851778900000002 7.78515714 -0.35939916000000005 2.936239 0.790569 -0.181329
11260 -1.015335 8.482863960000001 -1.4263838100000001 2.650065 1.124279 -0.26921300000000004
11280 -1.18538154 8.004008429999999 -0.4858893000000001 2.9957130000000003 2.019169 -0.31708400000000003
11300 -1.63565073 7.864941870000001 0.49143195 3.392029 2.455264 -0.22728
11320 -2.32497 8.11761804 0.66387213 3.1741900000000003 0.375031 -0.367142
11340 -2.7190965600000006 9.23220081 -0.37781253 3.111483 -2.397754 -0.344798
11360 -2.34757224 10.62385722 -1.5141048300000002 3.702829 -2.183214 -0.429605
11380 -1.66528674 9.70686747 -2.44472067 3.681179 -1.251231 -0.37754
11400 -0.7833186900000001 12.069704070000002 -1.4275806300000002 3.5101910000000003 -0.956042 -0.256267
11420 -0.60040143 13.051214190000001 -0.38933928 3.156662 -1.106885 -0.32263600000000003
11440 -3.9890501100000004 12.68522271 -0.34607718 2.3802 -1.399892 -0.4345060000000001
11460 -4.153858110000002 11.73140622 -1.00201302 1.399523 -1.513381 -0.507441
11480 -2.4587882100000003 11.298500729999999 0.6107313599999998 0.649732 -1.065058 -0.350883
11500 -0.32887044 11.398945320000001 0.8937891 -0.015331 -0.494618 -0.170389
11520 -3.2986909800000004 12.966190919999999 0.49846572000000006 -0.575137 -0.15924100000000002 0.094463
11540 -6.415063110000001 14.02089345 1.91721735 -1.015365 -0.03099 0.371098
11560 -6.06404169 12.260557620000002 2.89632402 -1.535054 -0.071618 0.591847
11580 -5.57156007 14.009513850000001 2.5583302800000003 -2.252699 -0.003965 0.812142
11600 -3.3563247300000003 13.178891340000002 1.87335684 -2.597993 -0.16136099999999998 1.044941
11620 -4.55727474 14.580877680000002 0.20283156000000002 -1.662635 -0.720737 0.7936810000000001
11640 -4.912936290000001 13.75938828 1.7136402300000002 1.64526 -0.211443 -0.230723
11660 -3.5374467600000004 10.49332536 1.87230717 2.639699 0.522996 -0.941495
11680 -2.85142365 9.88110288 1.04707035 1.748622 -1.013598 -0.053785
11700 -2.89557846 7.5308427 0.68916231 0.207102 -2.705592 0.832786
11720 -2.95081857 5.726489399999999 -0.016765290000000002 -1.4447290000000002 -1.740014 1.621177
11740 -2.34052866 3.96854721 -1.2156257700000002 -1.560522 -0.169427 1.895025
11760 -2.0013381 2.54246751 -1.3359748500000002 -2.326963 0.793262 1.042406
11780 -2.63257236 3.0497622300000002 -1.06802451 0.243076 0.06328500000000001 -0.850824
11800 -2.44231722 2.58437583 -1.55048031 1.881434 -0.357489 -0.94139
11820 -2.50549362 3.0476628900000002 -1.90957536 -3.0475790000000003 2.341311 0.551484
11840 -2.91189249 3.5292063600000003 -2.4159773700000002 -2.537304 -0.6763779999999999 0.316429
11860 -3.09016962 3.62426526 -2.97985617 -2.895269 0.407434 1.051749
11880 -3.1988448000000007 3.1418192700000005 -3.8130194700000004 -3.2093 2.572944 1.6385759999999998
11900 -3.4509225600000004 4.418512290000001 -6.308781570000001 -2.386589 1.942207 1.215705
11920 -4.519849590000001 8.78627745 -9.70701462 -2.357452 0.7139770000000001 0.38427
11940 -6.9129206100000005 19.829414070000002 -11.25255069 -2.40192 0.398257 -0.00981
11960 -11.446700400000001 19.12183839 -10.01372427 -2.404507 1.416098 0.399065
11980 -5.121447840000001 0.7005419100000001 -10.947489120000002 -2.03721 2.024938 0.471353
12000 -2.7345178800000003 -0.9601047 -8.16312663 -1.485812 1.194543 0.396152
12020 0.60309918 2.52315162 -2.90500587 -1.323156 0.126528 0.407202
12040 -2.0899518300000004 6.7660845300000005 -0.5890218299999999 -1.475374 -0.042285 0.397809
12060 -5.12414559 13.82614533 0.66896352 -1.631875 0.224757 0.352577
12080 -10.969492950000001 25.13154249 4.69543878 -1.441293 0.27881 0.256631
12100 -10.53269289 18.10919133 -5.88860946 -1.438124 0.32959 0.076058
12120 4.612662 -6.140235960000001 7.465723919999999 -1.618894 0.519504 -0.107045
12140 -4.55936427 3.63084777 -2.5204538700000003 -1.622739 0.523077 -0.197876
12160 -2.41882227 16.095728070000003 -6.0649344 -0.957412 0.287087 -0.101059
12180 0.95381649 19.803368520000003 3.22519446 -0.221932 0.405839 -0.066164
12200 -2.4843824999999997 11.30269941 3.30063336 -0.017544999999999998 0.943494 0.10015
12220 -4.81518945 7.093601189999999 0.7396151400000001 -0.03619 0.804114 0.073492
12240 -6.032904750000001 4.72177863 -0.52929855 0.054682000000000015 0.954519 -0.055321
12260 -4.8838986900000005 6.24949974 0.35985042 0.416032 1.170261 -0.24108
12280 -1.7714211300000002 9.33279255 1.06009803 1.140542 0.807305 -0.145824
12300 -0.34054434000000006 9.40748589 1.14661242 2.05813 0.469116 -0.018272
12320 -0.37960776 8.03349729 0.58648104 2.622153 0.607839 -0.033738
12340 -1.1027519099999998 7.36812423 0.99752985 2.947641 0.919565 -0.215598
12360 -0.7038380700000001 8.53060923 0.82163655 2.812284 1.167372 0.002125
12380 -1.4106681900000002 8.470434690000001 0.4543011 3.3306089999999995 2.379604 -0.167792
12400 -1.9860737400000001 7.5974526000000004 -0.28994436 3.499831 2.016954 -0.200328
12420 -2.60338761 7.8115068 -0.43948800000000005 3.074898 0.317065 -0.171208
12440 -2.75292144 8.726250060000002 -0.04565574000000001 2.867545 -1.864163 -0.371755
12460 -2.11735116 9.919420740000001 -0.6970986 3.501008 -2.3693 -0.338909
12480 -0.41418801000000005 10.8364203 -2.6709000300000003 3.618449 -1.800093 -0.261906
12500 -0.7857123300000001 12.45455037 -1.3913522999999999 3.3588410000000004 -0.771831 -0.104804
12520 -1.97139798 12.728779110000001 -0.05074713 2.8499790000000003 -0.8547959999999999 0.038094
12540 -4.436621550000001 11.602973700000002 -0.31703958 2.364379 -1.3761139999999998 0.025756
12560 -5.373976860000001 12.44512296 -1.07446968 1.658541 -1.605519 -0.068611
12580 -2.62314495 11.048071049999999 -1.1627793 0.950487 -1.299401 -0.083563
12600 -1.58834691 9.54191232 -1.44465003 0.347982 -0.730694 -0.056453
12620 -1.0150407000000001 9.361977300000001 -0.02784078 -0.21833200000000005 -0.357304 0.032048
12640 -2.52809586 11.952494190000001 1.25514045 -0.736269 -0.289104 0.208872
12660 -4.63840344 15.511346370000002 3.25198557 -1.264329 -0.32319200000000003 0.399644
12680 -5.050501919999999 15.140263500000001 4.05926028 -1.940526 -0.378901 0.531724
12700 -3.70300032 13.79965833 2.9228208300000005 -2.4384240000000004 -0.507155 0.801875
12720 -2.99721987 13.974040890000001 -0.2951829 -2.111776 -0.870775 0.8751260000000001
12740 -3.5699276699999998 14.922913140000002 -0.35700552 -0.236276 -0.988992 0.308333
12760 -3.9019373100000005 13.762684440000001 1.7407256400000002 2.6219490000000003 0.326383 -0.5098050000000001
12780 -4.521948930000001 10.877426100000001 1.1811926700000002 2.2678830000000003 -0.240632 -0.397252
12800 -3.55586013 9.971060580000001 0.47780586 1.2103549999999998 -2.115014 0.39252
12820 -2.3462184600000002 7.694296919999999 -0.8678907000000001 -0.337359 -2.762258 1.089701
12840 -1.81153422 6.3219564 -0.91834353 -0.791844 -1.414694 1.485383
12860 -1.97648937 4.4914104 -0.8309266200000001 -0.388798 0.097718 0.674412
12880 -1.9577817000000002 3.33611613 -0.5599842300000001 1.239106 -0.05823200000000001 -0.630067
12900 -2.65278096 2.5791372900000002 -0.6191091000000001 0.595585 -0.395577 -0.691814
12920 -2.6749417500000003 2.70023193 -1.1304455400000002 -2.369764 1.613643 -0.014348
12940 -2.13036903 1.9447540200000002 -1.6355035800000002 -1.412244 -0.8984620000000001 -0.265087
12960 -2.22093495 2.9286577800000004 -2.02678524 -3.129436 1.69625 1.030302
12980 -2.21149773 3.3670961100000003 -2.80681758 -2.897759 1.693687 1.4698950000000002
13000 -2.63736945 3.2997406500000004 -3.6739627200000005 -2.183467 1.0744049999999998 1.206486
13020 -3.2084291700000005 4.49395119 -5.639975010000001 -2.537183 0.806467 0.5869260000000001
13040 -4.432579830000002 8.346946410000001 -8.192615490000001 -2.740367 0.684516 0.092145
13060 -5.27891796 18.378181530000003 -10.456802730000001 -2.665776 1.16258 0.35483600000000004
13080 -8.96141538 19.70816247 -10.10922462 -2.219408 1.493379 0.359666
13100 -5.437290600000001 5.77903176 -12.055332420000001 -1.65265 1.098211 0.3887
13120 -2.04355053 -1.1666738700000001 -8.90109369 -1.396441 0.316888 0.285737
13140 -2.12303115 4.8720678300000015 -4.70247255 -1.228828 -0.187353 0.232007
13160 -2.7882472500000004 9.44550945 -1.5988239899999999 -1.218107 -0.201137 0.206462
13180 -6.27315165 17.96189418 0.22063671 -1.255121 -0.129629 0.205043
13200 -8.22239865 23.163283709999998 2.0389104000000002 -1.2540209999999998 -0.16885999999999998 0.1581
13220 -5.751485280000001 0.95516046 2.61835767 -1.509732 -0.157057 0.092205
13240 -0.82792476 -0.47914983 5.472322110000001 -1.917013 0.011068 -0.04011
13260 -6.04502991 10.03153923 -11.40313419 -1.7614740000000002 0.107828 -0.129947
13280 1.1379305700000002 19.867584780000005 0.55144953 -1.054029 -0.310236 -0.091354
13300 -1.3930003800000001 15.7502493 3.73758057 -0.27865700000000004 -0.038467 0.004512
13320 -5.69759895 8.98147683 -0.28021284 -0.279512 0.90357 0.188101
13340 -5.37202467 6.75754983 -1.09243179 -0.178714 0.949298 0.120381
13360 -4.70082447 5.6297922300000005 -0.39697146000000005 0.261277 0.486729 -0.200693
13380 -3.7875723300000006 7.40839428 -0.07065161999999998 0.7795979999999999 0.24190100000000006 -0.163644
13400 -1.6681316400000001 9.11379411 0.57914316 1.6326969999999998 0.454906 -0.091728
13420 -0.22079367 7.968231360000002 0.53843166 2.414134 0.640414 -0.007459
13440 -0.30027429 7.27053435 0.52286319 2.803953 0.7294970000000001 -0.2452
13460 -0.9788123700000001 7.58936916 0.25701219000000003 2.93962 0.471465 -0.303742
13480 -1.12192065 8.167462650000001 -0.52645365 3.04175 1.307546 -0.35217
13500 -1.33162902 7.994424060000001 -0.54831033 3.554094 2.40039 -0.497406
13520 -1.97648937 8.15713272 -0.52166637 3.590495 1.873385 -0.339448
13540 -2.33200377 8.56803438 -0.7095278700000001 2.846584 -0.941008 -0.24383
13560 -2.59769781 8.849002590000001 -0.4309533 2.825673 -2.503711 -0.239837
13580 -2.80950552 9.77437008 0.09805095000000001 3.382222 -1.772084 -0.135406
13600 -2.76280011 10.82937672 -1.1825366400000001 3.372878 -1.219256 -0.114815
13620 -1.38641787 12.076433730000002 -1.6048080900000001 3.200794 -0.991993 -0.05542
13640 0.21465261000000002 13.44249585 -0.97956774 2.853942 -1.172213 0.025710000000000004
13660 -3.2542320600000005 13.8041415 -0.24504399000000002 2.07655 -1.6549049999999998 -0.068832
13680 -4.95125415 13.0344489 -1.2322341 1.347559 -1.395992 0.017611
13700 -2.6161111800000003 11.73559509 -1.97034831 0.717263 -0.876042 0.007201000000000002
13720 -0.93884643 11.440108080000002 -0.7744896900000001 0.158565 -0.470715 0.094646
13740 -0.8029288800000001 9.667794240000001 0.71027343 -0.380287 -0.398883 0.180521
13760 -2.4598378800000003 10.342889009999999 1.0611477 -0.888041 -0.220918 0.338048
13780 -5.61003489 14.19797376 2.05596999 -1.512767 -0.055995 0.395429
13800 -5.12354718 10.996578359999999 2.9150415000000005 -2.188331 0.011935 0.510264
13820 -4.794382440000001 12.84149601 2.82358287 -2.480123 -0.03198 0.82234
13840 -3.8711044800000005 13.227696089999998 0.47406825 -2.049161 -0.258354 0.849141
13860 -3.74042547 14.51426778 -1.8390708900000001 0.270392 -0.689737 0.157665
13880 -3.56154012 13.649663430000002 0.57256065 2.458235 -0.221797 -0.477132
13900 -3.7312923600000003 10.791510120000002 0.94647861 1.878566 -0.667403 0.104776
13920 -3.05036064 9.50209353 0.5620835700000001 0.8848879999999999 -2.384171 0.8509950000000001
13940 -2.66580864 8.132892210000001 0.11360961 -0.556675 -1.981355 1.531549
13960 -2.64844494 6.436311570000001 -0.42332112000000005 -0.7938390000000001 -0.6542600000000001 1.264341
13980 -2.37945474 5.4226246499999995 -1.33836849 -0.030077 0.883193 -0.259852
14000 -2.28439584 3.9022316100000003 -1.35618345 2.445852 -0.450665 -1.039878
14020 -2.4128283600000002 2.4408261 -0.8789760000000001 -2.633845 1.3233469999999998 -0.182463
14040 -2.46357549 3.36664485 -1.3298337900000001 -2.292739 0.7596729999999999 -0.442141
14060 -3.0097864800000003 3.58069905 -1.73564406 -2.2652650000000003 -0.247849 0.27505100000000005
14080 -2.5114777200000002 3.29075469 -1.8348820200000002 -3.5761 2.55849 1.575143
14100 -2.7222357600000002 3.60824553 -2.8575549000000002 -2.541984 2.2678540000000003 1.698107
14120 -2.7593666100000003 3.37981968 -3.7441630800000003 -2.543309 1.064668 1.023455
14140 -3.4902900900000002 3.9966921 -4.91697801 -3.151698 -0.398481 0.08531799999999999
14160 -4.90275351 6.8415234300000005 -7.694296919999999 -2.66417 1.26268 0.096209
14180 -5.307965370000001 12.51247842 -11.653867980000001 -2.545926 1.755257 0.155156
14200 -7.274124810000001 19.54021527 -11.412120150000002 -1.905621 1.339613 0.17938900000000002
14220 -6.30713349 11.510014140000001 -11.038496490000002 -1.154817 0.271939 0.128317
14240 -2.1625556400000003 1.2145761000000002 -9.22067406 -1.072819 -0.371123 0.232264
14260 -1.9164619800000002 3.24105723 -6.43601727 -1.322655 -0.068142 0.338021
14280 -1.3470503400000002 7.816441230000001 -1.6254679500000002 -1.49898 0.258784 0.253049
14300 -7.243586280000001 19.04998995 -0.75578202 -1.52558 0.124194 0.101348
14320 -9.84831786 25.262368650000003 3.98036826 -1.69838 -0.27082 -0.065996
14340 -6.59393865 -0.06601149 1.12790475 -1.698352 0.05896000000000001 -0.218105
14360 -1.35393696 -4.08530583 8.3583162 -1.636443 0.241155 -0.27986300000000003
14380 -7.66136475 9.965674889999999 -8.98611696 -0.947379 0.17178800000000002 -0.313417
14400 1.89730305 22.563774990000002 -2.72373669 -0.260703 0.187083 -0.205023
14420 1.91961099 17.413436700000002 3.7064436300000003 -0.022839 0.640211 0.024657
14440 -5.001245910000001 8.266710419999999 0.61761798 0.010546 0.8080109999999999 0.12402
14460 -5.87768112 5.050501919999999 -2.2113505800000004 0.675197 0.255242 0.053527
14480 -5.9439869100000005 4.91817483 -0.04190832 1.571875 -0.174582 0.470539
14500 -4.06734372 7.457042070000001 0.08981055 2.159744 0.490542 0.6618
14520 -1.04991525 9.45658494 0.5364892800000001 2.793867 0.668842 0.279304
14540 0.79020531 9.73006812 1.3329828000000001 3.03195 0.478026 -0.425951
14560 0.25177365 8.41640121 0.51418134 3.436112 1.496703 -0.31227
14580 -1.3789328400000003 7.235649990000001 -0.97911648 3.709258 3.225509 -0.248484
14600 -1.5666373800000002 6.933884580000001 -1.2629197800000003 3.203302 2.868641 -0.076373
14620 -1.29735288 7.2353556900000005 -0.5827336200000001 3.124146 -1.835809 -0.225789
14640 -1.99504989 7.4622806100000005 0.28515708 3.731468 -3.105039 -0.364131
14660 -2.37346083 7.95536064 0.6185106900000001 3.955208 -1.616143 -0.468093
14680 -2.26613943 8.84345994 -0.38424789000000004 3.587012 -0.662516 -0.200559
14700 -1.7016622199999998 10.448719290000001 -1.05994107 3.162716 -1.168646 -0.06827799999999999
14720 -2.14369101 10.24783992 -1.52726985 2.5023880000000003 -1.473866 -0.156889
14740 -1.3546825200000003 11.07037899 -2.3257155600000003 1.808381 -1.6958 -0.265069
14760 -0.026192700000000003 13.61060001 -0.6987466800000001 1.1129209999999998 -1.5341 -0.139811
14780 -2.416271670000001 14.43343338 0.3646377 0.511062 -0.942429 0.004777
14800 -4.15985202 13.28277924 0.5557953599999998 -0.14333800000000002 -0.347628 0.210952
14820 -0.47256732 12.990882690000001 1.69147944 -0.518121 -0.119653 0.267863
14840 -0.02798793 12.89329281 1.72591254 -0.790358 -0.011707 0.415374
14860 -5.951471939999999 13.15105056 0.8231374800000001 -1.1480629999999998 -0.049988 0.441766
14880 -6.499487970000001 9.903253860000001 1.8160272000000002 -1.819858 -0.203205 0.445816
14900 -6.412669470000001 13.023069300000001 2.09803527 -2.322426 -0.517478 0.618965
14920 -4.091437080000001 14.14633392 2.13007473 -2.072773 -0.727252 0.647683
14940 -4.39845084 14.433580530000002 0.33514884 0.056841 -0.357273 0.05213
14960 -6.43003317 13.796813430000002 3.0199692600000003 2.672498 1.216315 -0.660144
14980 -3.2717429100000004 12.20786811 1.92229893 1.837966 -0.347326 -0.515487
15000 -1.8845794800000002 11.260486980000001 -0.07619427 0.842627 -2.100693 0.326908
15020 -3.3136610400000004 8.130488759999999 -1.00875249 -0.467585 -1.889094 1.026784
15040 -3.5235263700000004 5.7637674 -1.3274401500000002 -1.0179120000000002 -0.327043 0.88207
15060 -2.40130161 4.263435810000001 -1.39779747 0.7393890000000001 0.8032819999999999 -0.390039
15080 -2.2571534700000004 3.9869605800000003 -1.3594698 1.312965 -0.45593 -0.6066090000000001
15100 -2.6617669200000003 4.25669634 -1.33432677 -3.0765290000000003 1.089843 0.518702
15120 -2.35849077 3.59357958 -1.3927060800000002 -1.654583 -0.6453479999999999 -0.215829
15140 -1.90329696 1.4690475 -1.28372679 -2.342648 0.847385 0.309427
15160 -2.3366439000000003 3.2087234700000002 -1.58624757 -3.291461 2.531732 1.360317
15180 -2.2221317700000003 3.9152592900000003 -2.27047545 -2.5103560000000003 1.336063 1.323508
15200 -2.6381150100000004 3.5139420000000006 -2.9708702100000006 -2.644493 1.365217 0.809787
15220 -3.1931550000000004 3.80299365 -3.23746677 -2.998323 1.083495 0.440208
15240 -3.9291796800000003 4.72268115 -4.7187865800000015 -3.049808 1.23186 0.4118850000000001
15260 -5.239108980000001 7.72962273 -7.315738830000001 -2.789796 1.576351 0.35130300000000003
15280 -5.2338704400000005 16.797172500000002 -11.817322200000001 -2.070462 1.516782 0.238899
15300 -8.99315073 19.76579622 -13.070216160000001 -1.427468 1.131333 0.16910899999999998
15320 -7.077885570000001 5.68458108 -11.78275176 -1.1962700000000002 0.51084 0.094607
15340 -4.251310650000001 1.2783410999999998 -6.71383647 -1.142036 0.111773 0.210865
15360 -2.24203626 5.94982386 -5.069660850000001 -1.24036 0.082254 0.218762
15380 -4.069737360000001 12.75766956 -1.9860737400000001 -1.34633 0.049421 0.262929
15400 -9.362281410000001 21.88822896 -2.06241516 -1.454773 -0.191663 0.173818
15420 -7.04091168 11.68080624 -0.06691401 -1.573653 -0.216169 0.011718
15440 1.39555098 -6.8473603800000005 10.72894194 -1.6395369999999998 -0.092738 -0.161953
15460 -6.41640708 6.64033995 -1.2880726200000001 -1.302805 -0.008436 -0.223802
15480 -3.1211594100000006 16.44584697 -7.06126743 -0.5604979999999999 -0.05898 -0.215347
15500 2.8193841900000005 15.83077959 2.05433172 -0.159996 0.384454 -0.099887
15520 -3.52501749 9.21723075 0.90770949 -0.074192 1.018822 -0.04028
15540 -5.2750332 7.241486940000001 -1.4480933400000002 0.317523 0.8966569999999999 -0.198689
15560 -4.1763132 7.50973158 -0.34442910000000004 0.860401 0.50322 -0.315101
15580 -4.06015299 8.09052282 0.057633750000000004 1.771681 0.600039 -0.009758
15600 -2.78360712 8.99748675 0.58423455 2.582758 0.606035 0.184975
15620 -1.4774252399999999 9.16604217 1.35138636 3.116136 0.965707 0.086759
15640 -0.7471001700000001 8.64602388 1.32833286 2.695565 0.615891 0.020176
15660 -0.60923043 8.18303112 0.52480557 2.606833 0.349727 -0.207634
15680 -1.2913687800000002 8.32090086 -0.56313324 3.424253 0.99818 -0.30850900000000003
15700 -1.18478313 8.344248660000002 -1.0075556700000001 3.69079 1.408542 -0.330674
15720 -1.3181598900000002 8.49318408 -0.7803266400000001 3.3610300000000004 -0.001093 -0.774483
15740 -1.5416415 8.55112194 -0.20567646 3.037673 -2.18675 -0.566706
15760 -1.9443027600000002 8.596473569999999 -0.37556604 3.639814 -1.42901 -0.37226
15780 -2.270034 8.49318408 -1.08839007 3.726402 -0.775799 -0.230418
15800 -2.37915063 9.787093650000001 -1.15050699 3.4896 -0.7673979999999999 0.005062
15820 -2.01884895 10.38405177 -1.36156914 2.763379 -1.08797 0.08265299999999999
15840 -1.3298337900000001 12.20382639 -1.1642802300000001 1.873146 -1.310211 -0.045057
15860 -1.13538978 13.762527480000001 -0.51837021 0.860834 -1.171909 -0.186902
15880 -3.6988114500000004 13.254340050000001 -0.5793001200000001 0.175127 -0.816053 -0.138736
15900 -4.48242444 13.23008973 -1.8678141900000003 -0.297846 -0.536841 -0.022757
15920 -3.00380238 12.084821280000002 -1.58684598 -0.6796770000000001 -0.326394 0.161245
15940 -0.58767786 11.069633430000001 0.21914559000000003 -1.043971 -0.275695 0.318869
15960 -1.3039353900000001 10.958113350000001 0.44338257000000003 -1.291991 -0.24345100000000006 0.462373
15980 -4.50712602 13.725112140000002 2.01750498 -1.506471 -0.309472 0.6414890000000001
16000 -4.810696470000001 12.106521 3.2356715400000002 -1.49293 -0.440207 0.8222809999999999
16020 -4.01285898 13.45521942 1.04661909 -0.27775 -0.505128 0.287127
16040 -3.4281731700000004 12.64555107 1.16473149 2.266554 0.206555 -0.60507
16060 -4.54155912 13.01333778 -1.48775517 2.089896 -0.376828 -0.814928
16080 -5.04421371 12.456492750000002 -1.4153083200000003 1.470718 -1.48725 -0.177965
16100 -5.27144274 10.66801203 1.2609774000000002 0.194646 -1.469934 0.326914
16120 -2.8692288 10.376723700000001 1.65555522 -0.5811310000000001 -0.987799 0.841102
16140 -2.4920146800000005 9.66719583 0.7331797800000001 -0.695208 -0.997723 1.290039
16160 -2.9425781700000004 8.04232629 -0.9247788900000001 -1.133838 -0.459892 0.904931
16180 -3.2141189700000004 4.96801944 -1.42129242 -0.216366 1.426166 -0.285349
16200 -2.44695735 2.99841669 -1.43027838 0.455915 -0.452195 -0.531415
16220 -3.10020525 3.1213065600000003 -1.67681349 -2.513299 1.4568219999999998 0.432436
16240 -3.0347921700000002 3.7032946200000003 -1.9699068600000003 -1.703955 -0.4149850000000001 0.55906
16260 -2.44127736 3.12594669 -2.1751222500000003 -2.850134 1.546541 0.930964
16280 -1.97050527 2.6550274500000004 -2.3992120800000003 -3.148426 2.034015 1.560643
16300 -1.8389237400000003 3.10379571 -2.72822967 -2.694707 1.3591799999999998 1.296553
16320 -2.1564145800000003 3.8622656699999998 -3.55285827 -2.843251 1.657182 0.695861
16340 -2.6930510100000005 4.97505321 -5.313645360000001 -3.053369 1.442473 0.226788
16360 -3.8537407800000003 7.92811827 -8.458613640000001 -2.88743 1.607923 0.266191
16380 -6.1927685100000005 13.416597450000001 -11.585305890000003 -2.432963 1.848119 0.27760300000000004
16400 -9.851015610000001 16.388066070000004 -10.9232388 -1.7994720000000002 1.285713 0.246429
16420 -7.302416850000001 7.52934177 -10.21176855 -1.312263 0.534959 0.290319
16440 -4.43767122 0.58394025 -8.179587810000001 -1.358271 0.078987 0.338652
16460 -3.8687010300000004 4.416717060000001 -7.3786013100000005 -1.537691 0.149474 0.449471
16480 -4.4020413000000005 5.210659980000001 -3.6609350400000005 -1.692055 0.245799 0.4707020000000001
16500 -4.61475153 7.52200389 -3.28671297 -1.787512 0.261487 0.359989
16520 -5.48010144 16.04438253 -0.2951829 -1.741062 0.044332 0.013419
16540 -9.11903265 25.17180273 2.45728728 -1.779368 -0.092314 -0.14690699999999998
16560 -5.8642021799999995 0.54067815 1.3810321799999998 -1.762342 -0.086046 -0.130772
16580 -1.3696525800000003 -0.25312743 3.66932259 -1.169056 0.004287 -0.058378
16600 -5.54447466 10.96754076 -9.58291812 -0.316475 0.124525 0.036086
16620 0.65204127 17.230813740000002 -0.32258223 -0.153926 0.700317 0.291788
16640 -0.64156419 11.70296703 1.22819238 -0.218724 1.041266 0.33256
16660 -3.70120509 7.536228390000001 -2.11480056 0.027915 0.540954 0.027276
16680 -5.197338000000001 6.2646267600000005 -1.0955709900000001 0.516601 0.546729 0.024272
16700 -5.22847494 7.05588174 -0.6599775600000001 1.298944 0.8200440000000001 -0.005865
16720 -3.81347073 7.83590427 0.57390462 2.117069 0.900863 0.119387
16740 -1.4432962500000002 8.649163080000001 0.9848062800000001 2.6845790000000003 0.932669 -0.067901
16760 0.22318731000000003 9.4169133 0.6394746600000001 2.97922 0.67186 -0.368884
16780 0.47182176000000003 9.27665973 0.04850064 3.450456 0.654859 -0.787518
16800 -0.23156505000000002 9.33937506 -0.42377238 3.989159 1.457785 -0.915107
16820 -1.07327286 9.58681269 -0.0378666 3.849651 1.959182 -0.707353
16840 -1.674567 8.167913910000001 0.41808258000000004 2.935041 -0.138656 -0.37029
16860 -2.7825672600000004 7.878420810000001 -0.210915 2.913943 -1.972081 -0.596688
16880 -3.4244257500000006 7.768843110000001 -0.30746502000000003 3.604239 -2.168516 -0.556363
16900 -3.64416975 8.08543143 -1.1868824699999998 3.616413 -1.593212 -0.314529
16920 -2.00343744 9.34446645 -1.5015284100000001 3.2860160000000005 -1.306352 -0.10356
16940 -0.29623257000000003 10.23167304 -0.9578582100000002 2.784193 -1.347394 -0.061079
16960 -0.43035489 11.483674290000002 -0.54352305 2.199116 -1.340433 0.037375
16980 -1.42084116 12.30516369 -1.9293425100000001 1.46955 -1.358954 -0.02645
17000 -3.7998446400000003 12.4705701 -0.49277592000000003 0.731984 -0.972837 -0.04171
17020 -5.54806512 12.88550367 -0.5551969500000001 0.188083 -0.651506 -0.007465
17040 -4.34980305 11.18818728 -1.9842785100000002 -0.243215 -0.314024 0.152527
17060 -1.5935854500000002 11.050621650000002 -0.48334851000000006 -0.743737 -0.126745 0.37205
17080 0.04161402 10.29962691 2.1718359 -1.326594 -0.088946 0.48223
17100 0.1240965 12.04320726 2.16135882 -1.883397 -0.193964 0.587434
17120 -4.24621926 15.746060430000002 3.6160346700000003 -2.281667 -0.473815 0.8531340000000001
17140 -5.703592860000001 12.69046125 3.6019573200000004 -2.142516 -0.838551 1.101333
17160 -4.29816321 12.3609924 1.711845 -0.914544 -1.047821 0.423312
17180 -1.85240268 12.973518990000002 -0.51896862 2.00335 0.76244 -0.59587
17200 -2.9964645 14.0150565 -2.77582779 2.226823 0.349592 -0.642918
17220 -2.3772082500000002 14.365773810000002 0.8119148400000001 1.40903 -1.443255 0.061898
17240 -2.2986203400000003 11.822266440000002 1.3521417299999998 -0.207143 -2.354501 0.7717579999999999
17260 -3.36425121 8.98805934 0.5977036800000001 -1.172771 -1.640468 1.267231
17280 -2.8035214200000005 7.8279679799999995 -0.13965516000000006 -1.338324 0.154069 0.725391
17300 -2.3543019000000003 6.39275517 -0.76865274 -0.61569 1.971138 -0.6253270000000001
17320 -2.24234037 4.73016618 -1.1843416800000002 2.3368990000000003 -1.271184 -0.881491
17340 -2.5773420600000003 3.1085829900000004 -1.15545123 -2.862482 1.974138 0.304352
17360 -2.9011211100000005 3.4820595 -1.46754657 -2.5792900000000003 -0.05006 -0.16323
17380 -2.80277586 3.4401413700000005 -1.5881997600000002 -2.470006 -0.504654 0.470503
17400 -2.53438407 2.74947813 -1.5566115600000001 -3.300603 2.512016 1.237433
17420 -2.56506975 2.77403256 -1.75165398 -2.816916 2.606171 1.248168
17440 -2.81549943 3.60150606 -2.8428889500000003 -2.406502 1.475863 0.905311
17460 -2.87806761 3.45526839 -3.3183011700000002 -2.7576810000000003 0.385374 0.323143
17480 -3.27534318 3.2927068800000003 -4.0951845 -2.815491 1.187189 0.457376
17500 -3.9270803400000003 4.40384634 -5.986346490000001 -2.498519 2.096088 0.394332
17520 -4.26178773 10.23825555 -9.524391660000001 -1.880053 1.810468 0.422519
17540 -6.44769117 20.419632720000003 -11.23877745 -1.319107 0.675592 0.292227
17560 -10.95287481 16.0163946 -10.140959969999999 -1.489349 -0.235433 0.227044
17580 -5.5320453899999995 0.85472568 -8.908274610000001 -1.654439 -0.044693 0.355969
17600 -3.68264457 1.12969998 -8.15504319 -1.68857 0.385984 0.309245
17620 -0.6869256300000001 4.11224409 -4.62134385 -1.6821669999999995 0.395404 0.07961
17640 -3.7741032000000003 9.57109707 -1.9956483 -1.807852 0.047064 -0.07891799999999999
17660 -9.05107878 25.835822010000005 2.8050125400000003 -2.042576 -0.042314 -0.168037
17680 -8.48001906 22.6884699 1.93922118 -1.854656 0.389837 -0.243122
17700 -0.90861201 -4.77386973 3.68533251 -0.6985560000000001 0.271932 -0.264806
17720 -2.6391646800000004 0.31658832000000003 2.87132814 0.118817 0.157918 -0.16708299999999998
17740 -7.011422820000001 13.388609520000001 -9.474252750000002 0.210854 0.921557 0.060112
17760 -0.56088675 22.056185969999998 0.9187849800000001 0.2713 1.280482 0.025892
17780 -1.34764875 13.26960441 3.1335788700000005 0.8325040000000001 1.057862 -0.199571
17800 -5.78651679 7.97720751 -0.27063828 1.723305 0.683591 -0.082842
17820 -6.00910569 6.0011694 -2.44321974 2.676038 0.401457 0.115386
17840 -5.19554277 4.62223656 -1.2593293200000002 3.310261 1.331879 -0.010631
17860 -2.94482466 6.718927860000001 0.01975734 3.3191 1.645007 -0.002425
17880 -0.35461188 9.16064667 0.8684891100000001 3.140669 1.1860879999999998 -0.16758900000000002
17900 0.5724135 8.788376790000001 0.79769034 3.77202 1.685312 -0.084771
17920 0.0013439700000000003 7.015611689999999 0.04295799 3.57317 1.08862 0.12184
17940 -1.21831371 6.366415320000001 -0.33934752000000007 3.0230360000000003 -1.059755 0.26068800000000003
17960 -0.83990277 7.613766630000001 -0.8704413 3.4913760000000003 -3.292883 -0.06753300000000001
17980 -0.92777094 7.510182840000001 -0.19908414 3.819651 -3.076918 -0.014242
18000 -2.54754909 7.6034367000000005 0.6535422000000001 3.541861 -2.174783 0.264672
18020 -3.1753498500000004 8.38466586 -0.49711194 3.160365 -1.423145 0.440505
18040 -2.64964176 9.77692068 -1.4317695000000001 2.586949 -1.826791 0.38147
18060 -2.33499582 11.05301529 -1.6184341800000002 1.883 -2.133874 0.26371500000000003
18080 -1.9297839600000002 11.29416471 -2.40729552 1.229371 -1.730321 0.34409
18100 -0.7819747200000001 13.195362330000002 -1.6994157300000001 0.707952 -1.382582 0.14879
18120 -2.6452959300000005 12.74001156 -1.07132067 0.186451 -0.943562 0.302682
18140 -5.451210990000001 11.762690310000002 -1.7262068400000001 -0.39871 -0.658803 0.460599
18160 -3.57442065 10.242002970000001 -1.1126403900000001 -1.04882 -0.389616 0.573218
18180 -0.71625753 10.21640868 0.74095911 -1.833437 -0.208095 0.614506
18200 -0.22663062000000003 11.924800560000001 1.84401513 -2.3150470000000003 -0.193025 0.726491
18220 -2.94781671 15.991398720000001 2.65787235 -2.010454 -0.26788 0.5342979999999999
18240 -6.62656671 16.58984796 4.7841996600000005 0.019911 -0.580541 -0.025823
18260 -6.58540395 14.70512133 3.0455635500000007 2.687094 0.199956 -0.651262
18280 -3.15678933 13.970146320000001 2.13800121 1.928738 0.045959 -0.377556
18300 -3.2626196100000002 16.881293250000002 -0.7429014899999999 0.843198 -1.7755189999999998 0.526253
18320 -3.5096059800000003 16.635052440000003 0.98225568 0.2015 -2.686496 1.389266
18340 -2.42720001 12.682829070000002 1.7107953300000003 0.206606 -1.701372 1.7149150000000002
18360 -3.47247513 9.808351920000002 0.48155328000000003 0.777829 0.650937 0.643396
18380 -2.75097906 7.73846154 0.35087427000000004 1.160691 -0.32782100000000003 -0.543743
18400 -1.7248628700000002 5.5733553 -0.5751014400000001 -1.892663 0.7233729999999999 -0.236337
18420 -1.8675198900000003 3.4640973900000005 -0.2718351 -1.231619 -1.0146700000000002 -0.930246
18440 -1.8187151400000001 2.1116613600000003 -0.058232160000000005 -3.036677 0.943405 -0.190131
18460 -2.0275308000000005 1.66109787 0.33605136 -4.436789 2.692241 1.6405310000000002
18480 -2.04699384 2.2150980000000002 -0.38230551 -2.8526740000000004 0.99512 1.899462
18500 -1.9685530800000002 2.4987541500000003 -0.38515041 -2.837369 0.704681 1.524995
18520 -1.85509062 2.8307637900000002 -0.77599062 -3.397031 0.467025 0.7042010000000001
18540 -2.31703371 3.58534899 -2.18200887 -3.050877 1.369683 0.312356
18560 -3.26171709 3.0370386600000003 -3.71137806 -2.438588 1.986762 0.24320300000000006
18580 -4.61326041 5.03462934 -5.78786076 -1.899652 1.64668 0.107466
18600 -6.823855620000001 8.181540000000002 -7.79354469 -1.229275 0.5640649999999999 0.13276400000000002
18620 -6.3342287100000005 17.24084937 -10.481053049999998 -0.943895 -0.230717 0.173164
18640 -7.76614536 17.84334033 -13.983321150000002 -1.086286 -0.224298 0.289665
18660 -3.8306872800000002 7.74414153 -11.78948142 -1.367499 0.210918 0.387556
18680 -2.45264715 2.7792711000000003 -8.98476318 -1.559451 0.357973 0.276
18700 -1.81706706 6.14427768 -6.333326189999999 -1.6149440000000002 -0.078873 0.078551
18720 -0.7831715400000001 11.19387708 -2.76460515 -1.650755 -0.412442 -0.122097
18740 -4.766983110000002 20.60644455 -0.4564004400000001 -1.832611 -0.098404 -0.17611300000000002
18760 -8.09740944 17.47107045 4.16404089 -1.41172 0.040665 -0.154123
18780 -4.85096652 -7.713161550000001 11.39296122 -0.262424 -0.196408 -0.205612
18800 -9.94202298 3.1008036600000004 -4.38003747 0.164102 0.211345 0.019035
18820 -1.4542245900000002 16.5373056 -7.76211345 0.121871 1.124023 0.121188
18840 3.6890799300000006 21.57178779 2.8349526600000003 0.327176 0.8914719999999999 0.023576
18860 -3.2343275700000005 13.57123248 2.27676366 0.698152 0.227006 -0.097964
18880 -5.38729884 8.03574378 -1.1220678 1.568505 0.500703 0.232505
18900 -5.361704550000001 5.6276928900000005 -0.10537902 2.356243 0.769917 0.423533
18920 -5.335659000000001 5.3015300100000005 0.3529638 2.919064 0.7079949999999999 0.236332
18940 -3.67605225 7.265737260000001 0.49411989 3.027373 0.350555 -0.246358
18960 -1.32504651 9.49969989 0.9618999300000001 3.4161870000000003 1.466312 -0.420261
18980 0.0811287 8.84795292 0.9931840200000001 3.757378 2.607092 -0.417203
19000 -0.6063855300000001 7.75282338 -0.10269108 2.994748 1.655557 -0.227962
19020 -0.7625116799999999 7.539367590000001 -1.36186344 2.860615 -0.627073 -0.441755
19040 -0.33710102999999997 7.6899609 -1.13988276 3.463332 -2.22539 -0.5967979999999999
19060 -0.71206866 7.44806592 0.39607875000000003 3.629263 -1.900905 -0.6345109999999999
19080 -2.10282255 7.647601320000001 1.13763627 3.280703 -1.015927 -0.5323260000000001
19100 -3.3952410000000004 8.25233877 0.3239262 2.861711 -0.991818 -0.337662
19120 -3.0719132100000004 8.99779086 -1.5609573900000002 2.3723810000000003 -1.019495 -0.451072
19140 -1.35618345 9.492656310000001 -1.83877659 1.6738959999999998 -1.134441 -0.404529
19160 -0.12139875000000001 10.687622220000002 0.19923129 0.985604 -1.07712 -0.555756
19180 -0.32722236 12.7774269 -1.3132156500000003 0.222713 -0.740422 -0.4450810000000001
19200 -2.1125540700000003 13.47108219 -0.90007731 -0.408719 -0.264982 -0.24607
19220 -4.915025820000001 12.983701770000001 -1.75300776 -0.947338 -0.142966 0.076887
19240 -3.89639466 12.8266731 -2.5815309300000004 -1.4377799999999998 0.035263 0.419337
19260 -1.34540226 13.0287591 0.11092167 -1.956831 0.19361 0.697519
19280 0.10792962 11.5827651 2.08201554 -2.267918 0.080716 0.96041
19300 -3.5953748100000005 12.38734206 1.2493035 -1.910246 -0.39434 0.902628
19320 -6.547233240000001 12.548706750000001 1.1000639700000001 0.278294 -0.901469 0.08642000000000001
19340 -5.8187034 11.31033159 2.53482552 3.000265 0.117682 -0.860477
19360 -4.185897570000002 14.325209460000002 3.04931097 2.260127 -0.00872 -0.5770649999999999
19380 -3.9562749 14.310543509999999 -0.61776513 1.908737 -2.061808 0.06831799999999999
19400 -4.88823471 14.86648602 -0.33291216 0.967125 -3.044433 -0.070528
19420 -4.64184675 13.68034911 1.26247833 1.860808 -1.23464 -0.550509
19440 -3.8070353700000004 10.60379577 0.7984359000000001 1.660934 0.093669 -0.088931
19460 -3.4886420100000004 9.02278674 0.62644698 -4.658988 1.848416 1.3324120000000002
19480 -2.7324185400000003 7.709718240000001 0.20178189000000002 -1.959325 0.100554 -0.270188
19500 -1.9859167800000002 6.004759860000001 -0.06811083000000001 -1.470307 0.006998999999999999 -0.208968
19520 -1.72396035 4.617302130000001 -0.36628578000000006 -3.20897 2.269573 0.782253
19540 -2.18111616 3.11382153 -0.16780005000000003 -2.748508 1.154077 0.953541
19560 -2.4378340500000006 2.59275357 -0.98524773 -2.9897 0.498305 0.787122
19580 -1.72965015 2.14923366 -0.74514798 -3.3489 1.035555 1.0103879999999998
19600 -1.90389537 2.16913815 -1.3208576400000003 -3.31842 1.472907 0.836988
19620 -2.06091423 2.39576877 -2.15028333 -2.764076 1.924373 0.675776
19640 -2.18979801 3.16786482 -3.51663975 -2.530344 1.277593 0.24667600000000006
19660 -3.02011641 3.14765622 -4.93329204 -2.120355 0.741804 -0.119379
19680 -4.422701160000001 5.277878100000001 -7.1739843300000015 -1.538109 0.531688 -0.027448
19700 -5.546711340000001 10.42776513 -9.33099732 -1.2676889999999998 0.209927 0.016513
19720 -8.05250907 20.80193823 -10.35890874 -1.337593 -0.108519 0.059162
19740 -10.48210272 18.41769621 -10.09530423 -1.384298 -0.243843 0.108148
19760 -4.92370767 2.5415649900000004 -9.77032836 -1.233822 -0.253875 0.088915
19780 -8.58030669 6.874455600000001 -9.09029916 -1.161849 -0.255808 -0.022743
19800 -8.32209768 17.713710990000003 -6.7180253400000005 -1.288822 -0.453678 0.019353
19820 -2.6647589700000003 12.28001085 -4.7903407200000006 -1.637969 -0.438917 0.093807
19840 -2.6210456100000004 -3.8660130900000005 7.09898688 -1.664454 -0.035695 -0.020126
19860 0.046107 -1.5705319500000001 12.03601653 -1.262335 -0.34476100000000004 -0.068196
19880 -10.72519452 17.03846907 -5.85821808 -0.4839189999999999 -0.449689 -0.077579
19900 0.93150855 18.74432016 -2.02528431 -0.097025 0.59741 -0.12963
19920 0.7039852200000001 11.182046220000002 0.16585766999999998 -0.095585 1.000701 -0.285029
19940 -5.29314246 6.17855382 -2.7039793500000004 0.207503 0.214915 -0.378045
19960 -5.0368758300000005 6.430327470000001 -2.40010479 0.977301 0.158858 -0.080971
19980 -3.50271936 10.29798864 -0.71101899 1.933753 0.924058 0.338131
20000 -2.5445570400000004 10.34438994 -0.6072880500000001 2.651675 0.9002610000000001 0.338903
20020 -2.28245346 8.85438828 -0.07784234999999999 2.929091 0.388025 0.05841900000000001
20040 -2.2329031500000003 7.9674858 -0.06960195000000002 3.390181 0.852159 0.0065650000000000005
20060 -2.3414311800000007 7.5854745900000005 0.21720321 3.887531 2.100972 0.030872000000000007
20080 -2.22586938 7.55119845 -0.23920704 3.2485150000000003 1.871093 0.26278
20100 -1.58969088 7.8185405700000015 -0.9294190200000001 3.059856 1.059508 0.121497
20120 -0.8327218500000001 7.5109284 -0.9804604500000001 3.5319580000000004 -0.94692 0.373056
20140 -1.01758149 7.24523436 -0.99452799 3.849131 -3.136569 0.491309
20160 -1.75300776 7.77363039 -0.5445629100000001 4.056994 -3.264882 0.164981
20180 -2.3019165 8.86606218 -0.50026095 3.676736 -2.166364 0.173736
20200 -2.37885633 8.738532180000002 -0.91070154 3.097125 -1.414809 0.275547
20220 -1.90523934 9.16095078 -0.8182030499999999 2.317894 -2.089164 0.160941
20240 -1.8359316900000002 10.1051829 -0.39742272 1.791166 -1.900317 0.277729
20260 -2.270034 11.56480299 -0.8809183800000001 1.290555 -1.193552 0.323533
20280 -1.67860872 11.84456457 -1.13448726 0.5625060000000001 -0.6633560000000001 0.233379
20300 -1.8851778900000002 13.12500501 -0.015568470000000001 -0.0035210000000000007 -0.296076 0.251387
20320 -4.45878234 13.33786239 -0.43289568 -0.349887 -0.140695 0.32247600000000004
20340 -3.94534656 12.541074570000001 -1.14137388 -0.6792 -0.228249 0.391859
20360 -1.0795512600000001 13.92015456 1.05890121 -1.172713 -0.345913 0.40779
20380 0.49607208 11.712992850000001 3.0292495200000005 -1.9344 -0.245591 0.488867
20400 -4.13320806 11.848311990000003 0.6560829899999999 -2.2667 -0.34026300000000004 0.7419720000000001
20420 -6.33572964 11.890524420000002 -1.11847734 -1.862344 -0.813591 0.7443350000000001
20440 -4.935832830000001 10.622954700000001 1.67186925 0.441047 -0.791167 0.06712
20460 -3.9808195200000003 16.142884740000003 2.8506682800000003 2.803099 0.54815 -0.713923
20480 -4.54275594 14.08705209 0.70428933 2.137539 -0.694234 -0.335625
20500 -5.417837370000001 14.35754322 0.44322561 1.339333 -2.7847310000000003 0.4615770000000001
20520 -5.49117693 13.13503083 1.02222162 0.625243 -2.561867 0.75861
20540 -3.2620212 12.036320640000001 1.9908610200000003 0.937412 -1.06596 0.689439
20560 -1.61589339 10.465337430000002 0.29159244 2.42658 0.116243 0.261424
20580 -2.9509657200000006 8.08498998 -0.41523768 -1.107412 -0.092471 0.374807
20600 -3.97737621 4.68315666 -0.40804695 -2.510214 1.7798770000000002 -0.171502
20620 -2.88883899 4.3758486 -0.9398961000000001 -1.177068 -0.912769 -0.620212
20640 -2.9572539300000003 4.39366356 -0.21345579 -2.870197 1.7883790000000002 0.411358
20660 -3.3322215600000007 3.94594497 -0.22393287 -3.076331 2.010862 1.161661
20680 -2.89857051 2.1802136400000003 -0.9967744800000001 -2.764825 1.170939 1.279213
20700 -3.0523030200000005 1.5988239899999999 -1.79132562 -2.85016 1.427795 1.056098
20720 -2.54306592 3.6307006200000003 -2.12902506 -3.268189 1.606387 0.7132539999999999
20740 -2.1146534100000003 4.17826539 -2.52015957 -3.182135 1.562153 0.5120180000000001
20760 -2.10896361 3.3753267 -2.37151845 -2.702769 1.428161 0.30509899999999995
20780 -2.7964876500000004 3.73667805 -2.8897415100000003 -2.3316630000000003 0.702271 0.09284
20800 -3.23507313 5.1263920800000005 -4.753818090000001 -2.073357 0.278358 0.11868900000000003
20820 -5.12099658 8.03603808 -7.5258984600000005 -1.722403 0.26860500000000004 0.122221
20840 -4.81727898 16.10186913 -11.100770370000001 -1.490261 0.367032 0.08205499999999999
20860 -7.788904560000001 19.28140785 -11.75176197 -1.493768 0.288256 0.07145
20880 -6.63644538 10.126588320000002 -12.434940180000002 -1.70697 0.14920899999999998 0.129959
20900 -2.1424941900000003 2.40310665 -8.592127740000002 -1.898994 0.313177 0.051496000000000014
20920 -3.18253077 5.873482439999999 -6.26896278 -1.864609 -0.132128 0.026669
20940 -4.23918549 11.845015830000001 -4.5991830600000005 -1.9974490000000005 -0.424882 0.092346
20960 -5.2735322700000005 17.74260144 -4.74798114 -2.11958 0.236721 -0.084543
20980 -3.53025603 7.880363190000001 4.39904925 -1.47561 0.203222 -0.257327
21000 -3.99834018 -1.3377700800000003 13.71597903 -0.480107 -0.112928 -0.114304
21020 -12.938497290000003 10.242454230000002 -3.39299451 -0.147005 0.731416 -0.031874
21040 -1.4579720100000002 15.68288403 -6.0917353200000015 -0.13790999999999998 1.426624 0.06450700000000001
21060 2.021841 16.05471246 0.02664396 0.181138 1.000205 -0.13461199999999998
21080 -3.80538729 10.730590020000001 0.24833034 0.909203 0.771239 0.016045
21100 -4.9713156000000005 7.82392626 -2.12618016 1.790952 0.899234 0.276277
21120 -4.57688493 7.69998672 -2.1980286 2.7244200000000003 1.130313 0.287842
21140 -2.85831027 8.32748337 -2.27437002 3.063744 1.341165 0.012204
21160 -2.15671869 8.55112194 -0.8372050200000001 3.1688650000000003 1.1493719999999998 -0.068001
21180 -2.03726232 7.93350396 -0.12288987000000001 3.392054 2.243303 0.031501
21200 -1.51454628 7.37411814 -0.2311236 3.3507839999999995 2.650004 0.125764
21220 -1.22594589 7.222033710000001 -1.2114270900000004 3.428265 1.670397 -0.052969
21240 -1.7488090800000002 7.62379245 -1.8661661100000002 3.485327 -0.5795899999999999 0.194935
21260 -1.3407621299999999 7.137461699999999 -1.5443392500000002 3.730242 -2.0995630000000003 0.205003
21280 -0.8616123 5.785467120000001 -0.07199559 4.032869 -1.7373470000000002 -0.062539
21300 -0.87941745 6.2266032 1.1088929699999999 3.68625 -0.760458 -0.302289
21320 -1.97484129 8.48151018 0.99004482 2.583007 -1.424803 -0.241846
21340 -1.81138707 9.07772274 -0.51088518 2.004794 -1.5998370000000002 -0.191181
21360 -2.1285738000000003 8.90273196 -0.9334607400000001 1.33883 -1.853318 -0.16025699999999998
21380 -3.24569736 9.34701705 -0.47316573 0.711136 -1.472903 -0.176879
21400 -2.77777017 10.2930444 -1.00351395 0.013919999999999998 -0.717975 -0.017143000000000002
21420 -0.39892365 12.323577060000002 -1.30228731 -0.513451 -0.27739899999999995 0.019202
21440 -0.55295046 13.411211760000002 -1.01833686 -0.917504 -0.003053 0.226467
21460 -3.7703557800000005 13.20359292 -0.54202212 -1.1797 0.049126 0.45851
21480 -3.37773015 11.4760323 -1.02312414 -1.59885 0.03702 0.65215
21500 -1.24181847 11.5625565 0.7581756600000001 -1.987319 -0.054999 0.823675
21520 -0.28336185 11.46106224 2.10147858 -1.7838040000000002 -0.386863 0.788134
21540 -4.501740330000001 11.865224430000001 1.0118916900000001 0.13563599999999998 -0.746855 0.17282
21560 -6.91023267 13.02935751 1.7943176699999999 2.410394 0.088114 -0.680825
21580 -6.30084528 13.616280000000001 3.23297379 1.855537 -0.00859 -0.525412
21600 -4.8238713 16.96856301 3.58010064 1.385902 -1.548859 0.117419
21620 -5.29688988 16.18225227 0.8870594400000001 0.577149 -2.440086 0.183415
21640 -6.201450360000001 15.881222610000002 -0.7951495500000001 1.274873 -1.886046 -0.444809
21660 -6.1804962 13.04777088 1.22684841 3.227992 -0.478529 -0.611363
21680 -3.72021687 11.63620017 1.6820520300000001 -2.388364 0.75878 0.661734
21700 -3.1431632400000002 8.98970742 0.5996558700000001 -1.912458 0.8906620000000001 0.302762
21720 -3.6507620700000003 6.09802353 -1.35138636 -1.66115 -0.012382 -0.258347
21740 -3.12235623 4.973405130000001 -0.93091014 -3.851909 2.480332 1.379969
21760 -2.6750889 4.1532597 -1.4167994400000001 -3.193226 0.952501 1.664265
21780 -1.83862944 2.2192868700000004 -0.7668575100000001 -3.343124 0.718064 1.547082
21800 -1.9270960200000002 1.63355139 -1.05694902 -3.80558 1.708492 1.218912
21820 -1.66079376 2.20865283 -0.64426194 -3.938754 2.330542 1.085793
21840 -2.1165957900000003 1.784439 -1.34270451 -3.428504 2.42546 0.8830690000000001
21860 -2.18126331 3.2983868700000003 -2.1742295400000007 -2.580416 1.938619 0.417462
21880 -2.48557932 3.0883743900000002 -2.82373002 -2.077589 1.135368 0.25643
21900 -2.8491771600000004 2.9722239900000003 -4.07482875 -1.509616 0.67879 0.190479
21920 -3.27219417 4.64155245 -6.236030610000001 -1.195121 0.5766899999999999 0.142601
21940 -4.55412573 8.948544660000001 -9.64997928 -1.302429 0.767383 0.233474
21960 -5.61048615 16.63131483 -11.88798363 -1.629991 0.524574 0.232565
21980 -8.96485869 16.92365283 -12.047700240000001 -1.7316 0.589312 0.115336
22000 -6.499487970000001 6.11283663 -9.6887484 -1.992353 0.6098819999999999 -0.007220999999999998
22020 -5.711676300000001 2.3920213500000003 -8.59497264 -2.05914 -0.158406 -0.159458
22040 -6.55261893 9.75087513 -6.69572721 -1.774209 -0.331104 -0.109177
22060 -6.730905870000001 19.51147197 -5.412441870000001 -1.1563450000000002 -0.019181 -0.061464
22080 -4.739142330000001 17.02948311 -2.3255684100000003 -0.44925 0.487201 0.030421
22100 0.96459768 -9.302254020000001 15.72659739 -0.29323 1.199663 0.213264
22120 -9.51870186 5.73741774 0.4326013800000001 -0.15824000000000002 1.211367 0.099892
22140 -5.85582444 20.549713320000006 -6.35503572 0.238358 0.576425 -0.234083
22160 2.1751222500000003 16.647334559999997 1.98891864 0.769656 0.422002 0.093498
22180 -4.185897570000002 10.53284985 0.14550192 1.445418 1.078806 0.424252
22200 -4.72387797 7.88290398 -2.5276446 2.131753 1.054541 0.569014
22220 -2.82237624 8.88476985 -0.7044364800000001 2.797071 0.475839 0.323371
22240 -2.99676861 9.29940912 -0.50714757 3.0654060000000003 0.739258 -0.248727
22260 -2.26374579 9.31168143 0.68303106 3.421061 1.742588 -0.516721
22280 -2.10417633 7.747584840000001 0.63378486 3.456524 3.218956 -0.521569
22300 -1.6151380200000003 6.6316581 1.37953125 3.160283 2.416496 -0.454244
22320 -1.3039353900000001 7.836502680000001 0.9759674700000001 2.942017 -0.047982 -0.407745
22340 -1.5832555200000002 8.08184097 -0.35116857000000007 3.225726 -2.207203 -0.410474
22360 -1.4690475 7.54371342 -1.10425284 3.5635230000000004 -2.025403 -0.612378
22380 -0.4918734 7.39717164 -1.39719906 3.369907 -0.7855270000000001 -0.684754
22400 -0.90741519 7.33609458 0.10119015 2.996823 -0.572908 -0.78484
22420 -2.06390628 7.068899610000001 1.0728215999999997 2.310798 -1.109312 -0.8466290000000001
22440 -2.6569796400000003 8.53704459 0.9657945 1.612842 -0.934241 -0.8656159999999999
22460 -2.17093338 9.53981298 -0.8074218599999999 1.037535 -0.8688100000000001 -0.745804
22480 -1.29495924 9.60268527 -1.9323345600000001 0.308064 -0.592286 -0.534405
22500 -0.8604154800000001 11.31856218 -1.81213263 -0.464397 -0.29149200000000003 -0.228265
22520 0.21180771 13.23906588 -0.41463927 -1.0626639999999998 -0.099156 0.143324
22540 -3.4326661500000006 13.77660483 -0.26465418 -1.420243 -0.03642 0.481508
22560 -4.584213 12.85646607 -1.6515135 -1.641627 -0.04451 0.831417
22580 -2.26239201 12.39722073 -0.45610614000000005 -1.837037 -0.120267 1.030975
22600 1.19840922 12.64061664 1.3941972 -1.626633 -0.409278 0.929198
22620 -1.1587375800000002 11.79951705 2.29697226 -0.145346 -0.877793 0.127228
22640 -4.932693629999999 12.61082367 0.86999004 2.344706 -0.088326 -0.722719
22660 -5.735926620000001 10.959457319999999 1.58879817 2.122614 0.192281 -0.6402399999999999
22680 -5.9857480800000005 11.894418990000002 2.18515788 1.356005 -1.222206 -0.02635
22700 -5.5642320000000005 14.52923784 3.3224900400000004 0.110703 -2.597701 0.309614
22720 -5.08178601 14.57788563 0.61941321 -0.133614 -1.938186 0.494001
22740 -5.072800050000001 14.37880149 -0.3924882900000001 0.725146 0.749948 -0.36016
22760 -4.10266953 12.29303853 1.46096406 1.259554 -0.001912 -0.612905
22780 -2.94707115 10.35890874 1.47653253 -2.091245 1.060384 0.371798
22800 -3.60854964 8.94794625 1.22520033 -2.058904 -0.602321 0.296175
22820 -4.1255660700000005 5.84743689 0.67434921 -2.479384 0.820118 0.320257
22840 -3.3289254000000006 5.39717751 -0.29069973 -3.786237 1.619642 1.575947
22860 -2.6200057500000002 4.86413154 -0.9692378100000001 -2.983585 1.241683 1.359848
22880 -2.3845461300000004 4.12646859 -0.7126670700000001 -2.910027 1.238084 1.130698
22900 -2.19668463 2.7419930999999997 -1.1693716200000002 -3.103568 1.519208 0.793564
22920 -1.8615259800000001 2.86130232 -1.6703781300000002 -2.96503 1.785741 0.62007
22940 -1.7648288100000002 2.62180098 -2.11135725 -2.5449 1.8274740000000005 0.475537
22960 -2.29517703 3.4408967400000003 -2.88151092 -2.04936 1.483608 0.258317
22980 -2.10343077 3.90148605 -3.8496990600000003 -1.67064 1.2574459999999998 0.277276
23000 -2.40265539 4.40653428 -5.29957782 -1.3682 0.8284239999999999 0.210503
23020 -3.4079645700000003 5.045106420000001 -6.93044127 -1.357452 0.143376 0.220002
23040 -5.22682686 9.43847568 -9.09209439 -1.46204 -0.043979 0.277196
23060 -7.639959330000001 16.93757322 -9.20122083 -1.471361 0.164151 0.184997
23080 -9.887391090000001 15.50236041 -10.409655870000002 -1.534349 0.08369700000000001 0.113089
23100 -6.00326874 1.2000573 -9.06215427 -1.679843 -0.323468 0.030341000000000007
23120 -5.27548446 0.43769277 -8.4129579 -1.861089 -0.383205 -0.058442
23140 -4.48662312 6.227348760000001 -4.00956282 -1.634678 -0.118643 -0.08176900000000001
23160 -6.102065250000001 14.713656030000001 -3.67770033 -0.7305560000000001 0.01232 -0.049984
23180 -8.11073142 26.088351030000002 0.48543804 -0.08846799999999999 0.062981 0.044167000000000005
23200 -4.1752635300000005 -0.6041390400000001 4.268968650000001 -0.09001 0.6077 0.220783
23220 -2.3685264 0.51028677 6.117476760000001 -0.15091300000000002 0.949257 0.106688
23240 -7.755226830000001 10.994184720000002 -10.721309760000002 0.140741 0.434117 -0.259151
23260 0.39278259 18.47353473 0.67224987 0.538034 0.404565 -0.139902
23280 -0.37855809 14.201269920000001 2.12917221 1.336941 0.49817 0.001223
23300 -4.73674869 8.55904842 -1.2073853700000001 2.043893 0.164547 0.235188
23320 -4.4878199400000005 7.12069641 -0.6354329400000001 2.717294 0.137979 0.168355
23340 -3.3247365300000005 8.2857222 0.28575549 2.875984 0.481681 -0.139693
23360 -2.9500632 9.02472912 0.6310871100000001 2.993096 0.722637 -0.5579270000000001
23380 -2.12123592 7.7505866999999995 0.42391953000000004 3.3104400000000003 1.971278 -0.601108
23400 -1.8799393500000001 7.10916966 0.5343899400000001 3.590211 2.6886080000000003 -0.410997
23420 -1.41320898 7.583679360000001 1.05395697 3.062462 0.444647 -0.363738
23440 -1.0523088900000002 8.418647700000001 0.35386632 2.75775 -2.383371 -0.438087
23460 -0.9500788800000001 7.95730302 -0.03562992 3.2588060000000003 -2.686776 -0.65532
23480 -1.0071044100000002 7.965680760000001 0.24833034 3.499467 -1.082423 -0.609761
23500 -1.54089594 8.52163308 0.48170043 3.127544 -0.910994 -0.5335300000000001
23520 -2.16435087 9.11409822 -0.13950801 2.61546 -0.952697 -0.582987
23540 -2.93599566 9.317371230000001 -1.3293825300000004 1.809687 -1.424193 -0.52285
23560 -2.55294459 10.25816985 -1.86437088 1.240738 -1.3715540000000002 -0.406182
23580 -1.6585472700000001 10.63418715 -1.63160901 0.6229600000000001 -1.069298 -0.332905
23600 -1.64253735 11.06064747 -1.4272863300000003 -0.019481 -0.703407 -0.168014
23620 -1.3974933600000001 12.16654839 -1.67157495 -0.533004 -0.281887 0.092778
23640 -2.141591670000001 12.73296798 -0.09609875999999999 -0.906329 -0.031178 0.32379
23660 -4.75740855 12.49586028 -0.2484873 -1.268834 -0.014745 0.524199
23680 -3.88606473 11.010351600000002 -0.9967744800000001 -1.764918 -0.07761699999999999 0.6927979999999999
23700 -1.6302552300000002 9.9025083 -0.88795215 -2.130815 -0.13030799999999998 0.866566
23720 -0.39607875000000003 11.034150660000002 0.24279750000000003 -1.717731 -0.44233 0.749142
23740 -0.9830012400000001 11.31751251 1.12401018 0.820425 -0.237233 0.007103
23760 -2.67598161 12.950769600000001 1.61604054 2.457692 0.63754 -0.923685
23780 -5.0464602 12.60813573 3.0626329500000002 1.807238 -0.116793 -0.331194
23800 -5.70658491 11.59862787 2.4984500400000003 1.008972 -2.528717 0.394848
23820 -4.75396524 12.53239272 2.73301695 -0.311992 -2.505905 1.162189
23840 -3.1469106600000005 12.85391547 1.05395697 -0.278511 -1.144935 1.246137
23860 -4.5771792300000005 14.2606989 -1.2376296 0.853349 1.486948 0.1034
23880 -3.4865524800000003 12.699741509999999 1.06488531 1.228432 -1.137757 -0.520868
23900 -3.3229413000000005 10.06581537 1.03644612 -2.610378 1.4338229999999998 0.407218
23920 -4.20281001 8.337214890000002 0.9168426000000001 -1.975342 -0.561033 0.022172
23940 -3.20573142 7.035221880000001 -0.19399275000000002 -2.925732 0.558301 0.3805
23960 -2.3999576400000002 6.57657495 -0.76176612 -3.62403 2.541643 1.301365
23980 -2.4719630400000003 5.946233400000001 -1.52353224 -2.536731 2.46383 1.436178
24000 -2.98808676 4.004618580000001 -0.67524192 -2.421797 1.493633 1.003458
24020 -3.0990084300000005 3.52756809 -1.2602318400000003 -3.257933 0.125367 0.510125
24040 -2.6020436399999998 3.18358044 -1.68834024 -2.963322 0.730093 0.6086159999999999
24060 -2.37885633 3.26081457 -1.8348820200000002 -2.409012 1.341741 0.615977
24080 -2.39038308 3.57246846 -2.27661651 -1.780261 1.351544 0.549854
24100 -2.8321077600000004 3.74880321 -2.84528259 -1.5129860000000002 0.461254 0.248419
24120 -3.2698005300000004 3.6146808900000003 -3.4865524800000003 -1.376873 -0.06990299999999999 0.292779
24140 -3.78831789 4.48706457 -5.36618772 -1.541333 0.038748000000000005 0.436769
24160 -5.585333310000001 7.826928120000001 -8.20653588 -1.6682580000000002 0.088978 0.240334
24180 -7.822729440000001 16.70376168 -9.564956010000001 -1.551132 0.160404 0.125692
24200 -10.89554517 17.8500798 -11.969857890000002 -1.645152 0.180661 -0.062998
24220 -6.32944143 3.2477967 -10.09245933 -1.692303 0.199628 -0.23640300000000006
24240 -3.38655915 -0.54067815 -8.39978307 -1.421114 0.195682 -0.283642
24260 -1.11083535 5.27383638 -4.61834199 -0.760634 -0.141604 -0.158956
24280 -4.02812334 11.243721690000001 -3.17684097 -0.241084 -0.243056 -0.014191
24300 -8.218209779999999 24.424113960000003 -1.2214627199999997 -0.107147 0.653323 0.281493
24320 -7.33475061 14.51816235 -0.9111528000000001 0.206783 1.057555 0.152845
24340 2.1427983000000004 -6.551873370000001 10.14500169 1.026064 0.605935 -0.038475
24360 -7.8162940800000005 5.471125290000001 0.5408253000000001 1.632491 0.383854 0.36022
24380 -2.9198287800000005 17.75338263 -5.65329699 2.128474 0.65141 0.419957
24400 3.99519117 19.768189860000003 3.8146675500000002 2.752907 0.692904 0.158278
24420 -3.01458357 11.30060007 2.7671459400000002 3.097136 0.837465 -0.326612
24440 -5.54192406 7.900120530000001 -2.01690657 3.347131 1.624792 -0.565156
24460 -5.24179692 6.625526850000001 -0.88630407 3.733032 2.612654 -0.454768
24480 -4.242923100000001 8.09276931 0.73407249 3.123577 1.410952 -0.175474
24500 -2.6665542 8.85049371 0.55624662 2.737997 -1.516219 -0.159462
24520 -1.2925655999999999 7.40540223 0.54202212 3.4787480000000004 -2.913171 -0.440917
24540 -0.76356135 7.15138209 0.13831119 3.843238 -2.447205 -0.60027
24560 -1.3090267800000002 7.494614370000001 -0.06301944 3.789048 -1.18254 -0.333077
24580 -1.63534662 7.1087184 -0.71101899 3.18703 -1.092647 -0.180369
24600 -1.18717677 7.759709999999999 -0.8759741400000002 2.453787 -0.980125 -0.244387
24620 -0.9812060100000001 7.9257148200000005 -0.37811664000000006 1.802308 -1.260584 -0.139619
24640 -1.64418543 7.86854214 -0.30910329 1.229007 -1.191138 -0.225966
24660 -2.70966915 8.09546706 -0.24773193000000002 0.520045 -0.661004 -0.051068
24680 -2.5445570400000004 9.668392650000001 -0.85367601 -0.084004 -0.388628 0.023412
24700 -1.99624671 10.64556675 -2.2472748 -0.60826 -0.307601 0.194835
24720 -0.58543137 11.382327179999999 -1.6880361300000002 -1.07029 -0.353693 0.39997
24740 0.24040386000000002 12.781017360000002 -0.20223315000000003 -1.614629 -0.258637 0.54346
24760 -2.70802107 12.89822724 0.5728549500000001 -2.152457 -0.15925999999999998 0.6666949999999999
24780 -4.98268539 12.403803240000002 -0.83107377 -1.899819 -0.366055 0.7467050000000001
24800 -2.36792799 12.817549800000002 1.39823892 -0.4113520000000001 -0.658724 0.185978
24820 0.07244685 11.936631420000001 1.2205602 2.11559 -0.010902 -0.70519
24840 -3.3980859000000003 13.45072644 0.92013876 1.891165 0.131715 -0.478341
24860 -7.028786520000001 13.41795123 2.33035569 1.169506 -1.7079380000000002 0.392781
24880 -5.491932300000001 11.42783577 2.90306349 -0.020405 -2.792989 1.0406799999999998
24900 -4.66415469 13.25418309 2.90351475 -0.212448 -1.82926 1.293409
24920 -3.0867263100000004 14.13839763 1.42279335 0.160863 0.394875 0.212126
24940 -4.39126992 15.42078045 0.90995598 2.479479 -0.043815 -0.515667
24960 -3.6896783400000004 13.969852020000001 2.5267420800000004 -1.0255379999999998 -0.096403 -0.044428
24980 -2.9542520700000003 11.699965170000002 1.67815746 -2.82592 0.945531 0.160647
25000 -3.3033311100000002 9.91373094 0.6342263100000001 -1.345008 -1.234795 -0.130658
25020 -3.64806432 7.025490360000001 -0.6149202300000001 -3.3193839999999994 2.168911 1.2751290000000002
25040 -2.9548504799999997 4.99107294 -1.4123162700000003 -2.748821 2.044825 1.441643
25060 -2.4417188100000002 4.8081556800000005 -1.08389709 -2.577976 1.0388540000000002 1.115113
25080 -2.2179330900000003 3.2169638700000003 -0.44577621000000006 -2.891878 0.393582 0.51768
25100 -2.56476564 2.7643010400000003 -1.0792569600000002 -3.162315 0.8945290000000001 0.419009
25120 -1.82784825 2.93688837 -1.21278087 -2.913581 1.773043 0.5542159999999999
25140 -2.2571534700000004 2.14713432 -1.3389669 -2.457887 1.684577 0.437872
25160 -2.4956149499999998 3.4151454900000004 -1.59807843 -1.8278330000000005 0.8334870000000001 0.408112
25180 -2.5251038100000005 3.98681343 -2.24518527 -1.402744 0.00305 0.186751
25200 -2.75097906 3.6706665600000004 -3.6354878999999998 -1.329257 -0.146813 0.303892
25220 -3.4889461200000005 4.8521633400000015 -6.56055522 -1.357557 0.216492 0.317116
25240 -5.45420304 8.47597734 -9.724378320000001 -1.426561 0.379263 0.16473800000000002
25260 -7.48024272 16.57308267 -10.50889383 -1.588242 0.2244 0.13817000000000002
25280 -9.3241107 15.2845686 -11.44235457 -1.795275 0.083954 0.008717
25300 -4.40818236 4.8083028300000015 -10.61996265 -1.884916 -0.044136 -0.115659
25320 -2.84693067 1.4519781 -9.42649767 -1.556777 -0.156033 -0.12283800000000003
25340 -1.95314157 5.978714310000001 -5.22818064 -0.5963970000000001 -0.235491 0.000409
25360 -5.113070100000001 12.90601638 -3.26530755 -0.073155 -0.029996 0.105281
25380 -7.96134474 24.30420633 0.5203224 -0.13584300000000002 1.163646 0.292389
25400 -6.478229700000001 14.74822647 -0.8186445 -0.044006 0.952263 0.061497
25420 1.0681814699999999 -7.061865840000001 9.59056011 0.30276 0.406897 -0.252643
25440 -8.366546790000001 5.092861500000001 1.2590350200000002 0.731356 0.475173 -0.116209
25460 -2.58871185 17.900228520000002 -6.734643480000001 1.559862 0.467636 -0.015341
25480 4.86278757 21.5026371 2.8839045600000004 2.238469 0.228952 0.210827
25500 -3.9046350600000013 10.57042215 3.39928272 2.74483 0.498226 0.098651
25520 -6.355182870000001 7.04225565 -1.99145943 2.734456 1.101908 -0.076315
25540 -5.050344959999999 6.370300080000001 -1.99669797 2.891591 1.293456 -0.427976
25560 -4.34186676 7.984251090000002 -0.6059440800000001 3.601909 2.134908 -0.4817770000000001
25580 -2.37211686 9.257795100000001 0.01542132 3.655457 1.695974 -0.252241
25600 -1.0674261 7.94981799 0.67704696 2.726153 -1.269169 -0.12567799999999998
25620 -0.41418801000000005 7.17203214 0.8240400000000001 3.062159 -2.90899 -0.326328
25640 -1.41021693 7.5365325 0.4596966 3.429619 -2.454911 -0.44612
25660 -1.7604927899999998 7.32965922 -0.47062494000000005 3.325739 -1.080493 -0.409083
25680 -1.0464719400000002 7.63098318 -0.7743425400000001 2.985206 -0.801611 -0.325293
25700 -0.86430024 7.93649601 -0.62689824 2.580432 -1.187741 -0.382105
25720 -1.76692815 8.06193648 -0.14340258 1.991217 -1.472208 -0.128415
25740 -2.5945586100000004 8.655902549999999 0.33066567 1.353342 -1.483567 0.06797
25760 -2.89557846 9.76554108 -0.20417553000000002 0.7561479999999999 -0.960523 0.054583000000000007
25780 -2.27646936 10.512189990000001 -1.41860448 0.256649 -0.493399 0.087883
25800 -1.51200549 10.22014629 -1.85240268 -0.125621 -0.225097 0.189554
25820 -0.15148602000000003 12.50080452 -1.0509649200000002 -0.53456 -0.108313 0.376692
25840 -1.4229405000000002 13.743221400000001 0.7093709100000001 -1.0680889999999998 -0.217833 0.521588
25860 -4.80890124 12.724590240000001 -0.6478524 -1.671978 -0.347218 0.633972
25880 -4.271067990000001 11.00630988 -1.1918169 -2.148837 -0.636023 0.809404
25900 -1.31756148 9.83858634 -1.27489779 -1.830652 -1.0515370000000002 0.814296
25920 -0.29653668000000005 10.421476920000002 -0.5891787900000001 0.17496099999999998 -0.362199 0.115986
25940 -0.4397823 10.452015450000001 1.2982455900000003 2.32045 1.008652 -0.637768
25960 -1.5094647 12.290792040000001 1.72965015 1.846005 -0.193 -0.487854
25980 -5.1503382900000005 15.215555250000001 3.96720324 0.809607 -2.210875 0.203973
26000 -6.04502991 12.6385173 3.12804603 -0.375289 -2.57189 0.935368
26020 -5.6772432 12.496017240000002 3.0744540000000002 -0.528993 -1.483157 1.32921
26040 -3.73847328 12.7774269 0.47346984000000003 0.131884 -0.219173 0.34944200000000003
26060 -4.414921830000001 14.4112824 -1.4974866900000001 1.766578 -0.061586 -0.249296
26080 -3.36515373 12.56128317 1.1397258000000001 -0.959821 -0.245447 0.141025
26100 -2.9624924700000004 10.26924534 0.50265459 -2.530727 0.708773 0.237788
26120 -3.16891449 9.37889955 0.63587439 -1.531941 -1.006343 -0.089528
26140 -2.95515459 7.7109150600000005 -0.11211849 -2.726745 1.749386 0.979636
26160 -2.9876355 6.627920490000001 -0.65847663 -2.730617 2.344866 1.251242
26180 -3.3633585 6.181398720000001 -0.7352693100000001 -2.324286 1.731338 1.148045
26200 -3.5218782900000005 4.38512886 -0.8388531 -2.32009 0.6513760000000001 0.5555260000000001
26220 -2.7650466000000002 3.36544803 -1.1687732100000001 -2.722987 0.324318 0.376875
26240 -2.7490366800000006 3.0698138700000004 -1.77860205 -2.50345 1.144121 0.301514
26260 -2.416271670000001 3.4623021600000006 -1.7582463000000002 -2.04637 1.45264 0.274401
26280 -2.4029496900000002 3.3383626200000003 -1.77051861 -1.5135120000000002 1.00051 0.192176
26300 -2.5191099 4.03186095 -2.8198354500000002 -1.113469 0.205781 0.120145
26320 -2.71280835 4.036353930000001 -3.4124575500000005 -1.211926 -0.203477 0.25351
26340 -3.19735368 4.43901519 -4.51611198 -1.396144 -0.056103 0.321469
26360 -4.15820394 7.0626114 -6.64378326 -1.4925190000000002 -0.031791 0.186168
26380 -5.243749110000001 13.65460767 -10.110274290000001 -1.429936 -0.000611 0.060515
26400 -8.96530995 18.563198130000004 -12.028688460000001 -1.509903 -0.023631 0.025803
26420 -9.27635562 8.22210435 -10.65619098 -1.728777 -0.023016 0.061661
26440 -3.9504379500000004 1.1937690900000002 -7.494163110000001 -1.790555 0.382375 -0.031157
26460 -2.6271866700000004 5.7031416 -6.157746810000001 -1.610495 0.226625 -0.132249
26480 -1.15380315 7.518717540000001 -2.6011411200000003 -0.841672 -0.406315 0.041643
26500 -5.19524847 15.74261712 -3.9501338400000003 -0.209776 -0.506807 0.11562
26520 -8.0719623 21.543201449999998 -0.2513322 -0.15412 0.807196 0.204056
26540 -5.054985090000001 3.010689 1.98307188 0.0645 1.0448620000000002 -0.012639
26560 -1.35618345 0.30866184 7.94862117 0.5120640000000001 0.6184350000000001 -0.320887
26580 -7.416928980000001 8.78522778 -4.22107623 1.081295 0.279902 -0.071854
26600 -0.04355640000000001 17.036526690000002 -2.95350651 1.824775 0.691938 0.138978
26620 1.81722402 15.722849970000002 2.8171377 2.498133 0.8658610000000001 0.283395
26640 -4.643789129999999 9.938285370000001 1.6325017199999998 2.853113 0.912002 0.158698
26660 -5.18761629 7.929158129999999 -1.49269941 2.885231 0.952199 -0.064388
26680 -5.372475929999999 6.707852370000001 -1.3959924300000002 3.254367 1.541563 -0.184342
26700 -3.9663007200000004 8.16925788 0.03981879 3.4579910000000003 2.314926 -0.087771
26720 -2.0600117100000004 8.50621176 0.24908571000000002 2.8937630000000003 1.13349 -0.120108
26740 -1.2081407400000002 8.78074461 0.63273519 2.630172 -1.619884 -0.248744
26760 -0.7707520800000001 8.23827123 0.66626577 3.257716 -2.662173 -0.147954
26780 -1.2424168800000002 7.75791477 0.14983794 3.403691 -2.107209 -0.263013
26800 -1.3970421 7.651643040000001 0.36778670999999996 3.254417 -0.96021 -0.324278
26820 -1.00920375 8.075552759999999 0.06780672000000001 2.785262 -0.819343 -0.24655
26840 -1.2892694400000002 7.915541850000001 0.28905165000000005 2.238825 -1.304507 -0.455912
26860 -2.29742352 8.18527761 0.03458025 1.604893 -1.357656 -0.46775
26880 -2.57928444 8.4479796 -0.40266126 1.078754 -1.095076 -0.408736
26900 -2.3852916900000003 8.752295610000001 -0.03098979 0.396974 -0.757575 -0.302836
26920 -2.28335598 10.37522277 -0.06990606 -0.241659 -0.450463 -0.094046
26940 -2.14264134 11.139980940000001 -1.01069487 -0.701453 -0.198437 0.149179
26960 -1.4894032499999998 11.084603490000003 -1.7456698800000001 -0.978025 -0.037486 0.364958
26980 -0.33934752000000007 13.405227660000001 -1.0279114200000001 -1.306673 -0.071291 0.578486
27000 -2.6084790000000004 13.170366450000001 -0.02320065 -1.760432 -0.186612 0.7730859999999999
27020 -4.55368428 12.16444905 -0.82089099 -2.078714 -0.425496 0.84808
27040 -3.0647224800000004 10.855579230000002 -1.02776427 -1.284695 -0.763304 0.455613
27060 -0.45699885 11.687996970000002 -0.008230590000000001 1.417759 0.123118 -0.316062
27080 -0.47945394 10.85871843 0.7879588200000001 2.203695 0.5015930000000001 -0.8056439999999999
27100 -3.4596044100000003 12.465478710000001 0.5185173599999999 1.6126 -1.022192 -0.183979
27120 -5.1498870299999995 12.37746339 2.2526703000000006 0.293746 -2.8044740000000004 0.4446850000000001
27140 -4.92925032 10.78956774 2.38768533 -0.68287 -1.855254 1.0092139999999998
27160 -5.20632396 13.05989604 2.5741930500000003 -0.325977 -0.07237400000000001 0.531927
27180 -4.08710106 12.680582580000001 0.60040143 1.153685 0.906236 -0.122358
27200 -5.0927143500000005 14.26233717 -1.02776427 0.45563 -0.558439 -0.335796
27220 -4.95574713 12.72758229 1.7013581100000001 -2.629711 0.925773 0.402393
27240 -3.83861376 10.87653339 1.36066662 -1.427696 -0.878599 0.108658
27260 -2.76085773 10.819203750000002 0.7912549800000002 -2.600143 1.119671 0.904415
27280 -3.21816069 7.96837851 -0.09176274 -3.166249 2.153081 1.371291
27300 -3.7049427 6.43511475 -1.1918169 -2.616412 1.607442 1.215597
27320 -2.6456000400000006 6.0016206599999995 -0.6379737300000001 -2.289413 0.904506 0.630192
27340 -3.1603797900000004 3.9363606000000004 -0.47406825 -2.838561 0.504668 0.397201
27360 -2.90815488 3.35332287 -0.54860463 -2.790553 0.999771 0.418266
27380 -2.42600319 3.0529014300000004 -1.53969912 -2.354602 1.162241 0.436058
27400 -2.32092828 3.09241611 -2.01645531 -1.941069 0.850726 0.457506
27420 -2.4698637 3.6095895000000002 -2.32796205 -1.537023 0.517066 0.430845
27440 -2.4060987 4.1695835400000005 -2.97146862 -1.525301 0.022803 0.414469
27460 -2.51642196 3.96540801 -3.6516547800000003 -1.656149 -0.165153 0.378544
27480 -3.33491931 4.10461191 -4.60352889 -1.616977 0.104778 0.240671
27500 -4.2079014 6.47014626 -6.840473760000001 -1.556873 0.08154700000000001 0.137504
27520 -5.82423624 11.299099140000001 -8.74795959 -1.588999 -0.120039 -0.038719
27540 -8.60859873 18.93307437 -10.308916980000001 -1.560731 0.178368 -0.09552
27560 -9.32306103 12.549305160000001 -12.431496870000002 -1.292944 0.090434 -0.182199
27580 -4.27181355 -0.6782437800000001 -8.182736819999999 -0.45584 -0.360359 -0.063611
27600 -3.8318841000000003 4.0481847900000005 -6.23034081 -0.032869 -0.138586 0.053359
27620 -2.0670552900000003 8.83313001 -1.1892761100000002 -0.115174 1.12255 0.16226300000000002
27640 -5.85671715 18.32639454 -1.32894108 0.200579 0.944225 -0.00515
27660 -7.09389549 20.16546543 1.0927260900000004 0.722037 0.430896 -0.224108
27680 -5.660929169999999 -0.9401904 -0.31494024000000004 1.228469 0.355733 0.017738999999999998
27700 -3.18283488 1.33806438 6.260879340000001 1.894148 0.450981 0.130157
27720 -7.05588174 11.082052890000002 -6.37613703 2.608092 0.683049 0.08463999999999999
27740 1.55481633 18.63848988 -2.8128016800000006 2.74663 0.897593 -0.14113
27760 1.40452713 14.562317160000001 3.5139420000000006 2.544885 0.965997 -0.288973
27780 -4.8238713 9.327406860000002 1.6102035900000002 2.8822520000000003 2.008622 -0.245224
27800 -5.4506125800000005 7.45584525 -0.93750246 3.191351 2.781488 -0.115869
27820 -4.72373082 7.296727050000001 -0.7354164599999999 2.706636 0.913074 -0.24825100000000005
27840 -2.92372335 8.71966755 0.14534496 2.491332 -2.0373490000000003 -0.159449
27860 -1.54314243 8.78373666 0.49007817000000004 3.19188 -2.760231 -0.077785
27880 -1.1201254200000001 8.36415315 0.43829118000000006 3.305738 -1.850036 -0.288596
27900 -1.16293626 7.57470321 0.30821058 3.155779 -0.839454 -0.333667
27920 -1.7528508 7.45958286 -0.08487612 2.74439 -0.914986 -0.269146
27940 -1.24690986 7.594460550000001 0.08667135 2.172588 -1.273588 -0.40514
27960 -0.84992859 8.132440950000001 0.5890218299999999 1.432119 -1.283792 -0.408163
27980 -1.24735131 7.9873902900000004 0.06436341000000001 0.855756 -1.003072 -0.313204
28000 -2.0558228400000003 8.13213684 -0.46388547 0.179507 -0.602815 -0.188117
28020 -2.3246658900000003 8.37553275 -0.37257399 -0.394154 -0.362867 -0.022584
28040 -2.1490767 9.72587925 -0.3715243200000001 -0.80848 -0.188818 0.23387600000000006
28060 -1.61199882 10.29543804 -0.53109378 -1.187093 -0.151203 0.479011
28080 0.03562992 11.87959608 -1.0160903700000001 -1.6634939999999998 -0.115042 0.640143
28100 0.07948062 13.443996779999999 -0.10298538000000002 -1.924614 -0.137129 0.795376
28120 -4.5274817700000005 13.375140390000002 -0.28485297000000004 -1.451011 -0.516467 0.676325
28140 -4.42748844 11.524385790000002 -1.62501669 0.8635809999999999 -0.359921 0.015039
28160 -2.1197448 10.9525707 -1.4861070900000002 2.492693 0.355225 -0.683797
28180 -0.15074046 11.44115775 0.33126408 1.7910580000000005 -0.5092479999999999 -0.209027
28200 -1.4668010100000002 10.6286445 0.81715338 0.768494 -2.358613 0.421792
28220 -4.20251571 13.083096690000001 1.8670686300000001 -0.6687850000000001 -2.142424 1.149617
28240 -5.9999725800000006 13.330828620000002 2.20476807 -0.596021 -1.181542 1.351856
28260 -5.82559002 12.786412859999999 2.40474492 -0.062029 0.448777 0.245751
28280 -4.17810843 12.8551221 2.69230545 1.391699 -0.4618100000000001 -0.802604
28300 -5.4110979 14.27596326 0.19714176 -1.8390990000000005 1.010915 0.004018
28320 -5.574257820000001 13.77660483 0.22962267000000003 -2.271252 0.708178 0.427608
28340 -4.571646390000001 11.1113946 2.04250086 -1.88752 -0.853547 0.369265
28360 -3.05933679 10.54961514 1.09093086 -3.625964 2.074253 1.502777
28380 -2.2227301800000006 9.793087560000002 0.9798620400000001 -2.76128 1.880828 1.438562
28400 -3.12235623 7.349867820000001 0.14190165000000002 -2.2635560000000003 1.329993 0.763355
28420 -3.2992893899999998 5.538932010000001 -0.29324052 -2.793532 0.472878 0.316371
28440 -2.6709000300000003 3.72186495 -0.8993317500000001 -3.001941 1.390608 0.365014
28460 -2.21749164 3.01458357 -0.68781834 -2.66441 1.951901 0.365584
28480 -1.83203712 2.88165807 -1.15799202 -2.171323 1.582403 0.4325270000000001
28500 -2.185452180000001 3.1085829900000004 -1.5473313000000002 -1.618932 0.961908 0.346382
28520 -2.23036236 3.1545428400000004 -1.6413405300000004 -1.367293 0.17820999999999998 0.308551
28540 -2.3281092 3.55421205 -1.96751322 -1.3177450000000002 0.114907 0.378413
28560 -2.62644111 4.2022116 -2.97416637 -1.500085 0.324536 0.327732
28580 -3.0985571700000003 4.518358470000001 -4.46326551 -1.532062 0.315124 0.311498
28600 -4.53152349 7.449557040000001 -7.467666300000001 -1.616459 0.157227 0.177583
28620 -5.929772219999999 12.478653540000002 -9.62318817 -1.727329 0.193654 -0.04436
28640 -8.314906950000001 18.01398528 -11.540846970000002 -1.577125 0.22359 -0.201446
28660 -7.772139270000001 11.09477646 -12.441826800000001 -1.032488 -0.126686 -0.190784
28680 -3.83427774 0.34114275 -7.4297997 -0.241823 -0.046583 -0.128748
28700 -2.6839179 3.1638231000000006 -6.30369018 0.006412 0.726448 0.011933
28720 -1.4798188800000003 7.920633240000001 -2.53273599 0.11306 1.20964 0.030218
28740 -5.56557597 16.15485294 -3.66018948 0.550435 1.005426 -0.16195
28760 -8.36594838 22.39477812 0.4197306600000001 1.26368 0.76176 -0.05197
28780 -7.78785489 5.34418389 1.53745263 1.805095 0.493283 0.284373
28800 0.72060336 -4.1267727 9.541009800000001 2.444668 0.590187 0.271625
28820 -6.65980299 8.275088160000001 -6.4396077300000005 2.928095 0.739066 -0.081975
28840 1.2478025700000002 20.85912072 -3.1811868000000003 3.009058 1.040737 -0.467424
28860 2.34786654 16.75436166 4.671639720000001 3.223019 2.094716 -0.49185
28880 -4.64963589 8.72804529 2.29128246 3.567277 2.987309 -0.231011
28900 -5.7464037 6.25728888 -0.88750089 3.0745880000000003 1.114337 -0.016271
28920 -4.77970668 6.56385138 -0.24444558 2.808403 -1.844212 -0.24828000000000006
28940 -2.9045644200000003 8.863962840000001 0.86685084 3.575672 -2.686707 -0.414893
28960 -1.4462883000000002 9.118738350000001 1.1332904400000001 3.857915 -1.917204 -0.486547
28980 -0.9256716 8.56623915 1.64732463 3.418401 -1.177398 -0.232055
29000 -1.20140127 7.747741800000001 0.9906432300000001 2.903413 -1.01193 -0.139724
29020 -1.2295461600000002 7.275920040000001 -0.020208600000000004 2.068685 -1.177045 -0.215846
29040 -1.7721666900000002 7.974362610000001 0.021552570000000004 1.449683 -1.400965 -0.158994
29060 -0.88600977 8.23946805 -0.29219085 0.8580530000000001 -1.310407 -0.181403
29080 -1.07012385 7.78411728 -0.12439080000000001 0.255094 -0.8609370000000001 -0.17230299999999998
29100 -2.0300814000000003 7.9315517700000004 -0.39203703 -0.309188 -0.466424 -0.040018
29120 -2.6580195000000004 8.199345150000001 -0.08891784 -0.793587 -0.279094 0.152911
29140 -2.50728885 9.86149269 -0.4601478600000001 -1.264452 -0.173808 0.338563
29160 -1.4046742800000003 10.752289740000002 -1.39045959 -1.7872259999999998 -0.217506 0.530452
29180 -0.34982460000000004 11.78948142 -1.60376823 -2.163524 -0.127747 0.7872859999999999
29200 -0.94169133 12.947473440000001 -0.9304686900000001 -2.039382 -0.269901 0.797949
29220 -3.3332712300000003 12.726385470000002 0.2980278 0.185258 -0.28204 0.04118
29240 -4.94511309 12.20801526 -0.8821152000000001 2.526068 -0.162173 -0.793996
