time Ax Ay Az Gx Gy Gz
20 -6.05655666 9.111547620000001 1.67501826 0.31672100000000003 -0.185953 -0.391723
40 -4.92401178 10.600058160000001 1.67487111 0.8274229999999999 -0.506111 -0.158078
60 -5.76047124 11.838129210000002 3.47951871 0.819312 -0.17478 -0.158559
80 -4.98732552 14.969922660000002 4.04862624 0.638201 0.646971 -0.107466
100 -3.6574917300000003 15.02785071 2.718351 0.5114920000000001 0.698671 0.126591
120 -2.9931781500000003 13.61373921 0.81535815 0.23183 0.520211 -0.023616
140 -2.3921783100000003 13.04597565 -1.4648586300000002 0.209931 0.915104 -0.455837
160 -0.3010198500000001 11.78304606 -3.56184423 -0.163745 1.06661 -0.72356
180 -0.36823797 9.49625658 -1.3063290300000001 -0.447022 1.240997 -0.664874
200 -0.43783992 7.697740230000001 0.0142245 -0.566623 1.1979229999999998 -0.4456
220 -1.7654272199999999 7.531137000000001 -0.7804737900000001 -0.609899 1.153084 -0.117901
240 -4.2827418900000005 8.18931933 -1.67875587 -0.784454 0.8827709999999999 0.232671
260 -5.33535489 9.55208529 -0.7581756600000001 -0.749815 0.800555 0.516097
280 -3.81017457 10.3274775 0.41793543000000005 -0.25235 1.038877 0.6923189999999999
300 -1.48161411 9.75685923 -0.5626819800000001 0.205041 1.097495 0.8214889999999999
320 0.21764466000000002 9.96223158 -0.27707364 0.177128 0.803647 0.8035100000000001
340 0.7027884 8.920546920000001 0.9249260400000001 0.047376 0.4608060000000001 0.605422
360 0.44891541000000007 7.510182840000001 1.24151436 0.038139 0.229865 0.291596
380 -0.7051820400000001 6.0595487100000005 0.64950048 0.131795 0.179358 0.054102
400 -2.6517312900000003 6.37000578 -0.42197715 0.289868 0.116365 -0.047263
420 -4.752768420000001 6.51654756 -1.09392291 0.402102 -0.082136 -0.054770000000000006
440 -5.85761967 6.5735829 -1.2614286599999998 0.577681 0.01435 -0.093191
460 -6.469695 7.16799042 -0.1212516 1.058102 0.07758 -0.337744
480 -5.99488119 6.10056432 1.70914725 1.250717 -0.14008099999999998 -0.6843600000000001
500 -4.5952983000000005 4.51506231 2.80142208 1.200682 -0.14098 -0.948559
520 -3.26126583 5.2403058 2.28903597 0.990768 0.265069 -1.077664
540 -2.9421269100000007 8.012984580000001 1.2364327800000001 0.658804 0.368886 -1.177324
560 -3.48175539 9.4601754 0.9029222100000001 0.374019 0.104908 -0.983491
580 -4.33498995 9.80266212 1.49389623 0.018263 -0.230297 -0.498437
600 -4.95948474 9.80521272 2.40669711 -0.511991 -0.461668 -0.254017
620 -5.078941110000001 9.81898596 2.9915300700000005 -0.815195 -0.518095 -0.265676
640 -4.85096652 9.61809678 2.4617802600000003 -1.147797 -0.37771 -0.185926
660 -5.796101159999999 11.524837050000002 2.6258427 -1.44422 0.043521 -0.041122000000000006
680 -6.75724572 12.591370440000002 2.5557894900000004 -1.331418 0.413054 0.156813
700 -6.97594005 13.24430442 0.39443067000000004 -0.853943 0.436421 0.292578
720 -6.695423100000001 14.74389045 -1.8675198900000003 -0.271642 0.301577 0.209224
740 -5.078941110000001 13.44204459 -3.5953748100000005 0.035024 0.084595 0.126186
760 -2.4691181400000004 11.47693482 -4.61041551 -0.046503 -0.106498 0.032927
780 -0.94767543 9.53846901 -5.02505478 -0.293641 -0.360784 0.168259
800 -1.63310013 8.85169053 -5.30916219 -0.391135 -0.55062 0.30669
820 -1.8465559200000001 9.926611470000001 -3.7567395 -0.233297 -0.539552 0.332347
840 -1.08583947 11.17171629 -1.2919671900000003 0.026483 -0.481629 0.274267
860 -2.06270946 12.31698474 0.76490532 0.274129 -0.506778 0.22155
880 -4.0995205200000004 12.3089013 1.40287905 0.299844 -0.629846 0.073404
900 -4.89736782 11.215723950000003 0.46642626 0.224281 -0.518121 -0.094978
920 -5.21261217 9.25300782 -0.8918467200000001 0.155975 -0.317486 -0.12669
940 -5.6179711800000005 7.76764629 -1.0150407000000001 0.110391 -0.407144 -0.043573
960 -5.3352077399999995 6.23198889 -0.71506071 -0.003025 -0.611705 0.061651
980 -4.13500329 5.326977149999999 -0.37960776 -0.285086 -0.8443959999999999 0.155051
1000 -2.7473886 4.724770680000001 0.4107447 -0.406102 -0.796639 0.304764
1020 -2.227370310000001 4.39740117 1.58370678 -0.293621 -0.358427 0.643614
1040 -2.2080544200000003 4.49635464 2.6948462400000004 -0.251289 -0.03114 0.8112020000000001
1060 -2.4418757700000002 4.65516873 3.01757562 -0.557014 0.08493200000000001 0.8206680000000001
1080 -3.1495986000000005 5.03403093 2.6726952600000002 -0.8526440000000001 0.529041 0.572343
1100 -4.07167974 6.014344230000001 2.34083277 -0.884978 0.578619 0.4566850000000001
1120 -4.70022606 6.670574370000001 1.59313419 -0.6380060000000001 1.0660690000000002 0.354168
1140 -4.6738764 6.54828291 0.86864607 -0.168292 1.074349 0.5401050000000001
1160 -3.7842761700000005 6.94211517 0.08157996 -0.01373 0.50521 0.4767520000000001
1180 -3.16741356 8.752452569999999 0.41194152000000006 -0.411684 -0.148894 0.295349
1200 -3.505113 10.93610952 1.90583775 -0.767361 -0.507699 0.023064
1220 -4.737199950000001 12.0197025 3.54777669 -0.228982 -0.506851 -0.122727
1240 -4.61759643 11.79187506 2.5243484400000002 0.571524 -0.443546 -0.131104
1260 -4.43692566 12.673990259999998 2.38514454 0.975352 -0.143247 -0.18742
1280 -5.269039290000001 14.56905663 3.22789221 1.008199 0.255156 -0.213338
1300 -3.9031341299999998 17.23501242 3.6887758200000005 0.943947 0.306095 -0.109167
1320 -2.89093833 16.45258644 2.9355444000000004 0.968473 0.452308 -0.197845
1340 -2.81534247 15.380520210000002 2.4766031700000006 0.6339020000000001 0.600165 -0.386242
1360 -2.2107521700000006 11.633208119999999 -0.5959084500000001 0.087484 0.602861 -0.586615
1380 -1.5054229799999999 8.689276170000001 -3.0716091000000003 -0.330952 0.545767 -0.598011
1400 -1.60361127 7.34791563 -2.39486625 -0.445254 0.6574399999999999 -0.453674
1420 -2.5673064300000004 6.958429199999999 -0.9609974100000002 -0.414116 0.740376 -0.175825
1440 -3.96885132 7.78605966 -1.2145761000000002 -0.364894 0.749993 0.040287
1460 -5.565723120000001 8.708886360000001 -0.8867553300000001 -0.447457 0.624822 0.24497
1480 -6.44185422 9.40359132 -0.52556094 -0.382021 0.705657 0.485673
1500 -4.75681014 9.4863681 0.3731724 -0.100034 0.973405 0.6827840000000001
1520 -2.5679146500000005 9.799817220000001 1.16053281 -0.006442 1.034355 0.8104779999999999
1540 -0.90561996 9.917772660000002 1.82320812 -0.007888 0.913068 0.7732359999999999
1560 0.20881566000000004 8.470434690000001 1.99639386 0.062818 0.683905 0.478126
1580 0.960399 6.49544625 1.19406339 0.095149 0.528115 0.248884
1600 0.2314179 4.98748248 0.37212273 0.042677 0.371095 0.134419
1620 -2.20551363 5.18147523 0.14818986 0.082688 0.0194 0.138353
1640 -4.052373660000001 5.829474780000001 -0.14325543000000002 0.455792 0.192678 -0.094271
1660 -5.29988193 6.30339588 -0.32182686000000005 1.114074 0.233685 -0.529833
1680 -5.654640960000001 7.137756 0.03322647 1.367122 -0.065161 -0.872718
1700 -5.0404662899999995 7.08596901 1.0326987 1.306423 -0.133923 -1.20634
1720 -3.21756228 5.79519864 2.10926772 1.059539 0.17921700000000002 -1.51184
1740 -1.68324885 5.84714259 2.3460713100000006 0.4960770000000001 0.146032 -1.515734
1760 -2.0915999100000002 8.072109450000001 2.18305854 0.017004 -0.275245 -0.97802
1780 -3.12445557 8.88193476 1.6853481900000002 -0.400361 -0.59408 -0.5372140000000001
1800 -4.5608652 9.04524183 1.3338755100000002 -0.688433 -0.532614 -0.474144
1820 -5.794453080000001 9.63337095 1.75779504 -0.8733049999999999 -0.450651 -0.564203
1840 -6.27570225 10.39109535 1.9745469900000003 -1.172374 -0.214482 -0.4907510000000001
1860 -6.662049480000001 11.673026910000003 1.53819819 -1.277308 0.164213 -0.264438
1880 -7.132066200000001 12.806768609999999 2.7205876800000004 -1.004817 0.173422 0.12628699999999998
1900 -8.200846080000002 13.085186220000002 0.94962762 -0.488917 0.023836000000000003 0.32343
1920 -7.68217176 14.558275440000001 -1.83203712 0.181832 -0.075333 0.29940100000000003
1940 -5.295683250000001 14.352000570000001 -3.843558 0.456172 -0.305221 0.274906
1960 -2.3870869200000002 11.93422797 -4.847964660000001 0.263804 -0.6866979999999999 0.20248
1980 -0.23680359 9.44295885 -4.65801363 -0.01247 -1.143829 0.207545
2000 -0.48933261000000006 8.95871763 -4.09533165 -0.087728 -1.451663 0.265098
2020 -1.8010571400000002 9.81404172 -2.76684183 0.068307 -1.389365 0.268245
2040 -1.41201216 10.335708090000002 -1.4076761400000002 0.364495 -1.282644 0.229584
2060 -2.0401072200000003 12.84598899 0.04879494 0.6994199999999999 -1.1916790000000002 0.101484
2080 -4.79976813 13.314063330000002 1.09841589 0.802497 -1.022861 -0.113793
2100 -5.89968495 11.86163397 0.7399094400000001 0.726002 -0.680775 -0.080582
2120 -6.17975064 9.2110995 -0.48663486 0.432428 -0.5250090000000001 0.11478800000000003
2140 -6.639741540000001 7.14748752 -0.68527755 0.015291999999999997 -0.629536 0.242332
2160 -6.60022686 5.03657172 -0.70099317 -0.33673200000000003 -0.763969 0.33298
2180 -5.00259969 4.2251179500000005 -0.60219666 -0.465474 -0.823577 0.43257
2200 -3.15064827 4.54679766 -0.03503151 0.085391 -0.313991 0.391968
2220 -2.6955918000000003 4.79887542 1.17909333 0.061642 -0.136969 0.631925
2240 -2.65577301 4.90260636 2.5243484400000002 -0.466604 -0.103425 0.693354
2260 -2.82117942 4.65038145 3.42652509 -0.8106399999999999 0.004378 0.672653
2280 -3.3289254000000006 4.72013055 3.5015225400000003 -0.756707 0.471339 0.533562
2300 -4.1185323 5.307661260000001 2.7864520200000005 -0.652616 0.6305569999999999 0.320441
2320 -4.56430851 5.866154370000001 1.4853615300000003 -0.204143 1.080156 0.451184
2340 -4.30385301 6.04293057 0.4837899600000001 0.385556 1.041884 0.7192029999999999
2360 -2.78091918 7.10602065 0.12993344999999998 0.132145 0.354953 0.6296510000000001
2380 -2.122884 9.871371360000001 0.74141037 -0.7915760000000001 0.049592 0.272145
2400 -3.4163423100000005 13.11931521 2.05657821 -0.822592 0.052596 -0.185275
2420 -5.2476338700000005 13.47542802 3.18941739 0.187264 -0.081958 -0.445104
2440 -5.52321639 11.22964434 2.7884042100000004 0.914399 -0.204808 -0.456959
2460 -4.51611198 11.69308836 0.98719992 1.110275 0.28833600000000004 -0.340855
2480 -5.26290804 11.56165398 3.23717247 0.997355 0.596572 -0.069642
2500 -5.654945070000001 14.513963669999999 4.49664894 0.73969 0.698836 0.153822
2520 -4.1299119 14.892227459999999 4.00521699 0.287093 0.8231649999999999 0.090681
2540 -3.07969254 14.20665561 2.39711274 -0.08578200000000001 1.048592 -0.281817
2560 -2.18994516 12.553199730000001 0.00344331 -0.344879 1.022998 -0.582696
2580 -0.07469334000000001 10.500516090000001 -3.1783419 -0.489891 1.08936 -0.535724
2600 -0.36898353 10.10533986 -2.24952129 -0.517696 1.17746 -0.432414
2620 -1.23777675 8.98536159 -0.7589212200000001 -0.464552 1.071106 -0.25565
2640 -2.4709133700000003 8.455768740000002 -1.1488589100000002 -0.428853 0.809679 0.08783400000000001
2660 -4.05297207 7.91748423 -2.06540721 -0.29338000000000003 0.6799649999999999 0.440392
2680 -6.17255991 8.4479796 -1.09497258 0.083498 0.773432 0.7153010000000001
2700 -4.524342570000001 9.111704580000001 0.05658408 0.469774 0.886735 0.817198
2720 -2.8358551800000003 9.46466838 0.33455042999999995 0.456708 0.7868109999999999 0.775575
2740 -1.24167132 9.75072798 0.94064166 0.15776099999999998 0.583942 0.618854
2760 0.38529756 8.69735961 1.8357845400000001 0.013435 0.47903 0.340243
2780 1.9327760100000002 7.0186037400000005 1.8152718300000001 0.09614 0.42937 0.16676400000000002
2800 1.4076761400000002 5.23536156 0.86699799 0.129958 0.284669 0.093478
2820 -1.7612383500000002 5.753133360000001 0.27901602 0.219407 0.198265 0.045076
2840 -4.444253730000001 6.417751050000001 0.06122421 0.469228 -0.090935 -0.043608
2860 -6.128856360000001 6.568344360000001 -0.5150740500000001 1.02289 0.185921 -0.228102
2880 -7.56421632 7.38234873 -0.5902186500000001 1.396524 0.13909100000000002 -0.561922
2900 -7.30660572 6.993156600000001 0.17258733 1.2568700000000002 0.251921 -0.950807
2920 -5.76930024 5.16561246 1.3187583 0.998584 0.436064 -1.222039
2940 -3.5859474 4.67657415 2.35205541 0.594042 0.30997800000000003 -1.308024
2960 -1.9059849 6.2843841000000005 2.24847162 0.284717 -0.466053 -0.91288
2980 -1.9296368099999999 8.443496430000001 2.01092247 0.14138699999999998 -0.847517 -0.498922
3000 -3.2085763199999997 9.39820563 1.79476893 -0.094159 -0.746754 -0.451559
3020 -4.072278150000001 9.513021870000001 2.00478141 -0.535241 -0.47200000000000003 -0.313986
3040 -5.005140480000001 10.57715181 2.5981490700000003 -1.207964 -0.038574 -0.228442
3060 -5.75747919 10.5560505 3.25078875 -1.559983 0.384867 -0.055187
3080 -6.67626417 11.12995512 1.6489727100000002 -1.280288 0.33546 0.335663
3100 -8.15698557 12.78146862 2.3685264 -0.603057 0.172788 0.468789
3120 -8.05938588 12.938497290000003 1.2263971500000002 0.223178 0.166089 0.362405
3140 -6.46550613 13.9658103 -2.5393185000000003 0.608683 -0.023681 0.332226
3160 -4.73315823 14.19423615 -5.0347764900000005 0.451511 -0.485926 0.181101
3180 -2.2697298900000002 11.31002748 -5.15183922 0.150865 -1.178258 0.151047
3200 -0.2137599 8.96201379 -4.932242370000001 -0.013306 -1.5805360000000002 0.194212
3220 -1.6428316500000002 9.22067406 -4.2370861500000006 -0.056879999999999986 -1.529305 0.207729
3240 -1.54658574 10.496621520000001 -2.76999084 0.130018 -1.449147 0.24632
3260 -1.4147099099999998 13.08668715 -0.84004992 0.405918 -1.449422 0.342251
3280 -2.9553017400000003 14.410831139999999 0.8900514900000001 0.431421 -1.11242 0.226629
3300 -4.62986874 13.20853716 0.94947066 0.19511 -0.599935 0.143137
3320 -4.71758976 10.209522060000001 -0.41164722000000004 -0.317581 -0.4799520000000001 0.153289
3340 -5.361400440000001 7.741904850000001 -1.3208576400000003 -0.662926 -0.694796 0.100946
3360 -6.367455179999999 5.816604060000001 -1.09527669 -0.666833 -1.15578 0.034211
3380 -6.20534493 4.3266024000000005 -0.9093575700000001 -0.404047 -0.79046 0.090058
3400 -4.27840587 3.8407131000000003 -0.9918400500000001 -0.094965 -0.034476 0.444829
3420 -2.7562176 3.9392055000000004 -0.44697303 -0.599869 0.126191 0.663287
3440 -2.3900789700000002 3.96061092 0.8589145499999999 -0.759975 0.14365799999999998 0.696329
3460 -2.2356009 4.032616320000002 2.3782579200000002 -0.605762 0.558275 0.506732
3480 -2.56866021 3.99519117 3.36395691 -0.245084 1.132883 0.354691
3500 -3.2292361800000005 4.67807508 3.3581199600000002 0.282303 1.178152 0.564483
3520 -4.12063164 5.9633028 2.4224127300000005 -0.050286 0.115915 0.625478
3540 -4.28229063 7.21020285 0.92447478 -0.768147 -0.445799 0.261193
3560 -3.4784690400000002 8.63778348 -0.52211763 -0.571366 -0.29985900000000004 -0.174522
3580 -2.8086128100000005 10.982363670000002 -0.15282999000000003 0.360966 -0.137913 -0.455569
3600 -3.0680186400000005 13.82420295 2.11450626 0.970772 -0.08325 -0.534701
3620 -5.076841770000001 13.31855631 4.09907907 1.207637 0.158802 -0.532288
3640 -5.02190577 12.30172038 2.11106295 1.2836379999999998 0.457966 -0.287518
3660 -5.838755040000001 13.618526490000002 1.7095985100000002 1.044268 0.6260899999999999 -0.033032
3680 -4.60666809 14.554086569999999 2.99272689 0.588773 0.8949950000000001 -0.018399
3700 -4.20011226 16.50407913 3.99040389 0.011971 0.8823790000000001 -0.358901
3720 -2.76729309 15.3167454 1.43760645 -0.558534 0.8951110000000001 -0.650254
3740 -1.2100831200000002 12.39871185 -2.02738365 -0.864331 1.088572 -0.546884
3760 0.88376328 9.87466752 -5.041211850000001 -0.8423719999999999 1.198442 -0.336432
3780 -0.14998509000000002 10.445275980000002 -3.2488463700000003 -0.624152 1.030776 -0.15523199999999998
3800 -3.48729804 10.89299457 -0.38574882000000005 -0.342435 0.8126720000000001 0.329852
3820 -5.194198800000001 8.82145611 -0.6372281700000001 -0.175582 0.8020729999999999 0.7038399999999999
3840 -5.44522689 7.45374591 -1.1364394500000001 -0.128436 0.786284 0.8815149999999999
3860 -4.030369830000001 8.79765705 -0.50385141 -0.07750900000000001 0.7519020000000001 0.910757
3880 -2.8412408700000005 9.064400760000002 0.1417545 -0.022325 0.578505 0.8024060000000001
3900 -1.22819238 8.566984710000002 0.51552531 0.027336000000000003 0.419702 0.5124
3920 0.4281084 7.92286992 1.1332904400000001 0.03185 0.449506 0.248542
3940 1.6742727000000002 7.17637797 1.31845419 0.075725 0.329579 0.098383
3960 1.7085488400000002 5.846995440000001 0.6867686700000001 0.406117 0.106375 -0.047506
3980 0.15163317 4.99107294 0.2456424 0.792875 -0.135221 -0.17161300000000002
4000 -3.07146195 5.73412158 -0.14969079000000002 1.22661 0.14261500000000002 -0.496884
4020 -4.85829459 5.926623210000001 -0.77853141 1.354461 0.172565 -0.90409
4040 -6.28603218 6.70246668 -0.9630967500000001 1.112452 0.549891 -1.28121
4060 -6.812034570000001 6.4452975299999995 -0.56462436 0.305464 0.398472 -1.343268
4080 -5.48983296 5.53474314 0.27258066000000003 -0.255954 -0.221099 -0.961836
4100 -4.2426288 6.21941247 1.45257651 -0.313271 -0.908793 -0.7648020000000001
4120 -3.1311852300000003 8.041276620000001 2.24966844 -0.424968 -1.01941 -0.710961
4140 -2.45474649 8.71637139 2.73227139 -0.597333 -0.778713 -0.813955
4160 -3.9034284300000004 9.533828880000002 3.39538815 -1.334254 -0.238067 -0.579445
4180 -5.60554191 10.34183934 3.2067810900000002 -1.905554 0.435916 -0.267038
4200 -6.389017560000001 10.43719254 2.9056042800000004 -1.742287 0.254274 0.25990100000000005
4220 -6.78149604 10.228229729999999 2.5349824800000005 -0.918182 -0.08842699999999999 0.531015
4240 -7.51212522 12.09919293 1.0267146 0.237125 -0.23155 0.422832
4260 -7.3259118 14.05816164 1.1512525500000002 0.98191 -0.368797 0.266909
4280 -5.4586960200000005 12.96753489 -3.8678083200000004 0.8427020000000001 -0.8100390000000001 0.175703
4300 -3.03254568 13.713879690000002 -6.143522310000001 0.278568 -1.303128 0.098687
4320 -0.33380487 11.550284190000001 -6.001316550000001 -0.104335 -1.6855650000000002 0.16486900000000002
4340 -0.6361785000000001 10.37342754 -4.56475977 -0.132207 -1.687709 0.192451
4360 -1.54223991 10.7296875 -5.0331382200000006 0.06439 -1.49514 0.083551
4380 -2.36178693 11.24955864 -3.65330286 0.466312 -1.40354 0.005056000000000001
4400 -2.7711876600000003 14.43388464 -0.65818233 0.830248 -1.135304 0.009391
4420 -4.23858708 15.54487695 1.5982255800000003 0.847931 -0.797419 0.212043
4440 -4.834044270000001 13.36600728 1.60735869 0.402309 -0.6321760000000001 0.300586
4460 -4.43707281 9.12607623 0.210915 -0.075947 -0.7421800000000001 0.252521
4480 -5.36948388 5.64895116 -0.6051887100000001 -0.51477 -0.983813 0.320268
4500 -6.13783251 3.5085563100000003 -0.8126604000000001 -0.40526 -0.876418 0.274962
4520 -5.79400182 2.7550207800000006 -0.9930368700000001 0.12252 -0.276113 0.477637
4540 -4.03755075 2.9918243700000002 -1.06473816 -0.102162 0.066696 0.724524
4560 -2.69678862 3.8690051400000005 0.19324719 -0.811037 -0.059636 0.6973010000000001
4580 -2.26044963 4.56985116 1.79221833 -1.372167 -0.023796 0.479692
4600 -2.0215467 4.81967262 3.44793051 -1.252883 0.22355300000000006 0.059328
4620 -2.41837101 5.12025102 4.54455117 0.013097 0.5794159999999999 0.27815500000000004
4640 -3.1952543400000004 5.91195726 3.92633478 1.2845719999999998 0.588783 0.8286129999999999
4660 -4.34307339 6.455921760000001 2.2200324300000007 0.759211 0.079019 0.891826
4680 -4.7626470900000015 6.53256729 0.31075136999999997 -0.340906 -0.063936 0.300007
4700 -3.4181375400000005 7.533687600000001 -0.44936667 -0.16983299999999998 0.105235 -0.328197
4720 -2.25566235 9.3759075 -0.2083644 0.658918 -0.089883 -0.470641
4740 -3.56558184 12.25472067 2.31508152 0.944118 -0.337674 -0.555926
4760 -6.079306050000001 12.761260020000002 3.8796293700000004 0.961156 -0.116121 -0.5646359999999999
4780 -7.50119688 11.52453294 3.0666746700000003 0.974335 0.072076 -0.220818
4800 -4.45683015 11.963422529999999 1.21682259 0.8481049999999999 0.267438 0.050447000000000006
4820 -4.78360125 12.81844251 3.4970295600000005 0.530407 0.559357 0.051058
4840 -4.83329871 16.141835070000003 5.4428332500000005 0.193494 0.803478 -0.23255
4860 -4.35070557 15.704740710000001 4.46596326 -0.177256 0.741576 -0.414522
4880 -3.69626085 12.72863196 0.64770525 -0.424972 0.9002399999999999 -0.450639
4900 -1.9220046300000002 10.32927273 -3.9025357200000004 -0.452519 1.0681459999999998 -0.324996
4920 -0.43813422 11.11573062 -4.357739340000001 -0.25974 1.049256 -0.030933
4940 -0.91923624 10.57775022 -1.2979512899999999 -0.180176 0.884338 0.382168
4960 -1.7133361200000001 9.6164487 -0.050590170000000004 -0.289515 0.8472299999999999 0.6987140000000001
4980 -2.9133934200000002 8.48959362 -0.9110056500000001 -0.275464 0.940712 0.752103
5000 -4.35609126 8.3782305 -0.6277909500000002 -0.16209400000000002 0.936324 0.685603
5020 -3.27130146 8.987608080000001 0.25686504 -0.123013 0.689684 0.5259590000000001
5040 -2.41402518 8.96186664 0.13307265000000001 -0.064604 0.357146 0.25226
5060 -1.47577716 8.864561250000001 0.21914559000000003 0.108534 0.233739 0.06134700000000001
5080 -0.39218418 8.11492029 0.76805433 0.238783 0.252463 0.061165
5100 0.7113231000000001 6.66623835 0.89797797 0.45212 0.074607 0.131249
5120 0.9241804800000001 5.40555525 0.54247338 0.691938 -0.031472 0.077513
5140 -0.9994722300000001 5.48444727 0.5029587000000001 1.2018879999999998 0.012142 -0.348406
5160 -3.2795320500000003 6.1022124 0.15971661 1.319075 -0.060783 -0.860241
5180 -4.94511309 5.968237230000001 -0.33650262000000003 1.206941 0.166235 -1.323855
5200 -5.5383336000000005 6.15086019 -0.69455781 0.721837 0.27845 -1.526077
5220 -5.62156164 6.78553776 -0.09265545000000001 0.241596 -0.081592 -1.381555
5240 -4.901860800000001 7.1983818 0.96444072 -0.068383 -0.618527 -0.838239
5260 -3.8318841000000003 8.2105776 2.2068576 -0.5399689999999999 -1.005018 -0.747035
5280 -2.64215673 8.52986367 2.262990420000001 -0.7262430000000001 -0.85969 -0.698315
5300 -2.7012816 8.77774275 2.2013247600000003 -1.11234 -0.418037 -0.521049
5320 -4.30130241 8.562942990000002 2.87507556 -1.684221 0.295638 -0.277062
5340 -5.56528167 8.89525674 3.2268425400000003 -1.587221 0.423715 0.110148
5360 -6.59917719 9.196875 3.1665110400000005 -0.865038 -0.017812 0.408451
5380 -7.31514042 10.328223060000001 1.9523862 0.065652 -0.290106 0.29672800000000005
5400 -7.20512127 13.68185004 2.43498915 0.748689 -0.384582 0.154205
5420 -7.10766873 14.469514560000002 0.53020107 0.748754 -0.5913109999999999 0.170494
5440 -5.6946069 14.681616570000001 -2.9121966 0.380904 -0.819959 0.126557
5460 -4.1239278 14.575639140000002 -5.3997183 -0.005901 -1.092774 0.221413
5480 -0.8909442000000001 12.33061083 -6.179446530000001 -0.101787 -1.222715 0.29889
5500 -0.11735703 10.580899230000002 -5.92632891 0.050029 -1.208105 0.243316
5520 -1.39015548 10.33540398 -4.80455541 0.370795 -1.261536 0.273399
5540 -1.6896842100000002 10.84030506 -3.01727151 0.677728 -1.16115 0.211321
5560 -1.8788896800000001 11.93079447 0.58858038 0.719119 -0.8444659999999999 0.101177
5580 -3.37682763 13.08489192 2.13531327 0.476766 -0.552108 0.193113
5600 -4.551584940000001 11.924055000000001 1.5982255800000003 0.14516800000000002 -0.479687 0.21847800000000006
5620 -4.9154770800000005 9.20690082 -0.04625415 -0.178376 -0.695146 0.300883
5640 -5.481151110000001 6.95543715 -0.85757058 -0.469248 -0.867685 0.277708
5660 -6.29261469 5.04285993 -1.06952544 -0.263495 -0.400964 0.067039
5680 -6.03200223 3.98681343 -1.1514095100000001 -0.162105 0.113303 0.576631
5700 -4.08500172 4.3496559 -0.8319664800000002 -0.520571 0.370257 0.831239
5720 -2.54590101 4.70845665 0.38215836 -1.084864 0.25452600000000003 0.6917810000000001
5740 -2.14339671 4.765040730000001 1.78697979 -1.303643 0.332462 0.306662
5760 -1.75150683 5.03941662 3.18163806 -0.586154 0.99113 0.135641
5780 -2.1326155200000003 5.19090264 3.8001487500000004 0.6894939999999999 1.4700959999999998 0.463336
5800 -3.1382288100000006 5.23655838 3.39478974 0.72317 0.491755 0.538532
5820 -4.35923046 5.726342250000001 2.39067738 -0.229782 -0.295362 0.269034
5840 -4.5792785700000005 6.2842271400000005 1.0234184400000002 -0.689533 -0.286487 -0.219162
5860 -3.5245662300000005 7.306458570000001 -0.03398184 0.094466 0.001141 -0.36681
5880 -2.28874167 9.64533915 -0.26674371 0.7948529999999999 -0.201258 -0.441775
5900 -2.7562176 12.019859460000001 1.14631812 0.969183 -0.1357 -0.470552
5920 -4.2950142 13.524674220000001 3.4007738400000003 0.8565649999999999 0.171742 -0.267702
5940 -6.11283663 12.934602719999999 4.00566825 0.6146729999999999 0.305577 0.039153
5960 -4.27271607 12.760367310000001 1.5194905200000002 0.29754899999999995 0.542942 0.095386
5980 -4.78883979 12.555887669999999 2.8419864300000004 0.136166 0.95035 -0.14875
6000 -4.34531007 16.26008481 4.82940414 -0.158777 0.961336 -0.508678
6020 -4.153858110000002 16.453332 3.99009978 -0.507267 0.916203 -0.641378
6040 -3.6992529 13.612689540000002 1.19331783 -0.585287 1.001232 -0.525595
6060 -1.74237372 9.736650630000002 -3.1609782 -0.5175810000000001 0.860541 -0.299547
6080 0.49052943 10.48614444 -4.73959359 -0.360058 0.6879930000000001 0.089539
6100 -1.5506274600000003 10.15308513 -1.1918169 -0.316743 0.565663 0.539719
6120 -2.86219503 8.67760227 0.06392196 -0.167428 0.682982 0.90808
6140 -3.98741184 7.9794540000000005 -1.13134806 0.070603 0.8838469999999999 1.085742
6160 -5.029537950000001 8.46130158 -1.51021026 0.186672 1.000909 1.014832
6180 -4.34755656 9.62992764 -0.27063828 0.142648 0.796037 0.8716450000000001
6200 -3.22115274 9.82721655 0.43499502 0.083723 0.602811 0.493331
6220 -1.6055634600000002 9.617498370000002 0.8297199900000001 0.032208999999999995 0.436032 0.154558
6240 0.21539817000000003 8.68823631 1.3774319099999999 0.18105 0.400987 -0.001386
6260 1.3305793499999998 7.0421085 1.4925424500000002 0.245608 -0.047337 -0.0965
6280 1.5317628300000001 5.42142783 0.9217868400000001 0.737166 -0.038792 -0.261857
6300 -0.98959356 4.94511309 0.33829785 1.362994 -0.283371 -0.646005
6320 -3.9037325400000005 5.84429769 -0.04505733 1.508614 -0.12978199999999998 -1.085292
6340 -5.53414473 5.95625922 -0.54816318 1.3656469999999998 0.240674 -1.428596
6360 -6.617590560000001 6.364168830000001 -0.67764537 1.009585 0.330114 -1.6416369999999998
6380 -6.75365526 6.11837928 -0.08412075 0.380718 -0.108112 -1.2641129999999998
6400 -5.485192830000001 5.2037831699999995 1.06099074 -0.281774 -0.7016180000000001 -0.91974
6420 -3.67380576 5.419181340000001 2.3441289300000006 -0.8765270000000001 -1.044712 -0.918114
6440 -2.18006649 7.8323138100000005 2.54590101 -1.213943 -0.823101 -0.634471
6460 -1.47203955 9.05676858 2.0474451 -1.549557 -0.298562 -0.44948
6480 -2.8813539599999998 9.39895119 1.93113774 -1.593325 0.069626 -0.31245700000000004
6500 -4.636461060000001 9.60073308 2.27541969 -1.008288 -0.064363 0.186388
6520 -5.722898939999999 10.382256540000002 2.3393318400000003 -0.116112 -0.228287 0.445998
6540 -6.5487341699999995 10.86141618 0.9904862700000001 0.762934 -0.2505 0.443621
6560 -7.61690583 12.37985703 1.8119854800000001 1.068467 -0.380535 0.463013
6580 -7.7984791200000005 12.894783930000001 1.57143447 0.748636 -0.6708810000000001 0.355398
6600 -6.846310710000001 13.96445652 -0.92686842 0.234133 -1.015107 0.304175
6620 -5.02520193 14.515317450000001 -3.53205126 -0.07956 -1.273879 0.28736
6640 -2.1664404000000004 11.903100840000002 -5.244945929999999 -0.093568 -1.288809 0.303305
6660 0.21675195 10.00414971 -6.26207616 0.12780899999999998 -1.279554 0.194812
6680 -0.5944173300000001 11.06109873 -5.2575125400000005 0.368676 -1.490693 0.039737
6700 -1.29240864 11.938269690000002 -3.6389312100000004 0.56084 -1.296243 -0.268955
6720 -2.0895005700000002 13.155994799999998 -0.7342196400000001 0.481748 -0.8528129999999999 -0.269007
6740 -3.87349812 14.42670372 1.54223991 0.134181 -0.533092 -0.002653
6760 -5.57231544 13.0720212 1.30005063 0.115402 -0.317155 0.357999
6780 -6.107745240000001 8.95632399 -0.35176698 -0.006429000000000001 -0.445188 0.5132720000000001
6800 -6.76668294 5.69640213 -0.7057804500000001 -0.212698 -0.5954550000000001 0.441521
6820 -6.8313406500000005 4.5852626700000005 -0.7885572300000001 -0.129411 -0.290331 0.255841
6840 -6.176454479999999 3.74521275 -1.08329868 -0.021267 -0.117307 0.582183
6860 -3.6525573000000002 4.10521032 -1.19166975 -0.470363 0.082717 0.7667970000000001
6880 -1.7893832400000003 4.9413754800000005 -0.08457201 -1.108848 0.217017 0.768574
6900 -1.24211277 5.573512260000001 1.49823225 -1.380366 0.14841500000000002 0.5776899999999999
6920 -1.02941235 5.89369104 3.0599352 -0.730509 0.7325659999999999 0.186239
6940 -1.37862873 5.67589923 3.55046463 0.487317 1.440504 0.313479
6960 -2.52898857 5.57171703 3.02251005 0.789226 0.666401 0.496041
6980 -4.41356805 5.734572840000001 2.54470419 0.080636 -0.118233 0.458982
7000 -5.4527119200000005 6.1330452300000005 1.59927525 -0.588742 -0.140921 0.053752
7020 -5.234910300000001 6.97624416 0.5580418500000002 -0.06856699999999999 0.170586 -0.242116
7040 -3.4985206800000004 8.4710331 0.00194238 0.598526 -0.182556 -0.419669
7060 -2.02528431 10.41654249 0.50654916 0.8322360000000001 -0.219387 -0.469264
7080 -3.51573723 12.28660317 2.6896077000000003 0.734866 0.078731 -0.345345
7100 -5.872285620000001 11.997100260000002 3.67410987 0.59515 0.360424 -0.07321699999999999
7120 -5.34418389 10.809020970000002 1.50062589 0.400742 0.512613 0.131397
7140 -5.385199500000001 10.726842600000001 1.4871567600000002 0.26460500000000003 0.8633780000000001 -0.088989
7160 -4.7026197000000005 14.353354350000002 2.8276245900000005 0.110417 1.049827 -0.494093
7180 -4.38019443 17.021703780000003 4.966077060000001 -0.212435 1.05238 -0.586082
7200 -4.57014546 16.50871926 4.412224080000001 -0.399843 1.252824 -0.466938
7220 -4.132011240000001 13.07351232 0.9662359500000001 -0.431534 1.272423 -0.27917800000000004
7240 -0.78975405 9.40090338 -3.81900357 -0.405121 1.080276 0.063084
7260 -0.44786574 10.23481224 -3.20483871 -0.4939020000000001 0.756039 0.504055
7280 -1.51619436 9.32501322 -0.7204562099999999 -0.35383600000000004 0.739066 0.897092
7300 -2.6954446499999998 8.65635381 -0.26958861 0.013385 0.976705 1.090565
7320 -3.91495518 8.21521773 -1.9820320200000001 0.253235 1.099722 1.02158
7340 -5.0548379400000005 8.52836274 -1.78398774 0.253388 0.961928 0.8487049999999999
7360 -3.77874333 9.46047951 -0.19444401 0.190894 0.7057859999999999 0.489675
7380 -2.48572647 9.75102228 0.6141746700000001 0.086768 0.45295 0.138895
7400 -1.05515379 9.537419340000001 0.78541803 0.021258000000000003 0.180117 -0.039607
7420 0.42047622 8.32090086 1.0976703300000001 0.184416 0.121127 -0.08112
7440 1.56904083 6.6145985099999995 1.21996179 0.556348 -0.005731 -0.114679
7460 1.29914811 4.909345830000001 0.8903457900000001 1.199196 0.212074 -0.261087
7480 -1.1602385100000001 4.70157003 0.52121511 1.596663 0.340439 -0.738107
7500 -3.72710349 5.70733047 -0.04550859 1.173834 0.689177 -1.268141
7520 -4.96232964 6.03125667 -0.5869323000000001 0.175325 0.726576 -1.496285
7540 -5.93126334 6.589592820000001 -0.8946916200000001 -0.493882 -0.03896 -1.016074
7560 -6.26686344 6.57702621 -0.14639463000000003 -0.333662 -0.916255 -0.745707
7580 -5.4588529800000005 5.51138553 1.37010384 -0.206647 -0.743704 -0.5837399999999999
7600 -3.9460921200000003 5.97572226 2.73091761 -0.244422 -0.509587 -0.4903
7620 -2.7988812900000006 8.01089505 2.6192503800000004 -1.036928 -0.406929 -0.4340100000000001
7640 -2.44022769 9.13385556 1.77051861 -1.7538 0.057057 -0.227036
7660 -3.8318841000000003 9.95534496 1.5164984700000002 -1.495628 0.200661 0.399493
7680 -5.09554944 10.59032664 1.90928106 -0.594512 -0.008445999999999999 0.7617729999999999
7700 -5.81002155 11.199557070000001 2.74349403 0.4464260000000001 0.018291 0.632278
7720 -6.0893416799999995 10.93536396 2.68900929 0.948082 -0.224104 0.342331
7740 -7.4720121299999995 11.6610489 1.5344605800000002 0.7118479999999999 -0.7710560000000001 0.130942
7760 -8.06178933 14.1596559 0.58184091 0.104355 -1.284871 -0.053172
7780 -5.8013397 14.23344672 -3.459751560000001 -0.29 -1.609722 0.007515000000000002
7800 -2.58676947 14.99087682 -5.761972170000001 -0.253938 -1.548498 0.116647
7820 -0.91698975 12.83970078 -5.10573222 -0.04848 -1.246385 0.045056
7840 -0.35910486 10.249340850000001 -4.291875 0.236492 -1.177248 0.090755
7860 -1.6799526900000001 10.468476630000001 -4.61759643 0.457846 -1.045999 0.110292
7880 -3.3961337100000004 11.28548286 -4.028270490000001 0.363712 -0.753274 -0.017859
7900 -4.279298580000002 13.62227391 -1.51485039 -0.0468 -0.578691 0.101896
7920 -4.39172118 14.40080532 0.57645522 -0.531416 -0.684282 0.287721
7940 -4.20699888 12.1207455 1.13029839 -0.576303 -0.8145899999999999 0.412557
7960 -4.465512 7.731417960000001 1.02865698 0.016227000000000002 -0.489714 0.173793
7980 -4.551584940000001 5.75388873 0.23950134000000003 0.060558 -0.156187 0.377705
8000 -4.85949141 4.219271190000001 -0.14654178 -0.538026 -0.092514 0.690705
8020 -4.09353642 3.3552750600000003 -1.0717719300000002 -1.046025 -0.047392 0.769352
8040 -2.77268859 3.70389303 -1.49464179 -1.080832 0.226717 0.716414
8060 -2.24757891 4.458183930000001 -0.61731387 -0.8078310000000001 0.346396 0.388087
8080 -2.56866021 4.674926070000001 1.0479728700000002 0.128279 1.007406 0.241023
8100 -2.3436776700000004 4.717442610000002 2.5706025900000005 0.4479260000000001 0.4894310000000001 0.293058
8120 -1.9610680500000002 5.08372839 3.75853473 -0.262788 -0.563621 -0.016068
8140 -2.50578792 5.83427187 3.8845736100000003 -1.011301 -1.077226 -0.396653
8160 -3.64536657 7.05228147 2.6701446600000005 -0.602086 -0.984856 -0.673787
8180 -4.297564800000001 8.3264337 1.02566493 0.478884 -0.6003109999999999 -0.806666
8200 -3.92872842 8.66398599 -0.10164141000000002 1.181898 -0.131943 -0.794878
8220 -2.79154341 10.32762465 0.46732878 1.172809 0.196396 -0.5795819999999999
8240 -3.2817785400000004 12.00937257 2.42331525 0.885167 0.454639 -0.175997
8260 -6.41146284 12.472061220000002 3.81945483 0.643111 0.567109 0.145839
8280 -7.4922207300000006 11.426491799999999 2.13395949 0.359844 0.622672 0.0829
8300 -5.054092379999999 13.400283420000001 1.38027681 -0.079877 0.5686640000000001 -0.414689
8320 -5.138811540000001 14.150826900000002 3.03149601 -0.6218359999999999 0.6998979999999999 -0.528669
8340 -3.1307437800000004 17.14324968 3.4260738300000004 -0.884591 1.193691 -0.443543
8360 -2.8603998 16.39181349 2.77283574 -0.7537149999999999 1.576897 -0.217725
8380 -2.10702123 13.94814249 0.35431757999999997 -0.368021 1.574142 0.136417
8400 0.7262931600000001 9.935734770000002 -4.159695060000001 -0.25144 1.122445 0.572577
8420 0.50100651 10.042614720000003 -3.30991362 -0.185998 0.8183590000000001 0.902436
8440 -1.8538938000000003 9.79428438 -0.84244356 0.040246 0.810312 1.119808
8460 -4.54259898 9.25226226 0.42167304000000005 0.299462 0.973725 1.055179
8480 -6.2035497 8.11926612 -0.10597743000000001 0.401663 0.934868 0.827343
8500 -6.2063946 8.371795140000001 0.38215836 0.32153000000000004 0.7895760000000001 0.4680470000000001
8520 -4.80171051 8.712633779999999 0.4980144600000001 0.139212 0.559017 0.208559
8540 -2.8774692 7.9019157600000005 0.61192818 0.263864 0.6538109999999999 0.104623
8560 -0.41194152000000006 7.428897180000001 0.8990276400000001 0.50873 0.482737 0.049937
8580 1.52173701 6.65321067 1.2835796400000001 0.616777 0.514343 -0.221746
8600 3.0826944000000003 5.542522470000001 1.39091085 1.08589 0.517517 -0.622261
8620 2.2132929600000004 4.17721572 1.3212990900000001 1.171003 0.656844 -0.905992
8640 -1.5470370000000002 5.9180885100000005 1.5347548800000002 0.714532 0.6351180000000001 -1.203982
8660 -3.94264881 6.727011300000001 1.1472108300000001 0.108212 0.32510500000000003 -1.206752
8680 -5.379509700000001 5.9376987 0.23725485000000002 -0.265644 -0.286818 -0.76954
8700 -6.3659640600000005 5.964499620000001 -0.41523768 -0.556461 -0.49315 -0.600391
8720 -6.54065073 5.65778016 -0.14354973000000004 -0.81193 -0.449193 -0.449476
8740 -5.67334863 5.0269971600000005 1.38641787 -0.91241 -0.314377 -0.510171
8760 -4.66609707 7.809858720000001 2.50114779 -1.418726 0.059030999999999986 -0.477867
8780 -3.4139486700000004 9.27247086 2.55713346 -1.634278 0.15958699999999998 -0.130193
8800 -3.50780094 9.93783411 2.5481475 -1.103449 -0.004803 0.292469
8820 -4.34831193 10.14874911 2.8590558300000004 -0.070283 -0.021702000000000003 0.425757
8840 -4.83509394 10.13512302 3.3690483 0.734194 -0.003237 0.438831
8860 -5.19405165 10.736426970000002 3.0883743900000002 0.820521 -0.242235 0.4579
8880 -6.50382399 13.852494990000002 0.7816706099999999 0.425051 -0.719908 0.375633
8900 -6.9747432300000005 14.315634900000001 1.3534857000000002 -0.010276 -1.240225 0.33587100000000003
8920 -6.108500610000001 12.47820228 -2.94602148 -0.122634 -1.504215 0.383494
8940 -3.96136629 13.555811160000001 -4.963830570000001 0.090347 -1.4205370000000002 0.318645
8960 -1.85015619 11.93782824 -4.78524933 0.4260560000000001 -1.333009 0.250375
8980 -1.3771376100000001 9.87452037 -4.064194710000001 0.787794 -1.368161 0.202741
9000 -2.6047315799999997 10.146502620000001 -3.5061626700000006 0.8223799999999999 -1.2660280000000002 0.206056
9020 -2.65248666 11.46555522 -2.4002617500000003 0.287498 -0.915649 0.161278
9040 -2.97057591 14.07059091 -0.5020561800000001 -0.5268729999999999 -0.49212 0.180685
9060 -3.8598720300000005 15.776746110000001 1.5058644300000001 -0.971122 -0.660606 0.342304
9080 -4.85845155 12.98983302 1.82470905 -0.650147 -0.883503 0.393969
9100 -5.2715898900000004 8.303380200000001 0.74021355 -0.044547 -0.09287 0.08633400000000001
9120 -5.43115935 5.6317346100000005 0.14550192 -0.173091 0.12345 0.18023
9140 -5.836959810000001 3.74550705 -0.19310004 -0.903277 -0.14590999999999998 0.24170500000000006
9160 -5.4248711400000005 2.48244012 -0.42451794000000004 -1.509677 -0.155838 0.319735
9180 -3.63220155 2.5746443100000005 -0.69245847 -0.45824 0.483862 0.6061340000000001
9200 -2.34008721 3.467835 -0.07020036 1.3959780000000002 1.527458 0.956375
9220 -2.36178693 4.36776516 1.13883309 1.4562190000000002 0.910514 0.941563
9240 -2.7104147100000002 4.79093913 2.5385729400000003 0.061128 -0.153558 0.252724
9260 -2.7864520200000005 4.80755727 3.4037757 -0.737379 -0.5949260000000001 -0.5662729999999999
9280 -3.0103947 4.8720678300000015 2.9214768600000003 -0.068126 -0.357402 -0.8716870000000001
9300 -3.50121843 5.65329699 1.6429788 0.714217 -0.198675 -1.017045
9320 -3.5675340300000005 7.5974526000000004 0.49621923000000007 1.0194299999999998 -0.158281 -0.9936
9340 -3.2727925800000004 9.857755080000002 0.77284161 1.068602 0.152506 -0.7020310000000001
9360 -2.67358797 11.908035270000001 2.18320569 1.021286 0.515201 -0.254173
9380 -3.0828415500000004 13.710436379999999 4.239479790000001 0.707739 0.747694 -0.048357
9400 -5.58458775 12.86888553 5.44672782 0.23246 0.7487779999999999 -0.173456
9420 -7.288045200000001 12.328815600000002 2.6794249200000007 -0.286556 0.6630159999999999 -0.387411
9440 -5.826031469999999 11.3744007 1.83862944 -0.481526 0.95454 -0.394488
9460 -4.40937918 15.25448133 2.21988528 -0.460958 1.1488969999999998 -0.265338
9480 -5.3590068 17.8241814 3.3197922900000005 -0.448174 0.921999 -0.01179
9500 -4.40952633 14.574589470000001 1.8781441200000002 -0.455246 0.63305 0.325021
9520 -1.27190574 11.15614782 -2.70606888 -0.324491 0.420192 0.6947439999999999
9540 1.94445972 9.65432511 -4.3152228 -0.209239 0.29685 0.803597
9560 0.26090676 10.51458363 -1.4792204699999998 0.0059960000000000005 0.5302279999999999 0.8624860000000001
9580 -1.7874310500000001 9.873313740000002 0.98809263 0.215897 0.6288779999999999 0.785845
9600 -3.1147240500000004 9.04045455 0.9125065800000001 0.303238 0.5328470000000001 0.483203
9620 -4.21268868 9.14493105 0.3972755700000001 0.269717 0.395586 0.206476
9640 -3.4533162 9.592796790000001 0.03547296 0.419111 0.204113 0.008006999999999998
9660 -3.07789731 8.208027000000001 -0.20447964000000002 0.643155 -0.177459 -0.135217
9680 -1.85240268 6.85574793 -0.33724818 1.067668 -0.290544 -0.461119
9700 -0.43110045 5.81930181 -0.19759302 1.383319 -0.363077 -0.976909
9720 0.5683717800000001 4.585409820000001 -0.15387966000000003 1.248776 -0.063837 -1.367065
9740 0.42032907 4.277356200000001 0.48334851000000006 0.500508 0.132369 -1.565892
9760 -2.4294465 6.076314 0.76580784 -0.457745 0.012671 -1.171848
9780 -3.7643716800000004 6.290819460000001 0.34578288 -0.8439530000000001 -0.447083 -0.682575
9800 -4.677918120000001 6.53840424 -0.28201788000000005 -0.949093 -0.451374 -0.317972
9820 -5.74145946 6.84795879 -0.37018035000000005 -1.0464 -0.316595 -0.372235
9840 -5.44118517 6.27001245 -0.24055101 -1.4600030000000002 -0.059362 -0.671351
9860 -4.27092084 6.22510227 1.11173787 -1.816192 0.509429 -0.612611
9880 -3.77305353 8.01269028 2.8213363800000004 -1.684495 0.472583 -0.038009
9900 -3.5034649200000003 8.48540475 3.8007471600000002 -0.789447 0.13764300000000002 0.361778
9920 -4.99017042 9.23489856 3.7115350200000004 0.286399 0.059061 0.432418
9940 -6.688389330000001 10.838058570000001 2.97955206 0.879956 -0.121873 0.410091
9960 -7.134165540000001 11.03251239 2.25700632 0.8337620000000001 -0.490055 0.349351
9980 -7.425610830000001 12.56442237 0.57645522 0.415529 -0.939323 0.375847
10000 -7.5428109 14.475498660000001 0.17588349 -0.066247 -1.2723 0.413501
10020 -6.158041110000001 13.567485060000001 -3.37353147 -0.29311 -1.291328 0.307255
10040 -2.85666219 13.96057176 -5.78412315 -0.162123 -1.155238 0.25992600000000005
10060 -0.6342263100000001 13.43995506 -4.846169430000001 0.32345 -0.935159 0.213897
10080 0.45834282000000004 11.550127230000001 -3.2419597500000004 0.767662 -0.6278229999999999 -0.038699
10100 -0.07035732 11.045981520000002 -2.6319739500000003 0.685765 -0.554212 -0.260487
10120 -0.41658165 12.113711730000002 -1.7931208500000002 -0.043923 -0.729761 -0.216221
10140 -1.6262135100000001 14.18689827 -0.13307265000000001 -0.590084 -0.962051 0.005657
10160 -3.61348407 15.115866030000001 1.24840098 -0.388895 -0.951374 0.357425
10180 -5.269941810000001 12.67878735 1.1186244900000002 0.192703 -0.383725 0.421649
10200 -6.431828400000001 8.75185416 0.3469797 0.187932 -0.193177 0.725815
10220 -6.72282243 5.87737701 -0.18875421000000003 -0.075873 -0.076974 0.666139
10240 -6.91726644 3.78144108 -0.26674371 -0.432496 0.043798 0.610082
10260 -5.84923212 2.6348188500000003 -0.71761131 -0.34832 0.381651 0.4970060000000001
10280 -3.4459881300000004 2.56506975 -1.1231174700000002 -0.043397000000000005 0.875569 0.32545100000000005
10300 -1.72261638 3.0602393100000005 -0.22453128 0.522292 1.371318 0.534934
10320 -1.43611533 3.39748749 1.5003315900000003 0.362501 0.358315 0.6547569999999999
10340 -1.4456898900000001 4.33963008 3.5352002700000003 -0.589442 -0.528591 0.297799
10360 -1.6411835700000001 4.5452967300000005 4.5144639 -0.912912 -0.688079 -0.296051
10380 -2.18800278 5.11830864 4.36851072 0.161331 -0.523429 -0.577179
10400 -3.10873995 6.107745240000001 2.4277984200000002 1.0159790000000002 -0.5963609999999999 -0.661914
10420 -3.53235537 7.214244570000001 0.04595004000000001 1.217757 -0.278748 -0.610705
10440 -4.02018705 8.39963592 -0.47900268000000007 0.999921 0.031651 -0.256907
10460 -4.37539734 11.341164420000002 1.4003382600000003 0.7752899999999999 0.252599 0.094822
10480 -5.692066110000001 13.1708079 2.78735454 0.42435 0.358916 0.18517
10500 -7.13401839 13.198805640000002 4.51625913 0.077887 0.62646 -0.086785
10520 -6.72327369 11.65895937 3.49268373 -0.295664 0.704867 -0.455895
10540 -4.63331205 11.337426810000002 2.24308593 -0.53596 0.8422430000000001 -0.502614
10560 -4.480786170000001 13.43515797 4.2400782 -0.4170970000000001 1.103228 -0.337612
10580 -4.0002825600000005 17.703538020000003 4.482130140000001 0.003547 1.2029299999999998 -0.061337
10600 -4.19068485 16.56455778 3.14286894 0.151259 0.8245040000000001 0.405924
10620 -2.53303029 13.74755742 -0.13037490000000002 -0.106218 0.309868 0.921805
10640 1.33177617 11.160640800000001 -4.79692323 -0.253385 0.26810500000000004 1.1034959999999998
10660 0.59635971 10.048000410000002 -3.6718633800000005 -0.151753 0.476908 1.01314
10680 -1.6774119 9.53562411 -0.7240466700000001 0.16342 0.612967 0.814341
10700 -4.303254600000002 8.434814580000001 -0.6623712000000002 0.369225 0.424253 0.410096
10720 -5.82454035 6.543642780000001 -1.4455427399999998 0.433343 0.141896 0.103258
10740 -5.754183030000001 7.1139569400000005 -0.5944173300000001 0.38554 0.053123 -0.032626
10760 -4.0460854500000005 8.52866685 0.5307994800000001 0.4435560000000001 -0.086661 -0.024564
10780 -2.15431524 8.34170787 1.1397258000000001 0.680351 -0.144826 -0.069838
10800 -0.34353639 8.399930220000002 1.55780838 1.075102 -0.188744 -0.351171
10820 1.0285098300000002 7.78725648 1.88472663 1.174006 -0.030547 -0.836724
10840 1.8348820200000002 6.110894249999999 1.336122 1.138477 0.473891 -1.212564
10860 0.87253083 4.53422124 1.09257894 0.592581 0.541774 -1.464292
10880 -2.9806017300000005 5.47217496 0.9336078900000001 -0.114409 -0.094693 -0.994124
10900 -4.755907620000001 5.02011054 0.25193061 -0.393118 -0.628259 -0.521097
10920 -5.6853266399999995 4.11314661 -0.59621256 -0.608785 -0.78669 -0.4081
10940 -6.74482626 5.36993514 -1.19286657 -0.794222 -0.72645 -0.39345
10960 -6.76054188 6.95109132 -0.45759726 -1.179192 -0.34109 -0.5248189999999999
10980 -5.326221780000001 8.63524269 1.5789195000000003 -1.498841 0.198212 -0.316235
11000 -3.4531690500000005 9.75072798 2.94497181 -1.30039 0.190323 0.151974
11020 -2.4623786700000005 9.052579710000002 3.15648522 -0.64736 0.006926000000000001 0.4270310000000001
11040 -3.6500067000000005 9.281751120000001 2.76460515 0.131191 -0.107431 0.378136
11060 -4.991367240000001 9.88364367 2.7195478200000003 0.517839 -0.35337 0.27433
11080 -6.032904750000001 10.77878655 2.7533727 0.469106 -0.5087520000000001 0.27953
11100 -6.793022790000001 11.737243170000001 1.2638223 0.113173 -1.00985 0.160181
11120 -7.718851350000001 13.8764412 1.52846667 -0.222011 -1.40131 0.044042000000000005
11140 -7.58023605 14.436729540000002 -0.8915426100000001 -0.324454 -1.420071 0.029464
11160 -5.54297373 14.68820889 -3.84805098 -0.124352 -1.293976 0.02429
11180 -2.9353972500000003 13.774505490000003 -4.8418334100000004 0.399842 -1.100258 0.143072
11200 -0.25896438000000005 10.815309180000002 -4.854252870000001 0.791714 -0.8255790000000001 0.110206
11220 -0.35161983 10.46144286 -4.641699600000001 0.761582 -0.35377600000000003 0.164938
11240 -1.38986118 10.89030663 -3.19615686 0.181525 -0.222025 0.220538
11260 -0.905463 11.38203288 -2.15012637 -0.54302 -0.435958 0.269162
11280 -2.2008735 13.124259450000002 0.09460764 -0.633396 -0.809685 0.301057
11300 -4.17377241 13.64098158 1.38491694 -0.06379800000000001 -0.5891770000000001 0.075085
11320 -5.17623669 11.183988600000001 1.1160837000000001 0.113498 -0.33179699999999995 0.291774
11340 -5.3612532900000005 7.87706703 -0.09729558 -0.376484 -0.271991 0.412189
11360 -5.73098238 6.03455283 -0.6375224700000001 -0.929934 -0.087449 0.296991
11380 -5.5482122700000005 4.17257559 -0.76042215 -0.729969 0.164675 0.210471
11400 -4.34606544 3.3332712300000003 -0.85681521 0.137363 0.8350299999999999 0.183624
11420 -2.2227301800000006 3.2757846300000004 -0.57749508 1.059336 0.987005 0.539177
11440 -1.1111394600000002 3.9661535700000004 0.45759726 0.763831 0.190613 0.686617
11460 -1.43012142 4.60472571 2.0657015100000002 -0.148147 -0.339606 0.340163
11480 -2.0127177 4.8041139600000005 3.6911694600000002 -0.266766 -0.423405 -0.178646
11500 -2.5390242 5.161119480000001 4.25954124 0.492934 -0.456855 -0.463853
11520 -3.61977228 5.74415721 3.74341752 0.961833 -0.408138 -0.532211
11540 -4.31942148 6.311479320000001 2.32930602 0.98525 0.043502 -0.543308
11560 -4.14263547 6.482869830000001 0.6483036600000001 0.8559969999999999 0.31012 -0.240109
11580 -2.90860614 7.96523931 -0.00434583 0.674887 0.392788 0.022371
11600 -3.40856298 11.227701960000001 1.0945213200000001 0.393084 0.548435 -0.028936
11620 -4.71264552 13.45701465 3.2701046400000005 0.2006 0.784984 -0.408734
11640 -6.763681080000001 13.549522950000002 3.65225319 -0.073706 0.758139 -0.6498970000000001
11660 -6.43886217 14.097087720000003 1.41456276 -0.331585 0.87602 -0.601643
11680 -6.12586431 13.75699464 1.91825721 -0.376801 0.961755 -0.424744
11700 -5.50210527 15.34354632 4.28109381 -0.235893 0.8215020000000001 -0.10525
11720 -4.09848066 15.61088844 4.30010559 -0.183088 0.485886 0.394409
11740 -3.65016366 13.18428684 2.4689611800000004 -0.186398 0.391589 0.801499
11760 -0.23680359 10.759470660000002 -2.6406558 -0.133415 0.408059 0.899056
11780 0.81684927 10.40485878 -4.38108714 -0.058562 0.355962 0.808847
11800 -0.5929164 10.96364619 -2.10896361 0.053785 0.261431 0.642042
11820 -2.50339428 9.95534496 -0.72853965 0.131859 0.250612 0.349908
11840 -3.8067312600000003 8.56129491 -1.52877078 0.17763800000000002 0.478264 0.123473
11860 -4.33124253 8.4969315 -0.6448603500000001 0.33221100000000003 0.635595 0.072009
11880 -3.56273694 9.540862650000001 0.7444024200000001 0.395362 0.21668 0.082601
11900 -2.13815817 8.73942489 1.07146782 0.65687 0.217892 -0.180493
11920 -0.59411322 7.9577542800000005 1.3222016099999998 1.038972 0.056384 -0.61452
11940 0.6882696 7.224427350000001 1.64462688 1.118526 0.382048 -1.137811
11960 1.29869685 5.74760052 1.2298404600000001 0.726212 0.547917 -1.5178459999999998
11980 0.34024023 4.2471217800000005 0.42286986 -0.059801 0.299659 -1.357444
12000 -2.23994673 4.55263461 0.08712261 -0.492018 -0.401744 -0.6043310000000001
12020 -4.617743580000001 6.0950216699999995 -0.33530580000000004 -0.58127 -0.520782 -0.329201
12040 -5.76226647 6.50741445 -0.7954438500000001 -0.627598 -0.338641 -0.283824
12060 -6.32584116 6.33168792 -0.88166394 -0.8232290000000001 -0.312956 -0.410205
12080 -5.94847989 5.8525282800000005 -0.20761884 -1.325283 0.014809 -0.422678
12100 -4.46850405 5.641171830000001 0.7878116700000001 -1.447229 0.367091 -0.235974
12120 -3.0075498000000005 7.74923292 1.6777160100000001 -0.950229 0.188243 0.10208
12140 -2.17767285 8.618183100000001 2.4004089 -0.116314 -0.032399000000000004 0.210737
12160 -2.75771853 9.78335604 2.8163921400000005 0.569276 -0.153987 0.185771
12180 -4.85051526 10.360556820000001 3.94369848 0.648929 -0.40912 0.24968
12200 -5.437741860000001 11.060353169999999 3.60869679 0.264698 -0.770674 0.15666
12220 -5.461246620000001 11.97150597 1.09691496 -0.096678 -1.034294 0.061539
12240 -6.91621677 14.23779255 0.46373832000000004 -0.190965 -1.139363 0.044991
12260 -8.0227161 15.173195670000002 -0.7080269400000001 -0.032676 -1.109857 -0.011625
12280 -6.549626879999999 15.481259099999999 -4.17691161 0.247545 -1.1673950000000002 0.014975
12300 -4.47150591 14.9925249 -4.99885227 0.569195 -1.248578 0.05791900000000001
12320 -1.32773445 11.4731874 -4.55383143 0.648313 -1.054648 -0.022962
12340 -0.42152589 10.21864536 -4.388425020000001 0.5428970000000001 -0.6860390000000001 0.062355
12360 -1.7024077800000001 10.02720321 -3.43984707 0.096838 -0.637894 0.130749
12380 -1.51694973 10.248742440000001 -1.83803103 -0.44548 -0.818697 0.26072
12400 -1.6860937500000002 10.990741410000002 -0.22962267000000003 -0.6919890000000001 -1.034228 0.294526
12420 -3.14990271 11.988418410000001 1.04916969 -0.181637 -0.598746 0.17255
12440 -4.97280672 11.21497839 1.2954105 0.067594 -0.192671 0.437622
12460 -5.795797050000001 9.16858296 0.42616602000000003 -0.405066 -0.164421 0.708817
12480 -6.036348060000001 7.140296790000001 -0.44742429 -1.112094 -0.110753 0.687786
12500 -5.926024800000001 5.30227557 -0.75697884 -1.298184 0.217123 0.640133
12520 -4.93389045 4.10625999 -0.8345170799999999 -0.7030029999999999 0.6039899999999999 0.347897
12540 -2.9621883600000003 4.01734215 -0.72838269 0.691024 1.247802 0.374969
12560 -1.80390204 4.789742310000001 0.30790647 0.966935 0.277154 0.447575
12580 -1.62921537 5.085974879999999 1.6986701700000002 0.086978 -0.4672689999999999 0.360129
12600 -1.8845794800000002 4.91787072 3.0308976000000003 -0.479217 -0.5011979999999999 0.01225
12620 -2.71804689 4.283644410000001 3.55196556 0.289484 -0.19485 -0.274398
12640 -3.4299684000000004 4.231700460000001 3.0558934800000004 0.949821 -0.158055 -0.4578390000000001
12660 -4.56206202 4.571793540000001 2.11016043 1.15906 0.237931 -0.5647760000000001
12680 -4.599487170000001 5.513033610000001 0.7446967200000001 1.053776 0.5070319999999999 -0.370371
12700 -3.6782987400000002 6.88358871 -0.047902230000000004 0.819016 0.527015 -0.102845
12720 -2.4903665999999998 9.88844076 0.68033331 0.430583 0.5388970000000001 -0.073527
12740 -2.8755170100000003 13.35821814 2.5188156 0.07302 0.755166 -0.300628
12760 -5.25287241 14.943121740000002 4.29232626 -0.233884 0.8360190000000001 -0.540021
12780 -7.535924280000001 14.013408420000001 2.90201382 -0.370704 1.070637 -0.485729
12800 -6.800213520000001 12.469069170000001 1.1907770400000002 -0.35858 1.299056 -0.342796
12820 -5.9502751200000015 12.323125800000001 2.37092004 -0.223426 1.198657 -0.128079
12840 -5.176383840000001 15.79695471 4.438269630000001 -0.149059 0.763433 0.221239
12860 -4.0951845 15.668816490000001 4.77252576 -0.09334 0.504898 0.6236109999999999
12880 -3.2403116700000005 13.65236118 2.3309541 0.019731 0.481255 0.8434159999999999
12900 -0.26929431000000004 10.0180701 -3.82260384 -0.02156 0.471071 0.7619560000000001
12920 0.01482291 9.608669370000001 -4.27645368 -0.002762 0.516158 0.6594800000000001
12940 -1.89266292 9.465119640000001 -1.38716343 0.013517 0.5608 0.404232
12960 -3.51663975 9.17157501 -0.14654178 0.06753300000000001 0.7191930000000001 0.174739
12980 -4.420905930000001 8.63210349 -0.96130152 0.15345699999999998 0.79792 0.1261
13000 -4.66983468 8.74511469 -0.09655002 0.325994 0.50857 0.141562
13020 -2.9385364500000004 9.31258395 0.72569475 0.439746 0.347602 0.070992
13040 -1.33148187 8.78957361 0.7432056000000001 0.8796879999999999 0.286892 -0.312553
13060 -0.04250673 8.48196144 0.79723908 1.013498 0.491274 -0.922903
13080 0.69410655 7.622448480000001 1.08538821 0.7002689999999999 0.747065 -1.4808940000000002
13100 1.11877164 5.97946968 0.9096616800000001 -0.006298 0.573245 -1.356352
13120 0.06870924 4.20101478 0.33320646000000004 -0.533617 -0.03258 -0.7129850000000001
13140 -2.82866445 4.96232964 0.26569404 -0.5765779999999999 -0.243607 -0.384002
13160 -4.8238713 6.207885720000001 -0.029783160000000003 -0.5913510000000001 -0.130944 -0.307338
13180 -5.67635049 5.980813650000001 -0.82792476 -0.676233 -0.092143 -0.612424
13200 -6.02871588 5.782023810000001 -0.79110783 -1.086438 0.133641 -0.5098239999999999
13220 -5.44477563 5.757626340000001 0.07320222000000003 -1.380317 0.517143 -0.255995
13240 -3.9549211200000003 6.194867850000001 1.08404424 -1.117921 0.459103 0.177474
13260 -2.9336020200000004 8.58030669 2.0767770000000003 -0.416335 0.353477 0.408973
13280 -2.42391366 9.28115271 2.85246351 0.357881 0.280454 0.416611
13300 -3.29524767 10.267146 3.60450792 0.5993109999999999 0.07310900000000001 0.37797
13320 -5.09331276 10.934167140000001 3.9944456100000005 0.26570900000000003 -0.402668 0.300406
13340 -5.92722162 11.32889211 3.33087759 -0.225466 -0.8341059999999999 0.19391
13360 -6.633904590000001 11.947108500000002 1.2880726200000001 -0.465765 -1.0032530000000002 0.078149
13380 -8.00714763 14.683568760000002 0.06960195000000002 -0.334454 -1.021672 0.041702
13400 -7.40165481 14.23884222 -0.49591512000000004 0.023432 -1.074369 0.122249
13420 -4.64364198 13.97703294 -3.8815815600000003 0.394978 -1.211009 0.403826
13440 -1.93412979 13.556105460000001 -4.5346725 0.520419 -1.19392 0.28397100000000003
13460 0.1562733 10.23870681 -3.9758850900000002 0.475678 -0.917 0.069659
13480 -0.55070397 9.955796220000002 -3.51604134 -0.013353 -0.980376 0.091962
13500 -2.07289224 10.53359541 -3.01802688 -0.8438389999999999 -1.374596 0.03005
13520 -2.13919803 10.88162478 -2.39711274 -1.008952 -1.6536830000000002 0.169192
13540 -2.8936360800000003 13.006451160000001 -0.6969514500000001 -0.238169 -0.365226 0.165447
13560 -4.050274320000001 13.634399069999999 0.8101196099999999 -0.05732200000000001 0.165131 0.578364
13580 -5.429364120000001 11.52902592 0.92582856 -0.830835 -0.196967 0.691998
13600 -5.4748629 8.90408574 0.09520605 -1.01548 0.292296 0.244633
13620 -5.707477620000001 6.644980080000001 -0.30311919 -0.346198 0.446245 0.326022
13640 -5.49956448 4.83315156 -0.25312743 0.369548 1.132964 0.334415
13660 -4.2471217800000005 4.15461348 -0.31598991000000004 0.545485 0.848133 0.548585
13680 -2.74289562 4.28229063 -0.25432425000000003 0.41769 0.293144 0.654157
13700 -2.54410578 4.7466273600000015 0.6557886900000001 -0.210713 -0.097141 0.4985810000000001
13720 -2.7580128299999997 5.42307591 2.06660403 -0.442362 -0.162456 -0.0157
13740 -2.86848324 5.23327203 2.8996201800000003 0.063873 -0.405651 -0.376116
13760 -3.1178632500000005 4.09683258 2.69918226 0.7631760000000001 -0.443715 -0.520734
13780 -3.6127385100000002 3.2067810900000002 2.35669554 1.187722 -0.15359 -0.4487060000000001
13800 -3.90643029 3.8694564000000002 1.66693482 1.298805 0.074253 -0.247396
13820 -4.40024607 5.59850814 0.6393177000000001 1.059874 0.075238 -0.020467
13840 -4.17721572 7.390726470000001 -0.30701375999999997 0.635306 0.124505 0.01496
13860 -3.6645255000000003 11.344607730000002 1.1514095100000001 0.218855 0.28031500000000004 -0.226362
13880 -3.3425514900000004 14.138250480000002 3.4726320900000003 -0.119233 0.286789 -0.486173
13900 -5.901931439999999 16.30798704 4.36806927 -0.283264 0.479532 -0.592252
13920 -6.107598090000001 18.392249070000002 2.3084990100000002 -0.250529 0.726221 -0.506881
13940 -5.5741106700000005 14.52445056 2.3673295800000003 0.123287 0.8686290000000001 -0.213896
13960 -5.6953524600000005 14.907952890000002 4.63331205 0.2707 0.5333289999999999 0.125121
13980 -4.070482920000001 12.453951960000001 4.23873423 0.123116 0.12642799999999998 0.5102399999999999
14000 -3.2379180300000003 11.08220004 2.3294531700000007 0.035664999999999995 0.141725 0.756369
14020 -0.29938158000000004 9.82511721 -2.22722316 -0.13599 0.150911 0.739135
14040 -0.10822392 10.014773940000001 -2.50339428 -0.194943 0.308852 0.7203609999999999
14060 -0.5096883600000001 10.36354887 -1.00066905 -0.043645 0.513764 0.494692
14080 -2.5122232800000006 10.92742767 -0.34488036 0.241775 0.663826 0.282849
14100 -3.94025517 10.22703291 -1.4462883000000002 0.416546 0.760546 0.186737
14120 -5.45240781 9.011407140000001 -1.00830123 0.500797 0.58845 0.26018600000000003
14140 -4.89826053 8.67595419 0.09370512 0.460952 0.174576 0.165366
14160 -3.1620278699999997 7.898021190000001 0.76865274 0.653708 0.167009 -0.240271
14180 -1.50721821 7.045394850000001 0.93884643 0.954805 0.302715 -0.8707290000000001
14200 -0.01915893 6.7719214800000005 0.9981282600000001 0.860742 0.658946 -1.4283860000000002
14220 0.87013719 6.38945901 1.04257737 0.354671 0.411041 -1.5982459999999998
14240 0.5935148100000001 5.9401021499999995 0.73916388 -0.077824 -0.13592200000000002 -1.104911
14260 -0.8482903200000002 5.417533260000001 0.7461976499999999 -0.38039 -0.571185 -0.685587
14280 -2.98569312 5.3569074599999995 0.8095212000000002 -0.661651 -0.6885760000000001 -0.655355
14300 -4.34621259 5.263800750000001 0.44382402 -0.884606 -0.6432180000000001 -0.616378
14320 -4.54395276 3.8014927200000006 -0.23830452000000002 -1.279463 -0.26327399999999995 -0.450844
14340 -5.38191315 5.252274 -0.3559558500000001 -1.441397 0.414199 -0.300087
14360 -5.55928776 5.98514967 0.12917808 -1.100904 0.398519 0.128532
14380 -4.68391203 7.252866540000001 0.8390100600000001 -0.342542 0.112641 0.366
14400 -3.37727889 9.24238359 2.0694489300000005 0.427486 -0.184059 0.369622
14420 -2.85126669 9.48172797 3.38341014 0.695334 -0.407639 0.371779
14440 -3.86211852 10.04591088 3.835474560000001 0.399715 -0.724885 0.31030100000000005
14460 -5.11785738 11.276801010000002 3.6190267200000004 -0.03538 -1.13476 0.090938
14480 -5.974074180000001 11.73439827 3.0337425000000002 -0.212189 -1.347036 0.049382
14500 -6.41925198 12.12478722 -0.11570895 -0.06264600000000001 -1.249784 0.10798599999999997
14520 -6.89241771 15.35282658 0.49562082 0.304575 -1.136282 0.176635
14540 -6.824610990000001 15.01078131 -1.17925029 0.756675 -1.058509 0.315358
14560 -5.49941733 13.228588799999999 -3.9201937200000003 1.032685 -0.783044 0.18661
14580 -2.6915500800000003 11.456127810000002 -5.15677365 0.606015 -0.591676 0.119291
14600 -0.06975891000000001 9.75027672 -4.00013541 -0.358595 -0.441082 0.058949
14620 -1.4022806400000003 10.20038895 -3.4251811200000004 -0.881848 -0.6666380000000001 0.175224
14640 -1.99191069 10.967687910000002 -2.49725322 -0.595953 -0.7514770000000001 0.098281
14660 -1.4280318900000002 11.63620017 -1.46230803 -0.103308 -0.226317 0.20894
14680 -2.75652171 14.205311640000001 0.5724135 -0.137217 0.252519 0.638583
14700 -5.64401673 14.429244509999998 1.8238065300000001 -0.896699 0.254224 0.604434
14720 -5.77484289 11.07891369 1.18284075 -1.5099 0.202474 0.491258
14740 -5.128638570000001 7.203767490000001 0.0056898 -0.325866 1.056088 0.448228
14760 -5.06890548 5.05064907 -0.6117810300000001 1.11673 2.020654 0.67285
14780 -4.905 3.4504713000000007 -0.8890018199999999 0.811501 0.81687 0.6765329999999999
14800 -3.6994098600000003 2.86414722 -1.22115861 -0.191912 -0.403135 0.281187
14820 -2.12977062 3.46739355 -0.9342063 -0.610532 -0.753339 -0.222285
14840 -1.5834026700000001 4.3683635700000005 0.48005235 0.094936 -0.561615 -0.5605020000000001
14860 -2.0817212400000003 4.4698578300000005 2.32062417 0.917173 -0.420582 -0.57844
14880 -2.24832447 4.408329510000001 3.7411710300000003 1.252793 -0.025551 -0.5563060000000001
14900 -2.7098163000000004 3.90567492 3.9125615400000004 1.123501 0.264375 -0.221091
14920 -3.00858966 4.2728632200000005 2.9708702100000006 0.847038 0.32898 0.112317
14940 -3.04945812 5.95821141 1.06218756 0.4467060000000001 0.38532 0.22268
14960 -3.5313057000000003 8.41939326 -0.16106058000000004 0.102845 0.4581560000000001 -0.110964
14980 -3.0597880500000008 11.11873248 0.6491963700000001 -0.172579 0.390842 -0.620207
15000 -3.35272446 13.78588509 2.1326155200000003 -0.351723 0.651384 -0.618587
15020 -5.849389080000001 14.61725316 3.53654424 -0.295379 0.951164 -0.510688
15040 -7.144338510000001 13.65325389 2.2073088600000004 0.014568 0.947613 -0.158141
15060 -6.6725265600000006 12.902867370000001 1.88967087 0.06764099999999999 0.714093 0.384117
15080 -5.36694309 15.101043120000002 2.77522938 -0.163625 0.558416 0.8869020000000001
15100 -4.61819484 18.44658666 4.213287090000001 -0.314077 0.61197 0.944535
15120 -5.6080925100000005 16.05605643 3.82708701 -0.239744 0.682379 0.855233
15140 -1.00246428 11.156746230000001 -2.42151021 0.02093 0.576749 0.671319
15160 1.25693568 10.29259314 -4.97550447 0.17266900000000002 0.305881 0.34585
15180 -0.24983127000000002 10.35336609 -2.30730219 0.171249 0.228009 0.107726
15200 -2.04519861 8.177645430000002 0.08846658 0.188381 0.219517 0.085424
15220 -4.0314195 7.294333409999999 -0.7173072 0.336395 -0.101564 0.065505
15240 -4.99406499 8.100852750000001 -0.84289482 0.6802189999999999 0.001366 -0.131983
15260 -4.24248165 9.4601754 -0.24878160000000002 1.070098 0.085089 -0.627158
15280 -3.1585845600000004 9.18534825 -0.022307940000000002 1.101535 0.5772930000000001 -1.198
15300 -1.45257651 8.87130072 0.37811664000000006 0.6121850000000001 0.7944720000000001 -1.538186
15320 0.30476727000000003 7.46782326 0.86864607 0.00703 0.310648 -1.499064
15340 1.71947718 5.83860789 0.99348813 -0.310812 -0.368678 -0.771887
15360 1.5952335300000002 4.32674955 0.68587596 -0.584454 -0.550573 -0.601581
15380 -1.40019111 3.98576376 0.68512059 -0.908636 -0.385918 -0.471597
15400 -4.31223075 5.463189 0.29159244 -1.098303 -0.256664 -0.396176
15420 -4.95125415 4.85994267 -0.30491442 -1.332296 0.282613 -0.255359
15440 -5.546711340000001 4.82087925 -0.5783976000000002 -1.236312 0.5188510000000001 -0.009301
15460 -5.50614699 6.740784540000001 -0.38469915000000005 -0.7781020000000001 0.284625 0.358464
15480 -4.80785157 7.424257050000001 0.7665534 -0.118889 0.032999 0.375141
15500 -3.7985006700000006 8.88268032 1.9856224800000002 0.422631 -0.109344 0.337446
15520 -2.72538477 9.05721984 2.6456000400000006 0.489976 -0.29715 0.358453
15540 -3.11441994 9.78036399 2.80307016 0.223709 -0.541863 0.247948
15560 -4.70531745 10.58643207 3.2087234700000002 -0.055198 -0.743947 0.143709
15580 -5.82963174 10.889404110000001 2.8872007200000005 -0.1878 -0.8625940000000001 0.092729
15600 -6.53091921 10.97622261 1.4133561300000002 -0.14583800000000002 -0.897437 -0.021233
15620 -7.76554695 13.726456109999999 0.82837602 0.047259 -0.8206629999999999 0.059066
15640 -7.52335767 15.948136620000001 0.44802270000000005 0.304095 -0.8228690000000001 0.121751
15660 -5.679038429999999 15.267803310000001 -3.48639552 0.5112270000000001 -0.59226 0.081242
15680 -3.0636826200000002 14.23585017 -4.89586689 0.349673 -0.424575 0.111945
15700 0.00628821 11.541749490000003 -5.53144698 -0.336862 -0.512844 0.137173
15720 -0.027242370000000002 10.94044554 -5.122948770000001 -0.983924 -0.853664 0.148045
15740 -1.80330363 11.710746360000002 -3.5832496500000004 -0.746779 -0.86165 0.074936
15760 -2.10611871 11.172020400000001 -2.36897766 -0.046258 -0.326751 0.234036
15780 -2.9913829200000004 11.3832297 -0.37916631 -0.162557 -0.652817 0.6235430000000001
15800 -4.78988946 12.15801369 0.9249260400000001 -0.8477899999999999 -0.28699 0.575559
15820 -5.16561246 11.61868932 0.7744896900000001 -0.913866 -0.006702 0.6025119999999999
15840 -5.079539520000001 8.91860454 0.07229970000000002 -0.152818 0.591175 0.411577
15860 -5.12025102 6.44799528 -0.26344755000000003 0.785435 1.471814 0.483232
15880 -4.81683753 4.38917058 -0.43020774 0.85635 0.540998 0.62913
15900 -3.45751488 3.12565239 -0.6243476400000001 0.32993 -0.323022 0.573149
15920 -1.83877659 3.2515343100000003 -0.61058421 -0.494915 -0.524104 0.159584
15940 -1.2901719600000003 3.74760639 0.53663643 -0.172326 -0.304406 -0.182411
15960 -1.73204379 4.2110406 2.10207699 0.61503 -0.282853 -0.393788
15980 -2.1833626500000003 4.66579296 3.1174218000000002 1.138891 -0.147896 -0.498192
16000 -3.1139784900000005 4.673434950000001 3.55376079 1.184452 0.140148 -0.376466
16020 -3.91675041 4.963526460000001 3.2081250600000004 1.01945 0.31304 -0.046691
16040 -4.188438360000001 6.08874327 1.87934094 0.718828 0.36003 0.184021
16060 -3.80852649 7.06126743 0.30716091 0.331201 0.588966 0.012241
16080 -2.71086597 9.25420464 -0.18022932 -0.03146 0.7301310000000001 -0.342986
16100 -2.8708768800000004 12.182568120000001 1.3248993599999999 -0.405649 0.861022 -0.516683
16120 -4.36821642 14.21009892 3.58638885 -0.533848 1.156164 -0.420749
16140 -7.52575131 13.45851558 3.63459519 -0.48393 1.212022 -0.31365
16160 -7.3766589300000005 13.60386054 1.40287905 -0.306773 0.961275 -0.099515
16180 -7.986046320000001 13.49114364 1.70869599 -0.006075 0.503228 0.433011
16200 -6.058047780000001 16.26711858 3.8922057899999998 0.205222 0.389232 0.78501
16220 -4.30086096 16.690145400000002 4.90065417 0.388957 0.56917 0.915317
16240 -3.9787299900000006 14.231808450000003 3.1849244100000007 0.193191 0.5172829999999999 0.7409640000000001
16260 0.18082773000000002 9.77048532 -2.98150425 -0.090374 0.342344 0.512745
16280 1.06653339 9.12622338 -4.21867278 -0.25674 0.182662 0.097317
16300 -0.35191413000000005 8.93372175 -1.7920711800000002 -0.278569 0.127019 -0.08756599999999999
16320 -2.7403548300000002 8.61218919 -0.25012557 0.080997 0.16610999999999998 -0.05199
16340 -4.3405227900000005 8.381968109999999 -1.6090067700000001 0.468175 -0.073943 -0.02975
16360 -4.73495346 7.918681050000001 -1.5587109000000001 0.863974 -0.161383 -0.350544
16380 -3.83981058 9.09702882 -0.49157910000000005 1.01295 -0.099865 -0.678595
16400 -2.2356009 9.18250335 0.24952716000000003 1.0090059999999998 0.413636 -0.950609
16420 -0.6408186300000001 8.56264869 0.9141448500000001 0.8533059999999999 0.733379 -1.121954
16440 0.8240400000000001 7.70493096 1.40407587 0.5814739999999999 0.434369 -1.235632
16460 1.7860870800000002 6.47598321 1.53355806 0.099877 -0.275731 -0.662315
16480 1.5066198 5.057682840000001 0.80472411 -0.417797 -0.682301 -0.305419
16500 -0.86549706 4.9752003600000005 0.26284914 -0.71959 -0.533651 -0.188077
16520 -4.35668967 6.59633229 0.14385383999999998 -0.830292 -0.230763 -0.179624
16540 -5.82019452 7.43070222 -0.86325057 -1.028127 0.097145 -0.225223
16560 -7.08776424 6.94600974 -1.2892694400000002 -1.004278 0.201378 -0.204894
16580 -6.406077150000001 4.49695305 -0.7105677300000001 -0.699248 0.132434 -0.011463
16600 -4.7345022000000005 4.05536571 0.28874754 -0.191208 0.107616 0.159828
16620 -3.6392353200000005 6.42628575 0.98974071 0.277593 0.081022 0.276368
16640 -2.6406558 9.385334910000001 1.50227397 0.3177 -0.122047 0.4083
16660 -2.11300533 10.43030592 2.07468747 0.045456 -0.4384 0.369416
16680 -3.3244324200000004 11.248361820000001 2.49904845 -0.153828 -0.7567619999999999 0.237041
16700 -4.76982801 11.71643616 3.4211394 -0.219372 -0.969148 0.126828
16720 -6.0535646100000005 12.15023436 2.5110264600000005 -0.226653 -1.062324 -0.008768000000000001
16740 -7.672293090000001 12.42431595 0.8222447700000001 -0.104513 -1.045313 -0.10621300000000003
16760 -9.186692220000001 13.630210200000002 0.7927559100000001 0.083298 -0.996064 -0.064372
16780 -8.19680436 14.97440583 -0.5960556 0.214193 -0.804882 -0.035927999999999995
16800 -6.04876752 14.91154335 -3.11233041 0.11291500000000003 -0.535076 -0.020958
16820 -2.49306435 12.629982600000002 -4.724623530000001 -0.170426 -0.598302 0.051919000000000014
16840 0.33081282000000006 9.76030254 -5.585637419999999 -0.5579390000000001 -0.915356 0.021845
16860 -0.7806307500000002 10.23586191 -4.7265757200000005 -0.7807930000000001 -1.370483 0.012326
16880 -2.18126331 10.65484701 -2.94871923 -0.133381 -0.969937 -0.01678
16900 -1.7078032800000003 10.42776513 -1.36934847 0.472299 -0.260604 0.292053
16920 -2.20955535 11.754459720000002 0.25012557 -0.005731 -0.350029 0.6915479999999999
16940 -3.3242852700000003 12.86514792 0.56177946 -0.6487350000000001 -0.370735 0.832361
16960 -3.90851982 11.806246710000002 0.05223825 -0.673075 0.346438 0.792816
16980 -4.39785243 9.21064824 -0.62211096 -0.269593 0.7363970000000001 0.426598
17000 -5.12953128 6.8572390500000004 -0.72943236 0.597006 1.1885940000000002 0.344478
17020 -5.22338355 4.604421600000001 -0.8994789 0.8348040000000001 1.050903 0.472366
17040 -4.12632144 3.5375939100000005 -1.2448105200000001 0.417772 0.102236 0.443963
17060 -2.71520199 3.85957773 -0.94199544 -0.543449 -0.369606 0.19323
17080 -2.1615059700000003 4.48886961 0.19100070000000002 -0.932917 -0.311224 -0.215489
17100 -2.06256231 4.9810373100000005 1.7482106700000002 -0.16698 -0.154922 -0.273364
17120 -2.01361041 5.094951030000001 2.8589086800000003 0.707701 -0.098802 -0.413673
17140 -2.183509800000001 4.98971916 3.27594159 1.095792 0.08731 -0.40586
17160 -2.5634216700000003 5.20542144 3.04526925 1.144908 0.458416 -0.279942
17180 -3.35781585 5.490735480000001 2.447114310000001 0.924844 0.462219 0.025096
17200 -3.7538946 5.940700560000001 1.20020445 0.604163 0.467027 0.165991
17220 -3.33850977 6.676862580000001 0.01392039 0.155797 0.6357619999999999 -0.083048
17240 -3.33671454 9.28280079 0.3176379900000001 -0.31919200000000003 0.6157739999999999 -0.532857
17260 -4.42689003 12.851374680000001 1.6874377200000001 -0.591384 0.746993 -0.61077
17280 -7.01111871 13.22394867 2.97775683 -0.5821109999999999 1.048945 -0.472223
17300 -9.51421869 11.944116450000001 2.9817985500000006 -0.330671 1.108239 -0.33381
17320 -5.563633590000001 12.58972236 1.4853615300000003 -0.046365 0.840665 -0.000333
17340 -5.4765109800000005 12.392433450000002 4.62223656 -0.042732 0.455268 0.470204
17360 -4.55727474 16.21832364 5.53503744 0.057273 0.524804 0.8425549999999999
17380 -2.9325523500000004 16.73534988 3.36799863 0.246745 0.752827 0.93118
17400 -3.1886718300000005 15.633784980000001 1.1544015600000002 0.238217 0.814292 0.752649
17420 -0.15777423000000002 10.93536396 -3.11128074 0.092556 0.67201 0.496509
17440 1.8887683500000003 9.82646118 -4.26418137 0.062201 0.482719 0.175004
17460 0.17258733 9.45374004 -0.5379804 0.155898 0.353843 0.08822999999999999
17480 -1.80254826 9.18145368 0.81115947 0.229927 0.270244 0.150811
17500 -3.83203125 8.7223653 -0.68781834 0.290297 0.252664 0.23244
17520 -5.281468560000001 8.05445145 -1.2651662700000001 0.371036 -0.075665 0.218469
17540 -4.5514377900000005 8.61593661 -0.40789980000000003 0.814277 0.254041 -0.033094
17560 -3.1545428400000004 9.23669379 -0.16466085 1.249354 0.52246 -0.668127
17580 -1.70570394 8.52507639 -0.19564083 1.135312 0.716795 -1.215034
17600 -0.02529999 8.16581457 0.43020774 0.39694 0.61944 -1.536261
17620 1.1817910800000002 6.949453050000001 1.07506809 -0.36443 -0.003125 -1.298295
17640 1.6534656900000002 5.64416388 0.83975562 -0.355781 -0.583939 -0.714241
17660 0.16450389 4.97684844 0.51822306 -0.276221 -0.600538 -0.628206
17680 -3.48983883 5.807618100000001 0.44068482 -0.422338 -0.409008 -0.446806
17700 -5.473518929999999 6.27450543 -0.054190440000000006 -0.942723 -0.360287 -0.457981
17720 -6.25040226 6.140079 -0.7652094300000001 -1.449809 0.207551 -0.296676
17740 -6.567588990000001 5.53398777 -0.66072312 -1.456157 0.496213 -0.018285
17760 -5.84609292 5.02998921 0.63826803 -0.928096 0.092543 0.305319
17780 -4.02527844 4.940777070000001 2.04145119 -0.085114 -0.192377 0.230388
17800 -2.25745758 7.19104392 2.7831656700000007 0.5637979999999999 -0.307941 0.063085
17820 -1.32953949 8.895698190000001 2.51238024 0.603653 -0.417976 0.106233
17840 -2.12228559 9.6338124 2.3543019000000003 0.14166099999999998 -0.635916 0.129991
17860 -3.94235451 10.47356802 2.2290183900000002 -0.26892 -0.818843 0.144449
17880 -5.55060591 11.77046964 2.27391876 -0.318504 -0.919919 0.15598299999999998
17900 -6.517450080000001 11.874955950000002 2.40744267 -0.092152 -0.951321 0.087101
17920 -6.64153677 11.38936095 1.31681592 0.173459 -0.975625 0.074033
17940 -7.06411233 13.00944321 1.50422616 0.489787 -0.928506 0.004611
17960 -6.72566733 14.404091670000001 0.7276371300000001 0.749782 -0.756865 0.012616
17980 -4.9235605200000006 14.321619 -4.06913895 0.63726 -0.517241 0.125823
18000 -2.18186172 13.800256740000002 -5.84339517 0.224864 -0.278769 0.25402800000000003
18020 -0.67884219 11.132495910000001 -3.80254239 -0.230842 -0.4957720000000001 0.304534
18040 -1.18822644 9.59504328 -2.8530717300000004 -0.710479 -0.938036 0.231248
18060 -2.7184981500000003 10.601549280000002 -3.85119018 -0.5136350000000001 -0.6159140000000001 -0.041254
18080 -2.20056939 11.13818571 -3.46993434 0.024962 0.19032 0.335352
18100 -2.8927335600000004 12.162055409999999 -1.7994090600000001 -0.234937 0.409213 0.698588
18120 -4.591550880000001 13.75429689 0.82763046 -1.026951 -0.003012 0.8431350000000001
18140 -5.56198551 13.16047797 1.43536977 -1.472739 0.193805 0.761789
18160 -4.614153120000001 10.497965490000002 0.5396284800000001 -0.011302 1.458979 0.65394
18180 -4.59214929 7.12952541 -0.60923043 1.288845 1.882652 0.934875
18200 -4.784346810000001 4.617302130000001 -0.7068301200000001 0.576885 0.690562 0.764787
18220 -4.3204613400000005 3.6315933300000003 -0.83212344 -0.886164 -0.733509 0.118664
18240 -3.41769609 3.7074933 -0.7750881000000001 -1.093505 -0.807602 -0.352707
18260 -2.22572223 4.26657501 -0.03907323000000001 0.024518 -0.16159400000000002 -0.6352140000000001
18280 -1.7486619300000001 4.23858708 1.14092262 1.133678 0.332538 -0.758422
18300 -1.53895356 3.81047868 2.4975573300000002 1.423008 0.502537 -0.631637
18320 -1.65526092 3.31770276 3.16861038 1.169151 0.611805 -0.298129
18340 -2.33784072 3.17174958 3.2705460900000003 0.833101 0.647051 -0.030261
18360 -2.9806017300000005 3.96375993 2.6017395300000006 0.5346770000000001 0.7035319999999999 -0.0431
18380 -3.70988694 4.88404584 1.64598066 0.203985 0.590022 -0.407392
18400 -3.85882236 6.49454373 0.3962259 -0.371279 0.440108 -0.513767
18420 -3.1620278699999997 8.95108545 0.6053456700000002 -0.588375 0.921877 -0.391987
18440 -2.90485872 12.14903754 1.1814967800000005 -0.346574 1.316341 -0.147249
18460 -5.435799480000001 15.66807093 3.18178521 -0.111744 1.25643 0.245437
18480 -9.37889955 15.21780174 4.258050120000001 -0.100561 0.8827510000000001 0.7096020000000001
18500 -7.88560173 12.394827090000001 1.3205535300000002 -0.249089 0.442963 0.795654
18520 -4.09683258 12.35964843 1.15619679 -0.319632 0.245747 0.625567
18540 -4.33034982 17.92642122 2.82657492 -0.130402 0.388565 0.44404
18560 -4.78225728 21.66519861 3.85882236 0.061167999999999986 0.57506 0.260337
18580 -4.341719610000001 14.904656730000001 0.8906499 0.05684 0.656609 0.11706
18600 1.7179762500000002 8.774897850000002 -5.4091555200000005 0.165951 0.448639 0.082837
18620 2.99466927 10.43659413 -5.66466678 0.356368 0.121754 -0.120512
18640 -1.24181847 12.67953291 -2.14818399 0.741142 0.262994 -0.609388
18660 -4.0360596300000005 10.1367711 1.1758069800000002 0.735893 0.804825 -1.038476
18680 -5.0726529 8.398439100000001 0.91818657 0.32410500000000003 1.140172 -1.426342
18700 -4.47569478 8.506358910000001 0.00164808 -0.214473 0.750929 -1.387944
18720 -3.3585614100000005 7.81569567 -0.8222447700000001 -0.336811 0.069038 -0.721354
18740 -2.1342636 6.897509100000001 -0.8963397000000001 -0.426661 -0.143901 -0.406584
18760 -0.7020428400000001 6.57971415 -0.5674692600000001 -0.744486 0.025999 -0.26160700000000003
18780 0.24773193000000002 5.77903176 0.15942230999999998 -0.913724 0.136225 -0.240498
18800 1.52922204 4.1971202100000005 0.51523101 -1.280324 0.483641 -0.223207
18820 1.03764294 2.86099821 0.7123727700000001 -1.363873 0.837902 -0.031965
18840 -3.21426612 5.95985949 1.04946399 -0.992206 0.7268319999999999 0.248511
18860 -4.303254600000002 5.954915250000001 0.68183424 -0.443426 0.412504 0.32325
18880 -4.60652094 5.716757879999999 -0.25985709 -0.008879999999999999 0.101579 0.179269
18900 -4.99511466 7.1359607700000005 -1.02327129 0.10321500000000003 -0.18723 0.112056
18920 -4.65831774 7.204218750000001 -0.58394025 -0.088158 -0.46904 0.155946
18940 -4.2950142 8.54423532 1.17999585 -0.282526 -0.757022 0.147479
18960 -3.797451 10.168653599999999 3.6037525500000003 -0.308519 -0.858073 0.132472
18980 -4.22870841 10.778040990000003 4.47270273 -0.164802 -0.777263 0.045778
19000 -5.77513719 12.29557932 3.62007639 0.063286 -0.797355 0.077308
19020 -6.686594100000001 11.74248171 1.41096249 0.311415 -0.711622 0.266938
19040 -6.95469159 13.567190759999999 -1.67082939 0.458279 -0.665883 0.15680999999999998
19060 -6.68405331 17.061973830000003 -0.51073803 0.22181 -0.678516 0.057966
19080 -5.33056761 15.57257058 -3.55421205 -0.386385 -0.885374 0.100985
19100 -2.8086128100000005 14.06968839 -4.520300850000002 -0.772191 -1.172045 0.196934
19120 0.63962181 10.99389042 -3.86316819 -0.461548 -0.7636350000000001 0.091758
19140 -0.52929855 11.2790475 -3.93381981 -0.224445 -0.399248 0.402732
19160 -2.46687165 11.536962209999999 -3.17250495 -0.55582 -0.191772 0.752664
19180 -2.4974101800000006 10.86395697 -2.47076622 -1.091126 0.205866 0.611683
19200 -2.83750326 11.28937743 -0.69066324 -0.6444479999999999 0.7712060000000001 0.305363
19220 -3.5631882 11.577673710000001 0.22677777 0.444787 1.432293 0.2726
19240 -4.070482920000001 10.436751090000001 0.81535815 0.8723549999999999 1.084912 0.459766
19260 -4.24891701 8.28960696 0.5327418599999999 0.5351739999999999 0.174017 0.506648
19280 -4.52389131 6.5967835500000005 0.021258270000000003 -0.4183270000000001 -0.387704 0.347952
19300 -4.7563588800000005 5.073251310000001 -0.61642116 -0.722709 -0.344709 -0.016357
19320 -4.0300657200000005 3.9454937100000005 -1.0062117 -0.00298 -0.179102 -0.229459
19340 -2.9163854700000003 3.51588438 -0.74155752 0.7685890000000001 -0.016188 -0.347124
19360 -2.443671 3.79445895 0.32377905 1.19126 0.270992 -0.335994
19380 -2.7288280800000004 3.9929446800000004 2.0594133 1.220233 0.464143 -0.17901
19400 -2.80651347 3.9736386 3.49298784 0.989405 0.366041 0.044898
19420 -3.0490068600000004 3.9962408400000005 3.95716761 0.57208 0.330202 0.045234
19440 -3.4925365800000003 4.7066614200000005 3.5530152299999997 0.149367 0.47873 -0.234579
19460 -3.9520860300000002 5.444324370000001 1.27864521 -0.198653 0.51253 -0.393014
19480 -3.42637794 7.162153470000001 -0.9367569000000001 -0.387131 0.835943 -0.388335
19500 -3.05799282 9.36392949 -0.48962690999999997 -0.393621 1.17742 -0.263836
19520 -3.97184337 12.684477150000001 2.168991 -0.132508 1.276003 -0.101905
19540 -5.69281167 14.34527091 4.38123429 0.075557 0.8628959999999999 0.194907
19560 -6.947206560000001 14.89986945 2.54306592 0.003985 0.48249 0.5484760000000001
19580 -6.87295467 15.64023015 2.21285151 -0.096279 0.36732 0.665427
19600 -5.45345748 16.75211517 3.1295469600000003 -0.331333 0.265977 0.638278
19620 -4.18006062 17.56956285 4.51341423 -0.299958 0.287477 0.5626260000000001
19640 -3.2579794800000004 14.173576290000002 3.73458852 -0.150317 0.357121 0.33284600000000003
19660 -0.89648685 9.60252831 -0.67704696 0.089317 0.404615 0.236182
19680 1.0359948600000002 9.334136520000001 -3.6500067000000005 0.232688 0.471325 0.212529
19700 0.00538569 9.22636386 -1.7446202100000001 0.418531 0.20890300000000006 0.142593
19720 -1.71139374 9.49401009 -0.36254817 0.735646 0.222768 -0.136152
19740 -3.95687331 9.73470825 -1.1723636700000002 1.17023 0.144018 -0.5325310000000001
19760 -5.15183922 8.68987458 -1.3931573400000001 1.1686299999999998 0.477328 -1.032897
19780 -4.650077340000001 8.39708532 -0.39981636000000004 0.689068 0.723287 -1.3858700000000002
19800 -3.03553773 8.466540120000001 0.12379239 -0.138236 0.316306 -1.456289
19820 -1.77530589 8.020322460000001 0.393381 -0.479652 -0.274014 -0.85544
19840 -0.34743096000000007 7.317985320000001 0.8116107300000001 -0.466056 -0.5584359999999999 -0.602881
19860 0.7246450799999999 6.46311249 1.25154999 -0.58232 -0.510263 -0.561026
19880 0.80367444 5.455409670000001 0.83107377 -0.77167 -0.345715 -0.520898
19900 -0.55010556 4.832553150000001 0.53603802 -1.337266 0.201258 -0.418728
19920 -3.2216040000000006 5.59312245 0.7207505100000001 -1.587533 0.591919 -0.12828399999999998
19940 -4.8814952400000005 5.90088177 0.3013239600000001 -1.185977 0.381135 0.287125
19960 -4.83300441 4.83135633 -0.5321434500000001 -0.344608 0.140294 0.378768
19980 -4.717442610000002 4.54440402 -0.59141547 0.36561 -0.043897000000000005 0.27073400000000003
20000 -4.38184251 6.276899070000001 -0.063765 0.440241 -0.374066 0.189425
20020 -3.6253149300000005 7.86838518 0.9273196800000001 0.039954 -0.748343 0.095242
20040 -3.0569431500000004 9.77437008 1.7757571500000002 -0.347487 -1.09398 0.020339
20060 -2.9452759200000003 9.77362452 3.0756508200000003 -0.436822 -1.252459 0.035941
20080 -4.657415220000001 10.00819143 3.7610755200000003 -0.21747800000000006 -1.117909 0.030892000000000006
20100 -5.681432070000001 10.91035827 3.36260313 0.13118 -1.07475 0.124071
20120 -6.3818268300000005 11.13863697 2.86249914 0.5508310000000001 -0.966599 0.153569
20140 -7.15377573 12.079582740000001 0.55564821 0.8388059999999999 -0.663384 0.001368
20160 -7.33205286 15.10419213 1.5310172700000002 0.5397029999999999 -0.511065 -0.001985
20180 -6.684798870000001 14.46397191 -1.6104978900000002 -0.225999 -0.524984 0.146509
20200 -4.376299860000001 14.4463041 -5.04331119 -0.7058949999999999 -0.732996 0.366682
20220 -2.03367186 12.909008430000002 -5.5613871 -0.498411 -0.811778 0.17488399999999998
20240 0.29383893 10.708880490000002 -4.49755146 0.115948 -0.4270140000000001 0.125271
20260 -1.3566249000000001 10.801840050000001 -4.1396434200000005 0.082929 -0.325838 0.692136
20280 -1.28477646 10.68567984 -2.72912238 -0.444286 -0.015517 0.801288
20300 -1.41964434 11.73994092 -1.41904593 -0.942092 0.219908 0.7003010000000001
20320 -2.6973870300000002 13.468992660000001 0.94827384 -0.784353 0.7483310000000001 0.552242
20340 -4.9531965300000005 13.2835248 1.3647083400000002 0.315625 1.487852 0.343197
20360 -5.0388182100000005 10.757077019999999 0.6273495000000001 1.106751 1.034054 0.719978
20380 -4.994663399999999 7.5299401800000005 -0.2775249 0.6227729999999999 -0.105012 0.6785329999999999
20400 -5.10228891 5.25602142 -0.4776587100000001 -0.485807 -0.507601 0.286745
20420 -4.9892777100000005 3.5594505900000004 -0.74799288 -0.648113 -0.308019 -0.198549
20440 -3.89340261 2.84992272 -1.1192229 0.360923 -0.091267 -0.399013
20460 -2.64949461 3.5236735200000004 -0.63871929 1.091141 -0.058374 -0.466594
20480 -2.3493674700000002 4.29082533 0.9156457800000001 1.212789 0.215915 -0.434049
20500 -2.5616264400000004 4.486466160000001 2.5634216700000003 1.03943 0.409153 -0.123587
20520 -2.6249401800000003 4.040101350000001 3.8648162700000004 0.823534 0.402241 0.193244
20540 -2.8521692100000005 3.4637932800000004 3.99519117 0.453325 0.589095 0.14021199999999998
20560 -3.3605136 3.8687010300000004 3.01338675 0.06289600000000001 0.65394 -0.285614
20580 -3.6980560800000006 5.214407400000001 1.20230379 -0.316934 0.6360359999999999 -0.5403439999999999
20600 -3.1612725 7.04300121 -0.15732297 -0.498126 0.992153 -0.46195
20620 -3.5328066300000005 9.890235990000003 0.6060912300000001 -0.420391 1.325857 -0.331511
20640 -3.38835438 14.33269449 2.24368434 -0.203549 1.151553 -0.087287
20660 -5.83741107 15.570618390000002 3.6455235300000006 -0.013762 0.662101 0.402843
20680 -8.25233877 12.934897020000001 3.8230452900000005 0.092254 0.414136 0.7820520000000001
20700 -5.60329542 11.89920627 1.82320812 0.094033 0.368191 0.815238
20720 -5.42741193 11.759698260000002 3.6794955600000003 0.01731 0.36854 0.7944060000000001
20740 -4.5933461100000015 15.927928020000001 5.322180060000001 -0.023756 0.273677 0.577391
20760 -4.2388813800000005 16.46650683 4.5632588400000005 0.008679000000000001 0.282325 0.251799
20780 -3.9519290700000003 14.997616290000002 1.39823892 0.02254 0.386139 0.119303
20800 -0.34143705 11.768831370000001 -4.13081442 0.183574 0.388704 0.137517
20820 0.75398679 11.491453620000001 -4.7502178200000005 0.386609 0.013974 0.166121
20840 -0.9324110700000001 10.32403419 -1.25664138 0.759704 0.12570499999999998 -0.126246
20860 -2.6229978000000003 8.835974910000001 0.053886329999999996 0.971901 0.20942 -0.731621
20880 -4.06464597 7.472306430000001 -1.1076961500000004 0.924431 0.6383850000000001 -1.137358
20900 -4.8065076000000015 6.981178590000001 -0.52406001 0.329172 0.609632 -1.422422
20920 -3.51798372 8.13558015 0.46149183000000005 -0.309454 0.124508 -1.2959379999999998
20940 -2.1146534100000003 8.407268100000001 0.48438837 -0.477873 -0.24675 -0.748641
20960 -0.71775846 8.07435594 0.5327418599999999 -0.458725 -0.401664 -0.653237
20980 0.73362123 7.470668160000001 1.05306426 -0.5116430000000001 -0.444492 -0.553139
21000 1.6658851500000003 6.363717570000001 1.0359948600000002 -0.8702 -0.4295270000000001 -0.521479
21020 0.81115947 4.8907755 0.85472568 -1.431272 0.033948 -0.321962
21040 -2.5075831500000003 5.27487624 0.97507476 -1.433775 0.324343 0.052595
21060 -5.03029332 6.47987778 0.63766962 -0.919661 0.138047 0.373686
21080 -5.73846741 6.33602394 -0.4713705 -0.058749 -0.06754500000000001 0.424829
21100 -5.91300693 5.047657020000001 -1.19900763 0.609915 -0.218653 0.337826
21120 -5.42831445 4.63450887 -0.47870838000000004 0.64422 -0.462547 0.294581
21140 -4.496796090000001 5.376517649999999 0.73048203 0.211197 -0.797153 0.164866
21160 -3.53654424 8.46235125 1.63086345 -0.149362 -1.1045 0.081557
21180 -2.1874043700000003 9.41167476 2.29831623 -0.222977 -1.295116 0.128289
21200 -2.8629504 10.586137770000002 3.3822133200000004 -0.062838 -1.345444 0.054696
21220 -4.99316247 11.31422616 3.69836019 0.210063 -1.379482 0.071601
21240 -5.761972170000001 12.20801526 2.85126669 0.555384 -1.177391 0.116483
21260 -6.45068322 12.78266544 0.30850488000000004 0.641224 -0.965161 -0.017785
21280 -7.25915475 14.38239195 0.9499219200000001 0.230611 -0.929658 -0.015358000000000004
21300 -7.152873210000001 14.76379494 -0.29938158000000004 -0.420391 -0.87877 0.077238
21320 -4.659063300000001 14.4172665 -4.1561046 -0.715357 -1.216438 0.326643
21340 -2.0737849500000003 13.71507651 -5.2796733300000005 0.035826 -0.6261899999999999 0.186923
21360 -0.01691244 11.3052402 -3.97498257 0.37544 -0.07651000000000001 0.425736
21380 -0.8946916200000001 10.635678270000001 -3.82170132 -0.188774 -0.06474099999999999 0.635425
21400 -2.0869597800000004 10.46832948 -2.9696733900000005 -1.073117 -0.098709 0.572675
21420 -1.6837001100000002 10.33540398 -2.11525182 -1.270292 0.029365 0.41731
21440 -2.4029496900000002 12.064308570000001 -0.18860706000000002 -0.351734 0.73552 0.184608
21460 -4.555930770000001 13.06677285 1.08074808 0.902032 1.470731 0.652827
21480 -5.71840596 11.533960350000001 1.3009433400000001 0.907329 0.610641 0.751174
21500 -5.5036062 8.710083180000002 0.28111536000000004 -0.120389 -0.156133 0.520651
21520 -5.239108980000001 6.37254657 -0.53154504 -0.8605379999999999 -0.25963800000000004 -0.125319
21540 -5.11156917 4.67987031 -0.84798621 -0.148769 -0.099856 -0.473065
21560 -4.30789473 3.7187159400000005 -0.80996265 0.73448 -0.032066000000000004 -0.609056
21580 -2.74304277 3.86242263 -0.6469498800000001 1.075337 0.136974 -0.553481
21600 -1.88128332 4.67582859 0.3065625 1.135709 0.47154 -0.356935
21620 -1.9637658 4.88643948 1.94685336 0.972831 0.621073 -0.04848
21640 -2.12108877 4.52867859 3.3045279300000003 0.533503 0.540154 0.055377
21660 -2.56402008 3.82155417 3.72904587 0.083538 0.67765 -0.106039
21680 -3.2998878000000005 3.6724617900000003 2.8678848300000004 -0.213141 0.761146 -0.482096
21700 -3.62740446 4.450541940000001 1.0816506000000001 -0.448777 0.947662 -0.5673020000000001
21720 -3.0320944200000004 6.571483560000001 -0.17229302999999999 -0.520947 1.344956 -0.491403
21740 -2.7532255500000007 8.71472331 0.29503575000000004 -0.394413 1.408859 -0.331436
21760 -3.13373583 11.92360374 2.1125540700000003 -0.128715 0.935202 0.138908
21780 -4.98029175 14.73086277 4.47734286 -0.078485 0.465516 0.6024010000000001
21800 -8.15100147 14.150375640000002 4.20190749 0.081818 0.339158 0.89317
21820 -6.3978465600000005 13.17440817 0.51298452 0.059299 0.248949 0.827967
21840 -5.1190542 13.818366000000001 2.06914482 0.082751 0.178824 0.761991
21860 -4.32615114 17.43544053 4.36582278 0.13683199999999998 0.023326 0.441033
21880 -3.5408900700000006 16.44180525 4.537958850000001 0.247464 0.07230199999999999 0.086025
21900 -3.3323687100000003 13.90324212 1.96885719 0.355306 0.22574 -0.017034999999999998
21920 0.31703958 10.0411236 -3.4928406900000004 0.583705 0.215474 -0.045337
21940 0.8442486 11.21512554 -4.21703451 0.6158140000000001 -0.016797 -0.062975
21960 -0.60803361 10.61307603 -1.2796850700000002 0.8258040000000001 0.038322 -0.441866
21980 -2.38364361 9.489213000000001 -0.15328125 0.911747 0.239924 -0.8485159999999999
22000 -3.89699307 8.22524355 -1.3548296699999998 0.628646 0.563852 -1.15642
22020 -4.52119356 7.37037072 -0.6792836400000001 -0.019879 0.677528 -1.315988
22040 -3.3682929300000004 8.322990390000001 0.2604555 -0.455448 0.230314 -0.989445
22060 -2.1692853 8.49453786 0.6944106600000001 -0.459828 -0.226736 -0.7079479999999999
22080 -0.5667237 8.22075057 0.59695812 -0.336872 -0.278808 -0.579904
22100 0.7427543400000001 7.59370518 0.8915426100000001 -0.404506 -0.225898 -0.433029
22120 1.3450981499999999 6.153557940000001 0.82493271 -1.096373 0.006167 -0.324928
22140 0.88960023 5.22698382 0.6974027100000001 -1.7206860000000002 0.429281 -0.100163
22160 -1.78189821 5.13132651 0.9322639200000001 -1.573588 0.348233 0.32612
22180 -4.50846999 6.31925865 0.62958618 -0.798451 0.177574 0.506942
22200 -5.9401021499999995 6.581666340000001 -0.41344245 0.158946 0.193702 0.438833
22220 -6.65112114 5.7133145700000005 -1.08389709 0.6302979999999999 0.094263 0.388842
22240 -6.679560330000001 5.354366669999999 -0.42781410000000003 0.425218 -0.231916 0.351508
22260 -5.5351944 5.41004823 0.5277976200000001 -0.017843 -0.650696 0.23465
22280 -4.12242687 7.79938164 1.7238132000000002 -0.278112 -0.90746 0.202182
22300 -3.0103947 8.852141790000001 2.4692652900000005 -0.1843 -0.915279 0.211393
22320 -3.1166664300000004 9.65342259 3.2236935300000003 0.088994 -0.911832 0.178047
22340 -4.95589428 10.145452950000001 3.9938472 0.415445 -0.92147 0.17393
22360 -5.77154673 11.23099812 3.60884394 0.667147 -0.6733 -0.034001
22380 -5.87423781 11.81807757 2.65113288 0.396166 -0.692619 -0.295447
22400 -6.321053879999999 12.868287120000002 0.42541065000000006 -0.423282 -0.8892030000000001 -0.241099
22420 -6.61354884 14.697489150000001 0.6723970199999999 -0.980673 -1.143175 0.084346
22440 -5.18057271 14.591953170000002 -3.23476902 -0.543852 -1.004225 0.12247
22460 -2.63840931 14.02583769 -5.22428607 0.17210799999999998 -0.323574 0.31567399999999995
22480 -0.47630493 12.39617106 -4.65846489 0.190857 -0.156407 0.585851
22500 -0.33545295 10.920236940000002 -3.9612093300000004 -0.4113890000000001 -0.096534 0.520679
22520 -1.5323612400000002 10.49168709 -3.56648436 -0.654924 0.119333 0.56143
22540 -1.59433101 10.659330180000001 -2.15267697 -0.478853 0.47397 0.4340189999999999
22560 -2.23665057 12.35740194 -0.13816404 0.003152 1.309849 0.373289
22580 -3.5720172000000003 14.097686130000001 1.0904796 0.375384 0.8164779999999999 0.6200760000000001
22600 -5.0464602 12.57654753 1.16232804 0.051112 -0.143174 0.594472
22620 -4.975955730000001 9.313927920000001 0.09999333 -0.6175609999999999 -0.559711 0.11284
22640 -4.56236613 6.75111447 -0.55235205 -0.183153 -0.545357 -0.389413
22660 -4.886292330000001 4.649331780000001 -0.4864877100000001 0.665794 -0.5380689999999999 -0.550135
22680 -4.37151258 3.2260871700000004 -0.5167221300000001 1.062693 -0.30506 -0.556207
22700 -3.0425714999999998 2.8797156900000003 -0.5536960200000001 1.061436 0.126494 -0.318556
22720 -2.17452384 3.56169708 0.41358960000000006 0.955654 0.41425 0.006144
22740 -2.4638796000000003 4.105661580000001 2.0401072200000003 0.687263 0.479366 0.205012
22760 -2.5182171899999997 4.25160495 3.3621616800000007 0.215554 0.513658 0.030758
22780 -2.8352567700000004 4.060908360000001 3.8470013100000005 -0.210036 0.447211 -0.299006
22800 -3.41934417 4.21897689 3.56962356 -0.4117810000000001 0.533652 -0.428712
22820 -3.9321717300000003 5.081187600000001 1.5796650600000002 -0.370927 0.90397 -0.364808
22840 -3.56483628 7.25870349 -0.38948643000000005 -0.166864 1.121024 -0.209837
22860 -3.57531336 9.966420450000001 0.03742515 0.001184 0.941944 0.204968
22880 -3.4247298600000002 12.85781004 2.58198219 -0.125919 0.634894 0.643513
22900 -4.03306758 14.870979 4.75830126 -0.189508 0.565685 0.956146
22920 -6.44275674 14.296770270000001 4.26432852 -0.266811 0.43926 0.937609
22940 -6.8255037000000005 12.6208593 1.58370678 -0.099752 0.4869810000000001 0.8468469999999999
22960 -5.13732042 12.61142208 2.37465765 0.124372 0.420382 0.524827
22980 -4.22196894 16.45289055 3.8728997100000004 0.235184 0.303049 0.201012
23000 -3.86077455 17.05104549 4.0433877 0.256179 0.263303 -0.000684
23020 -3.1295469600000003 15.053592150000002 1.39629654 0.486137 0.080636 -0.07362
23040 0.16720164 11.39879817 -3.3471916200000003 0.832299 -0.005009 -0.267645
23060 0.896634 9.54295218 -4.68630567 1.009748 -0.233433 -0.57376
23080 -1.2009500100000001 9.345212010000001 -2.3155327800000003 0.758016 -0.057663 -0.8876649999999999
23100 -3.66662484 8.90243766 -0.92672127 0.555817 0.52778 -1.130177
23120 -5.175039870000001 6.92265213 -1.5143991300000001 0.248519 0.542501 -1.348124
23140 -5.055887610000001 6.65112114 -0.69006483 -0.114596 -0.11714 -0.974869
23160 -3.5536136400000005 8.183482380000001 0.7198578 -0.171717 -0.592458 -0.608259
23180 -1.87575048 8.417441069999999 1.13254488 -0.408711 -0.682902 -0.429269
23200 -0.34937334000000003 8.36790057 1.2482538300000001 -0.5550149999999999 -0.663421 -0.379041
23220 1.04826717 7.5676596300000005 1.00501488 -1.087559 -0.35626 -0.274196
23240 1.7136402300000002 6.26582358 0.70264125 -1.364594 -0.023947 -0.021251
23260 0.27632808 4.67238528 0.35386632 -0.99275 -0.079687 0.27517800000000003
23280 -2.60099397 5.30945649 0.7544282400000001 -0.289392 -0.171958 0.362463
23300 -4.575835260000001 6.0375448800000004 0.5086386900000001 0.42998 -0.187991 0.28525500000000004
23320 -5.158725840000001 5.552401140000001 -0.32482872 0.735416 -0.32766 0.316409
23340 -5.41049949 5.15004399 -0.5550498 0.486605 -0.6993010000000001 0.230758
23360 -5.836067100000001 7.13880567 -0.0085347 0.053558 -1.043478 0.096783
23380 -4.8907755 8.02481544 1.09736622 -0.123309 -1.21867 0.105386
23400 -3.79340928 9.27979893 2.1165957900000003 0.013087 -1.310538 0.050909
23420 -2.7496350900000004 9.150620850000001 3.02355972 0.227795 -1.3365129999999998 -0.033016000000000004
23440 -3.6922191300000002 9.250467030000001 3.2784823800000003 0.512886 -1.218463 0.035054
23460 -5.2458386400000006 9.65521782 3.16487277 0.693308 -0.8381940000000001 0.153331
23480 -5.904766530000001 10.9260837 2.25176778 0.495061 -0.442748 0.267876
23500 -6.60486699 12.86859123 1.09886715 -0.133381 -0.225331 0.254662
23520 -7.62304689 14.86947807 1.12056687 -0.6242840000000001 -0.459179 0.285716
23540 -7.287446790000001 14.951803589999999 -1.8034507800000001 -0.5612090000000001 -1.033068 0.157637
23560 -5.73517125 15.56283906 -3.71601819 -0.271045 -0.582442 -0.097287
23580 -2.79723321 13.34714265 -4.40504316 -0.295535 -0.195047 0.281264
23600 0.33964182000000004 11.027872260000002 -4.90126239 -0.792774 -0.020439 0.469847
23620 -0.2832147 10.39169376 -4.04698797 -1.183491 0.252107 0.317218
23640 -1.89700875 9.36438075 -2.27063241 -0.386526 0.57591 0.169614
23660 -1.96615944 9.44431263 -0.66701133 0.954887 1.065867 0.355681
23680 -2.7372058200000002 11.2127319 0.9190890899999999 1.082089 0.378548 0.565753
23700 -4.2950142 12.723844680000001 1.2320869500000002 0.361461 -0.447693 0.554301
23720 -5.53458618 11.098072620000002 0.9123496200000001 -0.637786 -0.755776 0.143928
23740 -5.675752080000001 8.19874674 0.08172711 -0.451117 -0.495777 -0.301618
23760 -5.278770810000001 6.35429016 -0.21316148999999998 0.52982 -0.34715300000000004 -0.490441
23780 -5.097795929999999 4.83150348 -0.34293798000000003 1.200157 -0.126484 -0.577909
23800 -3.5693292600000004 4.1195819700000005 -0.7201521000000001 1.335083 0.289296 -0.509133
23820 -1.96751322 4.515356610000001 -0.5450141700000001 1.09519 0.420882 -0.17448699999999998
23840 -1.62262305 4.98792393 0.73227726 0.5658270000000001 0.328234 0.009941
23860 -1.78578297 4.66444899 2.42255988 0.039303 0.533068 -0.141414
23880 -1.97708778 4.31792055 3.18133395 -0.189622 0.7897529999999999 -0.463808
23900 -2.8036685700000006 4.2032612700000005 3.23971326 -0.320648 0.8804649999999999 -0.6571199999999999
23920 -3.75179526 4.62223656 2.78660898 -0.43539 1.054237 -0.590846
23940 -3.92079213 5.6317346100000005 1.6685829000000003 -0.445547 1.07818 -0.442465
23960 -3.14705781 7.361688870000001 0.41373675 -0.32002600000000003 0.860124 -0.100546
23980 -1.9184141700000001 10.158922080000002 0.39278259 -0.119764 0.612262 0.437418
24000 -2.4050490300000003 12.779977500000001 1.81617435 0.029563 0.5015850000000001 0.812481
24020 -4.67148276 13.460909220000001 3.0822431400000005 0.160363 0.401124 1.046395
24040 -7.3372914 13.45656339 1.8279954 0.06429800000000001 0.342 0.996662
24060 -7.910303310000001 13.96385811 1.83219408 0.05835700000000001 0.279833 0.831126
24080 -7.072794180000001 15.43410243 3.28013046 0.192177 0.1863 0.396346
24100 -5.848035300000001 17.014964309999996 4.797227340000001 0.274802 0.20542600000000005 0.071091
24120 -4.4797365000000005 15.02096409 3.6426786300000003 0.393885 0.239552 -0.041353
24140 -2.5797357 11.57587848 -0.19683765 0.493979 -0.245629 -0.007984999999999999
24160 1.40931441 10.373731650000002 -4.1068584 0.806447 -0.275586 -0.246114
24180 0.67913649 9.87421626 -2.5662665700000002 1.042147 -0.355211 -0.783818
24200 -0.60668964 9.461372220000001 -0.26614530000000003 0.8722799999999999 0.216617 -1.112613
24220 -3.1663638900000004 9.34027758 -0.39742272 0.439442 0.94911 -1.165713
24240 -4.733011080000001 8.386912350000001 -1.0743127199999998 -0.098712 0.909205 -1.109601
24260 -4.07093418 8.78238288 -0.15822549 -0.226385 0.199528 -0.948282
24280 -2.5325790300000004 9.230405580000001 0.48364281 -0.283033 -0.003863 -0.652519
24300 -1.32953949 8.66547711 0.7478457300000001 -0.483843 -0.121146 -0.718933
24320 0.10014048 8.333320319999999 1.0235754000000001 -0.68893 -0.168397 -0.712828
24340 1.31201883 7.707324600000001 1.37264463 -1.045576 0.08603999999999999 -0.629119
24360 1.4142586500000003 6.29740197 0.8795744100000001 -1.214203 0.492938 -0.207802
24380 -0.36793386 4.75576047 0.25461855 -1.026808 0.398799 0.26044
24400 -2.9666813400000005 5.147797500000001 0.11271690000000001 -0.5341600000000001 0.287687 0.44669
24420 -5.194198800000001 6.21657738 -0.19429686000000002 0.178102 0.177678 0.433646
24440 -6.62357466 6.67865781 -0.53364438 0.484428 -0.037485 0.428584
24460 -6.69721833 5.64445818 -0.25956279 0.23754 -0.431601 0.367544
24480 -5.495522760000001 4.07916477 0.5987533500000001 -0.092214 -0.8028350000000001 0.250349
24500 -3.83038317 4.18424949 1.2298404600000001 -0.203098 -1.000684 0.273328
24520 -2.5325790300000004 7.425306720000001 2.09534733 -0.127116 -1.008167 0.214048
24540 -2.00583108 9.107810010000001 2.447114310000001 0.053261 -1.028888 0.177947
24560 -3.44343753 9.90655002 2.41238691 0.32760700000000004 -1.035007 0.138211
24580 -5.83951041 9.8068608 2.74499496 0.5284909999999999 -0.8403129999999999 0.027201
24600 -6.5940858 11.31002748 2.8864453500000002 0.47627 -0.5452319999999999 0.072392
24620 -6.17301117 12.618014400000002 0.69156576 -0.043479 -0.493715 0.16056199999999998
24640 -7.0203989700000005 13.92688422 0.42241860000000003 -0.701592 -0.67155 0.181831
24660 -7.225624170000001 14.28330114 0.6301943999999999 -1.008116 -1.084351 0.315883
24680 -5.2516755900000005 15.297292170000002 -2.11135725 -0.416591 -0.47825 0.345943
24700 -3.4248770100000003 14.882652900000002 -3.60240858 0.013352 0.080346 0.674038
24720 0.1588239 12.43224243 -3.9133169100000003 -0.363974 0.074653 0.8263020000000001
24740 1.9464021 10.058634450000001 -4.27151925 -0.995967 0.039251 0.637131
24760 -1.00635885 9.57513879 -3.8630210400000005 -1.211778 0.344975 0.294469
24780 -2.32796205 10.74451041 -2.5614694800000004 -0.196253 0.913927 0.189738
24800 -1.9935587700000001 11.252697840000002 -1.86137883 0.990215 1.061718 0.563168
24820 -3.34179612 13.082498280000001 0.20043792 0.764227 -0.023249 0.621732
24840 -5.71256901 12.599002620000002 1.1241671400000002 -0.254933 -0.8547520000000001 0.320849
24860 -5.973328620000001 10.890905040000002 0.47256732 -0.7822399999999999 -0.781335 -0.26510900000000004
24880 -6.12751239 8.47148436 -0.024848730000000003 0.217645 -0.312691 -0.313205
24900 -6.04697229 6.3364752 -0.2806641000000001 1.142358 -0.167721 -0.338978
24920 -5.254069230000001 4.0995205200000004 -0.70128747 1.460064 0.043066 -0.31352800000000003
24940 -3.54761973 3.38326299 -0.8421492600000001 1.384041 0.316715 -0.216133
24960 -2.32990443 3.83382648 0.039965940000000005 1.073742 0.552423 -0.017777
24980 -2.1743766900000003 4.29142374 1.36456119 0.5431520000000001 0.508333 0.012757
25000 -2.2609008900000003 4.37510304 2.89498005 0.120427 0.796794 -0.362307
25020 -2.25835029 4.20640047 3.40062669 -0.163651 0.8461139999999999 -0.72755
25040 -2.91428613 4.315075650000001 3.20543712 -0.408742 1.0138049999999998 -0.625859
25060 -3.68817741 5.10228891 2.63840931 -0.5338430000000001 1.185876 -0.391945
25080 -4.070482920000001 6.189629310000001 1.31007645 -0.455485 1.240249 -0.204528
25100 -3.66482961 6.94211517 0.17094906 -0.240793 1.069229 0.285368
25120 -2.51806023 8.729546220000001 0.5903756099999998 -0.099118 0.7781520000000001 0.758885
25140 -2.8743201899999997 12.35919717 2.15072478 0.028525 0.672435 0.977829
25160 -5.8736394 13.489348410000002 3.94190325 0.118285 0.671189 0.945343
25180 -8.39215089 13.664633490000002 3.74461434 0.168286 0.757781 0.82594
25200 -6.930284310000001 13.390100640000002 1.36171629 0.13366 0.6088180000000001 0.5460149999999999
25220 -5.519773080000001 13.33741113 2.76310422 0.022052 0.416474 0.259198
25240 -4.676427 16.88189166 5.141058030000001 -0.000525 0.178734 0.05852
25260 -3.49897194 16.52263965 4.8338971200000005 0.203282 -0.147565 -0.036847000000000005
25280 -3.32997507 13.927786740000002 0.6394746600000001 0.558954 -0.184519 -0.161434
25300 1.11787893 10.802438460000001 -5.56198551 0.954606 -0.169281 -0.58491
25320 1.15904169 10.52880813 -4.44919797 0.936402 0.250444 -1.102594
25340 -1.00201302 9.752366250000001 -0.3210813 0.536783 0.561841 -1.37284
25360 -3.88307268 8.82669465 0.64710684 -0.011093 0.428495 -1.383974
25380 -5.11351155 7.3345936499999995 -0.58677534 -0.163597 -0.217589 -0.8543729999999999
25400 -4.436170290000001 7.01980056 -0.07529175 -0.278645 -0.429015 -0.6295109999999999
25420 -2.45744424 8.020773720000001 0.20118348 -0.450918 -0.322766 -0.410797
25440 -0.86370183 8.27868843 0.025143030000000004 -0.768848 -0.226169 -0.315933
25460 0.43125741 8.179891920000001 0.26719497000000003 -1.331852 0.16004000000000002 -0.23917600000000006
25480 1.30259142 8.178989399999999 0.61132977 -1.566461 0.420896 -0.001867
25500 1.4964370200000001 7.587721080000001 0.44786574 -1.166934 0.181565 0.361221
25520 0.20058507 5.011124580000001 -0.16061913 -0.29925100000000004 0.069648 0.424041
25540 -2.26164645 4.6747789200000005 -0.15507648000000004 0.546826 0.185463 0.29841100000000004
25560 -4.32674955 6.34320486 -0.46822149 0.6784939999999999 0.069858 0.32298000000000004
25580 -5.242248180000001 6.6951288 -0.81206199 0.297708 -0.279819 0.18724
25600 -5.58862947 6.30593667 -0.47211606000000006 -0.100891 -0.701184 0.145472
25620 -4.86503406 5.3194921200000005 0.8059209300000001 -0.159925 -0.972804 0.190273
25640 -3.9240882900000003 6.0755684400000005 1.5220313100000002 0.071685 -0.986256 0.156657
25660 -3.06921546 7.90236702 2.27302605 0.373209 -1.091643 0.142875
25680 -2.9325523500000004 9.06230142 2.5050423600000005 0.613526 -1.004176 0.172215
25700 -4.33423458 10.70409321 2.21838435 0.491184 -0.7489060000000001 0.111213
25720 -5.835164580000001 11.67003486 2.4351363000000004 0.019298 -0.5227310000000001 0.16958399999999998
25740 -6.38527014 12.127779270000001 2.5836302700000005 -0.571046 -0.613305 0.154894
25760 -7.0645635900000014 12.445564410000001 0.6942537000000001 -0.983763 -0.993464 0.210182
25780 -7.834560300000001 13.987961279999999 0.51911577 -0.681765 -0.653026 0.061236
25800 -6.97026006 14.70467007 -0.8783775899999999 -0.352656 -0.109531 0.257255
25820 -3.6818892 14.140496970000001 -3.90433095 -0.5346390000000001 -0.015967 0.7258819999999999
25840 -1.61005644 12.87787149 -4.571646390000001 -0.944798 0.151393 0.520908
25860 0.4776587100000001 10.69345917 -3.79955034 -0.6610159999999999 0.586144 0.245664
25880 -0.46778004 10.322238960000002 -4.14622593 0.096103 1.09426 0.127456
25900 -1.5012243 11.21887296 -3.5802576000000004 0.48458 0.8757389999999999 0.357981
25920 -1.84999923 10.95557256 -2.5614694800000004 0.402577 0.038398 0.437529
25940 -2.6427551400000002 12.3202809 0.0011968200000000001 -0.163299 -0.347173 0.380659
25960 -3.69491688 12.85885971 1.12355892 -0.646904 -0.364021 -0.047849
25980 -4.20999093 11.154951 0.75832281 -0.083752 -0.467028 -0.35036300000000004
26000 -4.62762225 8.28257319 -0.24997842000000003 0.7057359999999999 -0.621502 -0.499543
26020 -4.95275508 6.4548819 -0.47990520000000003 1.143439 -0.290788 -0.465931
26040 -5.186262510000001 5.00214843 -0.32423030999999997 1.144354 0.102597 -0.275217
26060 -4.066598160000001 4.08096 -0.5872266 0.914433 0.270552 0.013518
26080 -2.51417547 4.28558679 -0.57105972 0.614395 0.31594 0.111777
26100 -2.1713846400000003 4.2270603300000005 0.44338257000000003 0.384986 0.530816 -0.144337
26120 -2.38393791 4.27570812 1.84416228 0.191811 0.599113 -0.53888
26140 -2.3333477400000002 3.6675273600000002 2.9156399100000003 -0.142647 0.6463840000000001 -0.614984
26160 -2.4813904499999997 4.022737650000001 2.8744771500000006 -0.392832 0.864173 -0.516598
26180 -2.96443485 5.06456946 2.5143226199999997 -0.335802 0.958947 -0.290926
26200 -3.1763995200000004 6.645431340000001 1.35303444 -0.08355900000000001 0.8346680000000001 0.199172
26220 -2.89033992 8.267907240000001 0.55953297 -0.148145 0.700913 0.669979
26240 -1.78458615 10.794207870000001 0.70353396 -0.247663 0.686248 0.959859
26260 -2.53782738 12.820836150000002 2.06450469 -0.345886 0.564512 0.852506
26280 -5.007386970000001 13.264817129999999 3.61049202 -0.146301 0.46097 0.732256
26300 -7.06590756 14.705572590000001 1.08239616 0.18561 0.388718 0.398177
26320 -6.93972153 16.21787238 0.9276237900000001 0.316697 0.368931 0.171587
26340 -6.26656914 17.09086428 2.57195637 0.253997 0.36088 0.108134
26360 -4.904401590000001 16.10500833 4.84632639 0.274881 0.070858 0.156721
26380 -3.9019373100000005 12.82218993 3.9333685500000004 0.493152 -0.159471 0.025013
26400 -0.93331359 9.620048970000001 -0.4309533 0.8936639999999999 -0.264566 -0.41323
26420 0.49771035 10.59795882 -2.66146281 1.055533 0.107643 -0.926391
26440 -0.34982460000000004 9.997714349999999 -1.57442652 0.925068 0.77476 -1.14287
26460 -1.65825297 9.878405129999999 -0.66447054 0.5239560000000001 0.996658 -1.40767
26480 -3.80868345 9.269773110000001 -1.93517946 -0.056533000000000014 0.14502 -1.050643
26500 -5.13148347 8.46894357 -2.0202027300000003 -0.478738 -0.5604060000000001 -0.6318090000000001
26520 -5.04690165 8.76742263 -0.6491963700000001 -0.740215 -0.854319 -0.431364
26540 -3.78398187 9.43951554 0.34652844000000005 -0.803484 -0.735663 -0.4789600000000001
26560 -1.9715549400000003 8.55366273 0.6882696 -1.121023 -0.370394 -0.439986
26580 -0.18262296000000003 7.729181280000001 0.95995755 -1.342221 0.064962 -0.16328299999999998
26600 1.2509515800000002 6.8021559 1.28702295 -1.151911 0.048964 0.20874
26620 1.7378905500000001 5.29284816 0.9294190200000001 -0.477374 0.033173 0.375842
26640 0.34069149000000004 3.8678083200000004 0.51477975 0.421303 0.064323 0.33187300000000003
26660 -2.33499582 4.84257897 0.4249692 0.927732 -0.039599 0.306701
26680 -4.45414221 5.9561120700000005 -0.11840670000000002 0.755922 -0.346621 0.245006
26700 -5.24074725 5.48579124 -0.73781991 0.25411100000000003 -0.709026 0.200305
26720 -5.249429100000001 5.16366027 -0.7324244100000001 -0.13231600000000002 -0.980443 0.21184
26740 -4.697528310000001 6.04024263 -0.31913892 -0.223066 -1.012016 0.194155
26760 -3.7848745800000003 7.691452020000001 1.15065414 -0.047415 -0.899552 0.15571400000000002
26780 -2.77088355 9.293572170000001 2.10671712 0.229252 -0.8238139999999999 0.15648099999999998
26800 -2.7086194800000003 9.008415090000002 2.85920298 0.5288649999999999 -0.6267189999999999 0.15832100000000002
26820 -4.5896085 9.10646604 3.0870304200000005 0.542794 -0.391281 0.14316199999999998
26840 -6.0990633899999995 10.522667069999999 3.18582693 0.08396100000000001 -0.429007 0.118641
26860 -6.1370869500000005 11.957732730000002 2.5382688300000003 -0.482487 -0.704852 0.061626
26880 -6.591397860000001 13.53739779 0.6060912300000001 -0.70332 -0.971337 0.028379
26900 -7.32007485 14.53522194 0.98854389 -0.209685 -0.6149479999999999 -0.013494999999999998
26920 -6.661294110000001 14.92979976 -0.6291447300000002 0.007759 -0.274241 0.375352
26940 -4.95290223 15.29953866 -3.35183175 -0.520479 -0.212995 0.7016640000000001
26960 -2.21943402 13.2630219 -4.61235789 -1.210746 -0.293239 0.853974
26980 0.80547948 10.756184310000002 -5.91913818 -1.287209 0.607589 0.486953
27000 -0.42361542 10.55859129 -5.79983877 -0.028795 1.246244 0.056954
27020 -1.3937557500000002 10.614724110000001 -4.33138968 1.24251 1.294608 0.446059
27040 -1.85808267 10.84060917 -2.30610537 0.996466 0.317065 0.564166
27060 -2.6887051800000004 12.991039650000001 0.6453116099999999 0.070711 -0.527925 0.357957
27080 -4.55622507 12.75138135 1.8050988600000002 -0.920335 -0.8343209999999999 -0.214731
27100 -5.328321120000001 10.627447680000001 1.1602385100000001 -0.297916 -0.642051 -0.351635
27120 -5.5321925400000005 7.70881572 0.22512969000000002 0.664157 -0.5353899999999999 -0.4198270000000001
27140 -5.59521198 5.78232792 -0.11570895 1.165725 -0.073574 -0.459644
27160 -5.0766946200000005 4.292179110000001 -0.7277842800000001 1.21674 0.350367 -0.228027
27180 -3.4181375400000005 3.6146808900000003 -1.1329961400000002 1.011685 0.39556 0.1027
27200 -1.68399441 4.11508899 -0.92403333 0.5697720000000001 0.210269 0.2024
27220 -1.1180260800000001 4.3345386900000005 0.46762308 0.277273 0.390224 -0.057315
27240 -1.0687798800000001 4.494402450000001 2.26659069 0.06688999999999999 0.40859 -0.471142
27260 -1.28702295 4.53048363 3.7797929999999997 -0.134299 0.527355 -0.692753
27280 -2.1902492700000002 4.69768527 4.12661574 -0.274142 0.841717 -0.597993
27300 -3.2956989300000004 5.415139620000001 3.50241525 -0.128246 1.072271 -0.305645
27320 -4.33109538 6.07961016 1.5705319500000001 0.20815 0.921057 0.187213
27340 -4.380792840000001 7.546558320000001 -0.27049113 0.101256 0.530062 0.555503
27360 -3.61333692 8.93536983 -1.1907770400000002 -0.155893 0.482232 0.75139
27380 -3.3664977 11.5540218 0.030087270000000003 -0.333269 0.5164489999999999 0.606965
27400 -4.972512419999999 13.429772280000002 2.62285065 -0.32358000000000003 0.443283 0.514191
27420 -7.452549090000001 12.555289259999999 3.91839849 -0.139042 0.282401 0.360794
27440 -6.21657738 12.188552220000002 1.4003382600000003 0.06418 0.198333 0.162564
27460 -5.80672539 12.7221966 2.35894203 0.207815 0.360768 0.176178
27480 -5.906865870000001 16.651523429999997 4.6509798600000005 0.532225 0.14443399999999998 0.181926
27500 -4.59050121 16.65585945 5.0247506699999995 1.042859 0.120861 -0.225743
27520 -3.7106325 14.587018740000001 1.66095072 0.853297 0.124791 -0.7772060000000001
27540 -1.21921623 10.011781890000002 -3.4599085200000004 0.342842 0.882193 -0.8650639999999999
27560 1.6486686 10.578947040000001 -4.63691232 0.212025 1.348576 -0.96592
27580 0.31239945 10.217752650000001 -1.7245685700000002 0.190231 0.4679390000000001 -1.03331
27600 -1.60166889 9.393114240000001 0.1850166 -0.13993 -0.122006 -0.801988
27620 -3.66528087 8.287664580000001 -0.8066763 -0.533139 -0.444558 -0.518037
27640 -5.39478387 8.46399933 -0.8780734800000001 -0.771915 -0.380945 -0.501627
27660 -4.63151682 9.98438256 0.08667135 -1.03759 -0.005615 -0.359754
27680 -2.8994730300000002 9.429038460000001 0.2137599 -1.053917 0.30385700000000004 -0.214986
27700 -1.4751787500000002 8.86680774 0.26030835 -0.806697 0.412016 -0.038209
27720 0.038621970000000005 7.892341200000001 0.54517113 -0.613842 0.28497100000000003 0.129943
27740 1.2669614999999999 6.73134732 0.8795744100000001 -0.296794 0.143028 0.186819
27760 1.14153084 4.82791302 0.53573391 0.061365 0.05874400000000001 0.174474
27780 -0.33949467 4.11090012 0.57660237 0.084901 -0.14064000000000002 0.198394
27800 -3.0849310800000005 4.973562090000001 0.32916474 -0.112245 -0.382613 0.14178
27820 -4.87132227 5.71825881 -0.33081282000000006 -0.30424 -0.653413 0.096989
27840 -4.88524266 4.63151682 -1.08883152 -0.338276 -0.8472559999999999 0.117295
27860 -4.80351555 5.58712854 -0.9050215500000001 -0.0985 -0.8769809999999999 0.14998699999999998
27880 -4.65038145 6.8374817100000005 0.01227231 0.075904 -0.948117 0.205776
27900 -3.61123758 8.418196440000001 1.08509391 0.109087 -0.8897799999999999 0.240116
27920 -2.53288314 9.70132482 1.96675785 0.055379 -0.649288 0.085608
27940 -2.7457405200000005 10.08453285 2.83360869 -0.16117 -0.66973 0.057416
27960 -4.5349668 9.966871710000001 2.9283634800000002 -0.653249 -0.8145479999999999 0.202648
27980 -5.98470822 10.67848911 2.4536968200000002 -0.8164600000000001 -0.8914139999999999 0.119353
28000 -6.68793807 12.541074570000001 0.29593827000000006 -0.380968 -0.140822 0.115024
28020 -7.308548100000001 15.97043475 -0.13831119 -0.06905800000000001 0.229893 0.643361
28040 -6.4321227 17.58034404 -0.5577377400000001 -0.675215 -0.361983 0.797982
28060 -6.108500610000001 17.20657323 -1.5375997800000003 -1.168065 0.152974 0.585576
28080 -1.9523862 13.906087020000001 -3.15274761 -0.566384 0.565479 0.5358390000000001
28100 2.3620910400000006 11.092529970000001 -5.75269191 0.133297 1.471607 0.301352
28120 0.9518741100000001 10.445727240000002 -4.78225728 0.229995 1.220638 0.374988
28140 -2.58871185 9.9025083 -2.56192074 0.195828 0.29385100000000003 0.403711
28160 -2.5533860400000004 9.04134726 -1.06368849 -0.121044 -0.10271199999999997 0.4821220000000001
28180 -2.8738689300000004 9.63261558 -0.04699970999999999 -0.196645 -0.068475 0.244405
28200 -3.7211095800000002 11.526779430000001 0.61387056 0.237872 -0.157894 -0.14768699999999998
28220 -4.342916430000001 11.873160720000001 0.50385141 0.834377 -0.364637 -0.378264
28240 -5.43429855 10.13662395 -0.44307846000000006 1.136263 -0.181219 -0.421256
28260 -5.610780450000001 8.30607795 -0.67224987 1.237368 0.106692 -0.314097
28280 -4.9892777100000005 5.90356971 -0.6222581100000001 1.063443 0.174228 -0.0034770000000000005
28300 -3.3733843200000004 3.95328285 -0.55923867 0.7105279999999999 0.255229 0.026000000000000002
28320 -2.07902349 3.4705327500000003 0.07933347 0.261383 0.588679 -0.121774
28340 -2.02274352 3.57980634 1.20963186 -0.064567 0.724912 -0.341075
28360 -2.3770611 3.98561661 2.51716752 -0.312312 0.8018529999999999 -0.45293
28380 -2.36807514 4.12496766 3.3123072600000003 -0.471972 0.961891 -0.376271
28400 -2.7195478200000003 4.18050207 3.1033444500000003 -0.325955 1.067353 -0.236517
28420 -3.3892569000000003 5.224138920000001 2.7009873000000004 -0.016030000000000003 0.810312 0.104604
28440 -3.9019373100000005 6.25219749 1.6576545599999999 0.104413 0.480146 0.514997
28460 -3.50062002 6.586002360000001 0.25611948 0.070792 0.416222 0.81181
28480 -2.35385064 7.969281030000001 0.48034665000000004 -0.202368 0.383186 0.785375
28500 -1.31426532 11.93767128 2.7496350900000004 -0.4698100000000001 0.435353 0.758871
28520 -3.1263979500000003 13.176801810000002 4.6907986500000005 -0.326872 0.462311 0.553668
28540 -4.1932256400000005 14.9113962 2.87821476 0.066013 0.388931 0.182629
28560 -5.45285907 16.78983462 1.34270451 0.256365 0.402461 0.097415
28580 -6.88493268 18.22684266 2.99347245 0.394835 0.165283 0.148893
28600 -4.79108628 16.6235355 4.4882712 0.546639 -0.179688 -0.026930000000000003
28620 -3.3114145500000003 14.19931773 4.56071805 0.911978 -0.17640899999999998 -0.364077
28640 -0.6842278800000001 10.89105219 -0.06945480000000001 1.053153 0.034331 -0.70626
28660 0.11915226000000001 10.30411989 -2.24638209 1.052428 0.4863 -1.044402
28680 -1.52802522 10.23646032 -1.65166065 0.625534 0.58187 -1.396815
28700 -2.88240363 9.858794940000001 -1.3475016 0.19476 -0.001759 -1.325369
28720 -4.33782504 9.2284632 -2.53572804 -0.200172 -0.636608 -0.731246
28740 -5.650903350000001 8.39095407 -2.68422201 -0.5463319999999999 -0.884007 -0.634003
28760 -5.7910097700000005 7.800725610000001 -1.25768124 -0.745835 -0.6711090000000001 -0.422024
28780 -3.44553687 8.18213841 0.34248672 -0.950399 -0.50039 -0.313645
28800 -1.52772111 8.29828881 1.1802999600000001 -1.1173620000000002 -0.040024 -0.210716
28820 0.19414971 8.17449642 1.73698803 -0.918636 0.093336 0.099218
28840 1.1424235500000002 7.75042974 2.02663809 -0.436691 -0.181056 0.367855
28860 1.84207275 6.555620790000001 1.38192489 0.434331 -0.285434 0.407187
28880 0.5224119300000001 5.12055513 0.46553355 0.960083 -0.402048 0.342643
28900 -1.80075303 4.92850476 0.26210358 0.691824 -0.804609 0.280397
28920 -4.24397277 5.90985792 -0.029341710000000003 0.154056 -1.220717 0.110531
28940 -5.4863896500000005 6.07122261 -0.6936552900000001 -0.221891 -1.368312 0.05041
28960 -5.3501778 4.20864696 -1.10380158 -0.288387 -1.42993 0.066048
28980 -4.81683753 4.19996511 -0.47615778 -0.13036 -1.320129 -0.090018
29000 -3.9640542300000003 6.6259683 0.4767561900000001 0.16831400000000002 -1.377449 -0.133792
29020 -2.7870504300000003 9.270969930000001 1.58236281 0.392055 -1.150492 -0.074836
29040 -2.39486625 10.069709940000001 2.16270279 0.298766 -0.828151 0.115311
29060 -3.69790893 9.98438256 3.0894240600000007 -0.151503 -0.7756970000000001 0.175124
29080 -5.32128735 10.480758750000001 3.1225033800000004 -0.569087 -0.935904 0.108319
29100 -6.55681761 11.593987740000003 2.8856997900000003 -0.456613 -1.124642 0.057004
29120 -6.686741250000001 11.86178112 0.55010556 0.178534 -0.86787 -0.236923
29140 -7.95460527 13.38501906 0.9394448400000001 0.288219 -0.392042 0.287731
29160 -8.58479967 15.07754817 0.2342628 -0.38991 -0.17064400000000002 0.653383
29180 -6.49514214 15.42048615 -2.33020854 -1.168084 -0.238335 0.673672
29200 -3.26785815 14.30755146 -4.63810914 -1.244089 0.361683 0.140398
29220 0.36943479 12.263549670000002 -4.861443600000001 -0.064737 0.719565 -0.06974
29240 0.8915426100000001 9.75341592 -5.4890874 1.223748 0.969557 0.497619
29260 -1.5513730200000002 9.52020279 -3.72904587 0.998811 0.5580930000000001 0.759358
29280 -1.6766663400000001 10.007887320000002 -2.15117604 0.103225 0.011405 0.786918
29300 -2.24952129 11.39401089 -0.07559586 -0.866361 -0.134856 0.10948900000000003
29320 -3.81347073 13.03309512 1.20618855 -0.317712 0.011802 -0.277836
29340 -5.35870269 12.050986589999999 1.4615624699999998 0.616001 0.049994 -0.514917
