time Ax Ay Az Gx Gy Gz
20 -0.52960266 4.55936427 -1.9263406500000002 0.03453 1.690378 -0.774249
40 -0.33560010000000007 4.052373660000001 -1.5886510200000001 0.417128 1.857051 -1.2279209999999998
60 0.2775249 2.75172462 -1.4516838 0.191636 0.511846 -0.8261209999999999
80 1.2723570000000002 2.4189694200000003 -1.4456898900000001 0.904189 0.730708 1.097102
100 2.9707230600000005 2.37765951 -1.72336194 1.169452 0.992675 1.688278
120 4.14263547 2.09055024 -0.88510725 0.989759 0.527192 -0.826975
140 3.7047955500000005 2.68841088 0.40655583 0.427605 0.984917 -1.584585
160 1.50078285 4.10760396 1.85314824 -0.598426 -0.10086 -0.36511
180 -1.6542112500000001 7.94771865 5.832623790000001 1.08779 -1.430127 1.052015
200 -6.16208283 17.05238946 16.912430190000002 1.828851 2.735245 2.236512
220 -22.78831608 28.906538400000002 15.42422376 1.519884 4.140084 2.8350310000000003
240 -11.511210960000001 16.21742112 6.05385891 0.7147899999999999 3.904081 1.547844
260 -2.97491193 6.947049600000001 1.85374665 1.260923 2.6541240000000004 -0.158031
280 1.4136602400000002 7.96478805 1.09975986 1.127271 2.17424 0.617179
300 1.8166256100000002 15.94020033 -3.0527542800000003 0.909528 1.392541 1.284299
320 -4.70935917 22.93935084 -11.86402761 0.8733299999999999 1.829651 1.229006
340 -10.2554721 14.633714340000001 -9.951460200000001 0.745779 1.549462 1.078923
360 -3.29165721 2.6168567400000002 3.0147307199999998 0.788315 0.964795 0.999853
380 9.86613282 2.42570889 6.40952046 0.929918 0.727546 1.066308
400 10.611584910000001 4.93434171 -1.5181465500000002 1.321827 -0.071993 1.138436
420 7.34462928 2.82043386 -5.06890548 1.14337 0.529633 1.090485
440 4.33198809 7.46467425 -5.05753569 0.668437 1.816416 0.987242
460 -3.00275271 17.08113276 -4.8096468 0.23542 2.250716 0.913158
480 -13.743221400000001 20.15049537 -0.0953532 -0.123074 2.203137 0.867986
500 -12.166695540000001 5.42202624 -0.15402681000000001 -0.594562 1.842088 0.72415
520 -2.09444481 4.42704699 -4.53706614 -0.764061 0.96992 0.5318039999999999
540 -0.25896438000000005 3.8580768000000005 -4.09368357 -0.579872 0.646393 0.293155
560 0.6529437900000001 5.38729884 -2.7533727 -0.596811 0.623119 0.001442
580 0.053592030000000006 8.24619771 -0.24773193000000002 -1.153727 -0.218227 -0.369906
600 -1.32249591 11.52618102 0.8372050200000001 -1.582459 -0.877494 -0.831392
620 -3.2853689999999998 10.7094789 -0.39637305000000006 -2.6518040000000003 -0.313342 -1.390787
640 -4.35923046 8.603056080000002 -0.10373094000000001 -3.155798 1.003973 -1.644891
660 -2.8830020400000005 9.015154560000001 1.4834191500000002 -1.492181 0.195317 -2.525268
680 -1.26815832 11.303592120000001 2.86339185 -1.184935 -1.655393 -2.709825
700 -1.14421878 13.50701622 2.24652924 -1.720964 -2.878957 -2.8871900000000004
720 -3.70225476 12.11012127 -0.17842428 -1.431948 -2.805055 -3.5026980000000005
740 -6.919512930000001 10.562937120000003 -1.0581458400000003 -1.003049 -2.025964 -3.435539
760 -9.847121040000001 9.81987867 -0.46747593000000004 -1.257488 -0.764337 -2.76809
780 -9.779167170000001 10.20084021 0.09056592000000001 -1.036867 -1.396165 -2.397202
800 -7.089255360000001 13.346544240000002 0.5110421400000001 -0.756297 -2.317566 -2.123802
820 -6.809189669999999 13.12246422 1.4286302999999998 -0.609499 -2.858185 -1.85396
840 -4.90964013 12.086616509999999 2.7490366800000006 -0.421299 -2.9707060000000003 -1.584377
860 -0.39113451 12.52175868 2.31299199 -0.339186 -2.779935 -1.145009
880 4.82760891 18.896404590000003 -5.4862425 -0.170753 -2.559843 -0.6538010000000001
900 7.500598470000001 20.69446968 -7.23461013 0.168909 -2.318655 -0.25863200000000003
920 0.6867686700000001 14.56501491 -3.1353839100000003 0.670227 -1.828307 0.025184
940 -6.92564418 13.51359873 2.58991848 1.050897 -0.989828 0.200889
960 -8.32942575 14.397509160000002 1.77905331 1.4879 -0.113537 0.462396
980 -2.9554587 14.49255825 -0.5912683200000002 2.005414 0.731193 0.8206469999999999
1000 0.4366431 11.179348469999999 -0.08861373 2.277723 0.46544 0.975645
1020 0.9241804800000001 9.27651258 -1.13239773 1.189792 -0.869585 1.710034
1040 -0.32631984 6.160287600000001 -1.33342425 -1.2418360000000002 -1.338244 0.075294
1060 0.0031392000000000004 4.2032612700000005 -1.7986635000000002 0.26660700000000004 1.893677 -0.933122
1080 0.5622307200000001 3.15184509 -2.28125664 0.6778350000000001 1.936066 -1.2336790000000002
1100 0.5851370700000001 1.67681349 -2.09399355 0.230925 0.302635 -0.7561439999999999
1120 1.2427111800000001 1.04602068 -1.79955621 0.967055 0.4226180000000001 0.56703
1140 2.2559566500000003 1.08898848 -1.4876080200000001 2.1562080000000003 2.360586 2.139934
1160 3.2449518000000004 1.2493035 -1.1996060400000002 2.263817 1.602743 1.888489
1180 3.18267792 2.93779089 -0.12005478000000001 0.08229199999999999 -0.54255 -1.054133
1200 2.01496419 4.631222520000001 1.3328258400000002 -0.163468 -0.492274 -1.159532
1220 -0.9048645900000001 8.56399266 3.7395229500000005 0.8929879999999999 -0.483516 -0.004893
1240 -3.27608874 14.80600737 10.890748080000002 2.096794 -0.187522 1.651402
1260 -19.03232214 28.636949790000003 21.070486980000005 2.095526 2.752642 2.981835
1280 -13.96490778 20.208423420000003 10.84614201 0.819641 3.629399 1.6835240000000002
1300 -5.1920994600000006 8.19905085 5.169350070000001 0.921232 3.211004 0.732984
1320 -0.8211951000000001 3.17669382 1.6066131300000002 1.260308 3.776963 0.6310100000000001
1340 1.44584685 3.20393619 0.64890207 0.983712 3.216736 0.84344
1360 1.1451213 8.362956330000001 -6.45263541 0.8579700000000001 1.540843 1.271998
1380 -2.35804932 16.268913809999997 -14.73221655 0.684232 1.942325 0.92203
1400 -11.41810425 29.792999430000002 -5.73876171 0.15926300000000002 1.7372 0.726345
1420 -8.417598029999999 10.71187254 3.24600147 1.010373 0.836724 0.600985
1440 5.493129120000001 7.159906980000001 1.3859666099999999 1.225228 0.093968 0.479524
1460 9.96866694 3.9321717300000003 -4.0951845 0.828528 0.904836 0.774816
1480 12.222229950000001 0.2977335 -1.08315153 0.351823 2.192056 0.829657
1500 6.754852080000001 5.491481040000001 -3.38161491 0.13515 2.143918 0.8015
1520 -1.9723005000000002 14.15097405 -4.3742005200000005 0.021168 2.03837 0.655561
1540 -8.2860165 17.125738830000003 -0.9572598 -0.442886 2.120546 0.487708
1560 -10.20278259 10.67250501 -0.44846415 -0.694948 1.440229 0.341541
1580 -0.8529304500000001 4.85080956 -8.15683842 -0.5522060000000001 0.98023 0.167939
1600 1.51125993 3.94504245 -5.57860365 -0.476795 0.795053 0.05760800000000001
1620 -1.23538311 3.9489370200000002 -0.10328949000000001 -0.660354 -0.13559300000000002 -0.150785
1640 -2.13575472 8.90617527 -0.42361542 -1.353265 -1.137124 -0.572017
1660 -2.9425781700000004 12.80706291 -1.72680525 -2.050121 -0.974978 -1.08877
1680 -5.41184346 11.10914811 -1.5138007199999999 -2.899803 0.116469 -1.568258
1700 -3.9389112 9.62333532 1.30573062 -2.722427 0.5793189999999999 -2.117746
1720 0.0031392000000000004 9.82796211 2.5735946400000005 -1.485464 -1.372886 -2.501847
1740 -0.53857881 10.52910243 2.11106295 -1.7613330000000005 -1.7520939999999998 -2.2704150000000003
1760 -2.91040137 10.888060140000002 0.2817137700000001 -1.993842 -2.47907 -3.018863
1780 -5.47036992 11.27470167 -1.25858376 -1.431475 -1.733456 -3.485908
1800 -8.399184660000001 10.94239773 -0.41208867000000005 -1.347941 -0.35767 -2.8888830000000003
1820 -9.906844320000001 10.42132977 0.43934085000000006 -1.372038 -0.334693 -2.48743
1840 -8.15908491 10.63643364 0.55549125 -0.8526469999999999 -1.361997 -2.044514
1860 -7.34597325 13.21586523 0.8934948 -0.5772609999999999 -1.960809 -1.71922
1880 -7.235649990000001 16.06863285 1.67980554 -0.465666 -2.360298 -1.547013
1900 -4.066294050000001 12.35276181 2.76370263 -0.414461 -2.594745 -1.303869
1920 0.05598567000000001 11.4353208 1.5783210900000002 -0.247829 -2.577953 -0.8530049999999999
1940 5.7869680500000005 16.24946058 -3.7342844100000003 0.049708 -2.442119 -0.448381
1960 8.38646109 20.49567984 -6.13110285 0.479318 -2.110765 -0.035608
1980 2.12722983 14.940129690000003 -2.5524933300000003 0.790626 -1.454442 0.198598
2000 -6.55576794 13.527823230000001 3.17684097 1.038674 -0.6985520000000001 0.363868
2020 -7.60134717 13.67361945 2.19757734 1.52405 0.240493 0.6074729999999999
2040 -3.0587383800000003 13.31885061 -0.86565402 2.100007 0.941574 0.874449
2060 -0.5492030400000001 9.83934171 -0.03143124 2.266508 0.239216 1.347598
2080 -0.41478642000000004 7.44910578 -0.6905160899999999 0.008126000000000001 -1.214777 2.211765
2100 -1.3482471600000001 4.722975450000001 -0.8165549700000001 -0.795198 0.333876 -1.018657
2120 -0.8809183800000001 3.6844398000000003 -1.39509972 0.110248 1.300699 -1.158849
2140 -0.77135049 3.30692157 -1.48177107 -0.087271 0.709542 -1.005647
2160 -0.71520786 2.7939370500000003 -1.37668635 0.275725 0.587037 0.009719
2180 -0.021552570000000004 2.06241516 -1.4052825 1.450982 2.9397740000000003 1.766798
2200 1.34286147 2.19922542 -1.4443459200000002 1.191107 2.210369 1.648413
2220 3.13418709 2.2977178200000004 -1.6515135 -0.398583 -0.055632000000000015 -0.393682
2240 3.8615201100000003 3.47143527 -0.49112784 -0.612121 -1.411403 -0.289819
2260 2.9268625500000005 4.4557804800000005 1.25664138 0.746931 -0.198455 0.495786
2280 -0.08846658 6.738832350000001 3.6651239100000006 1.84518 1.838931 1.2624879999999998
2300 -2.70038889 12.34393281 9.989032500000002 1.791764 3.0165490000000004 1.984861
2320 -17.070498720000003 29.614712490000002 21.69229383 0.801321 2.423483 1.705237
2340 -19.051029810000003 22.888603709999998 11.238031890000002 0.927786 1.758305 0.909011
2360 -7.14928275 8.06208363 4.39172118 1.226142 1.84266 0.6012029999999999
2380 -0.031136940000000002 4.5173088 0.96429357 1.07887 1.829451 0.8352
2400 2.89079118 8.12510307 -1.7414810100000002 0.987747 0.8401139999999999 1.369942
2420 2.5592328 12.037821570000002 -9.668245500000001 0.931816 0.492113 1.5985969999999998
2440 -0.39772683000000003 19.40774103 -8.376876720000002 0.961586 1.13445 1.312767
2460 -7.616013120000001 16.93563084 -1.04422545 1.273593 1.525084 1.123234
2480 1.34195895 8.609197140000001 6.176307330000001 1.250271 1.314158 0.87765
2500 3.27893364 5.03717994 -7.3784541599999995 0.992995 0.537633 1.085151
2520 2.70218412 2.5047382500000004 -5.17308768 0.808392 0.346314 1.137518
2540 3.13777755 4.44350817 -3.4061693400000004 0.496321 0.977777 0.936908
2560 0.6535422000000001 9.533976030000002 -0.98974071 0.218497 1.945446 0.81195
2580 -5.369032620000001 14.40394452 0.55429443 -0.168708 2.44319 0.8160850000000001
2600 -7.70493096 13.209881130000001 0.8946916200000001 -0.580422 1.689605 0.7490140000000001
2620 -4.584517110000001 7.588319490000001 -0.16211025 -0.789788 1.113027 0.464143
2640 -1.19166975 6.08574141 -3.5640907200000003 -0.815561 0.694932 0.08100700000000001
2660 -0.23291883000000002 5.66961102 -3.56797548 -1.036086 -0.237372 -0.2131
2680 -1.54343673 6.75081036 -2.92521447 -1.487676 -0.876914 -0.7922739999999999
2700 -1.8357845400000001 8.71607709 -1.49464179 -2.17501 -0.636467 -1.451135
2720 -0.48693897 10.11266793 -0.32437746000000006 -2.951068 0.203492 -1.707597
2740 -0.24504399000000002 9.80805762 0.5975565300000001 -1.622673 -0.67199 -2.369107
2760 -0.81430848 9.29492595 2.4620843700000004 -1.030096 -2.239139 -2.850069
2780 -2.6298844200000007 9.866878380000001 3.0105418500000005 -1.433616 -3.1394740000000003 -2.988466
2800 -3.07789731 11.746072170000001 1.5172440300000003 -1.341037 -3.062884 -3.5733040000000003
2820 -1.93382568 11.940369030000001 0.27542556 -1.125548 -2.357351 -3.573771
2840 -4.37510304 12.25755576 0.25117524 -1.168051 -1.166821 -2.892999
2860 -8.566533450000001 11.79771201 0.46044216 -1.041374 -1.6785900000000002 -2.6276080000000004
2880 -11.54399598 11.37589182 0.23935419000000002 -0.8324229999999999 -2.56273 -2.286389
2900 -11.928989430000001 11.512554930000002 -0.67554603 -0.722171 -3.0344990000000003 -1.886568
2920 -9.711654750000001 13.251348 -0.4047606000000001 -0.544606 -3.155441 -1.633072
2940 -7.6814262 13.00331196 0.89708526 -0.398566 -2.854733 -1.302357
2960 -2.0694489300000005 12.067751880000001 2.2510222200000003 -0.104176 -2.666852 -0.8572290000000001
2980 3.55675284 15.205235130000002 -2.90995011 0.327714 -2.5601990000000003 -0.464448
3000 6.820412310000001 20.49223653 -6.8949585 0.815421 -1.916788 -0.084783
3020 2.2927833900000003 17.77972248 -4.25774601 1.026327 -0.762824 0.197222
3040 -5.35466097 14.415020010000001 0.5116405499999999 1.196288 0.545718 0.48622
3060 -7.469167230000001 14.617704419999999 0.90112698 1.5544440000000002 1.54545 0.8485
3080 -3.07909413 15.11376669 -0.96399927 1.865853 1.256946 1.064689
3100 0.63153837 12.03122925 -0.9695321100000001 1.42434 -0.319154 1.585985
3120 0.95651424 9.47021103 -1.3401637199999998 -0.8722280000000001 -2.710744 1.45764
3140 -0.33605136 6.40772523 -1.2234051000000001 -0.088894 0.581731 -1.009768
3160 -0.0025407900000000002 4.343514840000001 -1.4516838 0.7868350000000001 1.6463009999999998 -1.325482
3180 0.5294457 2.9654845200000004 -1.19257227 0.467149 0.7581140000000001 -1.111864
3200 1.21113279 2.6987408100000003 -1.14676938 0.924612 0.820522 0.198755
3220 1.8851778900000002 2.11075884 -1.5028723800000001 1.933209 2.526642 1.832652
3240 2.08186839 2.07258813 -1.31007645 1.351087 1.144003 1.782288
3260 2.2439884500000002 2.45639457 -1.2177153 -0.5533680000000001 -1.164763 -1.012911
3280 3.0883743900000002 3.0979587600000005 -0.10568313 -0.196636 -0.8506440000000001 -1.0215040000000002
3300 3.1012549200000006 4.5493384500000005 0.93195981 0.966669 -0.826199 0.113565
3320 0.51628068 6.36716088 1.8844323300000003 2.079032 1.201183 1.7702080000000002
3340 -3.26965338 9.65537478 4.62672954 1.920656 3.616558 2.872684
3360 -7.59670704 19.83525102 17.98884225 0.6804140000000001 3.38867 1.798228
3380 -23.650664130000003 27.575802090000003 16.34331285 0.840065 2.143217 0.632304
3400 -11.1375873 13.13443242 7.5251529 1.278339 2.235712 0.298757
3420 -3.10843584 5.06172456 2.09683845 1.020441 2.386686 0.8618520000000001
3440 0.42750999 4.72177863 0.20522520000000002 0.953233 1.113422 1.2507780000000002
3460 2.351457 8.868455820000001 -4.45024764 0.994222 1.235803 1.512622
3480 -0.0013439700000000003 15.16989951 -12.35336022 0.950955 1.438811 1.132841
3500 -6.76068903 26.534725650000006 -5.36828706 0.987938 1.598466 1.135031
3520 -8.34245343 11.445797879999999 5.13567234 0.6635260000000001 1.507215 1.059175
3540 5.84010882 4.60023273 4.23603648 0.876605 0.449994 1.257503
3560 8.340501240000002 2.21434263 -5.41200042 0.981623 -0.035679 1.143491
3580 8.469836279999999 0.7852708800000001 -4.1962275 0.6572640000000001 0.864611 0.8591290000000001
3600 5.80701969 6.16717422 -5.0006475 0.311153 2.064763 0.730191
3620 -1.5486752700000002 14.34572217 -4.866230879999999 -0.187604 2.333185 0.636633
3640 -8.995397220000001 18.278188200000002 0.57105972 -0.536374 1.569832 0.560399
3660 -10.90961271 10.06492266 2.168991 -0.726671 1.019592 0.332244
3680 -3.05364699 5.9023728900000005 -2.5673064300000004 -0.591016 0.363782 0.115046
3700 0.03577707 5.23655838 -4.34980305 -0.494708 0.131454 0.056196
3720 -0.01437165 5.904325080000001 -4.138897860000001 -1.074771 -0.552603 -0.468271
3740 -0.46582785000000004 6.797967030000001 -2.5866223200000005 -1.541511 -0.973825 -1.018989
3760 -0.33320646000000004 10.095608340000002 -0.29488860000000006 -2.452094 -0.374333 -1.496136
3780 -1.27864521 12.435842700000002 1.336122 -2.6818310000000003 0.376684 -2.094771
3800 -2.5960497300000003 9.28234953 0.9575541000000001 -1.484808 -1.658773 -2.936242
3820 -4.04698797 7.9616390400000006 -0.10628154000000001 -1.265636 -2.867905 -2.582785
3840 -4.241127870000001 9.699676740000001 -0.35087427000000004 -1.85535 -3.431017 -2.975015
3860 -2.77552368 11.909536200000002 1.58146029 -1.549713 -3.074395 -3.4444230000000005
3880 -2.01675942 12.791945700000001 2.23350156 -1.336325 -1.590267 -3.146801
3900 -4.92774939 11.75670621 1.03674042 -1.582725 -0.400308 -2.678961
3920 -8.02001835 11.574681660000001 -1.4485347899999998 -1.23719 -1.071748 -2.366971
3940 -10.4749218 11.156304780000001 -0.51837021 -0.923306 -1.654698 -2.045701
3960 -10.20832524 11.41585776 0.50190903 -0.7210880000000001 -2.300602 -1.868272
3980 -7.50104973 13.862226510000001 0.5063922000000001 -0.627894 -2.735275 -1.672648
4000 -6.5386985399999995 12.01520952 2.44845828 -0.525751 -2.676353 -1.312019
4020 -3.7450656 10.420280100000001 2.00059254 -0.203599 -2.549024 -0.93285
4040 0.46104057 13.639490460000001 -1.67441985 0.342012 -2.295785 -0.533053
4060 5.17353894 22.66287561 -7.2175407300000005 0.719105 -1.584841 -0.162793
4080 5.66975817 21.36043134 -4.52284164 1.014163 -0.694308 0.123342
4100 -2.4343907400000004 14.66784333 0.12484206 1.475468 0.280361 0.5365800000000001
4120 -5.62424958 14.16953457 2.82073797 2.146174 0.961833 0.82988
4140 -2.20386555 14.814394920000002 -0.28455867 2.344514 0.368497 1.450526
4160 -0.08592579000000002 11.474384220000001 0.12738285000000002 0.29193600000000003 -2.328522 1.566764
4180 -0.07559586 8.66997009 -0.49667049 -0.005025 -0.276519 -0.108639
4200 -1.3515433200000002 6.181398720000001 -1.5838539300000003 0.923456 1.772357 -0.733962
4220 -0.95276682 4.48497504 -2.27302605 0.877941 1.452632 -0.659095
4240 -0.06930765000000003 3.6997041600000005 -2.4111900900000003 0.5649310000000001 1.054006 0.462999
4260 0.36898353 3.20692824 -2.2091040900000003 0.6771119999999999 1.2599200000000002 1.3512110000000002
4280 0.6837766200000001 2.03651676 -1.6890858000000002 0.6842729999999999 1.219927 0.425164
4300 1.70704791 1.74896604 -1.6658851500000003 0.919933 1.068744 -1.130464
4320 3.18552282 1.2907703700000002 -1.9489428900000003 0.144805 1.44843 -1.10325
4340 4.06165392 2.32600986 -0.8015849100000001 -0.400885 -0.79581 0.093291
4360 2.4307904700000003 3.75568983 1.01922957 1.148188 0.016066 1.644516
4380 -1.5995695500000002 6.34156659 3.43670787 1.863427 2.279501 2.158289
4400 -4.076476830000002 10.591974720000001 6.5409450300000005 1.433758 3.799952 2.188591
4420 -12.65573385 21.434830380000005 16.90628913 1.167917 3.249831 1.198266
4440 -15.542483310000001 23.7038049 14.997459330000002 1.132484 1.858043 0.565278
4460 -7.61106888 11.688742529999999 6.69168549 0.773069 1.755753 1.148284
4480 -1.57487778 8.44438914 1.6853481900000002 0.827844 1.4112790000000002 1.198246
4500 1.3611178800000001 12.0484458 0.97627158 0.729031 1.261432 1.194543
4520 1.32609618 16.66364859 -0.85741362 0.718316 1.741736 0.971663
4540 -5.51647692 16.52742693 -10.50545052 0.883289 1.731153 0.811527
4560 -8.907980310000001 8.97937749 -10.242748529999998 0.7961779999999999 1.610943 0.8452559999999999
4580 -4.11000741 3.2368683600000003 3.7862283600000004 0.596033 1.153996 1.004677
4600 6.76023777 4.77910827 8.79046632 1.055538 0.470212 1.108107
4620 6.6086046000000005 8.95512717 -2.9773055700000004 0.877713 1.153037 1.000236
4640 4.2790042800000005 5.57829954 -5.4308552400000005 0.439294 2.180178 1.059951
4660 3.59357958 6.783291270000001 -3.6130328100000013 -0.06079800000000001 2.531124 1.1094190000000002
4680 -2.28888882 13.81671792 -5.266645649999999 -0.365432 2.050087 0.990403
4700 -9.08116605 16.213830660000003 -1.89161325 -0.5617479999999999 1.211725 0.625843
4720 -10.07284914 8.49303693 1.99714923 -0.455406 0.4218770000000001 0.387248
4740 -3.7339803000000003 5.526806850000001 -1.12760064 -0.338529 0.302102 0.13611700000000002
4760 -0.39143862 5.172342120000001 -3.3765333300000004 -0.565056 0.338544 0.010574
4780 -0.02006145 5.70299445 -3.36260313 -1.244014 -0.41904 -0.422623
4800 -0.37676286000000003 7.22412324 -3.2241447900000004 -1.748686 -0.713446 -0.952404
4820 -0.74215593 9.10166895 -0.6867686700000001 -2.5116110000000003 -0.052547 -1.462781
4840 -1.7160338700000002 11.681708760000001 1.6093010700000001 -2.620891 0.8835280000000001 -2.090722
4860 -2.6238905100000003 10.579996710000001 0.14429529 -1.574348 -0.578727 -2.822884
4880 -3.1418192700000005 8.89330455 -0.9339120000000001 -1.328757 -2.143503 -2.5318110000000003
4900 -3.12864444 8.8265475 1.06368849 -1.482888 -3.125685 -2.931144
4920 -2.5426146600000004 10.11521853 1.9121259600000002 -1.294742 -2.972377 -3.337019
4940 -2.21105628 12.712465080000001 1.1051553600000001 -1.012492 -2.1857830000000003 -3.154458
4960 -4.71414645 12.954065759999999 -0.29503575000000004 -1.252602 -0.656641 -2.798104
4980 -8.004606840000001 11.05241688 -1.4921010000000001 -1.119564 -1.337059 -2.454472
5000 -10.709184600000002 10.726244190000001 -0.09655002 -0.8232510000000001 -1.6817779999999998 -2.020398
5020 -9.262288080000001 11.671084530000002 1.14646527 -0.551615 -2.3002740000000004 -1.83077
5040 -6.3920096100000015 13.70804274 1.16353467 -0.388505 -2.603119 -1.629485
5060 -5.5420712100000005 13.91716251 1.66708197 -0.302002 -2.553258 -1.120471
5080 -3.7083860100000003 10.93161654 0.9788123700000001 -0.175731 -2.337867 -0.749192
5100 -1.2913687800000002 10.925034029999999 1.24181847 0.260628 -2.138742 -0.30842800000000004
5120 2.6819755200000004 16.0830045 -2.74918383 0.609082 -1.522931 0.167508
5140 6.0242229 21.96846495 -5.9282712900000005 0.834702 -0.705446 0.39984
5160 1.55376666 15.92209107 -3.7353340800000003 1.285527 0.271548 0.773478
5180 -4.8440799000000005 13.40657163 1.5792138 1.827526 1.123573 1.151118
5200 -4.7027668500000015 13.76328285 0.88750089 2.18331 0.438881 1.3051
5220 -1.40782329 13.56688665 -0.45610614000000005 1.694916 -0.30433000000000004 2.172174
5240 -0.64620432 10.12464594 0.5833418400000001 -0.433291 -0.038388 1.182749
5260 -0.32557428000000005 7.997867370000001 -0.02679111 0.230049 1.26152 -0.7894260000000001
5280 -0.7315317000000001 5.61257568 -0.9648919800000001 0.291881 1.074417 -1.205361
5300 -0.43858548 4.15820394 -1.71378738 0.306585 -0.266079 -0.591449
5320 -0.39098736000000006 4.384981710000001 -2.0104712100000004 1.067368 0.8084979999999999 0.94966
5340 -0.03128409 3.6064503 -1.7661727800000002 1.504858 1.793552 1.450313
5360 1.0165318200000002 2.46357549 -1.27384812 1.030007 0.8928360000000001 -0.393464
5380 1.8622813500000002 1.60451379 -1.41516117 0.003325 0.596464 -1.576368
5400 3.49478307 1.13074965 -1.42324461 -0.465775 -1.021517 -0.415346
5420 3.8464029 1.6958252700000003 -0.10777265999999999 1.256214 -0.265234 1.301663
5440 2.9725182900000005 3.1454097300000003 1.04512797 2.0409490000000003 1.903037 2.64178
5460 0.06840513000000001 6.052367790000001 3.5194846500000003 1.608413 3.62974 3.043539
5480 -2.91623832 11.05870509 9.110802060000001 0.7501680000000001 2.8977630000000003 1.691454
5500 -12.670703910000002 23.578521390000002 15.967148400000001 1.260203 1.75642 0.293904
5520 -19.69289811 25.54812414 9.17786322 1.016167 2.082295 0.795982
5540 -10.138870440000002 12.13856046 4.693937850000001 0.802605 2.015078 1.007153
5560 -3.12474987 5.69805021 1.90389537 0.840327 1.512698 1.133042
5580 0.19938825000000002 8.33586111 1.90254159 0.936609 1.449997 1.012017
5600 -0.22588506000000003 15.19086348 -3.89400102 0.739544 1.216585 0.945779
5620 -4.83509394 21.33902592 -14.30200881 0.5541470000000001 1.323654 1.237039
5640 -6.87969414 14.19034158 -6.49514214 0.983013 0.346456 1.216718
5660 -0.39263544 2.89737369 7.991883270000001 1.170157 0.135168 1.145657
5680 9.45912573 4.749021 4.47524352 0.8153100000000001 1.212094 0.937768
5700 6.83298873 5.60314827 -7.17922287 0.388641 2.097032 0.8514
5720 6.3957472200000005 3.294198 -5.0091822 0.014736 1.959959 0.822259
5740 4.15700712 8.72461179 -4.2234698700000015 -0.346364 1.527994 0.7348319999999999
5760 -3.73982706 17.8759782 -3.43386297 -0.7418710000000001 1.665343 0.563114
5780 -11.70416385 16.112346210000002 1.08988119 -0.786516 0.980454 0.314785
5800 -7.8778224 6.81038649 0.16645608 -0.782941 0.126886 -0.149841
5820 -1.16712513 5.0448121200000005 -3.8863688400000003 -1.308671 -0.668834 -0.768858
5840 0.8044298100000001 4.489909470000001 -4.589451540000001 -1.6618990000000002 -0.864189 -1.424827
5860 0.8189486100000001 5.6080925100000005 -3.57277257 -2.632596 -0.430334 -1.98657
5880 0.34203546 7.75896444 -0.5794472700000001 -2.143937 -0.6029399999999999 -2.401679
5900 -0.26001405 11.663148240000002 0.86999004 -1.086283 -1.774014 -2.701507
5920 -2.24907003 11.62362375 0.33934752000000007 -1.672327 -2.366101 -2.511493
5940 -4.68001746 8.398586250000001 -0.08143281000000001 -1.739456 -2.652372 -3.057457
5960 -5.3869947300000005 9.087454260000001 0.48514374000000005 -1.39142 -1.808192 -3.213136
5980 -3.7672165800000004 11.34999342 2.1127110300000003 -1.133058 -0.976263 -2.891931
6000 -3.2913531 12.23331525 2.69319816 -1.090396 -0.53091 -2.679627
6020 -4.3263081 12.59570646 2.3572939500000003 -0.800872 -1.638595 -2.448654
6040 -5.682628889999999 11.56509729 -0.28081125 -0.6838270000000001 -2.296668 -2.084866
6060 -7.70313573 11.299697550000001 -1.2261028499999997 -0.5724199999999999 -2.657066 -1.831526
6080 -9.919273590000001 11.408078430000002 0.33380487 -0.561094 -2.629776 -1.473627
6100 -9.70926111 13.333222260000001 -0.28410741 -0.49063 -2.425095 -1.039699
6120 -7.56122427 13.04686836 0.0580752 -0.208871 -2.262479 -0.658721
6140 -3.04407243 12.373715970000003 0.8900514900000001 0.171692 -1.959575 -0.281505
6160 2.74693734 15.831976410000001 -1.15813917 0.395395 -1.432388 0.08791900000000001
6180 8.772661170000001 22.21889463 -5.80462605 0.628182 -0.62793 0.374797
6200 4.828364280000001 16.99401015 -4.071081330000001 1.092249 0.50644 0.8081470000000001
6220 -2.93989023 13.324540410000003 1.4027319 1.762615 1.30432 1.294643
6240 -5.77439163 14.49556011 1.67487111 1.6545849999999998 0.244102 1.721468
6260 -3.2546833200000003 15.01886475 -0.3013239600000001 0.074253 -1.737039 1.691603
6280 -0.51432849 11.712688740000003 -0.7202992500000001 -0.261725 0.247277 -0.870609
6300 -0.34293798000000003 9.26139537 -0.8566680600000001 0.3348 1.3575549999999998 -1.452183
6320 -0.9165483000000001 7.303309560000001 -1.09571814 0.181021 0.986934 -1.076768
6340 -0.6027950700000001 5.57380656 -1.44764208 0.327011 0.726979 0.133812
6360 -0.21465261000000002 4.53122919 -1.90957536 1.246399 2.373297 1.615475
6380 0.12288987000000001 3.2994365400000003 -1.8624285 1.973088 1.941299 1.392505
6400 1.03135473 2.08426203 -1.60466094 0.639047 0.422899 -0.28343
6420 2.0311310700000003 1.58939658 -1.25619012 -0.694967 -0.581842 -1.2101309999999998
6440 2.95201539 1.22699556 -1.15409745 0.734052 -0.845691 -0.137999
6460 3.0380785200000004 1.7591390100000002 -0.07139718 1.551943 0.689555 1.502263
6480 1.87335684 3.2701046400000005 1.31337261 2.08525 3.045647 2.711128
6500 -0.21584943000000004 5.600901780000001 4.10625999 1.094134 3.953491000000001 2.181749
6520 -4.01210361 10.43779095 6.22361115 0.8964120000000001 2.469633 1.005089
6540 -9.41078205 19.849769820000002 14.342573159999999 0.944994 1.812262 0.455068
6560 -18.234484650000002 28.690688970000004 15.74396109 0.870043 2.078703 1.021429
6580 -10.459951740000001 13.78512972 6.487509960000001 0.835572 0.74667 1.426683
6600 -2.99093166 6.174364949999999 2.29742352 1.031108 0.820634 1.674713
6620 -0.15717582000000002 5.3476272 1.6507679400000002 1.035905 0.771113 1.267818
6640 0.79110783 8.336165220000002 -3.87424368 1.100353 0.7352029999999999 1.134786
6660 -1.16038566 13.161978900000001 -16.0801596 1.220422 0.42889 1.175542
6680 -6.0773636699999996 19.08785655 -7.231765230000001 1.353015 0.068173 1.223932
6700 -7.35331113 12.72084282 7.06216014 1.020174 1.144667 1.10486
6720 4.75650603 7.074736560000001 7.32067326 0.481094 2.220521 1.058055
6740 6.9467553 4.31732214 -4.62807351 -0.01406 2.559317 0.945203
6760 6.975341640000001 1.0240168500000002 -4.5195552900000004 -0.365296 2.597359 0.794218
6780 4.8955725900000004 5.69654928 -4.378840650000001 -0.677649 2.178614 0.5554279999999999
6800 -2.65607712 14.053227210000001 -5.64909831 -0.698633 1.340075 0.349121
6820 -9.954148140000001 17.55878166 -0.6191091000000001 -0.323327 0.668223 0.206257
6840 -11.98138464 9.61031745 2.80681758 -0.508119 -0.057901 0.001866
6860 -3.1469106600000005 5.8187034 -2.8851013800000005 -1.187616 -0.757718 -0.491229
6880 -0.5587874100000001 4.50712602 -4.86937008 -1.7388419999999998 -0.969918 -1.025714
6900 -0.48708612000000007 4.876256700000001 -3.78652266 -2.354022 -0.6833899999999999 -1.549534
6920 -0.13621185 6.345451350000001 -1.52472906 -2.201664 0.317673 -2.405398
6940 1.02836268 10.80093753 0.68183424 -1.344151 -0.590359 -2.777464
6960 -0.031136940000000002 12.27297708 0.7512890400000001 -1.293987 -2.339239 -2.630662
6980 -2.04849477 10.901676420000001 1.6341498 -1.467429 -3.563248 -3.010592
7000 -1.9263406500000002 10.5096492 2.47435668 -1.456553 -3.059451 -3.266467
7020 -0.55953297 11.855492909999999 1.7058510900000003 -1.252112 -1.529194 -3.307592
7040 -2.42855379 12.5516988 0.62345493 -1.583294 -0.021301 -2.886686
7060 -6.60995838 13.636645560000002 -0.4980144600000001 -1.395301 -1.097913 -2.346677
7080 -9.45478971 12.949121520000002 -1.93308012 -1.019748 -1.443709 -1.978279
7100 -10.47880656 10.75992192 -1.6110963 -0.6976100000000001 -1.914581 -1.72012
7120 -9.943975170000002 8.701999740000002 -0.35147268 -0.521649 -2.160134 -1.471817
7140 -8.66727234 12.604986720000001 0.62704539 -0.451857 -2.119443 -1.052639
7160 -6.219716580000001 15.25328451 0.9744763500000001 -0.340536 -1.924171 -0.69853
7180 -2.1710805300000002 11.894418990000002 -0.49427685 -0.08628 -1.776104 -0.385023
7200 -0.67554603 12.529243710000001 0.25911153 0.07949099999999999 -1.347675 -0.043651
7220 2.38843089 17.090256059999998 -0.8210381400000001 0.379197 -0.607372 0.244845
7240 6.553374300000001 19.656826740000003 -3.88741851 1.049503 0.341009 0.6574409999999999
7260 3.6639270900000005 14.13210942 -3.5892337500000004 1.741443 1.275786 0.990089
7280 -1.88907246 12.34542393 -0.30895614000000005 2.130544 0.61666 1.115429
7300 -4.5655053300000015 13.35642291 0.43604469000000007 1.786454 -1.316709 1.918805
7320 -3.0626329500000002 13.88138544 0.40445649000000006 0.106544 -2.316096 1.28451
7340 -0.32242527000000004 11.602522440000001 0.84573972 0.205102 0.7701060000000001 -0.953476
7360 0.52480557 9.70776018 0.35281665 0.476405 1.237971 -1.5065879999999998
7380 -0.32423030999999997 6.26342994 -0.97342668 -0.070309 -0.157125 -1.136878
7400 -0.47870838000000004 4.64633973 -1.61604054 0.6195 1.201111 -0.140354
7420 -0.2809682100000001 4.263730110000001 -1.7910215100000002 2.415609 3.569659 1.653088
7440 -0.10178856 4.04758638 -1.3632172200000001 2.3019990000000004 2.43954 2.780716
7460 0.38245266 3.1731033600000003 -1.1076961500000004 -0.341383 -3.4956970000000003 1.491196
7480 1.0449808200000001 2.00268207 -1.07012385 -0.082246 -0.241301 -1.653873
7500 1.8432695700000001 1.1726579700000002 -1.38955707 0.011428 2.249936 -0.294428
7520 1.96211772 1.5209914500000001 -0.44532495 1.12042 2.312853 0.8573040000000001
7540 1.4956914600000002 2.84169213 0.71775846 1.890423 2.35938 2.405135
7560 -0.53723484 4.617743580000001 2.18965086 0.883812 3.167155 2.138559
7580 -3.56273694 8.08573554 5.02729146 0.6101800000000001 1.509412 0.822722
7600 -8.236476 15.63454035 12.509486370000001 1.05564 2.714079 0.477118
7620 -22.097348730000004 27.298581300000002 15.51419127 1.024499 3.289914 0.623577
7640 -13.35148848 19.21913397 7.619005169999999 0.500684 1.822188 1.287301
7660 -3.4777136700000004 7.82332785 4.153710960000001 0.714651 1.6640990000000002 1.474869
7680 1.75495014 2.48423535 2.1475855800000003 0.7427779999999999 1.264349 0.986332
7700 2.40983631 0.17992521 -4.61161233 0.8109850000000001 1.258741 0.997498
7720 5.746698 5.93560917 -11.132652870000001 0.935924 0.7408560000000001 0.9296
7740 7.26199965 14.942680290000002 -10.85661909 1.028048 0.324112 0.90514
7760 -8.04098232 40.22629740000001 5.8962416399999995 0.759258 1.040955 0.893798
7780 -12.981602429999999 15.03997587 4.57493274 0.357844 1.862893 0.822643
7800 2.34996588 4.43393361 -3.9487898700000006 -0.028625 2.166176 0.705255
7820 10.194552 0.90097983 -4.1891839200000005 -0.418155 2.504607 0.592074
7840 12.48958188 -1.2663630900000002 -2.43049617 -0.793776 2.392315 0.494522
7860 3.5892337500000004 6.470440560000001 -6.524483850000001 -0.685867 1.588164 0.36812
7880 -6.0848487 13.194911070000002 -3.6455235300000006 -0.417446 0.661976 0.251541
7900 -12.57624342 19.1978757 1.8968517900000001 -0.414918 0.172353 0.148568
7920 -9.45763461 8.948544660000001 -1.0240168500000002 -0.957227 0.06455 -0.127478
7940 0.9153416700000001 4.696782750000001 -5.730236820000001 -1.938146 -0.277379 -0.614592
7960 1.93322727 3.9550780800000003 -5.1651612 -2.656949 0.363656 -0.991107
7980 0.44472654 5.5182721500000005 -1.8726014700000002 -2.685118 1.2317870000000002 -1.215674
8000 -1.14811335 7.757316360000001 -0.62704539 -1.6764169999999998 -0.06241 -2.383083
8020 -2.61252072 10.11850488 -0.29264211 -1.466879 -1.996311 -2.990164
8040 -3.9972905100000005 9.878709240000001 -0.05583852 -1.065002 -2.8412900000000003 -3.284308
8060 -3.8492478 9.17906004 1.03479804 -0.902743 -3.301186 -3.76649
8080 -1.9818750600000001 10.41908328 2.11615434 -0.937056 -3.012846 -3.915582
8100 -0.9316655100000001 11.44878993 1.0593426599999998 -0.999537 -1.442146 -2.918175
8120 -2.6084790000000004 12.31264872 0.8608569300000001 -0.986889 -1.647836 -2.374098
8140 -4.687355340000001 11.52108963 0.1761876 -0.695967 -1.409361 -2.057246
8160 -6.93013716 10.530004950000002 -0.90322632 -0.5110779999999999 -1.6524720000000002 -1.894342
8180 -8.904831300000001 9.95804271 -1.5955278300000002 -0.287623 -2.348407 -1.744474
8200 -8.94629817 10.479856230000001 -0.05613282 -0.181627 -2.564559 -1.328987
8220 -6.98597568 11.62123011 1.8293491800000001 -0.093321 -2.539403 -0.77079
8240 -7.84548864 12.88894698 4.28214348 0.142319 -2.315306 -0.273777
8260 -4.708162350000001 12.97471581 2.76130899 0.458173 -1.893014 0.140222
8280 -0.17408826000000002 11.462563170000001 -2.20476807 0.620031 -1.032644 0.359236
8300 2.0303757 16.78519449 -4.69812672 0.971646 -0.07757599999999999 0.7076399999999999
8320 5.10947964 21.922210800000002 -3.4166464200000006 1.597551 1.0389620000000002 1.19769
8340 1.01444229 17.653095 -3.30766713 2.261349 0.521508 1.353609
8360 -5.92153182 15.171106140000001 0.8183502000000001 2.324085 -0.775415 2.483752
8380 -6.85394289 14.766041430000001 1.8745536600000001 -1.304368 -0.382754 0.943165
8400 -1.8883269 15.71536494 -0.09265545000000001 0.056642 2.421369 -1.644564
8420 0.44891541000000007 10.95017706 -0.14340258 0.457132 1.286673 -1.680905
8440 1.03689738 7.650142110000001 0.66715848 0.212419 0.8854860000000001 -1.0422360000000002
8460 0.70728138 5.2338704400000005 -0.66028167 1.148301 1.466747 1.168367
8480 0.61761798 3.96555516 -2.07153846 0.694488 1.971629 1.043841
8500 0.38933928 3.27130146 -2.07258813 0.896769 0.6759029999999999 -0.639808
8520 0.5545985400000001 2.4369315300000003 -1.5618501 -0.349539 0.134822 -0.910603
8540 0.9864445500000001 1.37159496 -1.19915478 0.289009 -1.562986 0.604362
8560 1.67487111 1.63265868 -1.42143957 1.767346 1.282763 1.885431
8580 3.4000282800000003 2.00164221 -2.36493594 2.038651 3.402504 2.754142
8600 3.95792298 2.88330615 -1.3145694300000001 0.736841 3.66646 2.343059
8620 3.2939037000000004 4.08320649 0.6912616500000001 0.937833 2.402479 0.979827
8640 -0.5096883600000001 6.560702370000001 2.56297041 1.164199 2.397396 0.4569180000000001
8660 -3.40047954 11.33922204 7.610029020000001 0.839556 2.749441 0.878283
8680 -18.534758940000003 30.39474483 24.5395188 0.711491 1.6619150000000005 1.224886
8700 -19.15192566 26.252560620000004 9.79024266 0.8230930000000001 1.029121 1.399528
8720 -8.120011680000001 8.49528342 3.7459583100000002 0.769821 1.467129 0.868757
8740 -1.07102637 4.95020448 0.48723327000000005 0.654669 1.853689 1.002053
8760 4.73031333 12.672646290000001 -1.1996060400000002 0.5368430000000001 1.08478 1.049217
8780 2.28799611 17.078287860000003 -10.25412813 0.686389 0.025025 1.137078
8800 -4.671335610000001 16.01235288 -11.92914639 0.710507 0.528216 1.021233
8820 -6.74212851 8.81052777 0.29997999 0.65551 1.817411 1.015992
8840 6.474040830000001 6.743031030000001 10.95885891 0.2587 1.839012 1.019602
8860 8.919654210000001 7.991284860000001 -4.7862990000000005 -0.122651 1.493076 1.014177
8880 6.33258063 2.6114710500000005 -6.49424943 -0.342449 1.146875 0.669118
8900 4.86592677 6.25998663 -4.69992195 -0.51453 0.781148 0.370351
8920 -2.31897609 14.95270611 -4.949606070000001 -0.6475810000000001 0.623797 0.142092
8940 -10.56982374 16.06025511 0.12962933999999998 -1.074441 0.337654 -0.124374
8960 -10.87593498 8.36505567 1.30678029 -1.375996 -0.8882180000000001 -0.726318
8980 -3.0316431600000007 5.362901370000001 -2.39397354 -1.689618 -1.139718 -1.229183
9000 0.88690248 5.02924365 -5.511238379999999 -2.6367580000000004 -0.149059 -1.727382
9020 0.67210272 5.85312669 -2.8463322600000005 -2.089761 0.06688999999999999 -2.391477
9040 -0.15418377 6.639290280000001 -0.17019369 -1.336461 -1.2061959999999998 -2.491406
9060 -0.37556604 10.54826136 0.09759969 -1.5316459999999998 -1.232946 -2.292977
9080 -2.30699808 10.756782720000002 -0.82253907 -1.658586 -1.881712 -2.711775
9100 -4.70247255 8.68329207 -0.3239262 -1.417168 -2.582326 -3.005089
9120 -5.222942100000001 8.70589431 1.0150407000000001 -1.033415 -1.628422 -2.925651
9140 -2.7196949700000004 9.771525180000001 0.3305087100000001 -1.238527 -0.57587 -2.762858
9160 -2.06390628 12.014169660000002 1.05156333 -1.024095 -1.546791 -2.302917
9180 -3.1542387300000003 13.46584365 1.30273857 -0.700538 -2.004512 -1.871713
9200 -5.49985878 12.290792040000001 0.01691244 -0.6363840000000001 -2.4626360000000003 -1.647419
9220 -7.81988454 11.21947137 -0.77463684 -0.664546 -2.5455650000000003 -1.397546
9240 -8.47118025 12.3145911 -0.26719497000000003 -0.588087 -2.327583 -1.098189
9260 -7.74968418 15.260465430000002 -1.32624333 -0.319036 -2.073702 -0.885127
9280 -7.35255576 15.52496265 -1.3319331300000001 0.116287 -1.750518 -0.565239
9300 -4.85544969 11.558367630000001 1.47593412 0.444857 -1.411106 -0.215138
9320 -0.51327882 11.94695154 3.9790242900000004 0.787451 -0.828743 0.105907
9340 4.4120769300000005 15.857129250000002 -1.90433682 1.294903 -0.02895 0.521829
9360 6.15131145 17.628089309999996 -5.376223350000001 1.855451 0.504235 0.9641
9380 2.67628572 14.69074968 -2.67449049 2.103648 -0.11192 1.3875030000000002
9400 -2.7407962800000005 12.89957121 0.16315992 1.207393 -1.41907 2.709649
9420 -5.73172794 13.4104662 1.6486686 -0.8138380000000001 -0.08272 0.345866
9440 -4.06554849 12.81050622 -0.21211182 0.39032 1.2196870000000002 -1.122606
9460 -1.4657513400000002 10.214456490000002 -1.0150407000000001 0.447751 0.723947 -1.341623
9480 0.19235448000000002 8.99688834 -0.43035489 0.35185500000000003 -0.004926 -0.670516
9500 -0.0691605 6.37928604 -1.31741433 1.301619 2.055526 1.115272
9520 -0.38560167000000006 4.71938499 -1.66199058 1.676325 3.108114 2.363156
9540 -0.42676443000000003 4.13500329 -1.85868108 0.159372 -0.157628 1.183837
9560 0.13202298 3.9899526300000003 -1.9083785400000002 -0.609859 -2.076763 -1.465063
9580 0.60159825 3.0585912299999998 -1.32504651 0.329911 0.518636 -0.247256
9600 1.5173911800000002 2.9966214600000005 -1.25873091 1.1465 0.76902 0.630865
9620 2.18485377 2.6048787300000003 -1.29151593 2.372973 1.90823 2.121732
9640 2.3532522300000003 2.9582937900000004 -0.2870994600000001 1.498616 2.406132 2.508092
9660 2.00882313 3.8694564000000002 1.1123362800000003 0.5023270000000001 1.045416 1.332105
9680 -0.29668383 5.56108299 3.3058719 0.781505 1.873079 0.572421
9700 -3.2897050200000004 8.60051529 7.78411728 0.782914 2.134278 0.519753
9720 -10.04440995 19.59784902 16.16324049 0.6630159999999999 2.225687 0.940746
9740 -22.150636650000003 26.94367512 11.255846850000001 0.592128 1.17354 1.181949
9760 -10.33092081 13.988265390000002 6.59843163 0.562104 1.420614 1.22522
9780 -2.50788726 5.827228290000001 2.6580195000000004 0.698585 2.212202 1.085222
9800 1.31261724 4.488418350000001 0.90022446 0.751238 2.096813 1.124194
9820 3.81557007 8.86905423 -4.84572798 0.601787 1.686864 1.208064
9840 3.0042536400000004 14.740299990000002 -13.397291370000001 0.8472 0.498368 1.439901
9860 -2.07722826 28.589793120000003 -1.69343163 1.159432 -0.526476 1.447668
9880 -9.54400185 13.52287899 6.82251165 0.70765 -0.011192 1.1180450000000002
9900 0.21390705000000002 5.2097672699999995 0.7062317100000001 0.353791 0.922534 1.022509
9920 5.515731360000001 1.26891369 -7.299866250000001 0.06793400000000001 1.193926 0.801179
9940 9.32396355 -0.56926449 -6.03200223 -0.212713 0.572261 0.664351
9960 6.574024350000001 4.1501205 -5.1242927400000005 -0.6568039999999999 0.453564 0.363368
9980 -2.1544722000000003 13.06872504 -2.21584356 -0.8404309999999999 0.473081 0.170848
10000 -8.76113442 19.71655002 2.41507485 -1.051701 -0.065089 -0.126904
10020 -8.911717920000001 13.556262420000001 2.9865858300000006 -1.7674330000000005 -0.933444 -0.7984289999999999
10040 -2.19697893 6.68525013 1.70376156 -2.468607 -0.950529 -1.245549
10060 0.22423698 5.487733620000001 -2.03666391 -3.258999 0.392498 -2.086004
10080 0.47032083 4.605775380000001 -3.38460696 -1.837193 0.64463 -2.700237
10100 -0.41194152000000006 5.263957710000001 -4.36087854 -1.067623 -1.366187 -2.408138
10120 -0.9051687 8.738532180000002 -3.63354552 -1.345028 -2.217956 -2.546785
10140 -2.4321442500000003 10.74031173 -0.6033934800000001 -1.153929 -2.806411 -3.404614
10160 -4.46161743 11.65491765 1.2470570100000002 -0.884222 -2.289037 -3.550808
10180 -3.8130194700000004 8.434059210000001 0.39233133000000003 -0.751441 -2.017229 -2.908228
10200 -3.99968415 7.804620180000001 0.09894366 -0.561132 -2.020496 -2.523402
10220 -3.9657023100000006 10.981019700000001 1.59418386 -0.470786 -2.510969 -2.224109
10240 -2.8801571400000006 14.68087101 2.90096415 -0.439474 -3.342027 -1.94936
10260 -4.030821090000002 13.352381190000001 1.66782753 -0.31175 -3.536796 -1.838192
10280 -6.558612840000001 12.39722073 1.11173787 -0.191976 -2.974737 -1.574225
10300 -7.70612778 12.12972165 0.8671451400000001 -0.153814 -2.220934 -1.238434
10320 -7.70881572 12.98355462 0.48873420000000006 0.077208 -1.804249 -0.946798
10340 -7.24104549 16.40004408 0.8339186700000001 0.468332 -1.314851 -0.596453
10360 -4.96771533 12.580137990000003 1.4693418 0.7421220000000001 -0.675531 -0.340055
10380 -1.1304455400000002 10.21894947 1.34764875 1.038575 0.024419 -0.080371
10400 2.3781009600000003 13.558508910000002 -2.6548803000000003 1.385389 0.744654 0.390078
10420 5.81106141 19.74603888 -6.8434658100000005 1.786345 0.7803329999999999 0.710095
10440 3.00994344 16.018641090000003 -3.78144108 2.129008 0.333176 1.412747
10460 -5.55868935 11.945607570000002 -0.32736951 0.8672129999999999 -2.104 2.461391
10480 -9.15241608 12.064308570000001 0.5192727300000001 -0.018781 -0.794874 0.06070800000000001
10500 -7.22128815 12.47236533 -0.76475817 0.7888930000000001 1.509574 -0.968506
10520 -2.1514801500000003 11.97540054 -1.67202621 0.400419 1.130019 -1.085033
10540 1.5612516900000002 10.686572550000001 -1.95283746 0.7408680000000001 1.919602 0.162948
10560 2.06660403 7.888299480000001 -1.53551025 1.056159 2.916566 1.519447
10580 0.7081740900000001 5.51632977 -0.5072947200000001 0.09139 1.27531 0.409201
10600 -0.19444401 4.649478930000001 -0.56926449 0.190642 -0.480749 -0.8857450000000001
10620 -0.21525102000000002 4.279298580000002 -0.7520346000000001 -0.030973 -0.26326900000000003 -0.734816
10640 0.56088675 3.40392285 -0.93435345 0.594691 0.37 0.993922
10660 1.3481000100000002 2.98509471 -0.68392377 1.661031 2.223406 2.508393
10680 2.41447644 2.6819755200000004 -1.07461683 1.468884 4.052494 2.938405
10700 2.93569155 2.81235042 -0.86669388 0.447959 2.395865 1.725237
10720 3.3579630000000003 3.6269532 0.12663729 0.8103739999999999 1.062864 0.698643
10740 1.3078299600000003 5.137918830000001 1.00246428 1.076239 2.328422 0.731993
10760 -3.11891292 7.50030417 3.1928606999999998 0.488413 2.204448 1.075218
10780 -6.63225651 12.01520952 8.563247100000002 0.689157 1.600626 1.38611
10800 -18.80030583 24.347919690000005 16.289720820000003 0.933112 0.8496530000000001 1.429369
10820 -18.914219550000002 19.689307650000003 5.785172820000001 0.970944 0.499938 1.206823
10840 -6.989713290000001 10.07599815 1.42428447 0.841923 0.605599 1.534799
10860 0.7231441500000001 8.920703880000001 -0.29010132000000005 0.867552 0.016891999999999997 1.415023
10880 3.06577215 13.19895279 -3.9757281300000002 0.864419 0.018024 1.4011129999999998
10900 1.93382568 18.62306856 -4.10461191 0.684561 1.060408 1.154966
10920 -3.9880102500000003 14.988031920000001 -2.01735783 0.304556 1.861116 1.0466
10940 -5.5024093800000005 6.195770370000001 4.22675622 -0.109365 1.604867 1.0184
10960 5.58308682 6.27135642 2.4644780100000006 -0.467176 1.271534 0.771705
10980 7.21304775 4.32540558 -6.277644629999999 -0.638088 1.120108 0.426737
11000 7.7547755700000005 3.30887376 -6.1079022 -0.615686 0.76364 0.30771
11020 4.66639137 7.112456010000001 -5.0587325100000005 -0.720811 0.709275 0.141471
11040 -3.62620764 14.69209365 -3.85463349 -1.056563 -0.259766 -0.189713
11060 -12.760965720000002 18.84460779 2.25146367 -1.271249 -1.183261 -0.8266899999999999
11080 -10.02959685 8.05310748 -0.44487369000000004 -1.880929 -0.79804 -1.5268540000000002
11100 -1.78623423 4.7900366100000005 -3.68503821 -2.538641 -0.113576 -2.1604400000000004
11120 0.7581756600000001 3.5292063600000003 -4.6988820900000015 -1.605499 -0.010327 -2.681756
11140 1.4584134600000003 4.68300951 -2.91279501 -1.049187 -1.226041 -2.572695
11160 0.44083197 7.5079363500000005 0.48215169 -1.217387 -1.76496 -2.720594
11180 -0.7744896900000001 12.51023193 0.8469365400000001 -1.17372 -2.419709 -3.123238
11200 -2.80441413 12.263098410000001 0.4837899600000001 -0.964392 -2.298336 -3.2875050000000003
11220 -4.371806879999999 8.43271524 0.67284828 -0.8418260000000001 -1.52679 -3.198976
11240 -3.5199261 9.30345084 0.23845167 -0.863072 -0.700331 -2.86583
11260 -2.50728885 12.018809790000002 1.47877902 -0.577032 -1.280095 -2.518053
11280 -3.18612123 12.565766340000001 1.9715549400000003 -0.327779 -2.002363 -2.199193
11300 -5.4784533600000005 12.18182256 0.6087791700000001 -0.218545 -2.616261 -1.95302
11320 -7.32696147 11.54533995 -1.1241671400000002 -0.198586 -2.8508720000000003 -1.641727
11340 -8.08528428 10.15922619 -0.5198711400000001 -0.18826 -2.758797 -1.2337129999999998
11360 -6.9986992500000005 11.223356129999999 0.5319963 -0.056376 -2.403125 -0.7835260000000001
11380 -6.568344360000001 14.086904940000002 -0.95022603 0.307481 -2.022384 -0.4097310000000001
11400 -6.54663483 14.861845890000001 -0.8265807900000001 0.670303 -1.431642 -0.070395
11420 -3.26710278 12.04096077 0.8264336400000001 1.032196 -0.445237 0.1584
11440 0.5260023900000002 12.732222420000001 1.41844752 1.54252 0.5132939999999999 0.568797
11460 4.87431432 16.67053521 -1.90613205 2.138385 1.027356 0.967542
11480 6.71997753 19.21000086 -3.20483871 2.559378 0.198474 1.42554
11500 2.0184075 14.483277990000001 -2.8238771700000003 1.130325 -1.617435 2.566223
11520 -2.7854121600000004 12.770697240000002 0.7652094300000001 -0.5287810000000001 0.447593 -0.118567
11540 -4.79947383 12.95810748 1.3145694300000001 0.279606 1.322144 -1.074372
11560 -3.7142229600000003 12.42042138 0.5667237 -0.199029 0.8202940000000001 -1.431722
11580 -1.6696325699999999 10.324475640000003 -0.38410074000000005 0.315915 0.286102 -0.6914359999999999
11600 0.14534496 8.753649390000001 0.05568156 1.548776 2.302402 0.968199
11620 0.19998666 6.683602050000001 -1.3671117899999998 1.661545 2.553509 2.009113
11640 -0.37646856 5.2781724 -1.7269622100000002 0.369037 0.110574 1.330236
11660 -0.9767228400000001 4.569998310000001 -2.0408527800000003 -0.173344 -1.594322 -1.01291
11680 -0.70338681 4.16703294 -2.03591835 0.140849 0.531716 -0.423782
11700 0.14669874000000002 3.24629577 -1.7771011200000002 0.763717 1.567149 0.902769
11720 1.63804437 2.25700632 -1.3763920500000002 1.919279 3.758134 2.368293
11740 3.02551191 1.4892561 -1.4256382500000002 1.148292 3.919235 2.442818
11760 3.7056980700000004 2.04924033 -0.63438327 0.575429 2.195348 1.410191
11780 3.3750324000000003 3.65809014 0.54845748 0.8616229999999999 1.902709 0.818634
11800 0.91385055 5.87797542 1.9799326800000001 0.738202 2.948091 0.838865
11820 -2.56387293 9.29806515 6.05999997 0.46444 3.067414 1.3388639999999998
11840 -8.99045298 20.203341840000004 17.35012296 0.5820960000000001 1.941031 1.333651
11860 -24.91508484 28.91672118 11.759247000000002 0.633184 1.295762 0.951343
11880 -14.152916430000001 16.01385381 4.56565248 0.489793 1.335135 1.085956
11900 -4.90290066 6.36161823 1.19406339 0.5097109999999999 1.077037 1.144109
11920 0.58798197 5.791304070000001 -0.42077052000000004 0.794003 -0.000939 1.143204
11940 3.0726587700000003 7.530989850000001 -3.78383472 0.834982 0.350392 1.160131
11960 3.5103515400000007 12.06176778 -10.456351470000001 0.470776 1.820029 1.054223
11980 -0.35925201 20.35916388 -4.36956039 0.080249 1.971898 0.976525
12000 -7.9894896300000005 18.36007227 4.269419910000001 -0.171174 1.755699 0.915225
12020 0.92582856 6.867421830000001 6.865773750000001 -0.487579 1.809089 0.625595
12040 7.24912893 3.9784258800000005 -3.95268444 -0.5516840000000001 1.277776 0.350227
12060 8.89809183 1.69267626 -6.37494021 -0.44884 0.595897 0.286658
12080 6.9786378000000004 4.58765631 -5.79759228 -0.446678 0.550292 0.234388
12100 -0.76850559 12.099938490000001 -6.571630710000001 -0.817166 0.183162 -0.074309
12120 -8.8268418 17.328717540000003 -1.2379239 -1.311948 -0.849043 -0.455661
12140 -12.27656754 12.695248529999999 2.3685264 -1.917317 -0.6715369999999999 -0.89702
12160 -3.51199962 6.169273560000001 -1.7498587500000002 -2.638456 0.548197 -1.601169
12180 1.18358631 4.56176772 -5.8528323900000006 -2.364561 0.64628 -2.389866
12200 1.9799326800000001 4.39156422 -4.337383590000002 -1.2393299999999998 -2.363722 -2.948579
12220 0.41793543000000005 5.8594149 -1.3528872900000002 -1.265402 -2.812524 -2.57965
12240 -1.3980917700000002 9.8216739 -0.47271447000000005 -1.363814 -3.1478 -3.097995
12260 -3.77470161 12.41712522 -0.72718587 -1.143402 -2.270034 -3.549438
12280 -5.5262084399999996 10.20548034 -0.46149183000000005 -0.984476 -1.363791 -3.3443910000000003
12300 -4.032616320000002 8.41026015 0.30955455000000004 -1.034159 -0.746764 -2.827441
12320 -1.9413107100000002 9.35165718 0.6616256400000001 -0.795933 -1.43324 -2.392267
12340 -2.2350024900000003 10.91559681 1.09527669 -0.5830420000000001 -1.972015 -2.108079
12360 -3.9911494500000004 12.107570670000001 0.56028834 -0.39265 -2.665703 -1.958446
12380 -5.929772219999999 12.191249970000001 -0.75607632 -0.321803 -3.1342 -1.809936
12400 -7.9153947 11.605514490000001 -0.91624419 -0.33677 -3.050247 -1.480067
12420 -8.200846080000002 12.079131480000001 0.29593827000000006 -0.137005 -2.747156 -0.99302
12440 -5.15737206 13.35388212 0.56596833 0.258216 -2.358609 -0.467328
12460 -6.076314 14.673984390000001 1.7351927999999999 0.6096189999999999 -1.661445 -0.091889
12480 -6.4433551499999995 12.386292390000003 1.95283746 0.925596 -0.473434 0.109621
12500 -4.890481200000001 9.69338853 0.68348232 1.377561 0.782557 0.508547
12520 -1.7065966500000003 10.59736041 -0.040711500000000005 1.996984 1.2732709999999998 0.864758
12540 2.96952624 16.82321805 -4.36252662 2.421126 0.74661 1.399302
12560 7.055283330000001 21.51161325 -5.02984206 0.699325 -2.108957 2.780691
12580 0.82358874 14.48972316 -2.8839045600000004 -0.573438 0.398126 0.036077
12600 -5.69654928 12.45589434 1.78219251 0.893059 2.236386 -0.86616
12620 -5.1385172400000005 13.03923618 0.48170043 0.314671 1.34619 -1.256824
12640 -2.20177602 13.56659235 -1.3031898300000002 0.307176 0.698572 -0.4698350000000001
12660 -1.05021936 10.520871840000002 -0.6719555700000001 1.150901 2.324118 1.210015
12680 -0.38230551 8.03903013 -0.82837602 1.708519 1.656091 1.816175
12700 -0.7620604200000001 5.730236820000001 -1.2467529000000002 0.701529 -0.209437 0.61726
12720 -0.17453952 5.08642614 -2.05163397 -1.0081719999999998 -0.638808 -1.610693
12740 0.11211849 5.056181909999999 -2.35804932 -0.08596000000000001 -0.052343 -0.155426
12760 0.34757811 4.01420295 -1.8498520800000002 1.023272 1.351351 1.097139
12780 1.00097316 3.3012317700000002 -1.3374659700000002 1.948667 3.298403 2.491933
12800 2.24562672 2.6165624400000005 -1.3201022700000002 1.103379 3.993568 2.540685
12820 3.9434041800000004 1.97708778 -1.27939077 0.625483 1.7007759999999998 1.171893
12840 4.75889967 3.0383826300000005 -0.32856633 0.765061 1.543832 0.339856
12860 3.2660629200000004 4.11060582 0.7611677099999999 0.5898220000000001 2.423554 0.806454
12880 -1.32833286 6.577320510000001 3.03912819 0.4286930000000001 2.345792 1.211352
12900 -4.0701886200000015 10.888805699999999 8.46490185 0.589677 1.6451939999999998 1.249694
12920 -18.06802857 27.083477430000002 22.58563167 0.852241 1.167146 1.223299
12940 -20.689976700000003 24.640257690000002 8.1212085 0.952107 1.085895 1.475132
12960 -8.92698228 10.12344912 2.77298289 0.867894 0.818988 1.428953
12980 -2.04519861 4.78779012 0.59621256 0.719622 0.529981 1.370603
13000 1.35258318 6.314471370000001 -0.26449722000000003 0.683373 0.598033 1.433288
13020 1.87470081 9.57049866 -9.56585853 0.576358 1.095397 1.28983
13040 0.73332693 15.28246926 -14.5789353 0.176626 1.6537990000000002 1.054518
13060 -8.17061166 21.335876910000003 0.6156657900000001 -0.277882 2.019072 0.945121
13080 -3.79340928 11.603268000000002 12.833118270000002 -0.467383 1.654154 0.725279
13100 6.4991838600000005 6.89481135 1.06937829 -0.5481520000000001 0.967403 0.441448
13120 8.190369 2.40534333 -8.37313911 -0.585849 0.50685 0.296497
13140 9.4482072 1.3235455800000002 -5.29029756 -0.6835829999999999 0.524539 0.219948
13160 3.58519203 8.44933338 -6.71907501 -1.276634 -0.453426 -0.320257
13180 -5.45495841 15.99109461 -3.6950640300000006 -1.75595 -1.124799 -1.173049
13200 -13.50461277 18.272204100000003 2.9728224000000005 -2.398006 -0.317733 -1.844071
13220 -8.69886054 6.186333149999999 0.65818233 -2.2549240000000004 1.012564 -2.441912
13240 0.33755229 4.8675748500000005 -4.068089280000001 -1.227278 -0.59449 -2.911238
13260 2.16060345 4.220477820000001 -3.9145137300000004 -1.183239 -2.369518 -2.613827
13280 0.8297199900000001 4.93643124 -1.80194985 -1.405312 -3.097689 -3.072712
13300 -0.86070978 7.6272357600000005 -1.4009366699999999 -1.118312 -2.957784 -3.409513
13320 -2.135911680000001 9.52319484 -0.46538640000000003 -0.911284 -1.808766 -3.219396
13340 -3.94534656 11.607162569999998 -0.59935176 -1.194524 -0.30640500000000004 -2.788533
13360 -3.10499253 10.88760888 0.6529437900000001 -0.924147 -0.870956 -2.501774
13380 -2.01451293 9.796373910000002 0.48050360999999997 -0.606688 -1.388864 -2.198722
13400 -2.4665675400000002 10.227180060000002 1.03374837 -0.485472 -2.222102 -1.989573
13420 -3.96974403 11.97060345 1.4735404799999998 -0.406507 -2.697365 -1.754472
13440 -6.202352879999999 12.031533360000001 0.38364948 -0.368898 -2.705527 -1.345069
13460 -7.731869220000001 11.18713761 -0.81251325 -0.236681 -2.4820740000000003 -0.8637319999999999
13480 -9.49535406 11.52154089 0.11750418000000001 0.108556 -2.156872 -0.437654
13500 -8.75200131 12.782518290000002 1.1231174700000002 0.499823 -1.563368 -0.014802
13520 -7.097191649999999 15.743656979999999 0.52211763 0.829775 -0.7294689999999999 0.284468
13540 -4.7604006000000005 13.74860709 -0.35655426000000007 1.38369 0.430257 0.6927760000000001
13560 -3.1196584800000005 10.34723484 0.45475236 2.167862 1.362068 1.154258
13580 -1.2451146300000002 12.59929692 1.9592728200000002 2.393735 0.6961970000000001 1.5092020000000002
13600 4.90964013 18.931436100000003 -3.6013589100000005 0.508942 -2.547868 2.683784
13620 8.322696089999999 20.534743260000003 -4.79347992 -0.616772 0.239272 -0.69255
13640 0.8705884500000001 13.69158156 -0.5786919 0.330729 1.46915 -1.383988
13660 -4.975798770000001 13.13727732 2.6553315600000005 -0.05347 0.8488469999999999 -1.505518
13680 -5.103338580000001 13.14551772 0.8803199700000001 0.119243 0.58248 -0.31290300000000004
13700 -1.98906579 12.186011430000002 -0.9412400700000001 1.063872 2.782228 1.807025
13720 -0.24952716000000003 9.33503904 0.08876088000000001 0.935758 2.067915 2.06235
13740 0.32766381 7.924822110000001 -1.22115861 0.023231 -0.50215 -0.4510520000000001
13760 -0.5060979 5.66602056 -1.6404380100000002 -0.664841 -0.301834 -1.46238
13780 -0.6554845799999999 4.16253996 -1.84356387 0.579404 1.163778 0.43839
13800 -0.34398765000000003 3.9910023000000003 -1.9152651600000001 1.5295450000000002 1.494614 1.59401
13820 -0.09385227000000002 2.87132814 -1.65870423 2.419927 2.70606 3.160417
13840 1.0659349800000002 2.47151178 -1.5518242800000004 0.852455 1.944317 2.67295
13860 2.62374336 1.9746941400000002 -1.75779504 0.6645220000000001 0.665147 1.183106
13880 3.8736452700000004 1.9826304300000002 -1.52218827 1.311441 1.652507 0.660795
13900 3.31710435 3.2546833200000003 0.32617269000000004 0.875864 2.356991 0.953815
13920 1.1060480700000002 4.213591200000001 2.6259898500000003 0.782103 2.124334 1.407453
13940 -2.4544423799999997 7.18087095 5.1828192 0.980179 0.8655149999999999 1.417927
13960 -6.210436320000001 16.41651507 15.54368013 1.226897 0.6866479999999999 1.179529
13980 -26.42605047 32.26360869 15.330665790000001 0.878984 1.399258 0.96361
14000 -14.51816235 17.580942450000002 6.280940790000001 0.274801 1.855068 1.252567
14020 -3.24345087 5.976624780000001 2.54381148 0.706278 0.305672 1.266112
14040 1.4693418 4.77297702 0.91325214 0.904126 -0.485774 1.081569
14060 4.665351510000001 9.55133973 -3.7226105100000004 0.6034 0.911971 0.783916
14080 2.70711855 15.191461890000001 -13.242813300000002 0.053914 2.564004 0.780098
14100 -3.2394091500000006 18.89610048 -3.43865025 -0.265902 1.860098 0.730696
14120 -10.038425850000001 12.143347740000001 9.310935870000002 -0.34944000000000003 1.004199 0.657502
14140 1.7504571599999998 8.75109879 0.46778004 -0.475574 0.669144 0.373971
14160 5.313802320000001 4.05626823 -9.03551031 -0.587403 0.503129 0.16296300000000002
14180 8.55112194 1.1752085700000001 -6.267765960000001 -0.80775 1.03144 0.104131
14200 7.2883395 4.49724735 -4.3063938 -1.467144 -0.194637 -0.403104
14220 -1.55811249 15.3338148 -1.6510622400000001 -1.707987 -0.811059 -1.085522
14240 -10.28526507 20.578005360000002 1.8269555400000002 -2.528262 0.067669 -1.674559
14260 -10.16805519 8.59602231 0.7863107400000001 -2.566618 1.006183 -2.174889
14280 -2.9367412200000005 4.29202215 -0.99408654 -1.289395 -1.060049 -2.849118
14300 1.1653299000000001 3.7959598800000003 -4.66564581 -1.15207 -2.381092 -2.676619
14320 1.13104395 4.08291219 -4.23289728 -1.425122 -3.065379 -3.143394
14340 -0.054936000000000006 6.3134217 -0.50624505 -1.100066 -2.150763 -3.577062
14360 -0.55354887 9.846826740000001 1.9446068699999999 -0.973333 -1.086485 -3.171616
14380 -1.6763622299999998 15.077842470000002 0.2951829 -1.127942 -0.603111 -2.706503
14400 -3.91375836 10.15607718 -1.4576679000000001 -0.8313719999999999 -1.312478 -2.457831
14420 -5.64341832 8.42627988 -1.62831285 -0.5915050000000001 -1.610337 -2.237857
14440 -5.51138553 9.42335847 0.90696393 -0.419854 -2.370282 -2.019903
14460 -2.36373912 11.091186 3.6844398000000003 -0.291706 -2.495598 -1.6951759999999998
14480 -1.8959590800000001 12.402910530000002 2.0836636200000003 -0.101554 -2.55736 -1.333778
14500 -5.00214843 11.934532080000002 -0.79933842 0.181618 -2.68706 -0.8466610000000001
14520 -7.41018951 11.56165398 -1.78788231 0.575209 -2.216362 -0.35099600000000003
14540 -9.51930027 11.85819066 1.6393883400000002 0.909563 -1.179707 0.122165
14560 -7.728278760000001 13.074709140000001 1.3989942900000003 1.136051 -0.13333499999999998 0.39053
14580 -6.7599434700000005 15.08877081 0.5001138 1.489119 0.742606 0.811685
14600 -5.31185013 11.5252785 0.73916388 1.833762 0.86675 1.168583
14620 -2.61820071 10.56038652 1.02147606 1.613223 -0.502264 1.393123
14640 2.70682425 14.62114773 -1.31980797 0.232091 -3.369546 2.212886
14660 7.973764200000001 21.397856490000002 -5.62575051 -0.564249 0.278675 -0.468975
14680 3.2349259800000003 16.24721409 -2.97266544 0.578142 1.963359 -1.578378
14700 -5.210512830000001 12.93819318 2.17782 0.323676 1.183183 -1.525744
14720 -6.07377321 13.78199052 1.2115840500000001 0.382518 0.517686 -0.32166300000000003
14740 -3.0636826200000002 14.31458523 -1.17161811 1.146435 2.1502790000000003 1.795592
14760 -1.5380510399999998 11.239081559999999 -0.85606965 1.503986 2.015806 2.34626
14780 -0.32572143000000003 9.374259420000001 0.10733121 0.6467109999999999 -0.114337 0.326199
14800 0.283509 7.29448056 -1.3049850600000001 -0.341093 -0.349213 -1.616018
14820 -0.17753157 5.16141378 -0.94513464 0.6096659999999999 0.789377 -0.263808
14840 0.35970327 4.16568897 -0.7478457300000001 1.255344 -0.027391 1.496837
14860 1.4129146799999999 2.29816908 -1.5649991100000002 1.991691 0.81522 3.259194
14880 1.0583028 0.9860031 -1.78398774 1.107866 2.343808 2.980801
14900 0.4801995 -0.12288987000000001 -1.3407621299999999 0.467755 1.785296 1.217684
14920 0.7517402999999999 0.1212516 -1.4154554700000002 0.783876 1.903943 0.311752
14940 1.71947718 2.3137375500000004 -0.6930568800000001 0.86613 2.397116 0.784917
14960 2.0052326700000003 4.48437663 0.5688132300000002 0.954304 1.973459 1.159953
14980 -0.38560167000000006 7.17068817 2.4540009300000003 1.3354549999999998 0.921469 1.236603
15000 -2.87567397 11.698169940000001 7.365279330000001 1.417048 0.515385 0.953546
15020 -15.919844580000001 27.69001992 20.45720502 1.023373 0.7214229999999999 0.918485
15040 -21.403095030000003 26.54295624 11.03355225 0.604141 1.043242 0.988852
15060 -8.362662030000001 9.192234870000002 5.40959697 0.590608 0.842217 1.188773
15080 -1.20424617 3.8470013100000005 1.39689495 0.485734 1.286639 1.229131
15100 2.8243284300000004 5.8278267 0.76850559 0.227955 1.7364849999999998 1.111386
15120 3.6170745300000005 11.48441985 -7.355557620000001 0.146775 2.00925 1.168154
15140 -0.12484206 16.23943476 -16.02866691 0.112674 1.920279 1.0697530000000002
15160 -8.80229718 21.779563590000002 -1.8510489 -0.068788 1.547354 0.714314
15180 -8.36221077 8.80768287 9.57499164 -0.457392 0.959727 0.417523
15200 4.13933931 5.679342540000001 5.06038059 -0.531176 0.988371 0.244987
15220 7.269935940000001 3.8757446100000004 -6.5948313600000015 -0.5844090000000001 0.981228 0.212578
15240 8.92713924 1.5263771400000001 -4.655021580000001 -0.840357 0.026574 -0.05611
15260 5.18341761 7.17772194 -5.104682550000001 -1.108897 -1.023557 -0.945401
15280 -3.7549442700000006 15.53499828 -4.0900931100000015 -1.54136 -0.8679180000000001 -1.662194
15300 -10.70842923 15.838264620000002 0.12379239 -2.4864080000000004 0.16078399999999998 -2.351639
15320 -8.7255045 7.265590110000001 0.7201521000000001 -1.888788 -0.362099 -2.910815
15340 -1.58624757 4.58017128 -2.7255319200000003 -0.95001 -1.843819 -2.945088
15360 1.21546881 4.4400648600000014 -5.12489115 -1.390501 -1.723229 -2.617171
15380 0.19175607 5.5670769 -3.84609879 -1.562729 -2.002193 -3.034623
15400 -0.6692578200000001 8.38466586 -0.64575306 -1.100199 -1.216464 -3.3240230000000004
15420 -0.18082773000000002 13.5266166 1.3066331400000002 -1.063682 -0.015754 -3.12555
15440 -0.4288539600000001 11.872562310000001 2.28544551 -0.858901 -0.585843 -2.729215
15460 -0.48858705 8.529716520000001 0.7634142 -0.547925 -1.353979 -2.1823330000000003
15480 -0.9993250800000001 7.926470190000001 -1.2614286599999998 -0.431583 -1.926844 -1.814386
15500 -1.9333842300000001 10.052493390000002 -1.68489693 -0.32288 -2.427795 -1.5747719999999998
15520 -3.8221525800000005 13.03803936 0.37646856 -0.222241 -2.809466 -1.320411
15540 -5.22818064 12.934602719999999 1.00875249 -0.080113 -2.827571 -0.912402
15560 -7.68277017 11.67422373 -0.48619341000000005 0.083628 -2.56445 -0.521695
15580 -9.830502899999999 10.62280755 -0.6156657900000001 0.361208 -2.154636 -0.150676
15600 -9.73410984 10.91590092 -0.46627911 0.647321 -1.560349 0.167823
15620 -8.46564741 13.19701041 -0.32766381 1.06115 -0.612626 0.434418
15640 -7.3551063600000015 14.879808 -0.65847663 1.6640830000000002 0.484278 0.792942
15660 -5.867194230000001 11.95503498 1.12401018 1.927334 0.5680029999999999 0.938883
15680 -2.4418757700000002 10.32193485 3.38371425 1.520451 -0.277918 1.846182
15700 3.2064867900000005 13.363760790000002 0.1505835 -0.593492 -0.717867 1.013722
15720 7.39956528 20.069965080000003 -5.490735480000001 -0.001536 1.901502 -1.324906
15740 5.6953524600000005 19.24023528 -3.4986776400000004 0.065665 1.507733 -1.478824
15760 -1.3233984300000001 14.168936160000001 0.7505434800000002 -0.059637 -0.140075 -0.8815200000000001
15780 -5.06591343 13.829588640000003 2.4662732400000005 1.191898 1.497017 0.754162
15800 -5.15019114 13.114233630000001 0.8358610499999999 2.2801240000000003 2.045287 2.026904
15820 -3.04646607 10.568322810000002 0.10283823 1.950003 0.367005 1.632575
15840 -1.29914811 8.88612363 -0.13682007 0.000928 -1.196939 -1.172436
15860 -0.6450075000000001 6.39933768 -1.2795379199999999 -0.10079 -1.366344 -0.545883
15880 -0.34323228 4.767434370000001 -1.14481719 0.862192 -0.7087289999999999 0.929874
15900 -0.37347651000000004 4.05971154 -1.8100332900000002 1.271089 2.063017 2.463145
15920 -0.36913068000000004 3.69177768 -2.2119489900000002 0.699066 3.849649 2.3852900000000004
15940 0.40117014 2.8590558300000004 -2.3096958300000003 0.513839 4.025289 1.514238
15960 1.44104976 2.35085859 -1.82710269 1.1116780000000002 2.52256 0.6369199999999999
15980 2.1335180400000002 1.4648586300000002 -1.65016953 1.034607 2.645568 0.5785399999999999
16000 2.92296798 2.3870869200000002 -0.75278016 0.670528 2.017961 1.199575
16020 2.73017205 3.94159914 0.7580285100000002 0.525291 1.614316 1.301627
16040 0.20432268 6.25698477 2.6551746 0.551507 1.768506 1.081558
16060 -2.3640334200000006 11.20899429 7.58802519 0.900698 1.411298 1.130389
16080 -15.81955695 25.13602566 17.30416311 0.925582 0.651216 1.2437
16100 -21.770724780000005 24.95939661 10.74435345 0.727826 0.277138 1.1904549999999998
16120 -11.106303210000002 10.05369021 5.23102554 0.8481780000000001 0.13447 1.332484
16140 -2.55593664 3.3374601000000004 1.71618102 0.887141 0.642833 1.242374
16160 0.10028763 3.3795253800000005 -2.1794680800000004 0.55905 1.485367 1.018949
16180 2.0291788800000004 8.23093335 -12.446172630000001 -0.038974 2.220717 0.927303
16200 0.13441662000000001 16.35364278 -13.08444066 -0.495893 2.137164 0.906059
16220 -11.514654270000001 26.25390459 -0.16854561000000004 -0.718395 1.803195 0.700902
16240 -2.3724209700000003 10.90647351 10.86874425 -0.718191 1.2878379999999998 0.375757
16260 9.43248177 5.461393770000001 1.2835796400000001 -0.656042 0.8338620000000001 0.097967
16280 11.1577959 3.6271101600000004 -4.751120340000001 -0.8948229999999999 0.477314 -0.307032
16300 8.638381890000002 4.29082533 -4.32794637 -1.427712 -0.378474 -0.817063
16320 3.8100274200000004 9.936333180000002 -4.16449215 -2.131585 -0.439554 -1.181893
16340 -3.1807355400000006 14.443164900000001 -5.376066389999999 -2.808006 0.996387 -1.647793
16360 -10.426264200000002 13.29655248 -0.03907323000000001 -1.867876 1.245385 -2.392505
16380 -11.303444970000003 7.03417221 -1.29675447 -0.862132 -1.58818 -3.014236
16400 -2.4161245200000003 5.8505859000000004 -6.02123085 -1.223209 -3.004192 -2.902781
16420 -0.31598991000000004 5.65359129 -4.3423180200000004 -1.210335 -3.096698 -3.4890260000000004
16440 -0.87388461 5.44716927 -1.6507679400000002 -0.94475 -2.2058150000000003 -3.5310410000000005
16460 -0.34174116 7.86838518 -1.18538154 -0.92174 -1.285573 -2.979789
16480 -1.3720462199999999 10.42192818 0.06196977000000001 -1.011021 -0.915733 -2.683921
16500 -3.28641867 10.88416557 0.35161983 -0.721655 -1.613168 -2.482317
16520 -2.8446841800000002 9.549691650000002 0.32602554 -0.508342 -2.0582 -2.198246
16540 -1.46530008 9.529188750000001 0.7964935200000001 -0.329118 -2.312196 -1.972342
16560 -1.7378905500000001 11.945009160000001 1.8212657400000003 -0.161215 -2.784241 -1.819945
16580 -1.82246256 12.81380238 1.6976205000000002 -0.0892 -2.941777 -1.381269
16600 -4.43153016 12.684025890000001 0.36403929000000007 -0.02285 -2.683894 -0.92821
16620 -6.64483293 11.798016120000002 -1.1859799500000001 0.223957 -2.37239 -0.4547310000000001
16640 -9.08939664 10.871147700000002 -1.35827298 0.515649 -1.660133 -0.072251
16660 -10.04591088 10.870098030000001 0.46927115999999996 0.849029 -0.6235 0.141325
16680 -7.9327584 12.871887390000001 0.86819481 1.3844610000000002 0.440492 0.5303979999999999
16700 -7.62679431 14.08750335 1.7166322800000002 2.029958 1.1214540000000002 0.973074
16720 -4.11120423 10.739271870000001 1.5938895600000003 2.26675 0.498207 1.315221
16740 -1.2638223 10.894642650000002 1.15409745 0.971471 -1.6463830000000002 2.749953
16760 3.0972132 16.88174451 -3.95148762 -0.736877 -0.153837 0.481091
16780 7.1263764 20.925730620000003 -5.947734330000001 0.394815 1.6059709999999998 -1.023725
16800 1.28283408 15.3483336 -2.5694057700000004 0.094176 1.276181 -1.406758
16820 -5.91585183 12.885807780000002 1.5916430700000002 0.34074 0.481497 -0.559053
16840 -5.363342820000001 13.49907993 0.7632670500000001 1.129253 1.728911 1.158284
16860 -2.2499725500000007 13.880639880000002 -0.65084445 1.269275 2.18595 1.5603280000000002
16880 -1.0180327500000002 10.780277670000002 -0.29818476 0.8894110000000001 0.496201 0.348476
16900 -0.6912616500000001 8.43585444 -0.06496182 -0.140755 -0.06990700000000001 -1.04241
16920 -0.70608456 6.352789230000001 -0.61776513 0.14973699999999998 -0.395833 -0.242001
16940 -0.14070483 5.17773762 -1.25169714 1.066238 0.449092 1.318649
16960 0.21255327 4.527040320000001 -2.29323465 1.984355 2.068598 2.580284
16980 -0.12948219000000002 4.35324636 -2.2658353200000003 1.269309 3.333985 2.707195
17000 0.44697303 3.2897050200000004 -1.87575048 0.696646 2.29631 1.364975
17020 1.55735712 2.51642196 -1.46665386 0.904578 1.949384 0.564637
17040 2.88225648 1.53955197 -1.3189054500000001 0.802945 2.361049 0.801613
17060 3.3608079 1.89101484 -0.5375291400000001 0.6339640000000001 2.531028 1.064066
17080 2.4917203800000003 3.37309002 1.0300107600000001 0.648804 1.12264 1.340507
17100 0.06660990000000001 5.12953128 2.75652171 0.765545 0.921155 1.276419
17120 -2.5569863100000005 8.845559280000002 6.41850642 0.7400180000000001 1.308253 0.931777
17140 -9.21768201 20.736525150000002 17.426611530000002 0.434752 1.348449 1.001165
17160 -24.880514400000003 29.172389400000004 12.760367310000001 0.548734 0.937507 1.105037
17180 -13.392504090000001 15.112726830000001 5.16216915 1.0785 0.378432 1.12975
17200 -3.9926503800000006 6.218971020000001 2.02888458 0.8724799999999999 0.742755 1.042386
17220 1.04886558 7.20811332 0.9662359500000001 0.438448 1.781659 1.087161
17240 3.20692824 10.56652758 -2.9412342 0.044352 1.937455 1.095959
17260 -0.01826622 13.523183099999999 -13.61044305 -0.338081 1.840627 0.866949
17280 -4.89153087 15.808177350000001 -6.03529839 -0.630953 1.376439 0.520462
17300 -7.97736447 11.2070421 5.95536651 -0.5475979999999999 0.658191 0.245296
17320 3.47023845 8.41355631 8.14217247 -0.359262 0.368495 0.067521
17340 5.954463990000001 6.756196050000001 -8.13453048 -0.586432 0.254765 -0.06531100000000001
17360 7.5857787000000005 2.38438917 -5.88426363 -1.258392 -0.375099 -0.742178
17380 6.53795298 4.6568168100000005 -3.81945483 -1.6896970000000002 -0.9521 -1.26147
17400 -0.9286734600000001 12.63402432 -4.22780589 -2.390042 0.079388 -1.794318
17420 -8.72356212 16.68969414 0.6637151700000001 -2.434013 0.902974 -2.586164
17440 -10.572217380000001 10.229426550000001 1.57816413 -1.426071 -1.46487 -2.992696
17460 -3.1350798000000006 6.12301941 -1.49478894 -1.212313 -2.224298 -2.408049
17480 0.35745678 5.819144850000001 -4.837487580000001 -1.490244 -2.344987 -2.887331
17500 -0.25776756 5.93246016 -3.6422273700000005 -1.154989 -2.052356 -3.363927
17520 -0.7580285100000002 6.58226475 -2.11046454 -1.0341280000000002 -0.874166 -3.201155
17540 -0.65878074 9.06140871 -0.11376657 -1.229208 -0.174253 -2.772921
17560 -1.3789328400000003 11.022182460000002 0.53020107 -0.831693 -1.277751 -2.3510560000000003
17580 -2.8918408500000004 9.39131901 -0.9593591400000001 -0.527159 -2.0046310000000003 -1.992279
17600 -3.84805098 8.505907650000001 -0.6334807499999999 -0.4033 -2.484217 -1.78036
17620 -3.2254887599999997 9.378301140000001 0.88061427 -0.375925 -2.871686 -1.610893
17640 -2.1475855800000003 11.267667900000001 1.3591755 -0.27889 -2.7541900000000004 -1.241829
17660 -2.1772215900000003 13.93077879 0.88481295 -0.057858000000000014 -2.345244 -0.8712040000000001
17680 -4.766384700000001 12.494065050000001 -1.052613 0.33799999999999997 -1.9900830000000005 -0.521722
17700 -8.29709199 11.17037232 -1.43536977 0.72488 -1.494282 -0.170347
17720 -11.66119605 10.631342250000001 -0.33679692000000006 1.069812 -0.637055 0.14288499999999998
17740 -9.67468086 12.072097710000001 -0.14789556 1.565711 0.274347 0.630154
17760 -6.36506154 14.9350383 -0.03712104000000001 2.148479 0.6068680000000001 1.150818
17780 -6.00910569 14.56456365 1.0756665 2.17218 -0.256965 1.901982
17800 -3.59102898 11.036554109999999 2.60788059 -0.485247 -1.996069 2.483853
17820 -0.5290042500000001 11.388615390000002 2.4480070200000004 -0.5895739999999999 1.138942 -0.8601549999999999
17840 4.840185330000001 17.223632820000002 -2.94482466 0.25098000000000004 1.76876 -1.381724
17860 7.31633724 20.86181847 -4.57672797 0.057664 0.483962 -1.195558
17880 1.2463114499999999 14.137799220000002 -1.6110963 0.724267 0.619833 -0.055556
17900 -6.3083303100000006 12.581786070000001 2.2189827600000003 1.781045 2.650605 1.866682
17920 -6.69752244 12.968133299999998 0.68348232 1.773402 1.437341 2.118147
17940 -3.16935594 12.26159748 -1.06608213 0.324089 0.027412 0.32269499999999995
17960 -0.41628735 9.62737704 -0.23156505000000002 -0.27228600000000003 0.022368 -1.359641
17980 0.0953532 7.540417260000001 -1.2344805900000002 0.413901 0.426835 -0.273257
18000 -0.48005235 5.51962593 -1.38955707 1.040343 0.217734 1.389267
18020 -0.49471830000000006 4.33812915 -1.85898519 1.908692 2.370371 3.102797
18040 -0.4767561900000001 4.26209184 -1.92365271 0.733059 3.085912 2.605491
18060 -0.11316816 3.64672035 -1.8974502000000002 0.474606 2.245931 1.102842
18080 0.9804604500000001 2.32780509 -1.8601820100000002 0.7264609999999999 2.274391 0.162393
18100 2.4159773700000002 1.53655011 -1.8040491900000002 0.52318 2.748745 0.527834
18120 3.6039095100000003 1.67831442 -1.3665035700000001 0.510987 2.383721 0.979006
18140 2.9446775100000004 3.1572307800000003 -0.09071307 0.631161 1.124203 1.231423
18160 1.20334365 4.47868683 1.81138707 0.789425 1.100638 1.1268049999999998
18180 -1.9404180000000002 8.07795621 5.77244925 0.885258 1.161567 0.991732
18200 -5.57485623 18.032555610000003 15.172146 0.671955 1.038346 1.088677
18220 -25.89225894 29.871430380000003 16.52459184 0.554949 0.604382 1.289241
18240 -14.49286236 16.3838772 6.71443488 0.737927 0.110128 1.388361
18260 -4.575531150000001 6.29171217 2.0446002 0.672812 0.208887 1.2563879999999998
18280 1.3368675600000002 4.76174457 0.8346642300000001 0.524664 0.8436879999999999 1.144513
18300 3.0573944100000006 6.74138295 -2.2501197 0.178789 1.60395 0.997981
18320 2.4493608000000004 11.03251239 -11.912979510000001 -0.175566 1.624038 0.810678
18340 -1.31725737 17.81969823 -9.187447590000001 -0.50239 1.268358 0.5311130000000001
18360 -12.816196020000001 22.137020370000002 1.5387966000000002 -0.567087 0.8573639999999999 0.270541
18380 -2.5077303000000004 8.57985543 9.43847568 -0.6470060000000001 0.779215 0.16967100000000002
18400 6.975194490000001 5.20257654 -2.24308593 -0.956856 0.524185 0.012941
18420 9.23863617 1.7169265800000002 -6.1152302700000005 -1.340034 -0.32863000000000003 -0.570824
18440 8.521181819999999 1.9815807600000002 -3.8052401400000004 -1.625002 -0.902801 -1.125418
18460 1.68923295 10.212965370000001 -5.19659244 -2.184404 -0.310847 -1.886385
18480 -5.92138467 17.12079459 -1.8874243800000001 -2.092995 0.141984 -2.785769
18500 -11.13040638 15.056741160000001 0.94348656 -1.343459 -1.730949 -3.124238
18520 -5.75882316 5.931714600000001 0.65204127 -0.899775 -2.321989 -2.491198
18540 -0.060920100000000005 5.12399844 -4.16583612 -1.231414 -2.355813 -2.802188
18560 -0.025898400000000002 4.82476401 -4.536320580000002 -1.308929 -1.944934 -3.187816
18580 -1.6733701800000003 5.65882983 -3.08313585 -1.1270790000000002 -0.827277 -3.124952
18600 -1.8974502000000002 8.17494768 -1.09781748 -1.123809 -0.350945 -2.900145
18620 -1.98906579 11.303444970000003 0.8994789 -0.825067 -1.317891 -2.441757
18640 -2.77508223 10.09979721 0.6236020800000001 -0.571028 -1.799926 -1.997121
18660 -2.93105142 8.08723647 -0.5557953599999998 -0.419226 -2.400274 -1.713281
18680 -2.89588257 8.818915319999999 -0.79110783 -0.368886 -2.575122 -1.455263
18700 -2.48557932 11.30164974 0.24878160000000002 -0.292252 -2.455547 -1.055366
18720 -1.44104976 11.2127319 1.6986701700000002 -0.122105 -2.259287 -0.7328939999999999
18740 -2.3852916900000003 12.844193760000001 1.3814736300000001 0.223074 -2.067823 -0.428422
18760 -5.56947054 13.175006580000002 0.0056898 0.5192899999999999 -1.620495 -0.131029
18780 -8.443496430000001 11.920013280000001 -0.6409657799999999 0.80465 -0.784125 0.121993
18800 -10.504253700000001 12.016857600000002 0.23172201 1.190679 0.229422 0.468427
18820 -9.139692510000001 14.10381738 -0.08741691000000001 1.792918 1.060569 0.953336
18840 -8.427771 14.63686335 -0.6253973100000001 1.946572 0.378265 1.218066
18860 -6.67551861 11.887532370000002 0.83496834 1.125443 -1.469644 2.374788
18880 -3.49014294 10.951825140000002 1.39031244 -0.562569 -0.23779 0.545441
18900 1.63055934 13.787974620000002 0.38948643000000005 0.49826 1.416824 -0.965076
18920 6.285728070000001 19.58991273 -3.3296807700000004 0.34667 1.141407 -1.222155
18940 6.07841334 17.605339920000002 -3.05454951 0.453806 0.219124 -0.578224
18960 -0.6405145200000001 11.881391310000001 -1.3723503300000002 1.183743 0.928062 1.0518
18980 -5.7293343000000005 12.38928444 1.65675204 1.43076 2.308808 1.598686
19000 -5.895643230000001 13.412261430000003 0.29742939 0.96698 0.739682 0.6638310000000001
19020 -3.52262385 11.66778837 -1.16906751 -0.142284 -0.5709989999999999 -1.204148
19040 -0.86953878 9.385334910000001 -0.65323809 -0.081523 -0.443826 -0.825736
19060 -0.25162650000000003 7.03895949 -1.0041123600000001 0.939208 0.521183 0.451341
19080 -0.4716648 4.637510730000001 -1.0517104800000001 1.7304509999999995 1.7872669999999995 2.292587
19100 -0.44128323 3.8640609000000006 -1.2805875900000003 1.6666869999999998 3.86344 2.891959
19120 -0.20986533 3.682193310000001 -1.2695121 0.802171 3.089379 1.945808
19140 0.57375747 2.6165624400000005 -1.36695483 0.7781779999999999 1.406464 0.8475290000000001
19160 1.3727917800000002 1.87634889 -1.3668076800000002 0.935378 1.655473 0.777805
19180 2.35580283 1.6528672800000002 -1.24466337 0.735858 2.417846 1.307409
19200 2.85052113 2.2478732100000003 -0.87089256 0.679179 1.177094 1.282966
19220 2.42645445 3.7815882300000006 0.22318731000000003 0.8431860000000001 0.672395 1.080728
19240 0.82253907 5.1263920800000005 2.02049703 0.995603 1.103344 1.070558
19260 -2.55682935 8.35622667 5.29688988 0.6907949999999999 1.2268139999999998 1.359895
19280 -6.864272820000001 16.54763553 13.317957900000001 0.406022 0.972287 1.321912
19300 -23.05685502 27.92577384 15.061381290000002 0.7109770000000001 0.396226 1.260687
19320 -15.84634806 17.5751055 7.4582388900000005 0.856096 0.893026 1.039943
19340 -6.356379690000001 7.156767780000001 3.2099202900000003 0.537196 2.057598 0.993494
19360 -0.7643069100000002 5.63098905 1.00157157 -0.118095 2.174156 0.918265
19380 2.5113305699999997 9.25331193 0.77089923 -0.479991 1.996967 0.7877770000000001
19400 0.29383893 12.775631670000001 -10.453516380000002 -0.625837 1.561793 0.5170560000000001
19420 -2.98943073 17.84005398 -11.81343744 -0.5443020000000001 0.730413 0.296501
19440 -9.020088990000001 13.902643710000001 1.15649109 -0.495616 0.273772 0.163898
19460 -0.12439080000000001 6.4725399 9.488771550000001 -0.7687689999999999 -0.275857 -0.144953
19480 5.9999725800000006 5.35226733 0.11106882000000001 -1.19314 -1.103864 -1.035617
19500 8.5145895 3.4729263900000005 -6.5569647600000005 -1.630389 -1.019758 -1.708554
19520 8.66023857 2.8978249500000004 -5.51168964 -2.246309 0.073101 -2.21098
19540 2.5450083 10.0673163 -7.078327020000001 -1.813795 -0.7236670000000001 -2.866031
19560 -5.52561003 18.3501936 -3.3648496199999998 -1.137644 -2.756023 -2.700607
19580 -13.19266458 15.43904667 3.18731805 -1.570525 -2.285419 -2.530114
19600 -7.31813247 6.143826420000001 1.3328258400000002 -1.6930009999999998 -2.494988 -3.028492
19620 -0.12573477 5.732630459999999 -5.19584688 -1.325935 -1.261858 -3.231539
19640 1.0240168500000002 5.2055784 -4.74468498 -1.440114 0.312393 -3.076257
19660 0.0691605 5.1421077 -2.4288480900000002 -1.230565 -0.060028 -2.831829
19680 -0.19250163000000003 7.188503130000001 -0.51193485 -0.92867 -1.0047469999999998 -2.340332
19700 -0.7756865100000001 11.07023184 1.7122864500000001 -0.718627 -1.562186 -1.915135
19720 -2.5394656500000004 11.27485863 0.24009975 -0.5836640000000001 -2.164392 -1.684821
19740 -3.5772655500000003 9.17412561 -0.6635680199999999 -0.462952 -2.567529 -1.40786
19760 -3.1512466800000003 9.294023430000001 0.09580446000000001 -0.269891 -2.435505 -1.025326
19780 -2.6298844200000007 11.155098150000002 1.2805875900000003 0.048794 -2.13769 -0.653876
19800 -3.5956691100000002 13.38157575 1.4754828599999998 0.4431310000000001 -1.810516 -0.230662
19820 -5.7902544 12.67699212 0.13202298 0.7909970000000001 -1.141225 0.19179
19840 -7.95849984 11.51166222 -1.5170968800000002 1.189224 -0.06778200000000001 0.733716
19860 -10.922640390000002 10.61996265 -0.73302282 1.798889 0.959586 1.425662
19880 -10.80887382 12.75243102 -0.79589511 1.910867 0.453494 1.882155
19900 -8.06777343 15.51988107 -1.42428447 0.981556 -1.270609 2.542307
19920 -6.094727370000001 13.68993348 -0.26884305000000003 -0.290637 -1.4350040000000002 0.8031119999999999
19940 -4.30400016 10.82339262 2.2299111000000003 0.082348 0.636681 -1.313085
19960 0.54037404 12.87487944 1.30483791 0.504249 1.044865 -1.724063
19980 6.173609580000001 19.298467440000003 -3.90942234 0.693332 0.271718 -0.884266
20000 7.38548793 19.579131540000002 -2.48632488 0.6469159999999999 1.028329 0.951782
20020 1.08239616 13.129350840000003 -0.38723994000000006 0.729234 3.487053 2.193685
20040 -3.43999422 12.90885147 2.3472681300000002 1.203202 1.297342 1.127307
20060 -4.14248832 13.575568500000001 0.33919056000000003 0.6948529999999999 -0.246387 -0.790656
20080 -2.41927353 11.561958090000001 -0.8060778900000001 -0.291156 0.7655430000000001 -0.448463
20100 -0.6436635300000001 9.21064824 -0.66401928 0.538061 2.737082 0.767234
20120 -0.95067729 7.30435923 -1.23747264 1.221023 2.152167 2.057825
20140 -1.17655254 5.2693433999999995 -1.1906200800000002 1.638143 1.6325120000000002 2.976871
20160 -0.9090632700000001 4.29247341 -1.53190998 1.049651 1.531587 1.821347
20180 -0.7367702399999999 3.9760322400000003 -1.21292802 0.95122 1.768692 0.6891079999999999
20200 0.0811287 2.8797156900000003 -1.3066331400000002 0.843824 2.289169 0.89279
20220 1.4921010000000001 1.5829612199999998 -1.45393029 0.638809 2.482829 1.12505
20240 2.8945287900000003 0.7068301200000001 -1.48236948 0.665317 1.556879 1.424456
20260 2.90396601 1.11338595 -1.06354134 0.783538 1.051467 1.439816
20280 1.0837499400000001 3.14974575 -0.08007903000000001 0.720022 1.327884 1.367447
20300 -0.9636951600000001 5.17728636 2.58303186 0.436565 1.442585 1.167699
20320 -4.490066430000001 9.84412899 6.79706451 0.355918 0.926873 1.267141
20340 -13.36854807 19.37061999 12.745397250000002 0.785204 0.350891 1.078598
20360 -24.26139549 29.28599901 11.84142537 0.858717 0.623004 0.898233
20380 -8.211176009999999 14.958248759999998 8.79450804 0.477225 1.669387 0.892091
20400 -0.64995174 6.93941742 3.67201053 0.015489 1.739097 0.909073
20420 3.56050026 8.02302021 2.60862615 -0.297183 1.649932 0.834364
20440 6.10400763 11.540248560000002 0.47555937000000004 -0.5741189999999999 1.294911 0.612831
20460 3.34300275 12.63612366 -14.180757210000001 -0.599426 0.630234 0.354996
20480 -0.47586348000000006 13.780048140000002 -9.58367349 -0.535644 0.40169 0.177341
20500 -8.608893029999999 10.16955612 4.49695305 -0.800284 0.019542 -0.196827
20520 -3.4636461300000003 6.95139543 5.00214843 -1.428586 -0.923437 -0.930671
20540 1.9895170500000001 7.85116863 -4.01989275 -1.957482 -0.717855 -1.266846
20560 4.84093089 4.601429550000001 -7.2235248300000015 -2.773356 0.78463 -1.735942
20580 5.21395614 4.80171051 -5.030587620000001 -2.124131 0.445364 -2.437067
20600 -1.70704791 13.551916590000001 -3.4437416400000003 -0.917169 -2.53771 -2.874535
20620 -8.736727140000001 15.66252828 0.65459187 -1.246075 -3.064893 -2.6219200000000003
20640 -7.81000587 8.81052777 0.7575772500000001 -1.460434 -3.328479 -3.384722
20660 -1.8952135200000002 5.767652160000001 -1.2614286599999998 -0.924266 -2.353066 -3.487981
20680 1.0901853000000001 5.8106199599999995 -3.1690616400000002 -0.91695 -1.149315 -2.959634
20700 0.6509916 6.26312583 -2.56057677 -0.988386 -0.821177 -2.640087
20720 -0.40117014 6.8331358799999995 -1.00516203 -0.720169 -1.621178 -2.345564
20740 -1.33941816 8.445890069999999 -0.18561501000000002 -0.470378 -2.274003 -2.076995
20760 -2.81564658 10.30007817 -0.6360313500000001 -0.279659 -2.669367 -1.939492
20780 -4.39995177 10.25472654 -1.3385156400000002 -0.146549 -2.893708 -1.630627
20800 -4.7322557100000004 9.589961700000002 -0.37706697 -0.011396 -2.738405 -1.158796
20820 -3.2159142000000003 9.92810259 1.19706525 0.15246500000000002 -2.388175 -0.7073109999999999
20840 -2.04070563 11.37559752 2.11644864 0.455396 -1.930931 -0.23149
20860 -3.15438588 13.19969835 0.9725241600000001 0.673733 -1.186357 0.124799
20880 -5.98530663 12.59974818 -0.7562234700000001 0.8740459999999999 -0.367458 0.291791
20900 -8.81561916 11.82540564 -0.8039785500000001 1.272235 0.579692 0.715307
20920 -10.3795686 11.17979973 0.5926221000000002 1.738075 0.85677 1.083537
20940 -8.65978731 12.91618935 0.33514884 1.357624 -0.184682 1.84813
20960 -7.52096403 14.757212430000003 0.8119148400000001 -2.033131 -2.358926 1.5954270000000002
20980 -5.588776620000001 11.255994000000001 1.93442409 0.232705 1.4752379999999998 -0.691405
21000 -2.5246525500000003 9.05421798 2.18216583 0.8579049999999999 2.021173 -1.09473
21020 1.0671318 12.795840270000001 -1.9109291400000001 0.379474 1.1580290000000002 -1.145035
21040 6.08889042 22.174739820000003 -6.53929695 0.840591 0.682167 0.238938
21060 4.12841097 18.84565746 -3.56693562 1.562747 2.401553 2.0000720000000003
21080 -5.34059343 13.51793475 0.99138879 1.467359 0.788255 1.668188
21100 -6.53436252 13.415106330000002 1.29495924 0.136016 -0.367442 -1.2013969999999998
21120 -2.51851149 14.579533710000002 -1.4882064300000002 -0.478341 -0.7501909999999999 -1.388932
21140 -0.08471916 11.9354346 -1.12640382 1.001107 -1.6765419999999998 0.14694200000000002
21160 0.25267617 9.20436003 -0.52615935 1.868475 0.948322 2.315991
21180 -0.5872266 6.7011129 -0.93555027 1.768904 3.184405 3.449018
21200 -0.40176855 4.52523528 -1.18717677 0.654187 3.33347 2.836427
21220 0.058977720000000004 3.7441630800000003 -1.88308836 0.943002 2.30481 1.1573129999999998
21240 0.03592422 3.3528814200000006 -1.8821858400000002 1.089667 2.00734 0.030676
21260 0.5524992000000001 2.57105385 -2.0092743900000003 0.795081 2.76804 1.060615
21280 1.7444730600000002 2.15985789 -2.0395088100000005 0.928218 1.7727 1.304238
21300 3.80957616 2.12348241 -2.32691238 0.9486 0.592486 1.524878
21320 4.61235789 3.29464926 -1.42039971 0.953526 0.898516 1.44654
21340 4.18140459 4.28393871 0.6134291099999999 1.0626639999999998 1.306578 1.070766
21360 1.4160538800000002 6.21462519 2.9222224200000007 0.997967 1.125822 1.041703
21380 -2.80052937 10.274787990000002 10.207422720000002 0.908704 0.552773 1.101635
21400 -16.38222912 27.10727649 23.654558700000003 0.997992 0.358114 1.218944
21420 -23.159536290000002 24.769445580000003 9.36661743 0.442923 0.885716 1.09475
21440 -10.943594550000002 9.727674480000001 2.00568393 -0.081049 1.862998 0.910376
21460 -3.34987956 4.04369181 1.4319264600000001 -0.525756 2.4532380000000003 0.7441439999999999
21480 1.1306025000000002 4.591256580000001 1.7492603400000002 -0.627767 1.796354 0.468672
21500 2.22182766 9.746235 -4.85440983 -0.697087 1.280021 0.181498
21520 -1.79596575 17.057029590000003 -15.45746004 -0.6286609999999999 0.8386440000000001 -0.055672
21540 -10.65334608 28.148068440000003 -6.740480430000001 -0.775676 -0.033423 -0.02674
21560 -7.04046042 10.715463000000002 10.903030200000002 -1.222351 -0.420947 -0.497244
21580 9.93469491 3.47996016 4.614153120000001 -2.046648 -0.214444 -1.339685
21600 13.25119104 1.16172963 -6.367455179999999 -2.531204 0.494216 -1.78088
21620 10.2990285 -0.7807779 -5.407801740000001 -1.395396 0.285006 -2.128396
21640 4.810843620000002 5.91284997 -5.612281380000001 -0.747949 -1.428342 -2.858751
21660 -3.2028865200000003 17.524809630000004 -6.05057256 -1.117144 -3.046605 -3.044059
21680 -12.455452890000002 23.11463592 0.22393287 -0.788003 -3.644394 -3.286685
21700 -12.228969420000002 6.1073037900000005 2.77163892 -0.8246469999999999 -2.884292 -3.394737
21720 -2.58707358 4.48363107 -1.1334474 -0.947409 -1.828666 -3.273034
21740 0.46149183000000005 4.46506074 -3.7564353900000005 -1.058442 -0.5936680000000001 -2.730598
21760 -0.57375747 4.99376088 -3.52441908 -0.69006 -1.437627 -2.452411
21780 -1.6001679600000003 7.07892543 -2.76160329 -0.4114600000000001 -1.243243 -2.287276
21800 -1.67606793 9.873313740000002 -1.5314685300000002 -0.323856 -1.965549 -2.084913
21820 -2.4831856800000005 13.57915896 1.3482471600000001 -0.18266 -2.525486 -1.774493
21840 -2.68242678 10.00190322 2.5761452400000002 -0.069268 -2.7332400000000003 -1.334395
21860 -2.55773187 8.004449880000001 2.03232789 0.049404 -2.582551 -0.760124
21880 -2.37974904 9.04464342 0.46522944000000005 0.273395 -2.331812 -0.255748
21900 -1.72426446 12.516068880000002 0.23800041000000002 0.614769 -1.782473 0.066399
21920 -2.60443728 14.67128664 -0.22378572 0.924753 -0.834707 0.4123850000000001
21940 -6.8057463600000005 12.19050441 0.5171733900000002 1.327187 0.379672 0.8708389999999999
21960 -10.529553690000002 10.812317129999998 0.10717425000000001 1.685598 0.508983 1.2556
21980 -11.86357635 10.888060140000002 -0.3555144 1.370156 -0.7204470000000001 2.086049
22000 -9.24522849 12.346777710000001 -0.27707364 -0.394776 -0.6929569999999999 0.739476
22020 -7.544311830000001 12.67773768 1.8636253200000001 0.08997000000000001 2.03465 -1.135362
22040 -5.385797909999999 11.55253068 2.9809058400000006 0.391059 1.117426 -1.390594
22060 0.33739533 11.85579702 -1.01877831 0.07208300000000001 -0.228047 -0.8409629999999999
22080 2.9313555300000003 14.00726736 -5.145403860000001 1.063111 1.866641 0.340456
22100 5.17308768 18.937420200000002 -3.294198 2.386735 3.4374 2.25126
22120 1.11787893 17.52106221 -0.83241774 1.7086880000000002 1.360875 2.913619
22140 -4.95514872 15.618373470000002 0.9143018100000001 -0.405358 -3.127627 -1.25078
22160 -6.3999459 14.50139706 0.63962181 -0.190029 0.912985 -1.44246
22180 -1.8666173700000002 14.41173366 -1.5045204600000002 0.527559 0.722967 -0.101927
22200 1.46739942 11.72751165 -1.08344583 1.6492380000000002 1.546476 1.840471
22220 1.28537487 8.59602231 1.10095668 1.44284 3.823126 3.044271
22240 -0.07334936999999998 6.77940651 -0.5680676700000001 0.371042 2.571217 2.162446
22260 -0.4076055 5.011281540000001 -1.4200956 0.682161 1.656135 1.0975700000000002
22280 -0.02829204 4.483179810000001 -1.8256017600000003 1.274521 3.22879 0.24191
22300 0.22917141000000002 2.8111536 -1.84027752 0.523942 3.011709 1.099001
22320 0.61866765 1.20634551 -1.95883137 0.641709 1.387188 1.522785
22340 1.87500492 0.22393287 -1.90299285 1.026341 1.083116 1.572863
22360 3.12774192 0.44712018000000003 -1.7639361 1.187837 1.286294 0.97339
22380 3.3184483200000003 2.8539644400000004 -0.6468027300000001 1.067075 1.439317 1.172108
22400 2.30820471 4.67568144 1.8377269200000002 0.744636 1.172959 1.194766
22420 -1.4329663200000002 8.35742349 5.9878474200000005 0.6823100000000001 0.912941 1.271576
22440 -7.82377911 17.8472349 12.771589950000001 0.4792770000000001 1.426555 1.143449
22460 -22.938301170000003 29.363242950000004 17.07065568 0.132385 2.389408 0.950717
22480 -13.93886223 15.273189 7.068605310000001 -0.229547 2.532501 0.911686
22500 -4.906648080000001 6.06313917 3.63324141 -0.567884 2.17823 0.822182
22520 -0.5837832900000002 1.6325017199999998 2.1838041 -0.6596890000000001 1.6502310000000002 0.541275
22540 0.70009065 1.6211319300000002 -7.8579081 -0.462172 0.59324 0.163722
22560 4.69259388 10.37072979 -13.69187586 -0.403056 0.221122 -0.069328
22580 2.70113445 25.53061329 -7.34252994 -0.968342 -0.417505 -0.512566
22600 -14.92411977 30.312566460000003 5.75178939 -1.571303 -1.176193 -1.001847
22620 -2.2372489800000004 5.992634700000001 3.12774192 -2.240949 -0.510854 -1.37164
22640 10.05204213 2.38738122 -4.02527844 -2.665133 1.067741 -2.032514
22660 13.37902515 0.15178032 -3.93052365 -1.53199 -0.69905 -2.87264
22680 9.253753380000001 1.6408892700000002 -5.5598861699999995 -1.01927 -3.246445 -2.704493
22700 -0.49966254000000004 10.843454070000002 -6.08784075 -1.567865 -3.952311 -3.130436
22720 -10.125989910000001 18.433568790000002 -0.22483539 -1.45029 -3.371532 -3.5491019999999995
22740 -15.4118043 16.544045070000003 2.20895694 -1.128924 -1.993681 -3.407618
22760 -5.71885722 4.66280091 -2.80950552 -1.576874 0.051903 -2.8173
22780 1.7598943800000002 3.8305303200000003 -6.305191110000001 -1.294058 -1.035873 -2.497737
22800 1.6732230300000004 4.530925080000001 -4.85530254 -0.917358 -1.627646 -2.155721
22820 0.01122264 5.7314336400000006 -1.9387699200000001 -0.625304 -1.7667259999999998 -1.994338
22840 -0.33514884 8.53539651 -0.5074418700000001 -0.440861 -2.101479 -1.823841
22860 -0.8414037000000001 11.45253735 0.76102056 -0.334888 -2.4545220000000003 -1.540638
22880 -2.1692853 12.206965590000001 1.0876347 -0.112856 -2.47831 -1.1128360000000002
22900 -3.5278623900000006 10.926378 0.92372922 0.231772 -2.309617 -0.707925
22920 -3.7562882400000004 11.377088640000002 0.32302368 0.604213 -1.769713 -0.184724
22940 -4.02962427 10.90467828 0.6542877600000001 0.857193 -0.85611 0.229275
22960 -6.71069727 11.55507147 1.2969016199999999 1.154315 -0.002673 0.732321
22980 -8.566984710000002 11.80445148 -0.62510301 1.58625 0.317173 1.090646
23000 -10.21954788 11.27829213 -1.7414810100000002 1.507894 -0.558822 1.508896
23020 -11.33413065 11.15734464 0.34368354000000007 0.089164 -2.339001 2.762837
23040 -9.462726 14.06759886 1.7169265800000002 -0.223042 1.156777 0.221286
23060 -7.41303441 13.523183099999999 1.31756148 1.153035 2.209603 -1.053385
23080 -4.29412149 10.244092499999999 0.54756477 0.936434 0.982129 -1.328927
23100 -2.1860505900000002 10.91439999 1.42712937 0.620841 0.3763260000000001 -0.076262
23120 1.21472325 17.87552694 -2.98973484 0.830778 1.698454 1.307926
23140 6.372997830000001 22.211713709999998 -5.706732060000001 1.064719 0.6063470000000001 0.623024
23160 1.6407421200000003 15.453859770000001 -2.68781247 1.133763 -0.348224 -0.745799
23180 -6.0990633899999995 13.542037920000002 1.79536734 -0.193007 0.185999 -0.791003
23200 -4.64050278 14.521301550000002 -0.058977720000000004 0.492145 -0.07017999999999999 0.340017
23220 -0.12349809 14.90181183 -1.48117266 1.474896 1.456613 2.086127
23240 1.38716343 10.533448260000002 0.08906499000000001 1.730777 2.912002 2.873329
23260 -0.03742515 7.78919886 -0.30985866000000006 1.0260200000000002 3.901997 2.33089
23280 -1.54493766 4.918626090000001 -0.45071064 1.04343 2.41153 0.7562260000000001
23300 -0.71042058 3.8615201100000003 -1.6070545800000002 0.972668 1.717787 0.613479
23320 -0.057633750000000004 3.3353607600000004 -2.12872095 0.766309 1.828665 1.301967
23340 0.09879651 2.8936360800000003 -1.9127243700000003 0.870857 1.076481 1.502351
23360 0.9630967500000001 2.1038722200000004 -1.68654501 0.8172659999999999 0.690459 1.646681
23380 1.9296368099999999 2.14474068 -1.5670886400000001 0.956575 1.390349 1.258993
23400 3.4629005700000004 2.2192868700000004 -1.6826504400000002 1.304961 1.7003130000000002 0.965131
23420 3.89459943 3.60735282 -0.8526263400000001 1.057277 1.243951 1.019534
23440 1.62950967 4.94226819 0.07948062 0.564243 0.8966940000000001 1.174632
23460 -2.65009302 6.61249917 3.4248770100000003 0.671525 0.706087 1.328381
23480 -4.17691161 12.98983302 14.50139706 0.594305 1.19479 1.193688
23500 -23.69347497 27.31983957 19.78585767 0.231503 2.049669 1.109941
23520 -14.978604510000002 19.52165475 10.07284914 -0.186398 2.308059 1.057553
23540 -6.957085230000001 8.5692312 4.23334854 -0.346233 1.828266 0.7686310000000001
23560 -0.7261362 8.47926369 1.06054929 -0.461614 1.229168 0.4395810000000001
23580 3.0367345500000003 14.72218092 -1.6060147200000001 -0.577181 0.908841 0.193493
23600 -0.61941321 15.73049196 -14.442262379999999 -0.759621 0.888143 -0.066265
23620 -4.462225650000001 11.715239340000002 -10.58882571 -1.303649 0.220834 -0.28178600000000004
23640 -5.0548379400000005 4.79123343 2.9075564700000003 -2.030582 -0.563077 -0.749467
23660 5.501212560000001 4.47344829 12.355459560000002 -2.629988 0.319149 -1.339102
23680 7.94771865 7.8279679799999995 -3.0870304200000005 -2.647462 1.284551 -2.187561
23700 5.60359953 6.47284401 -6.305485409999999 -1.29305 -1.636349 -2.8494740000000003
23720 3.7979022600000003 7.22682099 -4.2790042800000005 -1.021639 -3.150095 -2.555082
23740 -2.2073088600000004 14.95928862 -5.682334590000001 -1.238718 -3.652813 -3.188341
23760 -9.944867880000002 16.16458446 -1.5962832 -0.986287 -2.974508 -3.604054
23780 -10.71606141 7.68082779 1.6723205100000003 -0.996441 -2.197467 -3.176763
23800 -4.24427688 5.1479446499999995 -0.68662152 -1.299352 -0.968023 -2.677322
23820 -1.2795379199999999 4.754563650000001 -3.3693426 -0.969695 -1.21087 -2.4397
23840 -0.99722574 5.65373844 -2.8611453600000005 -0.71377 -1.576531 -2.061429
23860 -0.93150855 7.1118576000000004 -2.7078641100000005 -0.574231 -2.007765 -1.966967
23880 0.23755896 8.98416477 -2.17228716 -0.405594 -2.314701 -1.8126400000000005
23900 0.21330864 11.21108382 0.9369040500000001 -0.243761 -2.542398 -1.488614
23920 -0.83660661 10.47057597 1.7730594000000002 -0.050959 -2.456228 -1.094272
23940 -1.90464093 8.97368769 0.8285231700000001 0.26002600000000003 -2.405698 -0.680899
23960 -2.31792642 9.378301140000001 -0.61686261 0.598629 -1.934371 -0.294578
23980 -2.79573228 11.44115775 -0.7852708800000001 0.922578 -0.966409 0.050412
24000 -4.55038812 13.96445652 0.80187921 1.421449 0.13989400000000002 0.5459970000000001
24020 -7.446417840000001 13.010944140000001 0.9110056500000001 2.028544 0.7891640000000001 0.95533
24040 -9.40793715 12.103234650000001 0.03517866 2.333236 0.411495 1.629854
24060 -9.69758721 12.518168220000002 0.47570652 -0.006539 -3.0828830000000003 2.659505
24080 -7.51542138 13.397585670000002 1.5349118400000004 -0.274164 0.754586 -0.919416
24100 -7.82018865 14.25336102 2.8614494699999997 0.958518 2.077238 -1.349404
24120 -5.90447223 12.23750412 1.7621310600000002 0.332472 1.103919 -1.425169
24140 -3.16891449 10.154733210000002 0.8183502000000001 0.561267 0.987496 -0.21633
24160 -0.72973647 12.754373400000002 -2.8350998100000004 1.480799 2.590659 1.667041
24180 4.255499520000001 19.4406732 -6.1628382 0.925742 0.909074 1.228416
24200 2.77881984 19.20476232 -4.19847399 0.019118 -1.871317 -0.907594
24220 -5.896535940000001 14.115049830000002 0.5382845100000001 0.19094 -1.305509 -0.827002
24240 -6.37868763 12.66246351 0.8300241 0.925656 -0.26213200000000003 0.547322
24260 -1.45497015 13.651909920000001 -1.5477825600000001 2.043356 1.6645470000000002 2.340864
24280 1.5443392500000002 12.16654839 -1.26367515 1.574492 3.2726040000000003 2.873912
24300 1.62217179 8.74960767 -0.40296537000000004 0.7262109999999999 2.59938 1.738671
24320 -0.30072555 6.215527710000001 -1.3395653100000002 0.965555 1.593149 0.885986
24340 -0.82299033 4.29247341 -1.20334365 0.784504 2.344817 0.614566
24360 -0.36628578000000006 4.046831010000001 -1.9868193 0.57999 2.904861 0.8645200000000001
24380 0.24997842000000003 3.92977809 -1.9535830200000002 0.531971 1.197785 1.297934
24400 0.81490689 3.2448046500000003 -1.9121259600000002 0.52546 1.308054 1.433412
24420 1.6164918 2.60683092 -1.81048455 0.646985 2.155909 1.354126
24440 2.92087845 1.83982626 -1.9603224900000003 0.924676 2.067149 1.19915
24460 3.68833437 2.04549291 -1.25184429 0.852621 1.681744 0.939563
24480 2.87103384 3.0084425100000005 0.32631984 0.666089 1.49921 1.193799
24500 -0.6982954200000001 5.13372015 2.23784739 1.034203 0.5881689999999999 1.464593
24520 -3.52800954 9.45748746 6.01149933 0.779662 0.4633 1.476862
24540 -13.82315328 27.90796869 22.903122510000003 0.337689 1.386052 1.271767
24560 -21.763396710000002 27.005939190000003 11.829005910000001 0.022156 1.746847 1.096048
24580 -10.02943989 10.15159401 3.4877493000000004 -0.271197 0.98632 0.7980079999999999
24600 -2.54845161 3.2010912900000004 -0.37751823000000007 -0.570036 0.821634 0.416913
24620 0.75398679 6.5250822600000005 -1.6384956300000002 -0.813029 0.8279040000000001 0.12572
24640 2.4706092600000003 13.60730385 -10.177188300000001 -1.256879 0.119721 -0.344354
24660 -0.72419382 19.744989210000004 -10.90707192 -1.421806 -1.0313450000000002 -1.123833
24680 -8.86531662 16.780407210000003 -0.85681521 -1.921938 -0.668138 -2.008007
24700 0.61058421 6.60651507 12.228066900000002 -2.72828 0.586086 -2.472446
24720 7.819443090000001 5.970787830000001 -7.52065992 -1.529085 -0.5954550000000001 -2.941119
24740 7.18879743 4.18649598 -7.115006610000001 -0.8436600000000001 -2.825374 -2.662145
24760 8.123160689999999 5.071907340000001 -3.1963040100000004 -1.526167 -2.730536 -2.876405
24780 3.3392553300000003 10.31235048 -2.7723844800000004 -1.491956 -2.813568 -3.4529
24800 -5.94474228 15.443088390000002 0.5926221000000002 -1.172004 -1.347007 -3.38311
24820 -11.057508270000001 13.54129236 1.9700540100000001 -1.427696 0.392644 -2.90963
24840 -5.368581360000001 7.00857792 -0.47032083 -1.018949 -0.511031 -2.65138
24860 -1.22550444 5.55899346 -3.5561544300000003 -0.726489 -1.442835 -2.184535
24880 -0.55235205 5.19644529 -2.4525 -0.451489 -2.002841 -1.972525
24900 -1.6464221100000003 5.7372705900000005 -3.120561 -0.3362 -2.173788 -1.6809439999999998
24920 -2.1454862400000003 7.89817815 -3.6238140000000003 -0.289459 -2.234389 -1.219068
24940 -1.63624914 11.07771687 -1.3418117999999999 -0.16026700000000002 -2.179361 -0.707626
24960 -1.77037146 11.65401513 1.61858133 0.136426 -2.166292 -0.237689
24980 -2.02229226 8.917103610000002 -0.04565574000000001 0.449772 -1.884377 0.118788
25000 -3.7788904800000003 6.893761680000001 0.07708698000000001 0.751799 -1.063279 0.446721
25020 -5.67350559 8.60859873 0.9466355700000001 1.274942 0.201743 0.923045
25040 -5.1452469 12.091403790000001 1.25169714 1.91199 0.917824 1.38164
25060 -5.257071090000001 13.54218507 0.9005285700000001 2.132859 -0.228043 1.896329
25080 -7.349122260000001 12.763212209999999 0.48304440000000004 -0.5183989999999999 -3.256685 3.143261
25100 -9.078919560000001 12.096348030000001 1.22819238 -0.526654 1.008821 -1.939521
25120 -9.513021870000001 13.49293887 0.69336099 0.722634 1.362959 -1.807335
25140 -8.47253403 15.14805264 -2.0727352800000003 0.014767 1.309782 -1.748118
25160 -6.85678779 13.33651842 -0.85037985 0.5043569999999999 1.6710619999999998 -0.879901
25180 -3.81945483 12.02389137 2.49920541 2.498871 2.449316 1.233157
25200 3.17998998 15.79410981 0.9876413700000001 2.685427 1.263858 3.417289
25220 8.9654571 22.930070580000002 -6.68285649 -1.468301 -4.118951 3.547928
25240 5.982756030000001 18.04946805 -3.3073728300000003 0.089347 -0.8710110000000001 -1.7693720000000002
25260 -3.2070852 13.633653510000002 1.50631569 0.355716 1.157855 -1.081108
25280 -5.66766864 13.65011469 2.42525763 1.304711 0.093434 1.076147
25300 -2.5583302800000003 14.080018320000002 -0.44188164 2.22425 2.443222 2.992745
25320 -0.23127075 11.312273970000001 -0.6406714800000001 1.184689 3.467557 2.677591
25340 0.13965516000000006 9.174871170000001 -0.9842078700000001 0.752687 1.389787 1.043925
25360 -0.4784042700000001 5.362146 -0.9454387500000001 1.08581 1.812822 0.4592560000000001
25380 -0.57794634 3.2873113800000002 -1.04078214 1.24353 3.112359 0.613584
25400 0.27857457 2.67389208 -1.5786153900000002 0.642708 2.373421 1.574939
25420 0.77853141 2.3192802 -1.90045206 0.829829 1.717769 1.539698
25440 1.2145761000000002 1.15904169 -1.8375797700000003 1.047119 1.210599 1.1103040000000002
25460 2.66566149 0.39068325000000004 -1.8208144800000001 0.985795 1.096828 1.1100219999999998
25480 4.33753074 0.02544714 -1.44389466 0.602017 1.418853 1.36437
25500 4.1561046 1.98517122 -0.41733702000000006 0.911312 0.416537 1.335768
25520 2.3822996400000003 3.47277924 0.8734333500000001 1.072488 0.093608 1.23369
25540 -1.8944581500000002 6.94764801 3.2389677000000003 0.608921 1.60898 0.965728
25560 -4.99376088 17.23365864 12.101135310000002 0.05939 2.389154 0.811338
25580 -29.44975734 38.093387580000005 19.763098470000003 -0.355945 1.666929 0.63097
25600 -16.2737109 16.2130851 7.494614370000001 -0.809317 2.131885 0.367629
25620 -5.5640750400000005 5.783524740000001 3.4344613800000006 -0.935693 1.431739 0.009789
25640 -0.13981212 0.80307603 1.3528872900000002 -0.787266 0.426896 -0.312626
25660 1.62891126 -1.9868193 -9.298957860000002 -1.33021 -0.7835270000000001 -0.8393639999999999
25680 5.11771023 3.41799039 -11.40193737 -1.611797 -1.09559 -1.409225
25700 6.20938665 15.99379236 -10.11775932 -2.756348 -0.101204 -2.135271
25720 -10.53180018 48.0235797 9.30136131 -2.002231 0.13961700000000002 -2.805428
25740 -8.87489118 12.40305768 2.7882472500000004 -0.622319 -2.8183830000000003 -3.003507
25760 4.691544210000001 -1.2620270700000003 -3.3132097800000007 -1.401876 -3.223533 -2.774493
25780 13.54294044 -2.05373331 -3.21561009 -1.593023 -3.010198 -3.4768550000000005
25800 13.80369024 -1.83712851 -3.73189077 -1.049322 -2.254273 -3.576575
25820 3.4844531400000003 8.340501240000002 -7.82468163 -1.193775 -1.36949 -3.070244
25840 -5.62754574 14.585223509999999 -3.2736951000000003 -1.305597 -0.762137 -2.743859
25860 -12.09080538 21.5086212 3.26785815 -0.999812 -1.138835 -2.312884
25880 -10.58583366 8.82953955 0.82493271 -0.73619 -1.7365700000000002 -1.980196
25900 -0.10896948000000001 5.0322357 -3.7383261300000004 -0.446845 -1.981193 -1.796264
25920 2.6761385700000004 3.51334359 -6.0318550800000015 -0.254131 -2.161304 -1.411195
25940 2.1893467500000003 4.28828454 -3.7252984500000004 -0.116759 -2.175585 -0.889993
25960 0.4176313200000001 6.807992850000001 0.25701219000000003 0.053908000000000005 -1.970266 -0.436138
25980 -0.93315663 12.414133170000001 1.4880592800000003 0.21862 -1.7740759999999998 -0.091271
26000 -3.4024219200000005 14.1277734 -0.18636057 0.389996 -1.128028 0.169744
26020 -4.98703122 9.06215427 -0.48902850000000003 0.695866 -0.114329 0.547664
26040 -4.8199767300000005 10.30411989 1.17655254 1.309441 0.937 1.10501
26060 -3.8318841000000003 12.274625160000001 2.8930376700000004 1.815825 0.433368 1.404021
26080 -5.2855102800000004 13.77421119 2.4804879300000002 1.377262 -1.676106 2.638526
26100 -7.38998091 12.80946636 0.26494848000000004 -0.774048 -1.257407 0.765324
26120 -8.557253189999999 12.34378566 -1.28762136 0.416645 1.948602 -1.743993
26140 -11.20359879 11.31002748 1.1539503 0.548107 1.543161 -1.964745
26160 -11.180996550000001 13.517042040000002 0.18396693 0.227406 -0.010742 -1.238603
26180 -5.79414897 12.207416850000001 0.17603064 0.902692 1.376996 0.6497470000000001
26200 -2.5614694800000004 11.43173034 1.56244851 1.969343 3.012331 2.352507
26220 1.4711370300000002 16.95674196 -2.84647941 1.424815 0.128169 2.406878
26240 7.22667384 22.4513622 -7.878263850000001 -0.264456 -1.806478 -0.892566
26260 3.8842695000000003 17.56867014 -3.79835352 -0.033041 0.20002 -1.238556
26280 -4.6030776300000005 14.43732795 1.3534857000000002 0.8259 0.235972 0.212702
26300 -5.57800524 14.570400600000001 0.5081972400000001 1.575625 1.351727 2.121148
26320 -1.65002238 14.826971340000002 -0.74904255 1.7302919999999995 3.62753 3.223854
26340 1.47173544 11.32679277 -0.23830452000000002 0.752777 3.171074 2.337396
26360 1.50631569 8.62057674 -0.96414642 0.927122 1.588064 1.125006
26380 -0.05343507 5.21560422 -0.7864677000000001 1.1535879999999998 2.17277 0.695345
26400 -0.09131148000000001 3.1211594100000006 -0.77044797 0.7833939999999999 2.58691 1.344912
26420 -0.15942230999999998 2.17482795 -1.4223420900000001 0.671692 1.371267 1.482422
26440 -0.13591755 1.8272498400000001 -1.3491398700000001 0.937504 1.236797 1.313535
26460 0.33650262000000003 1.41275772 -1.64358702 0.977191 1.336474 1.127814
26480 1.6543584000000002 1.3614219900000002 -2.09848653 0.6739689999999999 1.270592 1.349039
26500 3.3664977 1.4349185100000001 -2.17332702 0.788275 0.53538 1.293096
26520 3.4965783000000004 2.86099821 -1.00635885 1.264922 -0.284208 1.2440639999999998
26540 1.9746941400000002 4.401001440000001 0.9110056500000001 1.11637 0.820041 1.217043
26560 -2.3755601700000004 7.61182425 3.60285984 0.414387 2.12052 1.082286
26580 -6.837776010000001 14.093193150000001 9.171280710000001 -0.17135799999999998 2.030225 0.993921
26600 -22.84833366 30.338160750000004 20.440743840000003 -0.4391270000000001 1.698019 0.65385
26620 -17.146692990000002 20.220705539999997 8.84615769 -0.740879 1.623785 0.299324
26640 -6.008654430000001 7.1160562800000005 4.14263547 -0.8870889999999999 1.132054 0.053242
26660 -0.6081807600000001 2.99347245 1.98277758 -0.8478399999999999 0.939675 -0.089379
26680 1.4976338400000002 4.49485371 -0.90591426 -1.453273 -0.239354 -0.6870970000000001
26700 2.8352567700000004 9.492509160000001 -13.72256154 -1.860623 -0.7512850000000001 -1.249035
26720 1.64986542 17.08187832 -14.17432185 -2.770826 0.558029 -1.813614
26740 -9.850711500000001 26.84696814 4.60742346 -2.4519610000000003 1.258532 -2.509833
26760 -3.57591177 10.37806767 9.37844829 -0.8589530000000001 -1.807729 -2.9915
26780 6.643184850000001 4.27016547 -0.40835106000000004 -1.046093 -3.106543 -2.768953
26800 8.756043029999999 1.17296208 -5.37158322 -1.47081 -3.772524 -3.419477
26820 8.307127620000001 1.6489727100000002 -4.555930770000001 -1.07659 -2.712954 -3.665908
26840 3.27982635 8.80768287 -6.016286610000001 -0.960492 -1.5244719999999998 -3.143192
26860 -4.912936290000001 15.962802570000001 -3.65435253 -1.271951 -0.816806 -2.688007
26880 -11.200008330000001 16.084201320000002 2.4581898000000004 -1.046589 -1.035716 -2.485326
26900 -8.62342164 6.975341640000001 0.9141448500000001 -0.735033 -1.540426 -2.280609
26920 -0.55414728 5.357358720000001 -4.97430765 -0.521986 -1.911533 -2.101321
26940 1.19331783 4.520153700000001 -5.40301446 -0.177715 -2.217316 -1.85497
26960 0.63139122 4.73555187 -2.9906275500000006 -0.051527 -2.253348 -1.479096
26980 0.06436341000000001 7.36109046 -0.6391705499999999 0.200118 -2.258373 -0.9742
27000 -1.54269117 11.678412600000001 0.45670455000000004 0.4621520000000001 -2.097216 -0.4779890000000001
27020 -3.99309183 12.51487206 -0.9515699999999999 0.552814 -1.543817 -0.154394
27040 -4.44485214 10.108184760000002 -0.71850402 0.843189 -0.8487540000000001 0.26655500000000004
27060 -2.63242521 10.814563620000001 0.91175121 1.377533 0.184562 0.868236
27080 -1.2916630800000002 12.658578750000002 2.6548803000000003 1.820157 0.050497 1.243241
27100 -4.56849738 13.04058015 1.9164619800000002 1.889242 -0.896582 2.259748
27120 -7.9040151000000005 13.04956611 0.19549368000000003 -0.589183 -1.978071 2.601676
27140 -9.3383352 11.61165555 -0.9979713 0.249777 2.082808 -0.79675
27160 -10.170752940000002 10.632244770000002 1.3257920699999999 1.218159 2.039546 -1.472524
27180 -8.152943850000002 12.23360955 2.13441075 0.409167 0.589176 -1.43786
27200 -7.070694840000001 13.51015542 1.12386303 0.5993069999999999 0.74842 -0.135642
27220 -3.7711111500000003 10.432709370000001 1.0165318200000002 1.431927 2.75748 1.550049
27240 -1.49733954 11.01454047 0.31000581 1.531776 0.994335 2.024092
27260 1.3212990900000001 18.747469170000002 -4.412675340000002 -0.08331799999999999 -0.8557030000000001 -0.122331
27280 6.29381151 23.031103769999998 -5.21890038 -0.427665 0.037046 -1.432316
27300 0.20207619000000002 15.22349154 -3.25961775 0.575995 0.376448 -0.06803
27320 -6.78404664 13.627806750000001 2.223927 1.184583 0.709616 1.599016
27340 -4.465816110000001 14.547199950000001 0.36867942 1.986498 2.964928 3.002166
27360 -0.28186092 14.506635600000001 -1.53161568 0.957183 3.269709 2.53525
27380 2.05986456 10.69600977 0.12888378 0.899911 1.421209 1.316241
27400 1.01922957 7.804924290000001 -0.45699885 1.265533 1.615502 0.6306109999999999
27420 -0.68527755 5.0205618 -1.3621675500000001 0.918474 2.187133 1.036584
27440 0.20073222000000002 4.531974750000001 -1.38641787 0.745463 1.68605 1.287049
27460 0.17303859 3.50375922 -1.91033073 0.814295 0.836874 1.265117
27480 0.49427685 2.38244679 -1.96496262 1.063084 1.078945 0.986671
27500 0.08861373 2.7297207900000005 -1.58370678 1.047172 1.249903 1.138028
27520 1.9697499 1.87395525 -2.64185262 0.665763 1.119299 1.361994
27540 3.74760639 0.90890631 -2.45833695 0.7522300000000001 0.499744 1.444577
27560 3.8983468500000003 2.6946990900000003 -0.6556317300000001 0.908781 0.28887 1.29639
27580 1.80330363 4.159999170000001 0.34024023 0.635904 1.7131419999999995 1.001034
27600 -2.104029180000001 7.340283449999999 3.75778917 0.016003 2.528614 0.8717450000000001
27620 -6.21357552 15.20927685 14.284341 -0.349954 1.961392 0.780185
27640 -24.83949879 28.772121780000003 19.45129743 -0.6024649999999999 1.767349 0.507342
27660 -13.549670100000002 17.46672462 8.036783640000001 -0.696322 1.256406 0.22533000000000006
27680 -5.520822750000001 7.224574500000001 2.67313671 -0.666682 0.792546 0.049875
27700 -0.13621185 4.95828792 0.8491830300000001 -0.868741 0.442745 -0.209598
27720 1.72516698 7.219787220000001 -1.9935587700000001 -1.309287 -0.677979 -0.878878
27740 1.7986635000000002 12.027040379999999 -12.84838263 -1.687489 -0.956394 -1.521027
27760 -1.6573504500000003 18.51888636 -10.13901759 -2.641726 0.283847 -2.0900990000000004
27780 -12.340940759999999 19.75756563 4.295318310000002 -2.146068 0.480762 -2.744913
27800 -0.02320065 8.90318322 11.16573219 -0.8357610000000001 -2.321259 -2.728966
27820 7.70073228 5.95686744 -4.72552605 -1.285929 -2.734277 -2.682443
27840 7.711660620000001 1.5473313000000002 -7.3467188100000005 -1.527903 -2.657184 -3.368962
27860 7.6055360400000005 2.57449716 -4.55547951 -1.006197 -2.081078 -3.502788
27880 0.9035206200000001 9.815689800000001 -5.73636807 -1.15476 -0.677527 -2.987537
27900 -7.246578330000001 17.11376082 -0.33006726 -1.224205 -0.133187 -2.657571
27920 -13.04536743 15.4294623 2.23634646 -0.873634 -1.633228 -2.3957580000000003
27940 -6.142325490000001 6.056105400000001 0.01631403 -0.600878 -2.07131 -2.036506
27960 0.66461769 5.1105195000000005 -4.3263081 -0.489298 -2.41458 -1.80455
27980 2.3656815 4.69872513 -4.095037350000001 -0.486476 -2.640703 -1.469888
28000 1.4552742600000002 4.97385639 -2.6204472000000005 -0.294567 -2.436604 -0.995586
28020 0.32242527000000004 7.76300616 -1.04587353 0.009812 -2.174141 -0.562235
28040 -0.6059440800000001 11.77017534 1.2771442800000001 0.258036 -1.851719 -0.156058
28060 -2.76400674 12.283758270000002 -0.48768453 0.438645 -1.220886 0.17233900000000002
28080 -3.63459519 8.565483780000001 -0.9005285700000001 0.833362 -0.14569400000000002 0.546528
28100 -3.4617037500000003 9.20690082 0.034276140000000004 1.409433 0.8430219999999999 1.076987
28120 -2.98074888 12.188856330000002 2.2998171600000004 2.012393 0.661986 1.337804
28140 -4.11075297 13.11737283 1.6301080800000003 1.6393779999999998 -0.66047 2.3047020000000003
28160 -6.260879340000001 11.89710693 -0.30895614000000005 -1.26864 -1.120109 1.7562080000000002
28180 -7.89502914 10.69929612 -1.51334946 0.192313 1.287496 -1.391131
28200 -9.911641410000001 10.479709080000001 -0.03382488 0.5653279999999999 1.535917 -1.766995
28220 -9.57334356 12.54062331 0.7220944800000001 0.483208 0.621346 -1.022914
28240 -8.52926526 15.20493102 -0.8340658200000001 1.089607 0.919569 0.859942
28260 -6.95393622 12.97217502 0.19998666 0.572484 2.346141 1.265767
28280 -2.6427551400000002 11.64502917 1.8628797600000002 0.887465 1.297106 0.395506
28300 2.29996431 15.943790790000001 -0.18471249 0.264461 0.307284 -0.6159789999999999
28320 7.592508360000001 21.278400120000004 -6.30069813 0.122201 -0.884461 -0.301388
28340 4.36851072 16.53925779 -2.80756314 1.017155 0.176688 1.2844719999999998
28360 -4.42315242 13.24939581 2.21973813 1.880499 1.424928 2.731002
28380 -5.628291300000001 14.090799509999998 1.6507679400000002 1.389886 3.248812 2.85663
28400 -2.44472067 14.430892590000001 -0.98285409 0.894446 2.931326 1.431772
28420 0.054484740000000004 11.09657169 -0.6686594100000001 1.011804 1.778778 0.5121939999999999
28440 0.6053456700000002 8.30921715 -0.54307179 0.77078 1.449101 1.11341
28460 -0.5686660799999999 6.38497584 -0.8288272799999999 0.903562 2.080263 1.40088
28480 -0.7825731300000001 4.7837484 -1.10994264 0.8650629999999999 1.101554 1.630465
28500 -0.4912749900000001 4.08530583 -1.6304121900000001 0.760151 0.737676 1.343915
28520 -0.32782077000000004 3.2915100600000007 -1.3540841099999998 0.967824 1.344143 1.082874
28540 0.44561925 2.30146524 -1.4721867000000002 1.088784 1.263555 1.15112
28560 1.83308679 1.71139374 -1.7136402300000002 0.863375 0.761376 1.1886450000000002
28580 3.1412208600000002 1.34959113 -1.7335447199999998 0.7025140000000001 0.924481 1.298407
28600 3.14765622 2.032170930000001 -0.76580784 0.768407 1.0958 1.289034
28620 2.26059678 3.6536069700000002 0.6039918900000002 0.413168 1.279448 1.225429
28640 -0.74724732 5.97617352 2.6607172500000003 0.082524 1.967881 1.179508
28660 -3.1162151700000003 11.11588758 8.352930509999998 -0.13473 1.876568 0.760433
28680 -17.45205867 27.48689406 20.45391867 -0.342834 1.7211610000000002 0.377823
28700 -22.416183540000002 25.845857640000002 10.600058160000001 -0.555671 0.90892 0.155187
28720 -8.319547080000001 10.12778514 4.605775380000001 -0.603348 0.442759 0.08922200000000001
28740 -1.82859381 5.614527870000001 1.4088729600000003 -0.770848 0.552516 -0.040276
28760 1.2970487700000002 11.32814655 2.27661651 -1.567866 -0.34533600000000003 -0.458094
28780 0.11152008000000001 13.408965270000001 -6.5940858 -1.91796 -0.449516 -1.007336
28800 -3.74610546 13.326482790000002 -13.134138120000003 -2.776479 0.446468 -1.61589
28820 -4.92042132 10.38315906 -3.59327547 -2.553235 1.214611 -2.094946
28840 1.9110762900000002 5.50001574 11.28249081 -1.0859450000000002 -1.105609 -2.820933
28860 6.445748790000001 5.95402254 1.00141461 -0.98697 -2.996007 -2.756931
28880 4.03441155 5.7902544 -8.491241700000002 -1.215388 -4.005164 -3.272116
28900 3.962259 6.26956119 -3.9727360800000002 -0.964034 -2.797642 -3.630831
28920 0.52974981 12.21758982 -4.22735463 -0.935906 -1.537247 -3.166504
28940 -5.9360604299999995 16.14437586 -2.18501073 -0.957443 -0.509564 -2.804776
28960 -9.772280550000001 10.211317290000002 1.16547705 -0.6284890000000001 -1.227195 -2.648803
28980 -5.865104700000001 5.837263920000001 0.60908328 -0.491335 -1.751904 -2.353412
29000 -1.72172367 4.6548744300000005 -2.63721249 -0.417009 -2.164992 -2.211358
29020 -0.00973152 5.419181340000001 -2.9789536500000002 -0.30543400000000004 -2.413836 -1.883384
29040 -0.60758235 6.693176610000001 -2.15012637 -0.261425 -2.604405 -1.418156
29060 -1.17325638 8.60845158 -2.5737516 -0.08838700000000001 -2.497446 -0.877632
29080 -1.3469031900000001 10.3795686 -1.3159134000000001 0.246337 -2.286548 -0.362818
29100 -2.02364604 10.44722817 1.41456276 0.467714 -1.730877 0.078124
29120 -2.01436578 9.42754734 0.7093709100000001 0.674117 -0.8507389999999999 0.376472
29140 -1.15065414 9.938138219999999 0.09909081000000002 1.171166 0.323753 0.8708889999999999
29160 -0.8059209300000001 10.719063270000001 0.35371917 1.8584 1.523297 1.329215
29180 -3.18822057 11.04239106 -0.48184758000000005 2.341282 0.788529 1.641177
29200 -5.98605219 12.55079628 0.2803698 0.356686 -1.897621 3.506555
29220 -8.968154850000001 12.17298375 -0.22153923 -1.258223 0.504296 -0.611912
29240 -10.72834353 11.295361530000001 -0.27841761000000004 0.8968889999999999 1.748765 -1.7361099999999998
29260 -9.699676740000001 11.88588429 1.42219494 0.289327 0.908208 -1.994581
29280 -7.39701468 12.951662310000001 1.33148187 0.408837 0.541355 -0.934669
29300 -7.300170360000001 14.10172785 1.27040481 1.928154 2.993205 1.045808
29320 -4.648282110000001 11.33233542 2.3423337 2.007886 2.637157 2.900186
