time Ax Ay Az Gx Gy Gz
20 -1.0645910100000002 9.41047794 1.0553009400000002 -0.213992 0.721242 -0.093218
40 -1.4284831500000004 9.81777933 0.9547190100000001 -0.242639 0.685409 -0.164943
60 -1.09198053 9.63605889 1.0611477 -0.241556 0.857193 -0.23459
80 -0.7438040100000001 9.997263089999999 1.3151678400000002 -0.15696500000000002 1.052289 -0.345344
100 -0.60040143 9.811343970000001 1.1006623800000002 -0.249738 0.739874 -0.192836
120 -0.8491830300000001 9.02862369 0.9530709300000001 -0.447294 0.787082 -0.105614
140 -0.43589754000000003 9.979742430000002 0.24428862 -0.394527 1.021708 -0.217709
160 0.33380487 10.165357440000001 1.0044066600000001 -0.10262 1.281109 -0.338848
180 0.04011309 9.808351920000002 0.76356135 0.183822 1.268903 -0.465019
200 -0.30462012 10.15667559 -0.09400923 0.052188 1.1258709999999998 -0.279884
220 -0.28081125 10.289905200000002 -0.27872172 -0.115356 0.923981 0.003351
240 -0.00718092 10.20323385 0.7355734200000001 -0.114596 0.8802030000000001 0.027982
260 -1.1681748 10.03168638 -0.03907323000000001 0.078194 0.8506040000000001 0.06995900000000001
280 -0.89244513 9.31228965 -0.4504163400000001 0.361836 0.8484229999999999 0.102921
300 0.060321690000000004 9.22337181 0.08277678 0.793931 1.111009 0.129104
320 -0.16690734 9.633213990000002 0.47660904000000004 1.585704 1.37671 0.130021
340 0.19250163000000003 9.731559240000001 -0.32706539999999995 2.622389 1.675935 -0.20602
360 -0.39428352 10.56578202 -1.9121259600000002 3.362682 2.503471 -0.535195
380 -0.87852474 11.37828546 -2.6180535600000003 3.791431 2.165519 -0.841551
400 -0.21345579 11.07277263 -2.80875996 3.351406 0.6996979999999999 -1.258285
420 -0.24160068 11.709255240000001 -2.4427684800000002 3.339674 1.830555 -0.599655
440 0.039965940000000005 12.709473030000002 -3.1988448000000007 2.6116200000000003 -0.151027 0.6048899999999999
460 0.37871505 12.07044963 -3.51049869 2.891719 -1.01449 1.041651
480 -0.49083354000000007 10.31131062 -2.00164221 3.592679 -1.01596 0.801926
500 -1.12281336 8.5663863 -1.1829879 4.047663 -0.942942 0.529409
520 -1.7561469600000001 8.65994427 0.42167304000000005 4.114609 -0.941401 0.35255
540 -2.7397564200000004 13.70160738 -0.0047872800000000005 3.537153 -0.403204 -0.003618
560 -3.63488949 16.71664221 -3.9371159700000002 3.172482 -0.380534 -0.028627
580 -4.60846332 15.518527290000002 1.13074965 3.16945 -0.759995 0.029522000000000007
600 -6.7280609700000005 13.962965400000002 -4.0101612300000005 2.72575 -0.816697 -0.057894000000000015
620 -2.7774758700000004 11.61345078 -1.6557023700000002 2.073856 -0.640559 -0.117153
640 -0.38888802 12.460093020000002 -0.56402595 1.4692040000000002 -0.5183220000000001 -0.058508
660 -2.18365695 9.628426710000001 -1.54747845 0.8568540000000001 -0.450374 -0.003052
680 -4.36192821 5.85971901 -3.06308421 0.123996 -0.318302 0.104892
700 -4.505929200000001 5.664372480000001 -3.6781515900000006 -0.501883 -0.100402 0.234836
720 -2.7523230300000003 7.17293466 -4.08874914 -0.965472 0.155132 0.137267
740 -2.08935342 7.341637230000001 -3.9478873500000002 -1.107876 0.294056 0.15105
760 -1.42159653 6.92400591 -4.9573952100000005 -1.15452 0.5353319999999999 0.326671
780 -1.1668210200000002 5.532643800000001 -5.69445975 -1.584653 1.046793 0.400992
800 -1.97139798 4.47913809 -4.77731304 -1.392873 1.106155 0.042264
820 -1.8678141900000003 3.9371159700000002 -5.33101887 -1.215803 -0.384437 0.222736
840 -2.50698474 3.6730602 -6.596185139999999 -2.403737 0.989525 0.513916
860 -2.55488697 3.2070852 -7.17472989 -2.203019 0.325829 -0.184585
880 -2.12422797 3.15798615 -8.681800950000001 -2.386898 0.409734 -0.4946930000000001
900 -2.13395949 4.62672954 -9.16439409 -2.144826 0.312243 -0.566584
920 -1.9059849 6.042489120000001 -10.06492266 -2.22171 0.727193 -0.373237
940 -1.4890991400000002 5.9633028 -9.242226630000001 -2.614977 0.93041 -0.5022939999999999
960 -1.7747074800000002 6.496191810000001 -7.40944395 -2.745461 1.046006 -0.791774
980 -6.080051610000001 13.380221970000003 -12.19454613 -2.815709 1.3317 -0.78088
1000 -0.4912749900000001 9.08176446 -7.66226727 -2.687954 1.4233209999999998 -0.6273489999999999
1020 0.67449636 3.35572632 0.39412656000000007 -2.438192 1.170251 -0.427659
1040 -6.36520869 4.77147609 -5.47007562 -2.202166 0.681805 -0.494819
1060 -5.014872 13.032947970000002 -4.372856550000001 -1.867327 0.5212359999999999 -0.8565379999999999
1080 -4.43513043 13.19400855 -4.5466407 -1.7196330000000002 0.706703 -1.011705
1100 -2.71070901 8.78134302 -4.0380020100000005 -1.753168 0.515536 -0.862143
1120 -2.1999709800000002 7.4622806100000005 -2.9409300900000006 -1.456746 0.793288 -0.78138
1140 -2.22871428 8.48734713 -2.35909899 -1.178796 0.921202 -0.7763979999999999
1160 -2.3632878600000002 10.27927116 -2.55997836 -0.932074 0.4392180000000001 -0.604209
1180 -1.8788896800000001 10.4376438 -2.4758478 -1.005033 0.037203 -0.439698
1200 -1.5079637700000004 7.8462342000000005 -2.3920213500000003 -0.977162 -0.054975 -0.322949
1220 -0.64591002 6.274652580000001 -2.39696559 -0.907855 -0.0022010000000000003 -0.260575
1240 -1.06174611 6.883883010000001 -2.032170930000001 -0.908677 0.022423 -0.290523
1260 -1.70390871 7.8978740400000005 -2.2432330800000004 -0.506297 0.08483099999999999 -0.262155
1280 -2.07947475 8.500374810000002 -2.81070234 0.011596 0.270173 -0.17438499999999998
1300 -1.9597240800000002 8.66413314 -2.47944807 0.451462 0.578624 -0.169572
1320 -1.43521281 9.11933676 -1.98531837 0.8583430000000001 1.131191 -0.17812
1340 -0.50370426 9.92511054 -1.9745469900000003 1.518359 1.32579 -0.13103
1360 -0.18186759 10.45261386 -1.8598779 2.101619 0.8885700000000001 -0.255651
1380 -0.45549792000000006 10.19649438 -2.23455123 2.587318 0.26357600000000003 -0.224752
1400 -1.80285237 10.341093780000001 -3.6377343900000003 3.221386 0.913021 0.117472
1420 -3.0576887100000003 11.27949876 -4.286783610000001 3.352043 0.652221 0.222336
1440 -3.70300032 12.92367438 -4.24667052 3.085089 -0.4678850000000001 0.578693
1460 -3.02819985 11.376038970000002 -3.6863821800000003 3.0890310000000003 -0.580438 1.015767
1480 -3.20947884 10.54108044 -2.99422782 2.92413 -0.171072 1.083525
1500 -3.62845413 11.403291150000001 -1.7461211400000003 2.603498 -0.281977 0.8581690000000001
1520 -4.43677851 12.383447490000002 -0.032186610000000004 2.417386 -0.416609 0.588918
1540 -7.110513630000001 12.15038151 -2.44561338 2.305323 -0.442781 0.5710770000000001
1560 -8.044121520000001 9.8532621 -3.92588352 2.570029 -0.411765 0.577159
1580 -4.66160409 10.89105219 -2.0850174000000004 2.510647 -0.343439 0.325625
1600 -2.4361859700000004 12.51202716 -3.03329124 2.287603 -0.306757 0.137081
1620 -2.55593664 13.36825377 -2.799774 2.396032 -0.266214 0.027760000000000003
1640 -2.63422044 12.294980910000001 -3.3018301800000005 2.22752 -0.361069 -0.08118600000000001
1660 -2.617308 10.393636140000002 -4.114049130000001 1.915318 -0.461487 -0.272314
1680 -3.56333535 7.53383475 -4.9117394700000006 1.648681 -0.397995 -0.467606
1700 -4.9539519 4.960083149999999 -3.2546833200000003 1.26532 -0.297349 -0.529165
1720 -4.8280601700000005 5.773341960000001 -2.2064161500000004 0.772554 -0.224428 -0.488903
1740 -3.1626262800000005 5.122350360000001 -2.15656173 0.21197 0.016778 -0.383101
1760 -1.92110211 4.84317738 -4.078115100000001 -0.428342 0.387963 -0.211792
1780 -1.65944979 5.01816816 -4.40908488 -1.08968 0.679924 -0.19008
1800 -2.08141713 4.73794551 -3.4280260200000003 -1.685993 0.686307 -0.203868
1820 -2.26613943 4.25968839 -3.4823538000000003 -1.960278 0.711579 -0.158814
1840 -2.2601455200000005 3.3431499 -3.7359324899999997 -1.492757 0.790791 -0.126808
1860 -2.31823053 3.8197589400000003 -4.81323726 -2.26099 1.030841 -0.350399
1880 -2.93779089 4.16014632 -5.94802863 -2.052861 -0.14887899999999998 0.116175
1900 -3.1763995200000004 3.4120062900000003 -6.559358400000001 -2.80336 0.965859 0.385105
1920 -3.06397692 3.45646521 -6.893614530000001 -2.662205 0.036548 0.094589
1940 -3.3115617 3.89579625 -7.90610463 -3.178783 0.444088 -0.407333
1960 -3.27039894 2.71744848 -8.96590836 -2.932317 0.870503 -0.696714
1980 -3.1904670600000005 3.00799125 -9.5321808 -2.452192 0.406587 -0.45028
2000 -3.41454708 4.79557926 -10.493178210000002 -2.404804 0.370963 -0.108072
2020 -2.8548669600000003 6.38242524 -13.878236430000001 -2.599796 0.67297 -0.33842
2040 -2.28319902 7.26289236 -11.17366848 -2.6620790000000003 0.54964 -0.6110939999999999
2060 -6.6524651100000005 12.92726484 -9.497149290000001 -2.519362 0.34426100000000004 -0.523308
2080 1.71677943 12.45529593 -5.71242186 -2.277207 0.073056 -0.310829
2100 -5.6236511700000005 1.91631483 -2.2387401000000002 -2.050112 -0.216352 -0.3281
2120 -5.45555682 3.8585280600000003 -3.2841721800000006 -2.048663 -0.491769 -0.451651
2140 -2.16464517 11.774217060000002 -4.54305024 -1.987905 -0.521736 -0.4693479999999999
2160 -3.4590060000000005 15.34010301 -5.47561827 -1.906579 -0.40297 -0.40377
2180 -2.17018782 11.049876090000001 -4.30998426 -1.785575 -0.475032 -0.33660300000000004
2200 -0.92987028 6.773863860000001 -3.7004595300000003 -1.449101 -0.94989 -0.425511
2220 -1.57652586 6.14517039 -3.32219574 -1.338608 -0.634726 -0.481759
2240 -1.3214560499999999 7.91119602 -2.93779089 -1.0772 -0.145542 -0.231664
2260 -0.98165727 7.8760173600000005 -2.84827464 -0.609454 0.080289 -0.102636
2280 0.3844048500000001 6.58150938 -2.52809586 -0.504305 -0.191054 -0.26926500000000003
2300 0.07349652000000001 4.6473894 -2.8660896 -0.430821 -0.329356 -0.378601
2320 -0.38634723000000004 5.19644529 -2.56491279 -0.31798000000000004 -0.005413 -0.235087
2340 -2.0941407 6.70590018 -2.4291522000000003 -0.184709 0.08528999999999999 -0.123177
2360 -3.9152592900000003 6.476581620000001 -2.94557022 0.063249 0.205776 -0.099167
2380 -3.00320397 5.27338512 -3.55495761 0.446564 0.170762 -0.200062
2400 -1.5826571100000002 7.176230820000001 -3.60090765 0.992306 0.31048200000000004 -0.182542
2420 -1.8811361700000002 11.84636961 -1.5959790900000002 1.270385 0.513843 -0.130654
2440 -3.0262574700000004 13.847550750000002 0.24608385000000002 1.682951 0.961663 -0.322762
2460 -3.2918043600000004 10.308760020000001 -0.71790561 2.354062 1.019735 -0.508292
2480 -2.9779039800000002 12.230617500000001 -2.06734959 3.009385 0.6497350000000001 -0.456239
2500 -1.49389623 14.32671039 -1.7917768800000002 3.288136 0.339542 -0.116336
2520 -1.13883309 13.971941549999999 -0.96399927 3.339674 0.441621 0.152017
2540 -3.3289254000000006 13.267514880000002 -1.0084483800000001 3.272011 0.693756 0.028375
2560 -4.611465180000001 12.18974904 -0.9744763500000001 3.194168 0.96674 0.293469
2580 -4.13260965 12.87472248 -0.90696393 2.962307 0.7646930000000001 0.40534
2600 -4.7542595400000005 13.30208532 -0.6185106900000001 2.799861 0.6695180000000001 0.371212
2620 -8.702156700000002 11.28009717 -1.9115275500000002 2.741371 0.385759 0.5207189999999999
2640 -9.66345822 8.90033832 -0.82478556 2.761259 0.076814 0.773354
2660 -5.843100870000001 8.94300201 -0.08382645000000001 2.814642 0.229339 0.679528
2680 -4.35833775 10.42761798 -1.86407658 2.728157 0.173236 0.399121
2700 -5.1262351200000005 11.124412470000001 -3.0476628900000002 2.834804 -0.082872 0.151299
2720 -6.11373915 12.273575490000002 -2.6406558 2.693595 -0.301288 0.015996
2740 -6.0245172 12.3436287 -2.8530717300000004 2.313733 -0.535447 0.028598
2760 -5.628742560000001 11.7939744 -4.408633620000001 1.703861 -0.454468 0.019961000000000003
2780 -5.99757894 10.34364438 -4.14248832 0.996979 -0.171602 -0.041954000000000005
2800 -6.02168211 8.80813413 -3.00320397 0.366312 0.055291 -0.025286000000000003
2820 -4.78330695 8.07076548 -3.2744406600000002 -0.275109 0.307608 0.03614
2840 -3.85733124 6.93613107 -4.38378489 -0.798083 0.32198000000000004 0.092289
2860 -2.05163397 3.2087234700000002 -3.3525773100000005 -1.281992 0.099355 0.240882
2880 -0.13682007 2.88704376 -1.98247347 -1.305599 0.072899 0.483237
2900 0.47751156 3.2216040000000006 -1.6235255700000002 -0.8325549999999999 0.5680649999999999 0.65255
2920 -0.44188164 1.88637471 -1.67367429 -1.751652 0.93005 0.170307
2940 -1.51125993 0.8271792000000001 -2.73107457 -1.398768 -0.179499 0.5459350000000001
2960 -2.08561581 -0.11032326000000002 -3.4157439000000003 -2.414444 0.621578 0.629681
2980 -1.8257489100000002 1.58624757 -4.48916391 -2.456116 -0.038169 0.21897
3000 -1.88907246 1.8754463700000001 -4.909787280000001 -2.931129 0.105216 -0.061201
3020 -2.42360955 1.82186415 -6.814732320000001 -2.766629 0.566032 -0.357608
3040 -3.3967321200000002 2.5288414200000005 -8.431969680000002 -2.429491 0.588204 -0.333918
3060 -4.6532263500000015 3.6301022100000004 -10.09441152 -2.513679 0.597179 -0.108054
3080 -4.603823190000001 5.77424448 -12.992834879999998 -2.719345 0.959696 -0.276598
3100 -1.9320304500000003 6.53840424 -13.28622255 -2.781053 1.038468 -0.474751
3120 -9.24881895 12.732075270000001 -11.27305359 -2.7120490000000004 0.843867 -0.354379
3140 -3.5405859600000005 13.13503083 -12.59300871 -2.518886 0.288668 -0.208108
3160 -0.04864779000000001 4.496197680000001 -1.58700294 -2.107756 0.001325 -0.102319
3180 -5.657937120000001 1.48969755 -5.08253157 -1.72351 -0.372165 -0.27434400000000003
3200 -4.3188230700000005 7.903112580000001 -4.04847909 -1.698147 -0.8232860000000001 -0.434891
3220 -4.208794110000001 13.63469337 -5.58099729 -1.6931009999999995 -0.481075 -0.50366
3240 -3.70704204 12.2249277 -4.92700383 -1.604425 -0.252204 -0.539654
3260 -1.58879817 7.96897692 -4.99631148 -1.347416 -0.209695 -0.470615
3280 -0.81490689 6.945254370000002 -3.5512200000000007 -1.21087 -0.435007 -0.454417
3300 -1.09183338 7.4919166200000005 -2.5176187800000003 -1.119316 -0.408977 -0.383309
3320 -1.5940367100000001 7.6669074 -2.71775259 -1.02911 -0.182772 -0.286828
3340 -1.4076761400000002 7.1995786200000005 -2.4962133600000005 -0.979073 -0.15651600000000002 -0.236306
3360 -0.7535355300000001 6.40712682 -2.12318811 -0.814529 -0.244825 -0.139972
3380 -0.6478524 5.54551452 -3.17879316 -0.532887 -0.228842 -0.118797
3400 -1.19362194 6.50052783 -3.6515076300000002 -0.218899 -0.124605 -0.084691
3420 -1.6384956300000002 7.992334530000001 -3.1784890500000005 -0.270794 0.241854 -0.040657
3440 -2.8288214100000006 7.988439960000001 -2.6090774100000003 -0.204716 0.233075 -0.033775
3460 -3.6131897700000004 7.9396352100000005 -1.9128715200000002 -0.136731 0.347054 -0.09113
3480 -3.42622098 8.605753830000001 -3.09690909 -0.004543999999999999 0.488565 -0.163028
3500 -1.7253141300000001 9.206459370000001 -3.00963933 0.205273 0.468417 -0.101716
3520 -0.9232779600000001 9.84143124 -2.1806649 0.655638 0.473342 -0.125282
3540 -1.5498819000000004 9.7260264 -1.78398774 0.998141 0.6365270000000001 -0.205352
3560 -1.9353266100000002 9.751326390000001 -2.0915999100000002 1.482449 0.383334 -0.4441310000000001
3580 -2.0130120000000002 11.076363090000001 -2.3659758 2.195863 0.435731 -0.313164
3600 -1.7119921500000002 11.20584528 -2.11615434 2.924276 1.0014379999999998 -0.157114
3620 -1.7811428400000002 11.24162235 -1.4471908199999999 3.303635 1.205442 -0.087427
3640 -2.45175444 11.258838900000002 -1.14316911 3.054896 0.518965 -0.028465
3660 -3.0413746800000006 11.52887877 -0.73048203 2.908456 0.058017999999999986 0.28516
3680 -4.32031419 11.865528540000001 -0.30686661000000004 2.966398 0.454926 0.6108640000000001
3700 -5.2835580900000005 12.439433160000002 -0.72509634 2.964818 0.489487 0.76036
3720 -4.07542716 13.94440488 -0.65339505 3.047607 0.261762 0.6277020000000001
3740 -6.064640100000001 14.085109710000001 -1.1662226100000002 3.066719 0.179917 0.565984
3760 -8.17375086 12.485383200000001 -3.6079512300000003 3.192318 0.076193 0.289256
3780 -7.556436990000001 10.822647060000001 -3.60226143 2.901866 0.024872 0.055489
3800 -4.842127710000001 10.82324547 -1.69238196 2.74888 0.090701 -0.023644
3820 -4.75785981 12.03886143 -1.6096051800000002 2.633486 0.031534 -0.045739
3840 -4.8141397800000005 12.48403923 -2.7556191899999996 2.440101 -0.033825 -0.050210000000000005
3860 -5.19778926 12.08616525 -4.08769947 1.982362 -0.25497600000000004 -0.026419
3880 -4.74438087 11.40972651 -3.9972905100000005 1.417419 -0.158132 -0.045444
3900 -4.0863555 10.40112117 -3.3223428900000003 0.8092229999999999 0.056011 -0.056376
3920 -4.984186320000001 8.40083274 -3.42862443 0.249509 0.177145 -0.027326
3940 -5.57096166 6.01718913 -3.10678776 -0.17766300000000002 0.163404 0.049824
3960 -4.23439821 3.92499081 -2.88165807 -0.542817 0.144264 0.091095
3980 -2.20386555 3.9639070800000002 -3.2416556400000003 -0.985728 0.173252 0.152058
4000 -0.7355734200000001 4.25774601 -3.7317436200000005 -1.280345 0.192174 0.204455
4020 -1.27384812 4.28169222 -4.094438940000001 -0.946698 0.416642 0.257772
4040 -1.7612383500000002 4.18290552 -3.6735114600000003 -1.117873 0.6522479999999999 0.360961
4060 -1.9583801100000002 3.06113202 -3.68652933 -1.553274 -0.433322 0.485361
4080 -1.84102308 1.5561603 -4.40908488 -2.000047 0.616618 1.2436049999999998
4100 -1.36934847 1.2051486900000001 -4.94900766 -2.523572 0.104241 0.893432
4120 -2.01361041 1.57083606 -5.160668220000001 -2.244861 0.477707 0.497522
4140 -2.51252739 2.5210620900000005 -5.70374001 -2.658228 0.40009 0.286431
4160 -2.29068405 2.0505843 -6.739283610000001 -2.312359 0.583461 -0.048946
4180 -1.81123011 1.96197057 -7.292685330000001 -2.217401 0.503451 -0.368647
4200 -1.56289977 2.61835767 -8.49064329 -2.424798 0.668987 -0.82537
4220 -2.01705372 4.56041394 -11.28832776 -2.503727 0.962959 -1.012169
4240 -3.1305868200000004 6.0296085900000005 -12.70632402 -2.90251 1.1641290000000002 -0.625311
4260 -5.971082129999999 9.65836683 -9.808351920000002 -3.07958 1.221226 -0.09892
4280 -3.52307511 14.720836949999999 -10.945841040000001 -2.974137 0.8050039999999999 0.000627
4300 -0.94034736 6.11613279 -1.5444864 -2.617951 0.2987 -0.233382
4320 -6.480927449999999 3.2970429 -5.57260974 -2.213869 -0.104002 -0.5761470000000001
4340 -5.089114080000001 8.915455530000001 -5.90956362 -1.882255 -0.056625 -0.7234430000000001
4360 -4.57463844 11.95818399 -5.32592748 -1.862285 0.125422 -0.7117859999999999
4380 -3.7482048 8.290215180000002 -4.810696470000001 -1.897563 0.278265 -0.542381
4400 -2.78615772 6.51984372 -4.677918120000001 -1.684812 0.586671 -0.329782
4420 -2.8993160700000002 7.8879953700000005 -4.37061006 -1.34116 0.8178300000000001 -0.359725
4440 -2.90815488 9.273961980000001 -4.39381071 -1.178783 0.577775 -0.408489
4460 -1.9681116300000001 9.48368016 -4.01525262 -1.078594 0.547632 -0.416297
4480 -0.88196805 8.912316330000001 -3.4543658700000006 -0.985279 0.720694 -0.352841
4500 -0.2080701 7.53637554 -2.9819457000000003 -0.945836 0.558304 -0.27010500000000004
4520 -0.11496339000000001 6.529869540000001 -2.5382688300000003 -0.906191 0.347287 -0.281308
4540 -0.7011403200000002 6.33557268 -2.50713189 -0.923707 0.269497 -0.259966
4560 -1.81123011 6.52343418 -2.73675456 -0.863373 0.328167 -0.332259
4580 -2.34427608 8.01013968 -2.72822967 -0.8404940000000001 0.426123 -0.339702
4600 -2.7006831900000003 8.91456282 -2.61371754 -0.792027 0.321432 -0.308251
4620 -2.428249680000001 8.97863193 -2.11480056 -0.8385450000000001 0.629555 -0.332472
4640 -2.30610537 8.491241700000002 -1.86437088 -0.8298840000000001 0.8247540000000001 -0.403164
4660 -1.90478808 8.459359200000002 -1.58056758 -0.647764 0.535353 -0.383361
4680 -1.41830037 9.16140204 -1.44120672 -0.10713 0.208669 -0.408008
4700 -1.76752656 10.49063742 -1.3709965499999999 0.288617 0.801178 -0.272475
4720 -2.2279687200000002 9.11364696 -1.67157495 0.447431 1.041338 0.003927
4740 -1.8751520700000002 9.599085 -1.2040990200000001 1.073008 1.13913 -0.218291
4760 -2.20566078 10.34752914 -0.6599775600000001 1.8001939999999998 0.8615280000000001 -0.158377
4780 -3.33910818 9.405994770000001 -0.36583452 2.515241 1.102221 0.035385
4800 -4.56041394 8.63674362 -0.35671122 2.9561900000000003 1.440501 0.305087
4820 -4.24846575 9.94501503 -1.07237034 2.784893 1.619656 0.140223
4840 -4.22571636 11.997845819999998 -1.90418967 2.560981 1.538857 0.027667
4860 -4.31837181 13.312120950000002 -2.35549872 2.360402 1.101573 0.065282
4880 -2.99437497 13.5869481 -3.0220686000000003 2.096686 0.365354 0.321825
4900 -0.94214259 14.639109840000001 -1.8901221300000002 2.486624 -0.451008 0.34055
4920 -3.0478100400000003 14.361584940000002 0.1651023 2.927832 -0.038447 0.149755
4940 -6.38077716 12.45589434 0.9123496200000001 2.366077 0.151635 -0.011441
4960 -7.09809417 10.12718673 -0.65309094 1.828817 0.592831 -0.3875
4980 -4.48467093 11.444453910000002 -0.87433587 1.650614 0.647424 -0.565072
5000 -3.6923760899999998 12.22642863 -1.3042395000000002 1.565153 0.390969 -0.559999
5020 -4.27720905 11.46810582 -1.3395653100000002 1.390272 0.159404 -0.574811
5040 -4.917723570000001 10.7931582 -1.02177036 0.986029 0.363447 -0.6345109999999999
5060 -5.41588518 10.60919127 -1.09078371 0.415207 0.548841 -0.681465
5080 -5.23027017 10.313998560000002 -0.54216927 -0.186978 0.522936 -0.607658
5100 -3.8875656600000004 10.11266793 -1.37189907 -0.877374 0.382101 -0.487318
5120 -3.5892337500000004 8.705148750000001 -1.57397526 -1.373113 0.283462 -0.4319020000000001
5140 -4.77566496 5.11950546 -2.04474735 -1.804211 0.399479 -0.300466
5160 -4.6666954800000005 3.32518779 -3.18223647 -2.365676 0.624941 -0.252334
5180 -4.02498414 3.7004595300000003 -2.7800166600000003 -3.057516 0.8929950000000001 -0.352582
5200 -3.2168069100000003 4.890628350000001 -1.77635556 -3.4983480000000005 0.667395 -0.29662
5220 -2.42855379 4.79543211 -1.8269555400000002 -3.2330650000000003 -0.213946 0.095195
5240 -1.8709632 4.30624665 -2.195487810000001 -2.153112 -0.455971 0.27610100000000004
5260 -1.84087593 3.69836019 -2.7738854100000006 -0.395382 0.642497 0.308336
5280 -1.8901221300000002 3.0937698900000004 -2.4298977600000002 0.963242 0.802658 0.369963
5300 -1.9636186500000001 3.30198714 -2.6017395300000006 0.7208060000000001 0.003715 0.576529
5320 -1.65585933 3.6297981000000004 -3.4407495900000002 -0.33012600000000003 0.885397 0.513579
5340 -1.89625338 4.33004571 -3.54792384 -2.254919 1.259701 -0.046207
5360 -1.9217005200000001 4.365224370000002 -3.94968258 -2.301149 0.691909 -0.538253
5380 -2.10178269 3.37084353 -4.91248503 -0.5168010000000001 0.280131 -0.341527
5400 -2.6948462400000004 2.9011211100000005 -6.07212513 -0.076789 0.6492979999999999 -0.069735
5420 -2.8580061600000004 3.54328371 -6.185587590000001 -1.1001729999999998 2.121367 -0.212297
5440 -2.70907074 6.66698391 -7.64340264 -2.486957 2.558055 -0.05696900000000001
5460 -2.05761807 15.915351600000001 -9.77048532 -2.763718 2.264837 -0.016866
5480 -2.27721492 22.607341200000004 -8.26236459 -2.356979 2.219307 0.35991100000000004
5500 -5.83531173 14.01251571 -8.82999081 -2.003879 2.220277 0.610204
5520 -8.255477970000001 6.614892810000001 -12.1759758 -2.310928 1.837669 0.653415
5540 -5.39567658 1.22550444 -6.040389780000001 -2.423323 1.84812 0.269125
5560 -4.50697887 6.319857060000001 3.2497390800000003 -2.1503650000000003 1.950785 -0.06665800000000001
5580 -9.83829204 12.24154584 5.5411785 -1.847602 2.2379 -0.201644
5600 -12.395278350000002 13.711338900000001 -0.29878317000000004 -1.80558 2.653927 -0.11428900000000003
5620 -8.36475156 7.84518453 -2.81818737 -1.970301 2.461131 0.023676
5640 -3.73922865 4.420905930000001 -1.3377700800000003 -1.843461 1.911311 0.214342
5660 -4.24801449 5.80567572 0.26958861 -1.293266 1.351245 0.202879
5680 -4.766688810000001 8.680594319999999 0.12544047 -1.029708 1.314288 0.158834
5700 -2.79453546 11.305387350000002 -0.42421383 -1.063081 1.403152 0.07623400000000001
5720 -1.6145396100000002 11.68290558 -0.5513023800000001 -0.981321 1.298542 0.058779
5740 -1.3651596 10.14425613 -0.44188164 -0.948689 1.149494 0.007923999999999999
5760 -3.8910089700000006 7.262598060000001 -0.18097488 -1.100823 1.163138 -0.07541
5780 -5.38789725 6.85694475 0.29788065 -1.158501 1.0826440000000002 -0.141939
5800 -4.31402598 8.565336630000001 0.77808015 -1.007333 0.990578 -0.159993
5820 -2.70891378 10.35876159 1.21113279 -0.963337 1.075531 -0.130953
5840 -2.3632878600000002 10.869646770000001 2.01525849 -0.881144 1.420002 -0.032544
5860 -2.19757734 10.596310740000002 2.77209018 -0.556398 1.468157 0.164079
5880 -1.5597605700000001 9.28863774 2.3110398 -0.322254 1.439247 0.26402800000000004
5900 -0.6948521099999999 8.91037395 2.18276424 -0.244922 1.5423559999999998 0.252686
5920 -0.6134291099999999 8.80005069 0.6768900000000001 -0.181393 2.050659 0.156338
5940 -1.6534656900000002 8.586447750000001 0.32347494000000004 0.188235 2.523858 0.048287
5960 -1.9878689700000003 8.37463023 0.0928026 1.013787 2.706361 0.046342
5980 -1.80060588 8.14500756 0.13217994000000002 1.928673 3.024109 0.244605
6000 -1.4436003599999998 8.111928240000001 0.16165899 3.023874 3.953955 -0.136701
6020 -1.9113705900000002 9.461225070000001 0.24339591000000002 3.294667 4.165774 -0.5944159999999999
6040 -2.36747673 9.33473493 -1.4422465800000002 2.672277 3.884405 -0.553537
6060 -2.21374422 9.414372510000002 -1.2590350200000002 2.278161 3.777273 -0.327554
6080 -1.6766663400000001 10.72160406 -0.20866851000000003 2.448738 2.767039 -0.121037
6100 -1.1798487 11.85594417 -0.48184758000000005 3.145291 1.037848 -0.395967
6120 -2.6280891900000003 12.22148439 -1.6497182700000002 3.906451 0.304918 -0.517897
6140 -3.7049427 11.38531923 -2.39277672 4.2768510000000015 0.090649 -0.5353319999999999
6160 -4.549642560000001 11.28622842 -0.7417046700000001 4.573011 0.582163 -0.8970879999999999
6180 -4.70771109 10.66861044 0.24758478 4.238108 0.481558 -1.022144
6200 -4.315075650000001 10.736426970000002 2.1625556400000003 3.51694 0.5064960000000001 -0.772977
6220 -4.1613431400000005 9.6625557 3.68084934 3.189155 0.376908 -0.848807
6240 -8.00654922 10.555452090000001 1.2278980800000001 2.924837 -0.093862 -0.906666
6260 -10.819203750000002 13.546383750000002 -1.7625823200000001 2.335703 0.14438199999999998 -1.100162
6280 -8.8148736 14.596299 -2.30730219 1.839866 0.104962 -1.201851
6300 -3.6529987500000005 13.88078703 -0.9834525000000001 1.463151 -0.004057 -1.051587
6320 -2.26224486 12.78626571 0.12813822000000002 1.038231 -0.074887 -0.819456
6340 -4.00477554 11.861928270000002 1.49538735 0.5697180000000001 -0.051003 -0.5257930000000001
6360 -5.02429941 10.225836090000001 0.6412698900000001 0.053777 0.060567 -0.274235
6380 -5.772743550000001 8.46055602 -0.9262700100000001 -0.371283 0.300269 -0.17603
6400 -6.716681370000002 6.7237151399999995 -3.81961179 -0.577235 0.320044 -0.147584
6420 -5.911054740000001 6.84272025 -5.5821941100000005 -0.6996560000000001 -0.056787 -0.110568
6440 -2.99961351 8.480460509999999 -4.76758152 -0.962897 -0.317473 0.040683
6460 -1.0645910100000002 7.272025470000001 -4.24801449 -1.027215 -0.200811 0.225955
6480 -0.91160406 4.09488039 -5.1224975100000005 -1.088956 -0.31919699999999995 0.314337
6500 -1.36950543 1.3956981300000002 -6.1830468000000005 -1.7971669999999995 0.450114 0.084078
6520 -1.3593226500000002 1.81751832 -6.2730045 -1.682439 -0.528536 0.16625
6540 -1.7944648200000002 2.52015957 -6.202205730000001 -1.6591169999999995 0.836543 1.095085
6560 -1.7476122600000001 1.5632038799999999 -5.9282712900000005 -2.895171 0.534733 0.919127
6580 -2.23859295 0.87718077 -6.016286610000001 -2.698301 0.534443 0.555171
6600 -2.75756157 0.5110421400000001 -7.047347040000001 -2.831779 0.439093 0.007431
6620 -2.5182171899999997 0.19534653000000002 -8.189917740000002 -2.8768990000000003 0.706128 -0.13209500000000002
6640 -2.52210195 0.028439190000000003 -9.493705980000001 -2.722192 0.831966 0.23202
6660 -3.3105120300000004 0.47316573 -10.34708769 -2.702603 0.801582 0.353973
6680 -4.042190880000001 1.73593836 -11.036102849999999 -2.49929 0.66879 0.086371
6700 -4.4399177100000005 2.62254654 -12.276420390000002 -2.305061 0.8728290000000001 0.041533
6720 -4.86443565 2.90321064 -10.435544460000001 -2.331774 1.221847 0.162676
6740 -6.88822884 7.377257340000001 -7.4423761200000005 -2.274307 1.104807 0.07777
6760 -12.52490769 19.62389457 -11.01649266 -2.092748 0.442496 -0.151917
6780 -2.7544223700000003 13.532463360000001 -4.8696741900000005 -1.839215 0.7846 -0.675082
6800 -1.0330028100000002 1.6464221100000003 1.68114951 -1.809679 1.055596 -0.804478
6820 -4.9552958700000005 5.14330452 -3.52412478 -1.727056 1.337958 -0.625869
6840 -6.52837842 9.011711250000001 -3.9270803400000003 -1.706773 1.244638 -0.483534
6860 -4.67597574 9.72198468 -4.7749194 -1.7675169999999998 0.8674120000000001 -0.401222
6880 -2.41732134 8.00205624 -4.60457856 -1.586272 0.697018 -0.304666
6900 -1.9434100500000002 6.026165280000001 -4.615349940000001 -1.386368 0.675566 -0.175056
6920 -2.33425026 5.646263220000001 -5.643712620000001 -1.049484 0.609449 -0.1833
6940 -1.93712184 6.885531090000001 -5.914498050000001 -0.90891 0.72109 -0.251896
6960 -0.99752985 6.8316447600000005 -4.834348380000001 -1.0552549999999998 0.919735 -0.25103600000000004
6980 -1.24421211 6.581215080000001 -3.77140545 -1.093025 1.060489 -0.252548
7000 -2.45654172 7.482793320000001 -3.30856965 -1.027009 0.986933 -0.296858
7020 -3.84565734 8.01642789 -3.15693648 -0.999867 0.57899 -0.334602
7040 -4.87536399 8.95452876 -2.4873745500000006 -0.915266 0.399778 -0.3466
7060 -4.84767036 8.95677525 -1.8315956700000002 -0.842901 0.350557 -0.354577
7080 -3.8675042100000003 9.003323700000001 -0.38140299 -0.850618 0.313226 -0.336424
7100 -3.13672788 10.35936 0.07918631999999999 -0.8258409999999999 0.4046 -0.297912
7120 -3.25992186 11.97884385 0.055534410000000006 -0.779266 0.553602 -0.304187
7140 -3.69491688 11.54294631 0.11047041 -0.604329 0.4893050000000001 -0.360566
7160 -4.11898356 9.095832000000001 -0.24938001 -0.362684 0.332018 -0.397133
7180 -4.102071120000001 8.19740277 -1.0084483800000001 -0.230599 0.34622600000000003 -0.33534
7200 -2.7364602600000003 9.00123417 -1.15829613 -0.291724 0.574166 -0.27517
7220 -1.77066576 9.526491 -1.11472992 -0.031185 0.648788 -0.247808
7240 -1.50766947 8.971745310000001 -0.6405145200000001 0.5922310000000001 0.096604 -0.16263
7260 -1.9935587700000001 8.3381076 -0.45864693000000006 0.8409610000000001 -0.08333099999999999 -0.13609300000000002
7280 -2.0694489300000005 8.295748020000001 -0.28081125 1.050189 0.8195870000000001 -0.208427
7300 -2.32961013 8.73164556 -0.85637376 1.420377 1.875557 -0.333245
7320 -2.2598512200000003 8.939862810000001 -1.35827298 2.263551 2.071223 -0.4451100000000001
7340 -2.12707287 9.11409822 -1.80090018 3.139345 1.204852 -0.329992
7360 -2.09145276 10.655141310000001 -1.51290801 3.4440230000000005 0.410196 -0.071541
7380 -3.49807923 11.34161568 -0.7117743599999999 3.275313 0.022656 0.285632
7400 -4.7600964900000005 10.9260837 -0.97761555 3.107063 0.287823 0.7188829999999999
7420 -3.9246867 10.96200792 -1.8027052200000002 3.152927 0.315347 0.98836
7440 -3.93277014 13.186082070000001 -1.6807080600000002 3.762959 -0.635185 0.8026270000000001
7460 -4.118090850000001 13.91566158 -0.12633318000000002 4.2667730000000015 -1.245516 0.614649
7480 -4.89871179 14.89836852 1.18448883 4.156653 -0.6440779999999999 0.554357
7500 -6.42478482 13.64637708 -1.3708494 3.301867 0.152852 0.204466
7520 -7.09509231 11.794278510000002 -2.2369448700000003 2.700703 0.397131 -0.155765
7540 -5.63697315 9.755211150000001 -1.16368182 2.854077 0.267987 -0.227167
7560 -4.1611959899999995 9.580975740000001 0.46942812 2.833435 0.03866 -0.136218
7580 -5.29988193 11.87091423 0.00074556 2.537394 0.01684 -0.283536
7600 -5.7990932100000006 13.04552439 -1.9014919200000002 2.163565 -0.21035 -0.4204520000000001
7620 -3.63220155 11.94546042 -2.65069143 1.731438 -0.329837 -0.534413
7640 -2.3451687900000002 12.0108735 -2.22512382 1.273584 -0.08765 -0.496261
7660 -2.34157833 12.58193322 -2.02888458 0.71485 0.106614 -0.374362
7680 -3.11501835 10.06102809 -2.4339394800000003 0.116776 0.287342 -0.296518
7700 -4.69843083 6.010596810000001 -2.6925997500000003 -0.532377 0.457754 -0.258542
7720 -5.60584602 2.4656748299999998 -3.0422772 -1.018667 0.363189 -0.164609
7740 -3.79505736 2.20341429 -4.05985869 -1.446968 0.378042 -0.044775
7760 -2.0419024500000003 3.55196556 -3.9134640600000004 -1.816181 0.289186 0.118335
7780 -2.55878154 5.041967220000001 -3.00440079 -1.747846 0.237116 0.29299899999999995
7800 -2.9383893000000003 5.002746840000001 -3.0690683100000005 -1.602437 0.937995 0.451213
7820 -2.4730029000000004 3.39119928 -2.9612956500000003 -1.2822 -0.40448 0.496831
7840 -1.7639361 1.5040692000000002 -3.2694964200000003 -1.687648 -0.157898 0.98827
7860 -1.6691813100000001 1.8449176500000002 -4.81698468 -2.781271 -0.133045 0.782978
7880 -2.93479884 3.58534899 -5.8368126600000005 -2.863626 0.152251 0.637827
7900 -3.6782987400000002 3.21396201 -6.59603799 -2.866665 -0.252789 0.433226
7920 -2.98973484 1.92858714 -6.84062091 -2.3802830000000004 0.032512 -0.205743
7940 -2.33155251 1.4060280600000001 -7.3341522 -2.3561 0.173006 -0.462128
7960 -2.9472183000000003 1.7823396599999999 -7.89413643 -2.575294 0.17110699999999998 -0.596116
7980 -3.3926904000000007 2.04594417 -8.69092425 -2.721054 0.286452 -0.809858
8000 -3.3124642200000003 2.69290386 -9.16559091 -2.892035 0.29740700000000003 -0.737359
8020 -2.90770362 3.75434586 -10.816506 -3.049329 0.29754200000000003 -0.63484
8040 -1.79027595 6.354437310000001 -12.686115420000002 -2.855382 0.113221 -0.529632
8060 -6.690635820000001 13.839918570000002 -14.04424125 -2.367696 -0.204328 -0.395495
8080 -5.67948969 13.070520270000001 -12.39048126 -2.085716 -0.329049 -0.352774
8100 -2.46342834 4.61879325 -5.154684120000001 -2.003361 -0.29414 -0.362925
8120 -4.81653342 0.96159582 -3.8767844700000005 -2.058666 -0.241803 -0.349492
8140 -4.11898356 5.234616 -3.8264886000000002 -2.006946 0.051199 -0.40719
8160 -4.966675470000001 9.94067901 -4.55292891 -1.847353 0.031154 -0.328069
8180 -5.24000169 10.88670636 -5.12115354 -1.45543 -0.2922 -0.257619
8200 -3.81347073 7.717203270000001 -4.32705366 -1.039215 -0.363557 -0.356102
8220 -2.79558513 6.31222488 -3.3608079 -0.796194 -0.16736700000000002 -0.345042
8240 -2.8765666800000007 7.29957195 -2.9792577600000003 -0.714558 -0.153256 -0.215235
8260 -3.1042469700000006 8.09845911 -2.8024717500000005 -0.59311 -0.347891 -0.131884
8280 -3.2275881000000006 7.9752651299999995 -2.7304761600000003 -0.387383 -0.398636 -0.14106400000000002
8300 -2.9226736800000004 6.9988464 -2.3740592400000002 -0.22577 0.07955599999999999 -0.251643
8320 -2.2836502800000003 7.0483967100000005 -2.5442627399999997 0.046514 0.542254 -0.313359
8340 -1.45542141 7.17891876 -2.23545375 0.424059 0.419869 -0.404569
8360 -2.0727352800000003 7.556731290000001 -2.59200801 0.896525 0.494473 -0.290269
8380 -3.27429351 7.4818908 -2.8999242900000004 1.192663 0.47606 -0.204855
8400 -3.83322807 7.79713515 -2.6316796500000006 1.577869 0.7927489999999999 -0.6138359999999999
8420 -3.2856633000000004 8.07720084 -1.86871671 2.462573 1.0073 -0.689116
8440 -3.3403050000000003 8.352184950000002 -2.3504171400000002 3.327772 1.035131 -0.407507
8460 -3.2626196100000002 11.17830861 -2.1225897000000002 3.991826 0.873232 -0.190085
8480 -2.1622515300000003 12.758415120000002 -2.0755801799999998 3.730093 0.309706 0.035272000000000005
8500 -3.0280527000000004 12.20995764 -1.88233299 3.144751 0.263489 0.378415
8520 -3.8535838200000003 10.21026762 -2.58767199 3.278137 0.674718 0.78688
8540 -4.21433676 10.94434011 -2.7610048799999998 3.532284 0.126887 0.902589
8560 -4.891079610000001 12.14320059 -1.9428116400000002 3.702735 -0.220768 0.848678
8580 -6.0879879 12.85331706 -0.75727314 3.68013 -0.378958 0.7344229999999999
8600 -7.04270691 13.255232759999998 -0.6418683000000001 3.4182370000000004 0.004196 0.515253
8620 -6.352789230000001 12.47954625 0.7315317000000001 3.065673 0.08327899999999999 0.225338
8640 -7.0165044000000005 11.39026347 0.16330707 2.918631 0.283317 0.145006
8660 -7.36468092 8.829686700000002 -1.16502579 3.025974 0.353554 0.06982200000000001
8680 -6.94541133 8.724003569999999 -0.8900514900000001 2.879029 0.183499 -0.165996
8700 -6.65740935 10.33121511 -0.43514217000000005 2.567122 -0.064028 -0.332363
8720 -5.719004370000001 10.367737740000003 -2.4768974700000004 2.074711 -0.092649 -0.473567
8740 -5.357358720000001 10.79959356 -1.9760381100000002 1.470675 -0.118295 -0.4627979999999999
8760 -4.56475977 11.11588758 -1.88308836 0.652799 0.05680900000000001 -0.386482
8780 -3.7998446400000003 11.32798959 -2.34008721 -0.167905 0.199473 -0.187299
8800 -3.91270869 8.64407169 -2.76265296 -0.843776 0.196043 -0.075579
8820 -4.46925942 5.6038938300000005 -2.63900772 -1.321157 0.198331 0.032178
8840 -4.58301618 3.47457447 -2.9666813400000005 -1.713515 0.160775 0.17369600000000002
8860 -4.35564 2.9548504799999997 -3.74954877 -1.91992 -0.030883 0.32952800000000004
8880 -4.0778208000000005 4.64034582 -4.159547910000001 -2.054064 0.068618 0.604065
8900 -3.86316819 5.33475648 -3.2233992300000005 -2.705723 0.667244 0.917076
8920 -2.6180535600000003 5.29688988 -3.0047049 -1.6376190000000002 -0.049218 0.407367
8940 -2.55892869 4.01210361 -3.87649017 -1.650514 -0.144419 1.048332
8960 -2.4804879300000002 2.01779928 -4.30160652 -2.408782 -0.420462 0.94084
8980 -2.62644111 1.98007983 -5.56976484 -2.45121 -0.342749 0.7246630000000001
9000 -3.1445072100000004 1.98217917 -6.32884302 -2.60978 -0.303867 0.196873
9020 -3.75119685 1.24122006 -7.078483980000001 -2.109585 -0.030336 -0.440917
9040 -2.9771584200000003 0.4391838900000001 -7.188199020000001 -2.010966 0.060031 -0.214949
9060 -2.80007811 0.9135464400000001 -7.662718530000001 -2.24763 0.13752 0.0589
9080 -3.1611253500000003 1.0115973900000002 -8.387657910000001 -2.303318 0.42484 -0.082863
9100 -4.20235875 1.4129146799999999 -8.65619685 -2.469053 0.403758 -0.261318
9120 -4.42674288 2.8258195500000003 -10.016569170000002 -2.268505 0.100761 -0.320418
9140 -3.1448113200000005 4.476293190000001 -11.33262972 -2.166033 -0.248402 -0.20495500000000005
9160 -2.06540721 5.679636840000001 -8.40906333 -2.045746 -0.21617 -0.111221
9180 -10.5850881 16.00352388 -13.404629250000001 -1.854214 -0.030771 -0.287445
9200 -7.1955369000000005 13.824801359999999 -10.897340400000001 -1.717596 0.038722 -0.468178
9220 -1.3409092800000002 1.94654925 -1.34899272 -1.664363 0.003425 -0.478443
9240 -2.7689411700000006 0.5610339 -3.30677442 -1.6063040000000002 0.086489 -0.255954
9260 -4.304598570000001 5.191658010000001 -3.6000149400000003 -1.516904 0.17617 -0.116575
9280 -5.990545170000001 9.461970630000001 -5.009927760000001 -1.403168 -0.041999 -0.00227
9300 -5.8188505500000005 8.65664811 -5.42755908 -1.074155 -0.252744 -0.06593099999999999
9320 -2.8053166500000004 6.2783901900000005 -5.382511560000001 -0.95834 -0.262167 -0.207184
9340 -1.48476312 6.11883054 -4.796471970000001 -1.053094 -0.264843 -0.254844
9360 -1.69043958 7.150783680000001 -4.21882974 -1.019125 -0.060449 -0.24952800000000006
9380 -2.34293211 7.572456720000001 -3.5200830600000006 -1.036808 -0.180829 -0.233473
9400 -2.63527011 8.46849231 -3.36769452 -0.859661 -0.220662 -0.282391
9420 -2.89677528 8.738375220000002 -2.74005072 -0.6189140000000001 -0.258964 -0.236864
9440 -3.2994365400000003 7.94548197 -2.40280254 -0.567446 -0.201618 -0.236578
9460 -3.9851653500000004 7.44881148 -2.6174551500000005 -0.5859880000000001 -0.080009 -0.2625
9480 -4.56521103 7.1301238200000014 -2.9353972500000003 -0.47519 0.253572 -0.129694
9500 -5.12713764 7.743700080000001 -3.3010846200000006 -0.176663 0.40397 -0.170531
9520 -3.3961337100000004 9.68650191 -1.7486619300000001 0.318778 0.359109 -0.303745
9540 -2.68690995 10.375075620000002 -0.90142128 0.805966 0.928633 -0.359824
9560 -2.6840650500000005 9.16798455 -0.97791966 1.045605 1.194697 -0.237782
9580 -4.1576055300000005 7.685615070000001 -1.9869664500000002 1.467329 1.042732 -0.695045
9600 -4.53317157 7.57918638 -2.45938662 2.441185 1.068759 -0.8549190000000001
9620 -3.69985131 8.66982294 -2.0082247200000003 3.17972 1.587258 -0.623961
9640 -3.2744406600000002 10.142608050000002 -1.11173787 3.209655 1.283981 -0.465267
9660 -3.54986622 11.21407587 -0.9413970300000001 2.827142 0.177661 -0.259286
9680 -4.36192821 10.28287143 -2.0718425700000003 2.9377310000000003 0.007406999999999999 0.129469
9700 -4.42135719 9.36751995 -2.6030835 3.228786 0.438992 0.372367
9720 -4.356836820000001 11.41750584 -2.3781009600000003 3.579045 0.471062 0.573462
9740 -4.12048449 11.884834620000001 -2.135911680000001 3.754188 0.007168000000000002 0.546438
9760 -4.3107396300000005 10.91874582 -1.77994602 3.540142 0.135587 0.585371
9780 -5.601048929999999 11.81463426 -1.2868758 3.236908 0.459816 0.485629
9800 -6.283481580000001 13.142819970000003 -1.1723636700000002 3.0491330000000003 0.5346270000000001 0.321852
9820 -7.24957038 14.29931106 0.20207619000000002 2.847904 0.539938 0.233913
9840 -8.936115390000001 11.700122130000002 -0.7999368299999999 2.734521 0.5017659999999999 0.021662
9860 -7.71241599 7.52320071 -1.9802367900000002 2.511288 0.221149 -0.204932
9880 -6.93986868 7.7824692 -1.43985294 2.1958900000000003 0.214114 -0.303266
9900 -6.582559050000001 10.66442157 -2.48093919 1.714318 0.040359 -0.389729
9920 -6.04098819 11.554325910000003 -2.9678781600000006 1.120867 -0.280249 -0.418032
9940 -4.99406499 11.00945889 -1.9315791900000001 0.333781 -0.08734700000000001 -0.290249
9960 -4.05282492 11.39669883 -1.7438746500000002 -0.572936 0.179053 -0.057642999999999986
9980 -4.85336016 11.132201610000001 -3.2238504900000002 -1.116463 0.15823099999999998 0.026182
10000 -4.97400354 7.2792162000000005 -4.271067990000001 -1.426359 -0.060656 0.154621
10020 -5.95955538 4.61130822 -3.9926503800000006 -1.549033 -0.244611 0.44242
10040 -6.12855225 3.47696811 -3.3892569000000003 -2.221549 -0.315602 0.929195
10060 -4.8036627 3.4429862700000005 -3.2275881000000006 -2.856335 0.258167 0.784089
10080 -3.72395448 3.9648096000000006 -3.39942987 -1.74662 -0.453023 0.5182180000000001
10100 -2.64215673 3.47951871 -3.57875667 -2.337818 -0.067965 1.172688
10120 -1.75495014 3.2088804300000007 -4.19427531 -2.396874 -0.002533 0.845316
10140 -2.32421463 3.36096486 -3.54313656 -2.807103 -0.270136 0.457165
10160 -2.50100064 2.2829047200000003 -3.3922489500000004 -2.723422 -0.252302 -0.344508
10180 -2.68272108 1.3840242299999999 -4.285292490000001 -2.2508790000000003 0.135991 -0.886498
10200 -3.4112607300000004 1.6962765300000002 -5.82618843 -2.406888 0.199024 -0.530882
10220 -4.29995844 1.6079571000000001 -6.75724572 -2.543636 0.505854 -0.420067
10240 -4.09638132 1.15290063 -6.9847788600000005 -2.756955 0.458901 -0.481317
10260 -3.9281300100000003 0.8214894 -7.801176870000001 -2.863898 0.217246 -0.429412
10280 -3.93561504 1.555866 -8.75573892 -2.73806 0.051461 -0.105717
10300 -3.4473321 2.8306166400000006 -11.3257431 -2.398292 0.135715 0.108056
10320 -1.91062503 3.37862286 -8.98296795 -2.147088 -0.103341 -0.000978
10340 -7.274124810000001 10.402170840000002 -9.977947200000001 -1.905363 -0.303107 -0.336592
10360 -14.849416620000001 20.60136297 -11.775266730000002 -1.61851 -0.166406 -0.405266
10380 -3.47337765 7.52380893 -1.54149435 -1.41365 -0.098028 -0.100548
10400 -2.9256657300000004 -0.5613282000000002 -3.1901629500000004 -1.262285 -0.029708 -0.001301
10420 -4.58301618 3.76451883 -3.56184423 -1.109798 -0.300753 -0.016981
10440 -6.18888375 8.955872730000001 -4.66968753 -1.0698450000000002 -0.211341 -0.033908
10460 -7.40061495 10.290650759999998 -5.12967843 -0.978548 -0.140025 -0.098523
10480 -4.57239195 7.2211311899999995 -4.32406161 -0.803932 -0.22795 -0.106804
10500 -1.98007983 5.648656860000001 -4.13515044 -0.557408 -0.441894 -0.098399
10520 -1.68998832 7.331905710000001 -3.90851982 -0.380495 -0.479814 -0.092842
10540 -2.0881566 9.091044720000001 -3.54807099 -0.470014 -0.180319 -0.053258000000000014
10560 -2.94841512 8.96530995 -2.7834599700000004 -0.509315 -0.153503 -0.065318
10580 -2.9764128600000004 7.222180860000001 -2.13246837 -0.448667 -0.256778 -0.13205999999999998
10600 -2.74260132 6.09712101 -2.19788145 -0.467338 -0.176662 -0.170749
10620 -3.522771 6.207287310000001 -2.27946141 -0.41051 0.01957 -0.275289
10640 -4.933586340000001 7.776033840000001 -2.38768533 -0.222447 0.23445 -0.361845
10660 -4.89722067 7.88679855 -2.3667311700000004 0.169276 -0.007493 -0.403664
10680 -3.61183599 7.66136475 -1.7148370499999999 0.582549 0.313963 -0.16511199999999998
10700 -3.66961689 7.75836603 -1.8495577800000003 0.789676 0.630509 -0.118138
10720 -3.21247089 8.768462490000001 -1.41575958 1.153931 0.752501 -0.570812
10740 -3.1651670700000003 9.45478971 -0.70173873 1.955854 0.732294 -0.741441
10760 -3.80928186 9.728272890000001 -0.41045040000000005 2.749177 1.156511 -0.689442
10780 -4.4399177100000005 8.39978307 -1.41830037 3.313492 1.483292 -0.581233
10800 -4.33363617 9.26528013 -2.19398688 3.265891 1.260168 -0.419978
10820 -3.60285984 10.887010470000002 -1.8088364700000001 3.07099 0.347108 -0.22148
10840 -4.08365775 10.053395909999999 -1.2293892 3.100185 -0.136028 0.160698
10860 -5.27308101 9.64818405 -2.06046297 3.282426 0.61838 0.486812
10880 -5.50585269 10.640475359999998 -3.4895445300000003 3.4612830000000003 0.4382180000000001 0.630366
10900 -4.5414021600000005 11.980187820000001 -1.8347348700000001 3.864926 -0.117549 0.470459
10920 -5.19046119 12.29303853 -0.24144372 4.0968480000000005 -0.006587000000000001 0.492233
10940 -6.8972049900000005 12.960795420000002 -0.38560167000000006 3.956585 0.218169 0.352097
10960 -7.94622753 13.010345730000001 0.44607051 3.536325 0.343741 0.216541
10980 -8.776850040000001 12.215500290000001 0.6352759800000002 3.097669 0.416095 0.08519700000000001
11000 -8.36699805 9.05736699 -0.9554645700000001 2.898998 0.174671 -0.107093
11020 -6.584059980000001 7.56212679 -0.59381892 2.810137 -0.108584 -0.323131
11040 -4.94003151 9.34087599 -0.12738285000000002 2.500404 -0.000755 -0.379912
11060 -5.47756065 10.45531161 -1.7744131800000003 2.005145 -0.148836 -0.481458
11080 -6.2128299600000005 9.85745097 -2.3297572800000004 1.505462 -0.07964299999999999 -0.5683590000000001
11100 -6.25818159 9.74877579 -2.30490855 1.015197 -0.038125 -0.403057
11120 -5.448817350000001 10.28226321 -2.31313914 0.514517 0.025938 -0.272041
11140 -4.83300441 11.152557360000001 -2.12273685 0.009268 0.068526 -0.095095
11160 -4.554881100000001 10.333461600000001 -2.4101404200000003 -0.47905 0.069553 0.07134
11180 -5.1856641 6.44080455 -2.58691662 -0.994493 0.131699 0.161664
11200 -5.811218370000001 3.71467422 -2.4691181400000004 -1.432815 0.206581 0.196962
11220 -5.66602056 3.1753498500000004 -3.5235263700000004 -1.759481 0.254223 0.287555
11240 -4.3180677 3.20034573 -3.98681343 -1.7936419999999995 0.065573 0.340969
11260 -2.7710405100000006 3.58265124 -3.69312165 -1.26064 0.225552 0.364783
11280 -2.4798895200000004 3.8805318900000003 -3.9601694700000003 -0.8651549999999999 -0.329742 0.359711
11300 -2.80651347 3.6844398000000003 -4.2110406 -0.857547 -0.109798 1.027121
11320 -3.7142229600000003 1.95149349 -3.93965676 -2.444902 0.0039840000000000006 0.8556540000000001
11340 -3.55854807 1.80524601 -5.091360570000001 -2.528441 0.028281 0.712966
11360 -3.07490526 1.46395611 -6.013745820000001 -3.086599 0.07473400000000001 1.034816
11380 -3.7550914200000003 1.7312982300000002 -6.243221340000001 -2.584074 0.067485 0.548021
11400 -4.27061673 1.36186344 -6.246213389999999 -2.528303 0.030308 0.206627
11420 -4.02303195 1.05949962 -6.280636680000001 -2.7289 0.123184 0.06517
11440 -3.8471484600000005 0.9334607400000001 -6.61594248 -2.979833 0.222319 -0.265722
11460 -4.19262723 0.8958884400000001 -7.237749330000001 -3.176374 0.189794 -0.4860390000000001
11480 -4.4595279 0.8196941700000001 -8.279728290000001 -3.32127 0.347504 -0.372953
11500 -4.53855726 1.2543948900000002 -8.848845630000001 -3.3500589999999995 0.283008 -0.203224
11520 -5.07624336 1.4555685600000001 -9.211246650000001 -3.133746 0.22059 0.033376
11540 -5.708380139999999 3.12101226 -12.250227690000001 -2.817344 0.195735 0.113598
11560 -9.41497092 9.56331774 -14.37416136 -2.503271 -0.049975 0.015693000000000002
11580 -9.229954320000001 13.10689575 -15.136074630000001 -2.502993 -0.171743 -0.168951
11600 -3.2853689999999998 6.7123453500000005 -6.449937660000001 -2.376742 -0.067992 -0.382915
11620 -6.0529662 -1.7458170300000002 -3.43520694 -2.117348 -0.174759 -0.281621
11640 -5.27682843 3.1533460200000003 -4.58092665 -1.737897 -0.222975 -0.008648999999999999
11660 -5.08013793 8.42059008 -4.913681850000001 -1.572318 -0.141664 0.026587
11680 -7.16350725 10.06956279 -5.52755241 -1.497549 -0.028428 -0.117246
11700 -5.954463990000001 6.56055522 -5.019659280000001 -1.22104 -0.091822 -0.220988
11720 -4.1532597 4.21658325 -4.5438056100000015 -0.859289 -0.184149 -0.090156
11740 -3.4244257500000006 5.257071090000001 -4.23619344 -0.706793 0.085707 -0.041366
11760 -3.51977895 7.981553340000001 -3.58953786 -0.637025 0.14419500000000002 -0.076205
11780 -4.53257316 8.72325801 -3.84939495 -0.4859 0.121057 -0.0153
11800 -4.81099077 7.40779587 -3.5494149600000005 -0.376514 0.146643 -0.114981
11820 -3.98621502 7.0364187 -2.57074974 -0.303733 0.449827 -0.339188
11840 -2.8894374000000003 6.8434658100000005 -2.16000504 -0.156422 0.574476 -0.46971
11860 -2.81249757 6.06973149 -2.12842665 0.276618 0.516636 -0.499726
11880 -3.0199692600000003 6.37883478 -1.9224558900000002 0.811236 0.734502 -0.301854
11900 -4.66175124 7.38833283 -2.0749817700000004 0.962742 1.161458 -0.112268
11920 -4.86907578 7.74669213 -1.7215667100000003 1.367941 1.325045 -0.61278
11940 -3.7419165899999998 7.7423463 -0.89199387 2.275543 1.589824 -0.747785
11960 -3.3400008900000002 8.13139128 -1.37189907 3.318939 1.755942 -0.570862
11980 -3.41530245 9.02128581 -0.80682345 3.619867 1.101813 -0.28698
12000 -3.5833968 9.79443153 -0.5634275400000002 3.187707 0.601614 -0.298971
12020 -3.7145270700000004 10.60783749 -1.09975986 3.201864 0.247665 -0.241803
12040 -4.336785180000001 10.26984375 -1.12670793 3.4790370000000004 0.768303 -0.14546199999999998
12060 -5.81435757 10.947037859999998 -1.6512192 3.78444 1.016931 0.283641
12080 -5.69730465 11.299854510000001 -2.3105983500000002 3.889132 0.5277850000000001 0.239066
12100 -5.07160323 11.697875640000001 -2.23859295 3.901675 0.8402879999999999 0.13406700000000002
12120 -5.475912570000001 11.924947710000001 -1.4295230100000003 3.797961 1.240118 -0.129952
12140 -6.999896070000001 11.52364023 -1.08045378 3.483393 0.999557 -0.17136600000000002
12160 -7.50509145 11.26991439 -1.23418629 3.3082620000000005 0.654243 -0.244786
12180 -7.415879310000001 11.487559050000002 -0.27317907 3.233796 0.158254 -0.5533859999999999
12200 -8.29844577 9.81628821 -0.36599148000000004 2.876114 -0.186636 -0.840658
12220 -7.82856639 7.553444939999999 -1.12192065 2.221209 -0.18952 -0.883685
12240 -7.636074570000001 9.882446850000001 -0.61836354 1.57382 -0.12236099999999997 -0.866928
12260 -6.842867399999999 11.574681660000001 -1.55541474 1.053146 -0.201109 -0.702754
12280 -5.690270880000001 10.66547124 -2.34906336 0.475029 -0.140515 -0.436609
12300 -5.50719666 10.96349904 -1.81691991 -0.058582 -0.120664 -0.143396
12320 -6.034405680000001 12.016563300000001 -2.5134201000000003 -0.520439 -0.13689400000000002 0.053156
12340 -7.187306310000001 12.185413020000002 -3.34090341 -0.970187 -0.11782 0.201677
12360 -7.216039800000001 8.382713670000001 -3.6275516100000003 -1.305635 0.07488 0.254635
12380 -6.396345629999999 4.52658906 -2.6917070400000003 -1.175823 0.007275 0.26524200000000003
12400 -5.516182620000001 3.02835681 -1.69896447 -0.757342 -0.201793 0.23745500000000005
12420 -5.0786370000000005 3.0368817000000004 -2.92028004 -0.452776 0.30571 0.398097
12440 -4.20640047 2.7647523000000005 -2.78914977 -0.79384 -1.1351129999999998 0.303557
12460 -1.9396626300000002 3.0867263100000004 -2.69140293 -1.481535 0.122624 0.987214
12480 -0.48918546 3.4705327500000003 -2.60324046 -2.447669 -0.287286 0.704321
12500 -0.94154418 2.3912757900000003 -2.8812068100000006 -2.5048790000000003 0.141807 0.8069890000000001
12520 -2.27437002 0.24040386000000002 -3.9562749 -2.594692 0.276693 0.98565
12540 -2.79333864 -0.032932170000000004 -4.77881397 -2.331631 0.161733 0.735534
12560 -2.98988199 0.659232 -5.038072649999999 -2.804855 0.202948 0.429869
12580 -2.96443485 1.04228307 -5.33116602 -2.988471 0.087619 -0.139559
12600 -3.6797996700000004 0.76535658 -5.706732060000001 -2.817872 -0.17948599999999998 -0.6229979999999999
12620 -4.03336188 0.05792805 -6.37165386 -2.803266 -0.29335900000000004 -0.663343
12640 -4.81144203 0.41194152000000006 -7.66884978 -2.883878 -0.147301 -0.622432
12660 -4.59769194 1.5944879699999999 -9.48413142 -3.0141150000000003 0.110798 -0.585217
12680 -5.34238866 2.2372489800000004 -11.144326770000001 -3.168534 0.260233 -0.25961100000000004
12700 -6.483919500000001 2.46058344 -12.51652014 -3.085915 0.324243 0.177787
12720 -6.881940630000001 2.7503806500000003 -12.582531629999998 -2.902803 0.458004 0.401085
12740 -14.478637860000001 10.92233628 -14.93983539 -2.640577 0.334982 0.5686479999999999
12760 -4.05536571 6.79721166 -9.425752110000001 -2.384655 -0.154928 0.583882
12780 -3.5122939200000003 -0.9128008800000001 -6.7620428100000005 -2.156121 0.232583 0.44825
12800 -6.1111885500000005 3.59821971 -6.20938665 -2.32249 0.14515699999999998 0.34465
12820 -5.60075463 7.52739939 -3.62651175 -2.377657 -0.169383 0.197253
12840 -6.99210693 5.645213550000001 -5.174588610000001 -2.134394 0.215771 0.105524
12860 -5.801634000000001 3.89459943 -5.280271740000001 -1.892665 0.746822 0.026415
12880 -4.58841168 4.79422548 -4.62134385 -1.811118 0.720427 -0.103305
12900 -5.02145451 6.2526487500000005 -4.072582260000001 -1.7710709999999998 0.602075 -0.111419
12920 -5.749542900000001 7.247775150000001 -3.88067904 -1.738071 0.700569 0.004053
12940 -5.93231301 7.28819235 -4.42375083 -1.7863330000000002 0.679291 0.038995
12960 -6.105498750000001 7.238200590000001 -4.561914870000001 -1.927595 0.540404 -0.004543
12980 -6.27630066 7.281756990000001 -4.12721415 -1.838739 0.520208 -0.092559
13000 -6.074214660000001 7.015013280000001 -3.4983735300000003 -1.7079830000000005 0.587129 -0.157961
13020 -4.71639294 7.8023736900000005 -2.1754263600000003 -1.793866 0.561379 -0.303806
13040 -4.131412830000001 7.915993110000001 -2.03651676 -1.642477 0.513011 -0.327256
13060 -3.6564420600000003 6.843917070000001 -1.8136237500000003 -1.193824 0.456998 -0.029221
13080 -3.7363837500000003 5.84714259 -1.2717585900000001 -0.812924 0.922427 0.19717
13100 -3.9966921 6.34664817 -1.40916726 -0.770494 1.409904 0.265208
13120 -4.57373592 6.81892119 -0.94752828 -0.7030420000000001 1.608289 0.411771
13140 -5.388495659999999 7.213803120000001 -0.11420802000000001 -0.467011 1.552519 0.30132800000000004
13160 -5.72439987 7.329207960000001 -0.5300441100000001 -0.078408 1.826089 0.282328
13180 -5.2358128200000005 6.695423100000001 -0.9365999400000001 0.429624 2.886125 0.35288400000000003
13200 -4.3496559 7.5357771300000005 -0.59471163 0.780949 3.804753 0.490893
13220 -3.65136048 8.88821316 0.11256975000000001 1.473907 3.291758 0.572235
13240 -2.9963173500000004 9.09164313 0.0230535 2.166432 3.152476 0.171326
13260 -3.5420868899999998 8.85123927 0.51867432 2.081049 3.719102 0.270417
13280 -4.647683700000001 7.50554271 0.70773264 1.66947 3.791615 -0.18975
13300 -5.83771518 5.964646770000001 0.19728891 1.259442 3.296293 -0.374646
13320 -5.676644790000001 6.237227430000001 -0.25012557 1.479441 1.60737 -0.449993
13340 -5.69984544 8.134089029999998 -0.05613282 2.678769 1.527052 -0.31866700000000003
13360 -5.23506726 9.28534158 -0.92358207 3.216969 1.7759060000000002 -0.413503
13380 -2.9493176400000003 9.10616193 -2.63945898 2.92881 1.53491 -0.635261
13400 -2.81669625 10.85257737 -3.5735181300000005 2.363035 1.40279 -0.937077
13420 -4.31732214 11.041341390000001 -3.54672702 1.691084 1.163383 -1.223475
13440 -5.53010301 9.82032993 -1.8684126 1.273361 0.886343 -1.376657
13460 -8.38182096 8.30952126 -1.19302353 0.986488 0.690208 -1.3634540000000002
13480 -8.266857569999999 8.75319813 -0.12529332 0.517328 0.355959 -1.285118
13500 -5.77963017 11.953838160000002 3.6943184700000002 -0.139202 0.141552 -1.177266
13520 -8.16222411 11.239081559999999 5.14300041 -0.8942399999999999 0.121225 -1.034031
13540 -12.0774834 7.5576338100000005 2.43558756 -1.723868 0.181877 -0.8305319999999999
13560 -13.022618040000001 7.912991250000001 0.5601313800000001 -2.372921 0.3980010000000001 -0.769113
13580 -10.495728810000001 11.256886710000002 -1.5639494400000002 -2.84166 0.627302 -0.695769
13600 -7.21844325 12.397515030000001 -0.7396151400000001 -3.141729 0.917645 -0.582869
13620 -6.27809589 11.58606126 -0.5063922000000001 -2.959592 0.551976 -0.404872
13640 -7.697288970000001 10.353218940000001 2.76564501 -2.682726 -0.869375 -0.04433
13660 -7.3546551000000004 8.11612692 2.5761452400000002 -2.190659 -0.119904 0.182473
13680 -6.66264789 5.81825214 -0.90306936 -1.2424879999999998 1.0177459999999998 0.441875
13700 -6.02482131 3.85792965 -2.11450626 -0.8847360000000001 0.577882 0.640422
13720 -5.2456914900000005 3.9974376600000006 -3.30797124 -1.674566 0.430836 0.801736
13740 -4.139790570000001 5.05782999 -3.36156327 -2.857934 -0.210204 0.4321640000000001
13760 -3.3386569200000005 5.954768100000001 -2.2269190500000002 -1.836808 -0.306175 -0.16198900000000002
13780 -3.3573645900000004 5.742509129999999 -2.4691181400000004 0.258259 2.479547 -0.385933
13800 -3.02895522 4.58691075 -3.12445557 -2.490418 1.2605540000000002 -0.587305
13820 -2.74050198 3.38476392 -3.86706276 -2.952495 0.359688 -0.276389
13840 -3.1407696 2.75172462 -4.61610531 -2.263394 1.49968 0.420239
13860 -3.86047044 3.2927068800000003 -5.20752078 -2.618906 1.508239 0.7189840000000001
13880 -4.585861080000002 3.5266655700000005 -5.86121013 -2.762796 1.57878 0.519199
13900 -4.291875 3.48879897 -7.15826871 -2.908457 1.32085 0.146771
13920 -5.03343252 3.6860878800000005 -6.92804763 -2.588416 1.273984 -0.131876
13940 -7.341333120000001 3.4914869100000003 -6.89870592 -2.1182990000000004 1.646327 -0.147229
13960 -6.597234810000001 8.7801462 -7.5956573700000005 -1.811311 1.737322 0.007554000000000002
13980 -4.810696470000001 12.49826373 -5.236411230000001 -1.614666 1.687183 0.121155
14000 -6.005063970000001 9.719434080000001 -6.50472651 -1.583062 1.55621 0.07988300000000001
14020 -5.3012258999999995 6.46295553 -6.15759966 -1.337142 1.156054 0.03618
14040 -5.42741193 5.2615542600000005 -2.06615277 -1.0733700000000002 0.983587 0.04679
14060 -9.82497006 8.65110546 0.8405011800000001 -1.026001 1.053829 0.022461
14080 -14.23105308 9.37201293 1.2778898400000003 -1.06758 1.04339 0.005093
14100 -7.96987944 4.58212347 -1.3796784000000002 -0.97608 1.356686 -0.100424
14120 -5.02984206 3.48325632 -2.21868846 -0.987259 1.444224 -0.136933
14140 -3.6187226100000003 10.902578940000001 1.90897695 -1.003809 1.315412 -0.144361
14160 -3.3771317400000003 14.67952704 0.77478399 -0.953673 1.062821 -0.157574
14180 -4.26358296 11.07801117 -0.29788065 -0.969093 0.558685 -0.079056
14200 -6.48901089 6.626419560000001 -0.034727400000000005 -0.991025 0.438338 -0.067304
14220 -6.48901089 5.463189 0.17318574 -1.002424 0.4683850000000001 -0.112288
14240 -6.79840848 6.05476143 1.67576382 -1.096771 0.568988 -0.147259
14260 -6.701711310000001 8.23631904 2.5018933500000005 -0.973998 0.7786029999999999 -0.192604
14280 -4.54096071 9.20945142 1.15454871 -0.7312069999999999 0.8440850000000001 -0.261494
14300 -2.41402518 10.198289610000002 0.76401261 -0.36062 0.811413 -0.138155
14320 -2.0251371600000003 10.865457900000001 0.29922462000000005 -0.056818 0.931079 0.042207
14340 -3.3620047200000003 10.21400523 0.7463448 -0.053591 1.115597 -0.016759
14360 -4.11913071 9.659857950000001 0.47226321000000004 0.178373 1.584998 -0.121494
14380 -4.45938075 9.067245660000001 -0.07244685 0.650139 1.774412 -0.212445
14400 -4.8499168500000005 8.36415315 -0.08457201 1.323856 2.226419 -0.346119
14420 -4.804712370000001 8.120011680000001 0.10673280000000002 1.86049 2.467406 -0.337338
14440 -4.2251179500000005 8.394838830000001 -0.11256975000000001 2.233817 2.2921400000000003 -0.254389
14460 -3.59851401 8.810233470000002 0.32467176000000003 2.465526 2.169601 -0.181043
14480 -3.63818565 9.24522849 0.12393954 2.532705 2.083395 -0.259512
14500 -3.7046484 8.927433540000001 -0.8608569300000001 2.536088 1.176825 -0.257258
14520 -3.44852892 8.55650763 -1.33762293 2.750186 0.489629 -0.153401
14540 -4.33334187 8.797804200000002 -1.8958119300000003 3.4111580000000004 1.18258 -0.057805
14560 -5.68487538 9.0380511 -2.15402094 3.614693 1.544304 -0.116667
14580 -6.70904919 9.218584530000001 -1.9097323200000003 3.452511 1.261566 -0.39838
14600 -7.2411926399999995 10.34723484 -1.5126039000000002 3.26681 1.157115 -0.490342
14620 -7.454501280000001 12.11864616 0.00958437 3.19861 0.845598 -0.5833550000000001
14640 -7.466773590000001 12.648395970000003 1.1713140000000002 3.354597 0.940745 -0.536454
14660 -8.225547660000002 8.56054935 -0.8587674 3.41612 0.966738 -0.430303
14680 -7.76150523 9.24028425 0.8069706000000001 3.204316 0.736736 -0.537242
14700 -7.60658571 10.16805519 2.0736378 2.789009 0.433414 -0.780104
14720 -7.302868110000001 10.63253907 2.30295636 2.19318 0.37869 -0.963657
14740 -7.2018251100000015 10.87892703 1.70840169 1.58351 0.117362 -0.884259
14760 -6.455774610000001 9.736954740000002 1.0873404 1.068813 0.076302 -0.825845
14780 -6.2698653 9.031017330000001 0.92642697 0.6432720000000001 -0.05991000000000001 -0.759209
14800 -7.445221020000001 9.42948972 0.10882233000000001 0.140084 -0.101212 -0.650507
14820 -8.43092001 9.21978135 -1.40677362 -0.509019 -0.009161 -0.463947
14840 -7.451057970000001 8.33990283 -1.2310372800000002 -0.974105 -0.071029 -0.306884
14860 -5.609132370000001 8.45127576 -0.17528508000000004 -1.146189 -0.243546 -0.1722
14880 -4.568046120000002 8.491545810000002 -1.96675785 -1.254141 -0.389656 -0.037103
14900 -5.45360463 6.378540480000001 -3.0469173300000003 -1.315978 -0.419002 0.16226
14920 -5.979165570000001 4.56775182 -2.67389208 -0.846316 -0.445782 0.32474000000000003
14940 -5.5342918800000005 4.46506074 -2.5825806 -0.189215 0.02165 0.343686
14960 -5.4943259399999995 6.09068565 -2.93659407 -0.55399 -0.799895 0.447945
14980 -4.945564350000001 5.86914642 -4.448148300000001 -1.010274 -0.231537 0.701471
15000 -4.02707367 4.71594168 -5.33640456 -2.247032 -0.345221 0.633157
15020 -3.09810591 2.98629153 -5.276681280000001 -2.42223 -0.077553 0.7138439999999999
15040 -3.55390794 1.97619507 -4.67867349 -2.26116 -0.29235300000000003 0.7440859999999999
15060 -3.5072025300000003 2.18410821 -5.27113863 -1.92943 -0.308533 0.507142
15080 -3.9609150300000002 1.07327286 -5.4705268799999995 -2.129257 -0.280647 0.366842
15100 -4.388719320000002 1.68998832 -5.84429769 -2.344776 -0.263037 0.146328
15120 -4.25595078 1.5037749000000002 -6.09233373 -2.515448 -0.202049 -0.038676
15140 -3.91511214 1.12760064 -5.9719846500000004 -2.718653 -0.052294000000000014 -0.016786000000000002
15160 -4.0639004100000005 1.13763627 -6.55995681 -2.87686 0.0318 0.135825
15180 -4.416717060000001 1.38058092 -7.41018951 -2.894706 -0.077053 0.199933
15200 -4.46311836 1.52667144 -7.894430730000001 -2.8393040000000003 -0.311685 0.219848
15220 -4.5494856000000015 2.07722826 -8.60245767 -2.64969 -0.35080100000000003 0.24686
15240 -5.157224909999999 2.8599485400000004 -9.7203366 -2.349791 -0.4631560000000001 0.112367
15260 -5.5673712 4.145931630000001 -12.763957770000001 -2.294846 -0.572045 0.122504
15280 -10.08932013 8.42642703 -10.897634700000001 -2.063524 -0.672754 0.065497
15300 -8.59273596 8.22569481 -13.361965560000002 -1.810673 -0.6906100000000001 0.049126
15320 -4.36551867 2.88824058 -4.36716675 -1.55483 -0.41169 0.139218
15340 -5.256168570000001 0.47361699000000007 -4.366568340000001 -1.289879 -0.323162 0.14843299999999998
15360 -7.23490443 4.7762633700000015 -5.705682390000001 -1.272023 -0.678802 0.092398
15380 -7.3565974800000005 8.458456680000001 -5.87558178 -1.299411 -0.609429 0.08357200000000001
15400 -6.14786814 6.7020154199999995 -5.6199135600000005 -1.04885 -0.481106 0.010382
15420 -5.0331382200000006 4.50279 -5.162767560000001 -0.750979 -0.429965 0.016669999999999997
15440 -4.92401178 4.452337170000001 -5.14824876 -0.714076 -0.430483 0.114136
15460 -5.065020720000001 6.14412072 -5.33221569 -0.718283 -0.265008 0.028437
15480 -5.11291314 7.2302643 -5.08956534 -0.578997 -0.253293 -0.091314
15500 -4.67283654 7.100330850000001 -4.32420876 -0.386008 -0.088661 -0.137179
15520 -4.50279 6.565499460000001 -3.9510363600000002 -0.258237 0.411134 -0.292887
15540 -3.85164144 6.674773050000001 -3.3632015400000004 -0.050081 0.524991 -0.44113
15560 -3.74401593 6.38467173 -2.62658826 0.319679 0.495719 -0.368007
15580 -3.66064074 6.07077135 -1.9431059400000001 0.7147180000000001 0.588083 -0.099379
15600 -4.6092186900000005 6.0376920300000005 -2.25116937 1.206642 0.6711159999999999 -0.510519
15620 -4.874608620000002 6.609055860000001 -2.1724343100000003 2.072578 1.298633 -0.745625
15640 -5.61168297 7.369478010000001 -1.87934094 2.932754 1.703198 -0.6322439999999999
15660 -4.95963189 7.068752460000001 -1.8401205600000001 3.37414 1.558266 -0.468742
15680 -4.531376340000001 6.943763250000001 -2.0657015100000002 3.442929 0.92974 -0.259153
15700 -4.295171160000001 7.92317403 -2.30580126 3.162762 0.559959 -0.249954
15720 -4.613554710000001 9.55103562 -1.32040638 3.247329 0.704324 0.070918
15740 -4.890177090000001 10.56083778 -1.11623085 3.438693 1.252437 0.296948
15760 -5.11785738 10.01507805 -1.40452713 3.557885 0.633409 0.219525
15780 -5.305718880000001 8.89465833 -1.8946053 3.850145 0.323691 0.163211
15800 -5.37726321 9.40329702 -2.3444232300000003 3.947965 0.956036 -0.080471
15820 -5.600901780000001 11.18429271 -2.50025508 3.462708 1.077664 -0.238908
15840 -5.87782827 11.151811799999999 -1.61199882 3.256017 0.7816649999999999 -0.362818
15860 -6.993156600000001 10.965451230000001 -0.83990277 3.01118 0.706612 -0.562053
15880 -8.33451714 11.13145605 -0.31344912 2.665225 0.387137 -0.8215020000000001
15900 -9.202260690000001 11.908937790000001 0.49891698 2.332898 0.19366 -0.900487
15920 -9.0810189 11.502077850000001 1.23822801 1.843508 0.034474 -0.8940879999999999
15940 -8.068067730000001 8.21027349 -0.71341263 1.28459 -0.093862 -0.816642
15960 -6.988967730000001 7.5017952900000004 -1.0837499400000001 0.667143 -0.031941000000000004 -0.581753
15980 -7.4501554500000005 9.42994098 -1.6554080700000002 -0.110573 -0.009993 -0.335113
16000 -8.09831196 9.680969070000002 -2.03651676 -0.845672 -0.012647 -0.099894
16020 -6.90783903 9.3676671 -1.6414876800000002 -1.411852 -0.059077 0.013715
16040 -5.983511399999999 10.32717339 -1.37130066 -1.803699 -0.13851 0.237543
16060 -6.281087940000001 11.44759311 -1.83548043 -1.598013 -0.222073 0.443117
16080 -6.965315820000001 10.125695610000001 -2.11345659 -1.717163 -0.502193 0.8004979999999999
16100 -7.7945943600000005 5.70223908 -2.7364602600000003 -2.686775 0.108128 1.128365
16120 -7.61077458 2.49995097 -1.6985132100000002 -1.167576 -0.195444 0.603118
16140 -6.8226588 3.59102898 -2.75771853 -1.580588 0.000151 1.064659
16160 -5.5639278899999995 4.42689003 -4.25954124 -2.212786 0.034592000000000005 0.991833
16180 -3.9630045600000003 4.252654620000001 -4.13739693 -2.594138 -0.152412 0.668942
16200 -3.16292058 3.3563247300000003 -3.3910521300000003 -2.69287 -0.43609 0.035160000000000004
16220 -3.10109796 2.74289562 -4.0679421300000005 -2.406316 -0.263691 -0.169226
16240 -2.77178607 1.73249505 -4.23648774 -2.393511 -0.221184 0.111751
16260 -3.11876577 1.70914725 -4.6562184 -2.587752 -0.14311600000000002 0.204298
16280 -3.74521275 1.78099569 -5.08956534 -2.944938 0.062987 0.121422
16300 -4.11883641 0.8051753700000001 -5.3349036299999995 -3.110033 0.036217 0.032708999999999995
16320 -4.38917058 -0.21465261000000002 -5.88127158 -3.109184 -0.287477 -0.005326
16340 -4.0430934 -0.40340682000000005 -6.565195350000001 -2.814514 -0.549103 0.16371
16360 -4.287234870000002 -0.11420802000000001 -7.806719520000001 -2.292212 -0.558766 0.262443
16380 -4.62732795 0.7906565700000001 -8.59961277 -1.833317 -0.691806 0.101312
16400 -5.14824876 1.65301443 -10.19155995 -1.6921990000000002 -0.721746 0.0072650000000000015
16420 -4.95125415 2.13306678 -10.20966921 -1.794196 -0.698732 -0.06504800000000001
16440 -3.412899 2.61551277 -4.0758784200000004 -1.7702650000000002 -0.108705 -0.05175
16460 -13.882582260000001 13.248051840000002 -13.89291219 -1.627216 -0.238459 0.038078
16480 -9.441016470000001 11.97988371 -6.96037158 -1.194106 -0.474378 0.052087
16500 -2.2329031500000003 -0.28994436 -2.3117951700000003 -0.981705 -0.478217 0.029007
16520 -3.97917144 1.7284533300000002 -4.51506231 -0.893819 -0.402834 0.015637
16540 -6.62776353 7.64115615 -4.689601830000001 -0.823306 -0.322354 0.074779
16560 -9.747726120000001 10.73867346 -4.45683015 -0.783395 -0.245712 0.054663
16580 -8.14067154 8.159977620000001 -3.98621502 -0.644584 -0.236541 0.03853
16600 -6.04098819 6.427188270000001 -4.252203360000001 -0.46723 -0.24224 -0.022181
16620 -4.86907578 6.9353757 -4.37899761 -0.33410500000000004 -0.186788 -0.151645
16640 -4.0577593499999995 7.15452129 -3.95297874 -0.187427 -0.15500899999999998 -0.233983
16660 -3.39643782 7.11066078 -3.2049858600000003 -0.106092 -0.104138 -0.238821
16680 -3.94968258 7.638016950000001 -2.64425607 0.009278 0.099304 -0.06629199999999999
16700 -3.81825801 7.33684014 -2.4498022500000003 0.258942 0.653135 0.011654
16720 -3.63279996 6.084995850000001 -2.61461025 0.420041 0.7182470000000001 -0.160356
16740 -4.5057820500000005 5.860464570000001 -2.6003955600000004 1.049129 0.791902 -0.476523
16760 -5.065020720000001 6.66578709 -2.8391415300000005 2.125248 1.041194 -0.614604
16780 -5.39103645 7.42396275 -2.10926772 3.038834 1.398948 -0.562747
16800 -4.9174194600000005 7.194340080000001 -1.5329596500000002 3.715042 1.818483 -0.570312
16820 -3.97617939 6.744375000000001 -0.72943236 3.813645 1.471811 -0.541405
16840 -3.7612324800000003 8.13947472 -0.68796549 3.30154 0.297483 -0.5317270000000001
16860 -3.99519117 9.676181790000001 -0.9800091900000001 3.1671080000000003 0.554818 -0.034136
16880 -4.188438360000001 9.38562921 -0.6259957199999999 3.299011 0.873373 0.374438
16900 -4.8814952400000005 8.07570972 -0.7455992400000001 3.334961 0.5568890000000001 0.367617
16920 -5.57710272 7.313188230000001 -1.12656078 3.559527 0.256418 0.189041
16940 -4.98029175 8.082743490000002 -1.16038566 3.703856 0.25406100000000004 0.120618
16960 -4.53721329 10.226728800000002 -0.7119215100000001 3.452898 0.5844729999999999 0.027643
16980 -5.4893817 10.993135050000001 -0.56567403 3.006122 0.586249 -0.028892
17000 -7.152726060000001 10.459196370000003 -1.2582796500000002 2.849524 0.4596810000000001 -0.209285
17020 -8.52267294 10.939699980000002 -1.3859666099999999 2.847452 0.26982399999999995 -0.414154
17040 -8.44558596 11.71194318 1.2790866600000002 2.683309 0.164434 -0.556171
17060 -9.53517285 10.57131486 2.01675942 2.297282 0.16700299999999998 -0.597327
17080 -10.01462679 9.533220660000001 1.21981464 1.947692 0.120783 -0.7236229999999999
17100 -8.31430854 8.84600073 1.2611245500000001 1.640713 0.07435900000000001 -0.835735
17120 -6.32868606 9.12218166 0.16420959 1.318871 0.19675 -0.794343
17140 -6.609203010000001 9.933792390000002 -1.28044044 1.020051 0.092777 -0.641405
17160 -6.903640350000001 9.12831291 -2.27451717 0.641912 0.11596 -0.516957
17180 -7.121294820000001 10.10997999 -3.05649189 0.271939 0.08361299999999999 -0.365676
17200 -6.28034238 10.644212970000002 -2.5652169000000002 -0.121596 0.035352 -0.210266
17220 -5.48459442 10.758577950000001 -2.23739613 -0.612631 0.140799 -0.047189
17240 -4.81564071 9.02128581 -2.9785023900000005 -0.999099 0.196025 0.063273
17260 -5.6510505 6.176454479999999 -3.1998944700000003 -1.321905 0.153105 0.154008
17280 -6.474786389999999 2.76160329 -2.9614428000000004 -1.681526 -0.009003 0.245708
17300 -6.6725265600000006 2.67688413 -3.35407824 -1.802035 -0.09119 0.390249
17320 -5.639219639999999 3.33581202 -4.24996668 -1.277321 -0.01255 0.515591
17340 -3.54148848 4.26418137 -4.56640785 -0.733457 0.23764 0.348154
17360 -3.2121667800000004 4.01045553 -3.94474815 -0.781208 -0.600672 0.640519
17380 -4.31822466 3.09705624 -3.8148147000000003 -1.4535209999999998 -0.09038 0.950294
17400 -4.54305024 2.15431524 -5.216801040000001 -2.321966 -0.170121 0.865282
17420 -4.36941324 1.4657513400000002 -5.53953042 -2.564923 0.069711 1.039534
17440 -4.177362870000001 1.6676803800000002 -5.660929169999999 -2.527669 -0.161795 0.8264469999999999
17460 -4.973405130000001 2.47031496 -5.561239949999999 -2.31202 -0.157334 0.323747
17480 -5.519773080000001 1.80314667 -5.8624069500000004 -2.388589 -0.126079 0.299671
17500 -4.71175281 1.08988119 -6.50052783 -2.722138 -0.17232 0.164941
17520 -4.10326794 1.10021112 -6.5419947 -3.007749 -0.104312 -0.07749099999999999
17540 -3.8272439700000005 0.8544215700000001 -6.593791500000001 -3.240423 0.104261 -0.08686100000000001
17560 -4.34905749 0.7235954100000002 -6.98358204 -3.270362 0.186003 0.010033
17580 -4.57463844 0.32242527000000004 -7.278166530000001 -3.235587 0.235363 0.156559
17600 -4.31942148 -0.18860706000000002 -7.82542719 -3.048462 -0.03642 0.028959
17620 -4.35728808 -0.17558919000000003 -8.215963290000001 -2.681775 -0.364661 0.011645
17640 -4.71369519 0.49921128000000003 -8.63734203 -2.328085 -0.374839 0.118815
17660 -6.050866860000001 1.76946894 -9.73889712 -2.063157 -0.7879689999999999 0.106239
17680 -7.216343910000001 3.67875 -11.73379986 -2.0653900000000003 -0.527151 0.151823
17700 -13.33052451 9.05631732 -12.24139869 -1.810016 -0.4587270000000001 0.13535899999999998
17720 -8.18333523 7.05992346 -13.03264386 -1.47455 -0.108395 0.146868
17740 -3.50002161 3.3617104200000005 -6.164329320000001 -1.293778 -0.383297 0.005340999999999999
17760 -5.20857045 -0.07035732 -4.57284321 -1.066255 -0.583201 -0.017383000000000003
17780 -5.984855370000001 3.77769366 -5.20288065 -0.877483 -0.453413 0.129048
17800 -7.63083603 8.461899990000001 -5.52590433 -0.7191649999999999 -0.277463 0.213249
17820 -9.297613890000001 9.88020036 -5.20902171 -0.6775479999999999 -0.103595 0.386369
17840 -6.672673710000001 6.45323382 -4.46866101 -0.728158 -0.457041 0.37365
17860 -4.98688407 4.452190020000001 -4.83284745 -0.612228 -0.167377 0.030121
17880 -5.41947564 5.77753083 -4.527040320000001 -0.52372 0.25529 -0.250745
17900 -6.00925284 7.106167800000001 -4.31956863 -0.480638 0.537512 -0.5349520000000001
17920 -5.29658577 7.19419293 -4.1965218 -0.14538 0.934233 -0.668783
17940 -3.96525105 6.56385138 -4.14892368 0.26605500000000004 1.024769 -0.489769
17960 -2.4599850300000004 5.738614560000001 -3.39284736 0.771134 1.073384 -0.298296
17980 -2.21419548 5.83621425 -2.70502902 1.364158 0.379512 -0.717349
18000 -2.5569863100000005 6.115534380000001 -2.41537896 2.228537 0.771163 -0.841068
18020 -3.24629577 6.259084110000001 -2.9163854700000003 2.906195 1.455225 -0.668432
18040 -4.57777764 6.71937912 -2.89737369 3.172784 1.813751 -0.5153409999999999
18060 -4.60352889 7.4721592800000005 -2.45953377 3.036039 0.979489 -0.359267
18080 -4.30474572 7.327716840000001 -1.6387899300000002 2.9091560000000003 0.106167 -0.300282
18100 -4.4617743899999995 7.30361367 -1.5275739600000002 3.387764 0.803109 0.020498
18120 -4.846620690000001 8.44529166 -1.43850897 3.3481730000000005 1.011209 0.494245
18140 -4.120327530000001 9.983342700000001 -1.894311 3.467 0.837259 0.468593
18160 -3.4329604500000004 10.93640382 -2.02453875 3.790178 0.6705409999999999 0.322581
18180 -4.4652177 10.996578359999999 -1.7486619300000001 3.699149 0.811446 0.06325499999999999
18200 -5.15273193 10.824736589999999 -2.6030835 3.344871 0.926032 -0.046189
18220 -6.202352879999999 9.67018788 -1.9496982600000001 3.181498 0.4768270000000001 0.009861
18240 -8.398733400000001 8.963809020000001 -1.7875782 3.131447 0.24048000000000005 -0.248695
18260 -8.70364782 8.61054111 -1.63534662 2.687593 -0.010522 -0.497165
18280 -8.809478100000002 10.014175530000001 -0.8665467300000002 2.145349 -0.013119 -0.443265
18300 -8.020920870000001 11.873455020000002 -0.37077876000000004 1.666362 0.017232 -0.425285
18320 -7.170393870000001 12.78087021 2.0420496000000004 1.040519 -0.025734 -0.327052
18340 -6.68269953 9.71390124 -0.30027429 0.173551 0.042475 -0.116347
18360 -6.06344328 8.16042888 -1.7404313400000002 -0.661637 -0.058327 -0.024843
18380 -5.58339093 9.989473950000002 -2.8419864300000004 -1.083807 -0.240975 0.195701
18400 -5.99652927 10.71696393 -3.1922622900000004 -1.308819 -0.3788760000000001 0.5104989999999999
18420 -6.58989693 10.422820890000002 -2.8530717300000004 -0.98681 -0.4840350000000001 0.688072
18440 -7.51796217 11.09926944 -2.55878154 -2.244643 -0.628915 1.245629
18460 -9.06545043 11.35688004 -1.68923295 -2.687034 0.025139 1.102832
18480 -9.87047865 11.3889195 -3.20752665 -1.495305 -0.814839 0.738355
18500 -7.713612810000001 7.8879953700000005 -3.28162158 -2.3312150000000003 -0.323292 1.34825
18520 -5.611084560000001 4.454289360000001 -3.1792346100000004 -2.460828 -0.275778 1.034295
18540 -5.16725073 4.36267377 -3.6730602 -2.94644 -0.557647 0.549496
18560 -4.98703122 4.09862781 -3.59657163 -2.925008 -0.33208000000000004 -0.199467
18580 -3.77843922 3.23956611 -2.9075564700000003 -2.861366 -0.0007559999999999999 -0.260336
18600 -2.0151113400000003 3.07684764 -2.62883475 -2.760627 0.129909 0.009392
18620 -2.3474152800000003 1.89206451 -3.02970078 -2.778714 0.389854 0.020683
18640 -2.96847657 1.15664805 -3.16576548 -2.999051 0.308315 -0.176236
18660 -2.72478636 0.40416219000000003 -3.49447896 -2.9050740000000004 0.144784 -0.121959
18680 -2.9713214700000004 0.82284318 -3.92932683 -2.850061 -0.120855 0.192823
18700 -3.13298046 0.9090632700000001 -5.05708443 -2.619235 -0.364071 0.342162
18720 -2.6580195000000004 0.26539974000000005 -6.60486699 -2.03745 -0.5525329999999999 0.081548
18740 -3.87094752 0.5641731000000002 -7.29852228 -1.62264 -0.505463 -0.060893
18760 -5.8407072300000005 0.9803133 -7.406746200000001 -1.379007 -0.409417 -0.048632
18780 -5.47636383 2.7056274300000003 -10.57461102 -1.349321 -0.366186 0.036978
18800 -3.74296626 3.87783414 -11.012902200000003 -1.203361 -0.233297 -0.021993
18820 -1.65825297 2.30012127 -3.39000246 -1.083594 -0.206942 -0.056442
18840 -15.80623497 13.749362460000002 -14.848975170000001 -0.793954 -0.2912 -0.015855
18860 -12.69809343 15.613134930000001 -6.902002080000001 -0.52771 -0.586341 0.034453
18880 -1.48161411 3.1100839200000006 -0.44951382000000006 -0.486429 -0.5942029999999999 0.099913
18900 -6.088135050000001 1.4624551799999999 -3.27893364 -0.623865 -0.301887 0.111397
18920 -7.711366320000001 6.2240526 -3.9451994100000003 -0.718125 -0.205451 0.052930999999999985
18940 -9.68665887 10.2640068 -4.70651427 -0.448062 -0.354696 0.111625
18960 -7.010824410000001 9.2054097 -3.68264457 -0.372668 -0.374481 -0.067285
18980 -4.422554010000001 5.483250450000001 -4.527040320000001 -0.414808 -0.140545 -0.190724
19000 -3.0151819800000004 4.0679421300000005 -4.6015767 -0.400448 0.052837 -0.344696
19020 -2.4206175 5.581291590000001 -3.7308411 -0.126773 0.314337 -0.442464
19040 -2.15612028 7.71780168 -3.3075199800000004 0.317341 0.6291220000000001 -0.426947
19060 -2.27362446 7.94996514 -2.8400440500000004 0.8326979999999999 0.872469 -0.190786
19080 -2.0580693300000004 7.15736619 -1.58700294 1.519064 0.767486 -0.372796
19100 -3.72065832 5.8745321100000005 -1.33432677 2.470652 1.091745 -0.502229
19120 -5.50300779 5.5920727800000005 -1.51305516 3.337293 2.046678 -0.565765
19140 -5.51992023 5.773489110000001 -1.7548029900000002 3.648889 2.555778 -0.543945
19160 -5.47605972 6.930588419999999 -2.15043048 3.132603 1.32743 -0.607934
19180 -4.975651620000001 8.18198145 -1.68174792 2.852964 0.689902 -0.5086579999999999
19200 -4.5473960700000005 9.74593089 -0.27273762 3.458097 1.36798 -0.10898900000000003
19220 -4.61041551 10.250086410000002 0.36838512000000007 3.988285 1.5178120000000002 0.056892
19240 -5.404515389999999 10.039318560000002 -1.1546958600000001 4.189205 0.849209 -0.214313
19260 -5.15019114 9.22605975 -2.32720668 3.978206 1.04941 -0.5461239999999999
19280 -5.0964519600000004 9.79353882 -2.0877053400000003 3.384593 1.556757 -0.8991610000000001
19300 -5.610780450000001 10.61816742 -1.40827455 3.106219 0.626674 -0.899913
19320 -5.198691780000001 11.384720819999998 -1.60346412 3.3536940000000004 0.233422 -0.806882
19340 -5.62694733 10.23511635 -2.3126878800000004 3.169592 0.247213 -0.898984
19360 -7.30390797 10.05428862 -2.9479736700000005 2.755457 0.01719 -1.091726
19380 -6.693176610000001 10.471174379999999 -2.8880934300000005 2.3159080000000003 -0.145622 -1.02088
19400 -6.849606870000001 10.650805290000001 -1.65585933 1.621815 -0.143761 -0.884726
19420 -7.871681340000001 12.03467256 0.3990708 0.904217 -0.13123800000000002 -0.730589
19440 -9.55882476 10.97667387 1.7338488300000001 0.142585 -0.03288 -0.425182
19460 -9.47873592 7.277116860000001 0.19040229 -0.677623 0.092297 -0.115947
19480 -9.12187755 7.965984870000001 -0.40685013000000003 -1.275744 -0.113005 0.061736
19500 -8.20129734 9.66599901 -0.8752285799999999 -1.594079 -0.252201 0.248766
19520 -7.907154300000001 9.76584519 -2.4161245200000003 -1.192144 -0.622861 0.418692
19540 -7.8002743500000005 11.053319400000001 -2.39112864 -1.287605 -0.645155 0.748134
19560 -8.347839120000002 10.90123497 -0.6108785100000002 -0.394988 0.380997 0.434724
19580 -8.22598911 10.43898777 -1.2763987199999998 -1.218515 -1.18747 0.976843
19600 -6.32165229 6.96022443 -2.9273138100000002 -2.472561 0.30664600000000003 1.380639
19620 -5.26814658 3.1608310500000005 -3.3263846100000003 -2.279999 0.208832 1.166328
19640 -4.27061673 1.9799326800000001 -2.99437497 -2.754479 0.201185 1.092521
19660 -4.50323145 2.32002576 -4.0362067800000005 -2.888303 0.225422 0.742247
19680 -3.6500067000000005 4.418512290000001 -3.33506646 -3.541363 -0.07788099999999999 0.7006859999999999
19700 -2.57284908 4.32406161 -2.262990420000001 -3.5018870000000004 -0.074943 0.464881
19720 -2.4092379 2.83016538 -3.0063529800000004 -3.769358 -0.053572 0.413847
19740 -2.7970860600000007 2.0052326700000003 -3.60944235 -3.951566 0.192358 0.608812
19760 -2.79274023 0.7295795100000001 -4.8298554000000005 -4.033991 0.479823 0.7200310000000001
19780 -2.96862372 -0.05268951 -5.667060419999999 -3.941179 0.460396 0.702545
19800 -3.93172047 0.15237873000000005 -5.81570154 -3.856825 0.432579 0.6593720000000001
19820 -4.97295387 0.04101561 -6.070624200000001 -3.687711 -0.286555 0.5311520000000001
19840 -4.946466870000001 -0.71910243 -6.66698391 -3.176739 -0.283194 0.313595
19860 -3.8285879400000002 -1.2436137 -7.957155870000001 -2.874769 -0.073285 0.039834
19880 -3.9821733000000004 -0.20911977 -9.60627573 -2.909264 0.325238 0.042287
19900 -5.897134350000001 0.22708187999999999 -11.705959080000001 -2.754732 0.476276 0.232248
19920 -5.89593753 1.21383054 -10.61787312 -2.496705 0.428553 0.221293
19940 -10.173744990000001 5.833369350000001 -13.970303280000001 -2.393471 0.581704 0.194044
19960 -12.87801864 11.50043958 -10.083483180000002 -2.288634 0.91676 0.229598
19980 -1.21068153 -3.43954296 -2.82717333 -1.806904 0.960152 0.149586
20000 -5.956416180000001 -0.79783749 -6.336769500000001 -1.376903 0.730692 0.149679
20020 -9.311387130000002 9.13684761 -5.19360039 -1.487243 0.828177 0.109259
20040 -10.89284742 5.92797699 -6.10056432 -1.7186290000000002 0.60321 0.091908
20060 -5.685925050000001 3.70404999 -4.71639294 -1.55065 0.439767 0.060176
20080 -5.78756646 5.5321925400000005 -4.17466512 -1.191604 0.500568 -0.004692
20100 -6.71907501 7.25212098 -3.9742370100000004 -1.2013790000000002 0.430422 -0.036717
20120 -6.304288590000001 7.387587270000001 -4.416412950000001 -1.053725 0.563973 0.003667
20140 -5.81375916 7.224574500000001 -4.20235875 -0.916958 0.914764 0.07253899999999999
20160 -4.75576047 6.6461768999999995 -3.7368252 -0.903142 1.090796 0.261486
20180 -4.04533989 6.539895360000001 -2.6882637300000005 -0.5219630000000001 1.006029 0.349715
20200 -4.16299122 5.6000090700000005 -2.00657664 -0.268752 1.189023 0.454866
20220 -3.8287350900000003 4.82327289 -0.95890788 -0.5191319999999999 1.923021 0.399834
20240 -3.62815983 5.079235409999999 -0.15701886 -0.187442 2.466798 0.25724400000000003
20260 -4.585713930000001 5.248389240000001 0.06287229000000001 0.410909 3.388263 0.270925
20280 -5.7053880900000005 4.782708540000001 -0.14055768000000002 1.124666 3.202348 0.324219
20300 -5.4527119200000005 5.479503030000001 -0.5472606600000001 1.712925 2.79664 0.306415
20320 -4.099824629999999 7.559429040000001 -0.36030168 1.965435 3.391306 0.027543
20340 -3.2627667600000003 9.027132570000001 0.6725539800000001 1.934823 4.182668 -0.443703
20360 -3.4973238600000003 8.697663720000001 0.7577244000000001 1.702951 4.475665 -0.786461
20380 -4.04533989 8.52701877 -0.75742029 1.585903 3.848452 -1.009733
20400 -3.7773993600000004 8.96246505 -1.2000573 1.990563 2.086928 -0.938419
20420 -3.5769614400000003 8.5982688 0.0868185 2.767903 2.090218 -0.8368540000000001
20440 -3.8336793300000003 7.948022760000001 1.43896023 3.011989 2.014894 -0.8596219999999999
20460 -4.70187414 8.19874674 1.23433344 2.733644 1.558887 -0.867391
20480 -6.321053879999999 8.99150265 -0.26869590000000004 2.249917 1.228201 -0.868209
20500 -5.87438496 7.6173570900000005 -0.6912616500000001 1.629186 0.700249 -0.969077
20520 -3.9345653700000005 7.83066573 -0.21300453 0.996355 0.15928299999999998 -1.0016459999999998
20540 -2.8256724 10.234066680000002 0.83676357 0.370514 0.243531 -1.014671
20560 -3.98471409 10.810070640000001 1.64852145 -0.505361 0.378174 -0.892775
20580 -6.585109650000001 9.96522363 -0.43349409 -1.417224 0.396595 -0.713298
20600 -7.9457762700000005 7.56721818 -2.38349646 -2.037957 0.351289 -0.566956
20620 -7.9014645 7.07054769 -1.96451136 -2.338364 0.405898 -0.376844
20640 -5.80837347 11.83408749 2.85456285 -2.597755 0.5743149999999999 -0.178046
20660 -6.549930990000001 13.409710830000002 4.62627828 -3.09376 0.683287 -0.092988
20680 -10.49437503 10.61442981 3.8713987800000003 -3.598388 0.450676 -0.09301
20700 -13.294158840000001 6.09382485 3.62785572 -3.14569 -0.430683 0.140949
20720 -12.552748470000001 6.23213604 1.54343673 -0.885346 -0.8939450000000001 0.013121
20740 -10.56023937 9.74593089 0.29713509 1.516059 2.4189990000000003 -0.187995
20760 -7.80327621 10.706035589999999 0.19759302 2.598383 1.816764 0.293559
20780 -7.8977268899999995 11.40014214 2.01705372 1.928424 -0.968829 0.581937
20800 -8.561147759999999 9.58860792 3.7889163000000003 -0.435807 -1.848357 0.403112
20820 -6.530467950000001 8.59377582 2.07722826 -1.7715599999999998 -0.323336 -0.455272
20840 -5.284911870000001 7.07099895 -0.36403929000000007 0.692901 2.725734 0.008825
20860 -4.205507760000001 5.869293570000001 -2.1592594800000002 -0.214408 2.211879 -0.172043
20880 -3.07206036 4.77252576 -3.67037226 -4.691635 -1.349252 -0.307712
20900 -2.3281092 4.9531965300000005 -3.53565153 -2.973857 0.924195 0.296373
20920 -2.38393791 4.76938656 -2.39232546 -2.6019520000000003 1.876027 0.637446
20940 -3.5064569700000003 3.5600490000000002 -2.8930376700000004 -3.171857 1.843044 1.120617
20960 -3.80060001 2.0975840100000003 -4.035608370000001 -2.917693 0.8391059999999999 1.012583
20980 -2.50968249 1.4910513300000003 -4.41372501 -3.585329 1.010117 0.6509149999999999
21000 -2.4382755 2.72627748 -4.223018610000001 -4.4668980000000005 2.647981 0.216437
21020 -2.50953534 3.4233858900000005 -4.233642840000002 -4.255283 2.949854 0.199369
21040 -2.5400640600000006 2.9681822700000002 -4.518054360000001 -2.951991 2.250299 0.318328
21060 -3.17250495 2.96952624 -5.215751370000001 -2.158962 2.50142 0.5008699999999999
21080 -5.3349036299999995 4.24816164 -6.91142949 -2.100422 3.117209 0.435328
21100 -7.98184764 9.51855471 -9.63770697 -2.027979 3.369273 0.473967
21120 -10.68223653 19.527197400000002 -10.691820900000002 -1.5716370000000002 3.036509 0.444466
21140 -12.36443571 14.74838343 -6.83882568 -1.207372 3.03459 0.342328
21160 -6.5015775 0.53064252 -10.39902183 -0.95859 3.202492 0.22955
21180 -1.72441161 0.18022932 -8.29619928 -0.400365 3.330103 0.067712
21200 -8.94300201 10.46204127 -3.5007671700000005 0.156614 3.348384 0.074783
21220 -15.211670490000001 15.268696020000002 4.91846913 0.26520900000000003 3.211995 -0.010809
21240 -7.52948892 5.01816816 5.27802525 0.296483 3.130488 -0.167515
21260 -4.47569478 -4.1137450200000005 -3.81436344 0.561 2.989345 -0.530818
21280 -6.49484784 2.88151092 -1.82650428 0.65458 2.006584 -0.734004
21300 -6.33198222 18.12670218 0.10208286000000001 -0.6363 1.017501 -0.553746
21320 -4.3177734 16.97260473 0.40521186000000003 -1.072605 0.5620970000000001 -0.30945100000000003
21340 -4.94212104 7.55957619 1.84296546 -1.150228 -0.5625819999999999 -0.305347
21360 -8.63689077 2.50114779 -2.2848471000000004 -1.350113 -0.731032 -0.630199
21380 -5.708380139999999 5.95581777 -3.60106461 -1.538617 -0.601915 -1.053629
21400 -5.335659000000001 8.77580037 0.6378265799999999 -2.026725 -0.233812 -1.042555
21420 -7.32786399 8.06373171 3.6025557299999997 -1.98451 -0.452719 -0.6819890000000001
21440 -6.0620895 9.190890900000001 4.62223656 -1.773195 -0.449145 -0.693336
21460 -2.9343475800000003 10.82114613 3.2672597400000005 -1.769453 -0.014942 -0.855168
21480 -1.8696094200000002 11.833940340000002 2.88584694 -1.661083 0.917416 -1.009429
21500 -3.51753246 10.008338580000002 2.83390299 -1.019851 1.018135 -0.912144
21520 -3.7782920700000004 8.81561916 2.4692652900000005 -0.436185 0.346059 -0.647628
21540 -3.69910575 9.94711437 1.05949962 -0.4939810000000001 1.586924 -0.5524140000000001
21560 -2.8370520000000004 10.057290479999999 0.19714176 -0.029862 1.403058 -0.262653
21580 -2.27661651 8.948838960000002 -0.45580203 0.786031 1.271706 -0.090143
21600 -1.54747845 8.053853040000002 -1.8642237300000002 1.508472 1.179261 0.023981
21620 -0.19310004 6.74332533 -3.2829753600000005 1.892684 1.525944 0.106337
21640 0.16286562000000002 6.09248088 -2.8979721 2.255867 2.130692 0.140145
21660 -1.05515379 5.03013636 -2.53872009 2.904359 2.284141 0.098545
21680 -2.6180535600000003 4.2767577900000004 -3.56528754 3.392232 1.87445 0.098205
21700 -2.22497667 6.63510141 -2.23650342 3.444475 1.464909 0.171734
21720 0.05328792 10.67819481 -1.29345831 3.5632230000000003 1.142458 0.253093
21740 -1.51095582 11.58575715 -3.70374588 3.917431 1.253695 0.36652
21760 -5.494924350000001 11.7074502 -3.68099649 4.266674 1.231592 0.263234
21780 -9.08071479 10.871893259999998 -4.23469251 4.243315 1.199835 -0.032786
21800 -8.33227065 12.24184014 -3.42922284 4.064506 1.350331 -0.216894
21820 -6.29830449 16.57054188 -3.35033082 4.133472 0.954105 -0.29068
21840 -6.14562165 14.662006380000001 -3.6215675100000007 4.27557 1.000476 -0.288679
21860 -7.851924 10.32672213 -3.58085601 4.076876 0.34333600000000003 -0.416343
21880 -7.154226990000001 9.552389400000001 0.47720745000000003 3.599693 0.45922 -0.477509
21900 -7.0462973700000004 9.75102228 3.35587347 2.709144 0.244125 -0.527251
21920 -6.940015830000001 9.15690906 -0.22244175000000002 1.959936 -0.001664 -0.483031
21940 -4.5030843 8.75529747 -1.21936338 1.251556 -0.04681 -0.300982
21960 -5.0786370000000005 12.04574805 2.9054571300000003 0.5042760000000001 -0.185628 -0.103062
21980 -7.14883149 10.686729510000001 4.86008982 -0.318148 -0.188897 0.095228
22000 -7.88889789 9.32276673 3.8098802700000003 -0.932919 -0.563418 0.247374
22020 -8.19441072 7.83081288 2.2676305500000007 -1.38123 -0.872712 0.46042
22040 -8.61323886 8.167462650000001 1.37548953 -1.472544 -1.04579 0.6651020000000001
22060 -9.25599987 9.03880647 0.15612615000000002 -1.213109 -0.8937450000000001 0.778883
22080 -8.84795292 8.65650096 -0.53888292 -2.533837 -0.5081869999999999 1.141973
22100 -6.553070190000001 9.16544376 -1.24226973 -0.496763 0.874967 0.070184
22120 -4.61161233 9.52379325 -1.2091806 -0.122909 -1.970974 0.691739
22140 -4.2351437700000005 10.127490839999998 -1.73399598 -2.35902 -0.469673 1.215784
22160 -5.3510705100000004 7.10108622 -2.35085859 -2.138403 -0.086887 0.93696
22180 -5.85507888 4.279455540000001 -2.6955918000000003 -2.30095 -0.534405 0.571066
22200 -5.82454035 4.454740620000002 -2.90620269 -1.783556 -0.3232 0.319105
22220 -5.04331119 5.626496070000001 -2.5911153000000002 -2.380893 -0.22765 0.385313
22240 -3.99429846 5.810463 -2.93479884 -2.704987 -0.156393 0.162904
22260 -3.1323820500000004 6.143375160000001 -5.4663281999999995 -2.76484 -0.100156 0.0043170000000000005
22280 -2.57899014 3.66796881 -4.74004485 -2.806694 0.112923 0.034730000000000004
22300 -3.31650594 0.97072893 -5.059026810000001 -2.8467 0.155028 0.195698
22320 -3.7312923600000003 0.99722574 -5.29464339 -2.847182 -0.026723 0.359365
22340 -4.27661064 1.25124588 -4.77506655 -2.698011 0.131628 0.323885
22360 -4.04728227 0.98390376 -4.79333277 -2.50767 0.05295 0.387272
22380 -3.4215808500000002 -0.52286319 -5.459000130000001 -2.183593 -0.612375 0.25472399999999995
22400 -3.7741032000000003 -0.53558676 -6.90693651 -1.877514 -0.818317 0.075528
22420 -3.3570702900000007 0.95680854 -7.83815076 -1.6476380000000002 -0.534434 0.012677
22440 -3.40781742 2.18186172 -8.83867266 -1.483938 -0.381802 0.062763
22460 -4.2890301 3.07580778 -10.1717928 -1.4260540000000002 -0.300063 0.084427
22480 -3.35332287 3.7642245300000003 -7.83305937 -1.176742 -0.161288 0.06249
22500 -5.281762860000001 3.86032329 -5.06456946 -0.917904 -0.091581 -0.011635
22520 -23.369705730000003 16.61170464 -20.081943090000003 -0.923119 -0.103127 -0.050113
22540 -1.46799783 6.356978100000001 -2.22048369 -0.995001 -0.198725 -0.056902
22560 0.21465261000000002 -5.20542144 -0.40071888000000006 -0.989334 0.011522 -0.158613
22580 -5.840854380000001 6.247263060000001 -5.04316404 -0.8099569999999999 -0.009136 -0.20967600000000006
22600 -12.6069291 12.06760473 -4.2529587300000005 -0.717727 -0.291039 -0.122145
22620 -9.47529261 6.52029498 -5.47261641 -0.7383930000000001 -0.08135 -0.061669000000000015
22640 -4.8213207 4.60472571 -4.32076545 -0.817715 -0.207666 -0.105859
22660 -5.21216091 5.76301203 -3.6031541400000004 -0.758568 -0.186233 -0.188794
22680 -5.34238866 6.945852780000001 -3.62187162 -0.621729 0.021386 -0.279971
22700 -5.2955361000000005 7.2411926399999995 -3.5546535 -0.521308 0.196114 -0.372429
22720 -4.92415893 7.5000000600000005 -3.8115283500000006 -0.372475 0.103877 -0.345634
22740 -4.2529587300000005 8.03603808 -2.95156413 -0.155844 0.236857 -0.222514
22760 -3.6860878800000005 6.973252110000001 -1.5644007 -0.03467 0.556348 -0.038343
22780 -3.5067610800000004 6.03620091 -1.9258992000000001 -0.110792 0.8138850000000001 -0.173801
22800 -3.92199876 5.76016713 -1.7063023499999999 0.26027 1.073193 -0.34032
22820 -4.7834541 6.874004340000001 -1.39359879 1.0302639999999998 1.1475959999999998 -0.433313
22840 -4.951705410000001 6.96636549 -1.7836934400000002 1.713089 1.121898 -0.459489
22860 -4.8617379 7.73591094 -1.8672157800000002 2.254988 1.100846 -0.45995
22880 -5.02415226 8.29828881 -1.5209914500000001 2.700368 1.240848 -0.42604
22900 -4.7837484 8.16506901 -1.05725313 3.0527040000000003 1.277102 -0.207845
22920 -5.10543792 8.15489604 -0.80367444 2.9771080000000003 1.141802 -0.139833
22940 -5.31454788 7.575900030000001 -1.50078285 2.623524 0.83293 -0.114133
22960 -4.920117210000001 7.896824370000001 -1.2713073300000002 2.8955330000000004 0.887224 0.191072
22980 -4.81937832 9.59115852 -0.28680516 3.378803 0.996923 0.310743
23000 -4.96981467 10.57640625 -0.20926692000000002 3.656242 0.5611010000000001 0.101732
23020 -4.71445056 9.67408245 -0.6257014200000001 3.636921 0.5216970000000001 -0.150453
23040 -4.615349940000001 8.89719912 -1.19900763 3.295522 0.715882 -0.196884
23060 -4.58227062 8.81427519 -1.4052825 3.066602 0.733003 -0.283962
23080 -4.78314999 9.17546958 -0.6575839200000001 2.998077 0.527297 -0.197651
23100 -5.42606796 8.999733240000001 -0.49143195 3.039034 0.664395 -0.152676
23120 -6.283481580000001 8.78957361 -0.75982374 2.92389 0.591657 -0.244186
23140 -6.52223736 10.607543190000001 -0.44097912 2.750905 0.351277 -0.453389
23160 -7.19688087 12.058922879999999 0.9746235 2.608734 0.195558 -0.549254
23180 -8.39603565 10.786869990000001 0.8009865 2.376535 0.036603 -0.557082
23200 -8.49214422 9.668392650000001 -0.57121668 1.7638220000000002 0.138072 -0.6255850000000001
23220 -6.9843276 9.5871168 -0.14100894 1.170503 0.098638 -0.639293
23240 -5.883066810000001 10.26774441 0.32722236 0.7214 -0.009987 -0.524786
23260 -6.37254657 10.27448388 -0.54202212 0.220591 0.013642 -0.405469
23280 -7.35226146 9.898466580000001 -1.63070649 -0.15548199999999998 -0.018414 -0.321529
23300 -7.13282157 9.290432970000001 -2.19383973 -0.516738 -0.049567 -0.209713
23320 -6.253100010000001 9.02652435 -2.50698474 -0.8987200000000001 -0.135166 -0.05097
23340 -5.61826548 9.67078629 -1.9839744000000001 -1.16228 -0.247704 0.081929
23360 -5.6276928900000005 9.50972571 -1.3275873 -1.329727 -0.430518 0.123723
23380 -6.634807110000001 10.15353639 -1.40827455 -0.985696 -0.571217 0.112419
23400 -7.006184280000001 7.9341023700000015 -1.8995495400000002 -0.8332350000000001 -0.438153 0.270343
23420 -6.259084110000001 3.67171623 -2.68616439 -0.5921489999999999 -0.597106 0.118406
23440 -5.510787120000001 3.4527177900000003 -3.0740027400000005 -0.540018 -0.533431 0.931606
23460 -4.8159350100000005 4.65457032 -3.5572041 -2.166782 -0.198874 0.7286020000000001
23480 -4.94242515 5.60898522 -4.70037321 -2.470016 -0.061380999999999984 0.441093
23500 -5.272639560000001 6.073017840000001 -4.58645949 -2.8254650000000003 0.051211 0.8305030000000001
23520 -4.312829160000001 4.935685680000001 -4.7782155600000005 -2.450227 -0.139224 0.709454
23540 -3.9113647200000004 3.5167869000000005 -4.44485214 -2.201737 -0.119061 0.5135430000000001
23560 -4.37360211 3.0329969400000003 -4.41760977 -2.436627 -0.061215 0.370823
23580 -4.4619215400000005 2.7753765300000004 -4.9365882 -2.8535470000000003 0.043249 0.182975
23600 -4.412528190000001 2.56476564 -6.23737458 -3.017928 0.09775 0.016182
23620 -3.72290481 2.03516298 -6.42149847 -3.061034 0.092211 0.106687
23640 -3.6844398000000003 1.11173787 -5.973328620000001 -2.940155 0.11871099999999997 0.300846
23660 -3.5959732200000003 0.43858548 -6.372997830000001 -2.820877 0.159486 0.390289
23680 -3.6408834000000003 -0.10208286000000001 -6.68061 -2.848815 0.261153 0.298096
23700 -3.0418259400000003 -0.00494424 -6.69991608 -2.7314700000000003 0.069754 0.109018
23720 -3.3353607600000004 -0.0047872800000000005 -6.65605557 -2.458688 -0.084284 0.032072
23740 -4.27181355 -0.01631403 -7.3030152600000005 -2.081957 -0.224476 -0.13389600000000002
23760 -4.145774670000001 0.60668964 -8.243509770000001 -2.021759 -0.371653 -0.143969
23780 -3.6297981000000004 0.9336078900000001 -10.15353639 -1.654699 -0.246732 -0.266547
23800 -4.62208941 1.85179446 -11.71957536 -1.502348 -0.093607 -0.06378500000000001
23820 -6.4810746 0.4379870700000001 -9.64129743 -1.5356459999999998 -0.073533 0.006459
23840 -12.05593083 7.95864699 -11.88588429 -1.31413 0.06741 -0.00072
23860 -11.21737203 10.74899358 -14.498699310000001 -1.201637 -0.072505 -0.007232
23880 -3.3319174499999997 3.0707163900000003 -3.32727732 -0.8716139999999999 -0.27163400000000004 -0.046333
23900 -7.7706383400000005 -1.0583028 -5.43893868 -0.722805 -0.31933 0.030612
23920 -7.307204130000001 6.10595001 -6.09248088 -0.680574 -0.28496900000000003 -0.073823
23940 -7.44940989 9.72976401 -5.32038483 -0.5745020000000001 0.000365 -0.125791
23960 -8.08858044 7.48578537 -4.96771533 -0.619631 0.070262 0.015878
23980 -6.43871502 3.56064741 -4.90650093 -0.662776 -0.087035 -0.037633
24000 -4.943769120000001 3.0401778600000005 -5.53144698 -0.357245 -0.136545 -0.175372
24020 -4.70800539 5.527110960000001 -5.407654590000001 0.050061 -0.25913200000000003 -0.241805
24040 -5.11816149 8.29619928 -4.16284407 0.269141 0.183717 -0.355142
24060 -5.2115625 8.38945314 -3.92543226 0.706236 0.29214 -0.408843
24080 -4.84257897 6.6503657700000005 -3.9360663 1.389078 0.546452 -0.395854
24100 -4.24367847 5.80852062 -4.1876928 1.888306 1.09085 -0.30653800000000003
24120 -3.8037392100000003 5.135368230000001 -3.28656582 2.515942 1.29562 -0.643179
24140 -3.81990609 5.660782020000001 -2.2403881800000005 3.402175 2.153219 -0.8912559999999999
24160 -4.05266796 6.579871110000001 -2.24667639 3.846307 1.945272 -0.689198
24180 -4.810245210000001 7.586073 -2.69783829 3.258336 0.8084560000000001 -0.13851
24200 -4.98134142 7.2093101399999995 -2.61371754 2.506019 0.19587 -0.006247
24220 -5.2867071 6.78239856 -2.14234704 2.595497 -0.6094310000000001 0.170598
24240 -5.24674116 7.331307300000001 -2.55802617 3.600825 0.698327 0.4643640000000001
24260 -4.182003 7.9472772 -1.81856799 4.222771 0.402332 0.41995
24280 -4.04548704 8.876539260000001 -0.88795215 4.070723 -0.079217 0.296659
24300 -4.6328706 9.326651490000001 -0.9050215500000001 3.583495 0.204897 0.265118
24320 -4.7900366100000005 8.79840261 -1.9730460600000002 3.040979 0.769368 0.2339
24340 -4.36956039 7.7856084 -2.34322641 2.922886 0.568592 0.195944
24360 -5.05797714 8.77789971 -1.3046907600000002 3.050061 0.362617 0.180005
24380 -5.59012059 10.1282364 -0.87702381 3.081424 0.001193 -0.039366000000000005
24400 -5.529798899999999 10.70858619 -1.8106317000000003 2.724994 0.005425 -0.255506
24420 -5.84953623 10.67625243 -2.91040137 2.423666 0.055815 -0.340996
24440 -5.64416388 11.17082358 -3.5155900800000004 1.942559 0.105284 -0.307033
24460 -5.348078460000001 11.61120429 -3.0228141600000002 1.441304 -0.035939 -0.253737
24480 -7.9617960000000005 11.9903706 -2.51387136 0.917178 -0.007847 -0.164499
24500 -9.11424537 11.95234704 -1.99445148 0.332115 0.072335 0.004364
24520 -8.47732131 10.53569475 -0.8973795600000001 -0.281829 0.13663499999999998 0.17411300000000002
24540 -7.99906419 8.040531060000001 -0.9819613800000001 -0.7261880000000001 -0.083938 0.308024
24560 -8.24155758 7.3786013100000005 -0.69410655 -1.160753 -0.319228 0.384339
24580 -8.446488480000001 8.69467167 -2.5312350600000006 -1.556654 -0.195915 0.525625
24600 -7.882609680000001 8.9856657 -4.92401178 -1.643732 -0.328826 0.5390739999999999
24620 -5.3328141 10.865752200000001 -2.7415516500000003 -2.203307 -0.428038 0.792734
24640 -3.8907048600000005 11.582460990000001 -0.25521696000000005 -1.723847 -0.515154 0.8506739999999999
24660 -4.84047963 11.98662318 0.7105677300000001 -1.235545 -0.241287 1.203043
24680 -6.30593667 9.94621185 -2.78855136 -2.160354 -0.249473 1.387805
24700 -7.421569110000001 3.4169407200000004 -5.4836919 -2.238026 -0.227905 1.123384
24720 -8.03993265 1.25319807 -3.74760639 -2.688746 -0.562056 0.8952690000000001
24740 -5.455851120000001 3.3424043400000003 -3.22519446 -2.7191970000000003 -0.195904 0.199175
24760 -3.8492478 4.563562950000001 -4.32615114 -2.893067 -0.046948 -0.13658399999999998
24780 -3.14765622 5.29508484 -4.716844200000001 -2.8060110000000003 -0.119782 -0.11345
24800 -3.03523362 3.44329038 -3.84341085 -2.762143 0.09227 -0.166827
24820 -3.12175782 2.38274109 -4.42315242 -2.937544 0.008674 -0.155126
24840 -3.78847485 2.15566902 -4.65427602 -3.120807 -0.012645 0.007059
24860 -3.98411568 1.6340026500000002 -4.31717499 -3.127939 -0.175497 0.245432
24880 -4.16868102 0.89199387 -5.0847780600000005 -2.71345 -0.439368 0.339464
24900 -4.31627247 0.8222447700000001 -5.86180854 -2.1896150000000003 -0.529258 0.25350700000000004
24920 -3.59626752 0.81670212 -6.231243330000001 -1.985152 -0.7308359999999999 0.136621
24940 -3.56184423 0.20118348 -6.8573862000000005 -1.866116 -0.720094 0.011389
24960 -3.59657163 0.18741024 -7.3088522099999995 -1.804325 -0.173128 0.104055
24980 -3.7723079700000004 -0.15806852999999998 -7.647895620000001 -1.599253 -0.140744 0.08621799999999999
25000 -4.00357872 0.25492266 -8.57296881 -1.342786 -0.427628 -0.054765
25020 -4.912779330000001 0.6216597000000001 -9.13550364 -1.074864 -0.914161 -0.094999
25040 -5.97901842 0.79319736 -10.52056773 -0.91845 -0.5735439999999999 0.103278
25060 -5.132827440000001 1.91691324 -8.80274844 -0.975586 -0.397855 0.173157
25080 -10.77563754 12.332258910000002 -16.520991570000003 -0.924571 -0.620908 0.231483
25100 -11.177258940000002 17.86849317 -11.162583180000002 -0.6154970000000001 -0.839776 0.085439
25120 -5.21380899 3.47727222 -2.828223 -0.328588 -0.699952 -0.231066
25140 -5.5283077800000004 -0.33784659 -3.4296642900000003 -0.127805 -0.354686 -0.168149
25160 -6.19367103 3.0741597 -3.7115350200000004 -0.012266 0.317544 -0.27823000000000003
25180 -8.131685580000001 6.334679970000001 -4.99720419 0.21420300000000006 0.931009 -0.440872
25200 -7.84982466 7.37591337 -4.80590919 0.571966 1.336448 -0.110949
25220 -6.000875100000001 6.9442047 -3.6925232400000003 1.6779130000000002 1.70443 -0.119719
25240 -5.029694909999999 5.566919939999999 -4.5414021600000005 2.449766 0.980815 -0.714809
25260 -4.36806927 5.55734538 -4.78524933 3.128271 0.902034 -0.782608
25280 -3.5956691100000002 6.130504439999999 -4.56700626 3.369075 1.519266 -0.568072
25300 -2.8897415100000003 7.484588550000001 -3.5899891200000003 3.095278 1.00843 -0.4550300000000001
25320 -2.06720244 8.28242604 -2.62568574 2.74138 0.078919 -0.26723600000000003
25340 -2.9521625400000007 7.25480892 -2.44067895 2.85524 0.139905 0.099881
25360 -3.98920707 6.13005318 -3.2624626500000002 3.125868 0.455883 0.499814
25380 -5.07519369 5.96658915 -2.65188825 3.261708 0.452645 0.658863
25400 -5.924680830000001 7.54925607 -3.00739284 3.370029 0.086836 0.403716
25420 -5.10303447 6.999591960000001 -2.29008564 3.325849 0.125747 0.30187600000000003
25440 -4.622982120000001 6.5966363999999995 -1.6227800100000003 3.196571 0.452603 0.193732
25460 -4.537664550000001 7.37830701 -1.7253141300000001 2.848987 0.650184 0.102388
25480 -4.418365140000001 10.13287653 -1.4778765 2.610976 0.544826 0.016471
25500 -4.07887047 11.34161568 -1.77979887 2.5921 0.695738 -0.144087
25520 -4.42405494 9.89308089 -2.4059515500000006 2.5378130000000003 0.33434400000000003 -0.296759
25540 -4.547690370000001 9.799670070000001 -2.98868517 2.4491240000000003 0.17219600000000002 -0.42963
25560 -4.5933461100000015 11.957281470000002 -1.20903345 2.106237 0.268397 -0.480219
25580 -7.12952541 11.475738 -0.46582785000000004 1.8285 0.251968 -0.659462
25600 -8.439003450000001 9.42680178 -1.3684557600000002 1.482875 0.268064 -0.655488
25620 -9.36362538 9.11963106 -1.3644140400000002 1.170628 0.125274 -0.6403939999999999
25640 -10.489440600000002 11.153008620000001 -0.09011466 0.853405 0.094227 -0.593432
25660 -8.13438333 11.124863730000001 4.3188230700000005 0.482595 0.072699 -0.482763
25680 -6.887473470000001 8.05669794 1.04257737 0.107364 0.022402 -0.366747
25700 -6.655614120000001 7.25556429 -2.7792711000000003 -0.275037 0.058337 -0.230595
25720 -5.702091930000001 8.123307839999999 -3.48460029 -0.625215 -0.030736000000000006 -0.029965
25740 -4.58481141 9.59415057 -3.42652509 -0.955323 -0.181597 0.153793
25760 -4.47868683 11.091784409999999 -1.6886345399999998 -1.392957 -0.082652 0.298024
25780 -5.65942824 10.444834530000001 -1.37189907 -1.517435 0.03268 0.335463
25800 -6.69213675 8.75918223 -1.92110211 -1.266322 -0.144919 0.308602
25820 -6.94615689 6.60336606 -2.6153656200000004 -1.7791709999999998 -0.504433 0.34927800000000003
25840 -6.32389878 3.2042403000000004 -3.1641174000000003 -1.1927530000000002 -0.592414 1.062786
25860 -6.430778730000001 2.7385596000000003 -2.9725182900000005 -2.380126 0.17431 1.09517
25880 -5.81839929 3.8221525800000005 -3.6143865900000005 -2.263471 -0.041264 0.558946
25900 -5.28565743 4.492312920000001 -4.76773848 -2.224544 -0.270003 0.45162
25920 -4.86024678 4.6372066200000015 -4.8065076000000015 -2.176509 -0.146119 0.332156
25940 -4.33977723 4.16688579 -4.54619925 -2.331693 0.084006 0.194045
25960 -4.70157003 3.54807099 -5.25871917 -2.531072 0.067838 0.147808
25980 -4.91518278 3.8377210500000003 -5.504950170000001 -2.426486 -0.022683 0.050378
26000 -4.972512419999999 3.1121734500000002 -5.810315850000001 -2.430725 0.039957 0.106884
26020 -5.0567803200000006 2.54635227 -6.42523608 -2.560357 0.135417 0.322705
26040 -5.32473066 2.2598512200000003 -6.652170810000001 -2.57716 0.07534500000000001 0.441237
26060 -4.8199767300000005 1.97050527 -6.60381732 -2.521338 0.108349 0.397788
26080 -4.752464310000001 1.8217071900000001 -6.36431598 -2.396376 -0.00443 0.254595
26100 -4.14053613 1.40811759 -6.283481580000001 -2.150473 -0.224339 0.15725
26120 -3.62396115 0.55728648 -6.975047340000001 -1.891074 -0.341712 0.24680700000000005
26140 -3.63220155 0.26509562999999997 -7.31648439 -1.719542 -0.177112 0.227498
26160 -4.28933421 0.5273561700000001 -7.08896106 -1.641239 -0.200351 0.11057
26180 -4.69558593 1.07746173 -7.65672462 -1.443095 -0.435786 -0.05866
26200 -4.422554010000001 1.21218246 -8.31325887 -1.181808 -0.28623000000000004 -0.123256
26220 -5.145403860000001 1.23882642 -9.52230213 -0.8409459999999999 -0.229652 -0.181836
26240 -6.109697430000001 1.6741157400000002 -11.712247290000002 -0.6441600000000001 0.012001 -0.045107
26260 -7.47949716 2.6087733 -8.4798621 -0.605587 -0.092916 0.051437
26280 -10.85482386 8.10025434 -12.227174190000001 -0.847772 -0.308412 0.07245399999999999
26300 -4.79347992 10.41504156 -8.749901970000002 -1.086888 -0.361811 0.047351
26320 -5.66602056 4.52254734 -3.3036254100000004 -1.007906 -0.340837 0.061763
26340 -9.18879156 3.0897281700000008 -5.3823546 -0.838047 -0.5289159999999999 0.062122
26360 -7.3805535 5.92961526 -5.428461600000001 -0.742121 -0.599359 0.012676
26380 -5.416640550000001 6.63644538 -5.40346572 -0.850174 -0.480525 -0.040574
26400 -4.5750897 6.12481464 -5.448071790000001 -0.91261 -0.293117 0.033525
26420 -4.53811581 5.73053112 -4.8954156300000005 -0.799825 -0.327733 0.067472
26440 -5.045106420000001 5.881124430000001 -5.2895520000000005 -0.5160520000000001 -0.211073 -0.048199
26460 -4.768631190000001 6.7065084 -5.406310620000001 -0.276821 -0.228658 -0.120213
26480 -4.0228848 6.900354000000001 -5.137918830000001 -0.155016 -0.199214 -0.130082
26500 -3.51813087 6.340664070000001 -4.62403179 -0.21695 -0.037883 -0.194815
26520 -3.21366771 5.72799033 -4.3872282 -0.113925 0.220013 -0.308726
26540 -2.95979472 6.05640951 -4.263131700000001 0.272476 0.282498 -0.28581
26560 -3.54029166 7.47351306 -4.0300657200000005 0.718396 0.450675 -0.105586
26580 -4.22675622 7.717654530000001 -3.16861038 1.017479 0.644007 -0.22765900000000006
26600 -4.24681767 6.223307040000001 -3.58893945 1.598084 1.054588 -0.576643
26620 -4.530925080000001 5.49881892 -3.44224071 2.551975 1.654742 -0.705345
26640 -5.1082730100000004 7.513479 -2.6047315799999997 3.300085 2.161405 -0.718928
26660 -5.39328294 9.08506062 -2.16165312 3.303699 1.448142 -0.573779
26680 -4.97206116 9.31423203 -1.60870266 2.571046 0.493412 -0.41103
26700 -5.326525889999999 8.76771693 -2.5770379500000002 2.423492 -0.116114 -0.236092
26720 -4.62553272 7.848627840000001 -3.0889728 2.758151 0.047933 0.007454
26740 -4.1794622100000005 8.24619771 -2.5857198000000006 3.351079 0.851676 0.161185
26760 -4.1912832600000005 9.246121200000001 -1.11518118 3.4774260000000004 0.7297359999999999 0.176111
26780 -4.83643791 8.96411313 -0.87298209 3.3431580000000003 0.320907 -0.032607
26800 -5.04017199 7.659422370000001 -1.83279249 3.218032 0.5914119999999999 -0.171628
26820 -5.04211437 7.114555350000001 -2.17033497 2.760931 0.928697 -0.206231
26840 -4.792587210000001 8.65500003 -1.62801855 2.600225 0.811945 -0.17409000000000002
26860 -4.234094100000001 9.67154166 -0.7030925100000001 2.738723 0.525987 -0.178097
26880 -3.8880169200000005 9.752670360000002 -0.72194733 2.7629330000000003 0.106622 -0.28741700000000003
26900 -4.9912200900000006 10.09111536 -0.99423369 2.461704 0.382984 -0.406312
26920 -5.361400440000001 10.01881566 -1.8068940900000001 2.083308 0.288059 -0.581885
26940 -5.263055189999999 10.38165813 -2.08965753 1.91869 0.081452 -0.719503
26960 -5.03029332 10.86589935 -1.53415647 1.738738 -0.070285 -0.713087
26980 -6.067033739999999 11.549381670000002 -0.07229970000000002 1.517763 -0.12056 -0.735931
27000 -7.6136194800000006 12.19424202 0.49247181000000007 1.18286 -0.023818 -0.662551
27020 -9.03820806 12.08646936 0.7212017700000001 0.786708 0.004843999999999999 -0.560669
27040 -9.51391458 9.74668626 -0.45999090000000004 0.409502 -0.058037 -0.49272
27060 -7.476505110000001 7.583228100000001 -1.20334365 0.061024 -0.096683 -0.382942
27080 -5.77169388 8.410858560000001 -0.8544215700000001 -0.276804 -0.08445599999999999 -0.217606
27100 -6.49544625 9.0001845 -2.06555436 -0.517253 -0.199518 -0.006562
27120 -7.18745346 8.4104073 -4.285135530000001 -0.711743 -0.100451 0.162868
27140 -6.0514652700000005 8.597670390000001 -2.89737369 -1.075754 -0.002816 0.30441
27160 -4.5533801700000005 8.382713670000001 -1.03943817 -1.244177 -0.112336 0.399514
27180 -4.59678942 9.99561501 -0.9892894500000001 -1.0231709999999998 -0.441763 0.272225
27200 -5.66571645 9.46601235 -3.00590172 -1.210291 -0.197562 0.371018
27220 -6.68180682 5.79998592 -5.52890619 -0.819591 -0.666299 0.568764
27240 -7.203021929999999 2.15971074 -4.84931844 -1.125472 0.108408 1.036721
27260 -6.662049480000001 2.8759682700000004 -2.9386934100000004 -2.176784 -0.022118 0.7571479999999999
27280 -5.37756732 4.8737159100000005 -4.32031419 -2.211679 -0.056731 0.652263
27300 -4.39845084 5.851635570000001 -5.18057271 -2.428396 0.035145 0.7745449999999999
27320 -4.12496766 4.75141464 -5.64805845 -2.368913 0.08127899999999999 0.641374
27340 -4.25355714 3.2087234700000002 -5.94697896 -2.2132400000000003 0.098583 0.441613
27360 -4.6707372000000005 2.27736207 -5.6974518 -2.1997720000000003 0.086399 0.28042100000000003
27380 -4.929848730000001 2.6110197900000003 -5.88141873 -2.429466 0.200335 0.22526
27400 -4.781207610000002 2.3695760700000004 -5.30856378 -2.777381 0.323352 0.132941
27420 -4.69259388 2.0242444500000003 -6.16612455 -2.899717 0.122613 0.089615
27440 -4.32870174 1.31845419 -6.768772470000001 -2.835109 0.084833 0.157413
27460 -4.23079794 1.00784997 -6.786283320000001 -2.747859 0.238057 0.125779
27480 -4.179158100000001 0.66416643 -6.240974850000001 -2.74456 0.400357 0.028386
27500 -4.14877653 -0.01975734 -6.424490520000001 -2.699948 0.311963 -0.016054
27520 -4.01929434 -0.18037647 -6.94046709 -2.55024 0.132549 -0.034007
27540 -3.9972905100000005 -0.23665644 -7.176525120000001 -2.377684 -0.123892 0.010256
27560 -5.0407703999999995 0.08981055 -7.2792162000000005 -2.109376 -0.162449 0.095501
27580 -5.04017199 0.03367773 -7.95026925 -2.042799 0.053087 0.216399
27600 -4.22660907 -0.28156662 -8.282877299999999 -1.849582 -0.023877 0.115298
27620 -3.98291886 -0.022749390000000005 -9.58920633 -1.626802 -0.024938 -0.07862899999999999
27640 -5.07370257 0.41718006 -10.916793629999999 -1.645461 0.12850599999999998 0.192372
27660 -6.26821722 0.26090676 -7.44656499 -1.572483 0.244285 0.21303
27680 -12.820836150000002 6.64753068 -10.66382316 -1.360223 0.301749 0.044591000000000006
27700 -8.97323643 10.16446473 -13.530962430000002 -1.078437 0.20645500000000006 -0.0783
27720 -3.6528516000000004 1.82904507 -3.6724617900000003 -0.953456 0.224196 -0.094541
27740 -7.37995509 0.48259314000000003 -6.110747100000001 -1.11051 0.3264 0.056986
27760 -6.35652684 6.322250700000001 -6.105057300000001 -1.034941 0.309002 0.07996900000000001
27780 -6.63825042 8.726407020000002 -5.013371070000001 -0.8821370000000001 0.092348 0.048199
27800 -7.22832192 7.55359209 -5.27652432 -0.835183 -0.143239 0.047761
27820 -7.78995423 6.57028674 -5.1901570800000005 -0.880626 -0.069486 0.024916
27840 -5.974074180000001 5.07354561 -5.269941810000001 -1.050234 -0.039163 0.048262
27860 -4.56475977 5.30017623 -5.84683848 -1.076064 -0.111422 0.025741000000000003
27880 -4.571646390000001 7.04091168 -5.203027800000001 -1.0388620000000002 -0.25385100000000005 -0.08598
27900 -5.281762860000001 7.9038679499999995 -4.44950208 -0.944909 -0.106747 -0.191266
27920 -5.642515800000001 7.0462973700000004 -4.81339422 -0.68711 0.019223 -0.215264
27940 -4.8838986900000005 6.2107306200000005 -4.48497504 -0.475581 0.327386 -0.206704
27960 -3.8719971900000005 6.13229967 -4.16014632 -0.205627 0.551409 0.012812
27980 -3.1085829900000004 6.49200294 -3.76183089 0.05317 0.465222 0.029685000000000007
28000 -3.3302791800000002 7.5658644 -3.6098936100000003 0.110855 0.491503 -0.198545
28020 -4.26358296 7.47979146 -3.19735368 0.60134 1.052612 -0.2845
28040 -4.69543878 6.8308992 -3.2322282300000005 1.16598 1.329815 -0.29907100000000003
28060 -4.15835109 6.531517620000001 -2.76295707 1.763742 1.583603 -0.347564
28080 -3.6778474800000005 6.72521607 -2.21778594 2.1886240000000003 1.480613 -0.26862
28100 -4.45713426 8.518788180000001 -1.7760612600000003 2.525125 1.486304 -0.118862
28120 -4.650077340000001 9.09194724 -1.6628931 2.690819 1.565595 -0.111397
28140 -4.60592253 7.35046623 -0.78272028 2.540905 1.114808 -0.203734
28160 -4.77716589 6.678814770000001 -1.30558347 2.264193 0.356071 -0.16517
28180 -5.14405008 7.70417559 -1.79522019 2.31102 0.5552729999999999 0.061365
28200 -4.3562384100000004 8.81351982 -1.8944581500000002 2.301495 0.725136 0.214904
28220 -3.4277219100000003 8.995838670000001 -0.9410929200000001 2.298834 0.6408550000000001 0.248109
28240 -3.7990990800000004 8.86995675 -0.17468667000000002 2.223912 0.194328 0.091129
28260 -4.5274817700000005 8.95302783 -0.5987533500000001 1.974292 0.353204 0.003724
28280 -4.61654676 8.19336105 -1.25723979 1.64582 0.466818 -0.151472
28300 -4.53721329 8.18333523 -1.62307431 1.413076 0.403822 -0.179722
28320 -4.07303352 8.40217671 -1.5458401800000001 1.306616 0.394846 -0.240275
28340 -3.7115350200000004 9.816582510000002 -0.8631034200000001 1.2037870000000002 0.406401 -0.376672
28360 -3.6031541400000004 10.71142128 -0.59740938 1.041662 0.30514600000000003 -0.48877
28380 -5.0687583300000005 10.053994320000001 -0.8746301700000001 0.840528 0.324335 -0.584203
28400 -6.5231398800000004 9.71015382 -1.81856799 0.600858 0.326567 -0.668133
28420 -6.90528843 11.6522199 -0.81175788 0.317149 0.286248 -0.728815
28440 -5.747443560000001 12.858114150000002 2.15117604 -0.011478 0.251292 -0.759908
28460 -8.75379654 12.712916340000001 1.41920289 -0.401978 0.215496 -0.793568
28480 -9.32501322 9.17008389 0.07813665 -0.708781 0.097188 -0.778468
28500 -7.02563751 10.391988060000001 0.53992278 -0.90178 -0.058965 -0.721932
28520 -5.514985800000001 10.566674729999999 1.1814967800000005 -1.063284 -0.116058 -0.689872
28540 -5.5203714900000005 10.459951740000001 0.8722365300000001 -1.351703 0.072311 -0.660082
28560 -5.711676300000001 9.32306103 -0.41583609000000005 -1.707925 0.16914500000000002 -0.591123
28580 -6.262978680000001 8.47971495 -1.2930070500000002 -2.02965 0.134721 -0.49505
28600 -5.9143509 8.395594200000001 -1.7326422000000001 -2.198116 0.045322 -0.370062
28620 -6.18992361 7.85850651 -1.7064495 -2.298976 0.100333 -0.187103
28640 -6.214330889999999 8.12854638 -1.1816439300000001 -2.348793 0.3565 -0.0029760000000000003
28660 -5.449121460000001 8.81367678 -0.5794472700000001 -2.168704 0.391756 0.081558
28680 -5.025496230000001 8.530462080000001 -1.7986635000000002 -1.721687 0.8142699999999999 -0.205349
28700 -5.6118301200000005 5.360654879999999 -3.1000581000000005 -0.96264 0.954027 -0.6478119999999999
28720 -5.5103456699999995 3.6706665600000004 -2.6409599100000003 -0.33029899999999995 0.274948 -0.538907
28740 -4.89497418 4.07736954 -2.5765965 0.149008 -0.173888 -0.33309
28760 -4.67447481 5.2135048799999995 -3.3985371600000005 -0.4441600000000001 -0.209895 -0.138498
28780 -4.691544210000001 5.547162600000001 -3.62247003 -1.556773 -0.02022 0.012653
28800 -4.83284745 5.282518230000001 -3.21740532 -2.058136 0.016600999999999998 0.030468
28820 -5.025349080000001 4.63151682 -3.57950223 -1.6289790000000002 0.209512 0.166746
28840 -5.0814819 4.597534980000001 -3.7558369799999998 -0.676269 0.8498870000000001 0.104214
28860 -4.84841592 4.56206202 -4.31837181 -0.460068 1.138344 0.241019
28880 -4.605775380000001 4.54888719 -4.6937907 -1.359169 1.206443 0.24106100000000005
28900 -4.66115283 4.47330114 -4.92415893 -2.297164 0.6812520000000001 -0.008373
28920 -4.533769980000001 4.291276590000001 -5.16605391 -2.062267 0.253231 -0.000843
28940 -4.24382562 4.15311255 -5.243749110000001 -1.497515 0.27611 0.181466
28960 -4.573441620000001 4.16837691 -5.3331084 -1.2993860000000002 0.847867 0.34982800000000003
28980 -4.5833202900000005 4.665351510000001 -5.679342540000001 -1.7799779999999998 1.319965 0.454825
29000 -3.95118351 4.88060253 -5.41379565 -2.262641 1.286245 0.514522
29020 -3.42891873 4.140693090000001 -4.69902924 -2.265088 0.96566 0.501028
29040 -3.89459943 3.56438502 -4.83329871 -2.006064 1.0344719999999998 0.384177
29060 -4.22660907 3.4973238600000003 -5.29763544 -1.793054 1.071492 0.265977
29080 -4.83284745 4.1833469700000006 -5.82858207 -1.68531 1.015935 0.213389
29100 -5.1757854299999995 5.1880577400000005 -6.109697430000001 -1.597518 1.284228 0.176271
29120 -5.123095919999999 5.4836919 -6.37644114 -1.6529040000000002 1.320577 0.191861
29140 -4.591854990000001 6.00431841 -7.37321562 -1.808151 1.173149 0.165328
