time Ax Ay Az Gx Gy Gz
20 6.378236370000001 7.97152752 -0.00164808 2.557466 -4.12986 0.126774
40 3.3193508400000002 8.220456270000001 1.1148770700000001 0.983725 -3.275148 -0.197235
60 3.1650199200000007 9.54251073 -3.4296642900000003 -0.427594 -2.011442 -0.643479
80 4.159695060000001 12.95780337 -6.3191115 -1.3936540000000002 -0.522962 -0.943759
100 3.9134640600000004 14.56425954 -3.59327547 -2.332355 1.011658 -1.350729
120 1.1632305600000001 15.740066520000001 -0.49307022000000006 -2.887878 2.385211 -1.238865
140 3.89474658 17.75023362 -1.66363866 -3.404662 3.011353 -0.997586
160 3.2873113800000002 19.764903510000003 -7.21230219 -2.791562 3.480831 -0.91913
180 5.24195388 18.70585515 -2.65263381 -3.355931 1.443693 -0.347894
200 10.530004950000002 20.370984930000002 -5.51228805 -2.56517 0.669991 -0.688552
220 10.763070930000001 9.114990930000001 -2.9244689100000003 -1.556534 1.028126 -1.612386
240 4.22571636 6.26327298 -2.12917221 -1.569909 -0.495286 -1.5838219999999998
260 -1.52547462 2.74064913 -0.2891988000000001 -1.27131 -1.210385 -2.033746
280 -2.31703371 -3.27982635 2.41942068 -0.6227199999999999 -2.382776 -2.71458
300 -2.8291157100000004 -4.39411482 5.690712330000001 -0.4530020000000001 -2.613311 -2.486636
320 -2.89393038 -5.9600066400000005 5.285961540000001 -1.234348 -2.943333 -1.065595
340 -2.07394191 -6.52268862 3.5004728700000003 -2.960898 -0.106679 -0.059001
360 -2.08037727 -5.98440411 0.10253412 -3.5106 0.202992 -1.364332
380 -0.032186610000000004 -1.43820486 -0.43753581 -3.46604 0.174484 -2.5304830000000003
400 1.55990772 7.96852566 -6.95168973 -2.901295 0.273858 -2.03101
420 1.6796583900000002 11.76852726 5.870039129999999 -1.827233 -0.179783 -1.938537
440 1.9248495300000001 13.192370280000002 -2.6406558 -1.408926 -0.6114890000000001 -1.435134
460 1.4147099099999998 11.4182514 -4.99840101 -1.033591 -0.688094 -0.985897
480 0.46837845000000006 7.1280244800000006 0.28485297000000004 -0.407871 -1.779639 -0.28792
500 2.44052199 8.2973961 -1.2094847100000001 0.800555 -1.942653 1.066689
520 1.2073853700000001 15.11002908 -0.10508471999999999 1.468428 -1.194733 2.060638
540 2.3436776700000004 26.407637100000002 -3.90777426 1.617625 0.231212 2.5779400000000003
560 2.81729466 21.95918469 0.7406550000000001 1.785384 -0.002234 3.002427
580 1.1567952000000001 18.544931910000003 -1.9446068699999999 1.890947 -0.413044 3.080603
600 -3.1085829900000004 18.67651344 -2.35370349 1.755585 -0.863382 2.597398
620 3.17729223 23.27045796 -0.59276925 1.835831 -0.49137 2.204376
640 2.6662599000000005 21.85096077 -4.502034630000001 1.367316 1.672745 2.740987
660 1.91825721 19.00702215 -6.55606224 1.100698 2.388772 3.197543
680 2.18844423 10.856020680000002 -3.2233992300000005 1.017957 1.400112 3.290099
700 4.2052036500000005 0.07514459999999999 -1.49598576 2.254982 -0.302483 3.62032
720 7.628138280000001 -2.2309607700000003 -2.4120828 2.638811 -0.747212 3.947242
740 9.27606132 -2.114055 -4.78615185 2.514418 -1.622674 3.208285
760 6.72266547 -0.80562663 -2.15880822 2.756769 -2.62898 2.637632
780 1.96601229 0.13651596 0.40385808000000006 2.897642 -3.029428 2.225728
800 -2.17168875 0.54307179 1.52951634 2.829123 -3.808179 1.495583
820 -4.39246674 3.32698302 1.7235189000000002 2.345544 -4.307869 0.337029
840 -5.5461129300000005 6.410118870000002 0.21255327 0.81867 -3.404907 -0.637261
860 -4.344868620000001 9.85250673 0.0432621 -0.271908 -1.606016 -0.933467
880 -2.49904845 19.336491000000002 -1.6007663699999999 -1.186542 0.079824 -1.083022
900 -4.261483620000002 21.69034164 -1.3690541699999998 -2.102859 1.680131 -1.419417
920 3.34479798 16.41816315 -6.76951803 -2.9695240000000003 2.463181 -1.751214
940 10.25561925 15.594721560000002 -11.99485377 -3.183592 2.602081 -1.935553
960 9.568399320000001 23.07316905 -5.7902544 -2.021203 2.843624 -1.80917
980 7.504797150000001 26.566755300000004 -5.293740870000001 -1.711791 3.037053 -0.900336
1000 8.14741101 20.128638690000002 -7.62034914 -3.175184 2.150823 -0.451155
1020 8.39424042 16.310831940000003 -5.16784914 -2.214753 0.892963 -0.808167
1040 5.722898939999999 13.292805060000001 -5.710322520000001 -0.09207 1.295275 -1.4914040000000002
1060 3.0650265900000004 5.20766793 -3.00155589 -0.390223 1.553478 -1.60064
1080 -0.1588239 -2.78450964 -1.71572976 -1.116348 0.21910900000000005 -1.609343
1100 -2.6709000300000003 -2.18889549 0.83750913 -1.031441 0.8206319999999999 -1.859485
1120 -4.4777843100000005 -4.73210856 3.6016630200000006 -0.7621399999999999 1.715036 -2.251856
1140 -4.460871870000001 -7.199127360000001 5.74729641 -0.789794 -0.040725 -1.649458
1160 -2.3882837400000003 -6.40323225 3.49927605 -0.835234 -0.321017 -1.312926
1180 -1.09796463 -2.139649290000001 -0.44143038000000007 -1.405865 -0.204417 -1.471954
1200 0.5123861099999999 2.47944807 -5.6854737900000005 -1.937144 0.265983 -1.963377
1220 3.6782987400000002 11.335631580000001 -6.120772919999999 -2.346539 1.355926 -1.6503709999999998
1240 2.1275241300000003 12.26025351 4.89452292 -2.547979 0.997344 -1.579748
1260 -1.72112526 10.35606384 0.9563572800000001 -2.431168 0.361018 -1.857991
1280 0.83346741 9.909993329999999 -5.4745686000000005 -1.770304 0.705973 -1.849544
1300 1.17176526 7.542369450000001 -2.60009145 -1.085404 0.404681 -1.423494
1320 -0.31808925000000005 4.84946559 0.3990708 -1.031423 0.098649 -1.396019
1340 -0.49921128000000003 7.838749170000001 2.29233213 -0.850025 0.373795 -1.363058
1360 -0.37976472000000006 17.374216320000002 -1.9127243700000003 -0.268968 0.15753599999999998 -0.5340550000000001
1380 1.13015124 18.16247925 -2.75861124 0.345465 -0.149598 0.613628
1400 2.03247504 13.21796457 -0.34338924000000004 0.967306 -0.225621 1.768544
1420 2.43303696 13.04148267 0.60833772 1.071592 0.595945 2.41663
1440 4.69109295 18.43087104 -1.75495014 1.0692620000000002 0.92575 2.792205
1460 7.44776181 22.902975360000003 0.08128566000000001 1.3659290000000002 0.142091 2.705551
1480 5.2635064499999995 23.289322589999998 -3.43625661 1.537415 -0.8377370000000001 2.50077
1500 -0.2080701 19.55593089 -2.3999576400000002 2.11063 -0.4335350000000001 1.88896
1520 1.28044044 19.36822635 -1.8399734100000003 2.130866 1.89491 1.135157
1540 1.99774764 16.123716 -4.00911156 1.514642 1.292887 0.90623
1560 2.1146534100000003 8.99643708 -4.32151101 1.475179 0.121061 0.679924
1580 2.40459777 2.9298546 -4.0917411900000005 1.951652 0.302689 1.198971
1600 4.68929772 -0.53154504 -3.1237002 1.389015 1.318508 2.065408
1620 7.08162318 -1.44524844 -2.63826216 1.957995 1.508976 2.424856
1640 7.01875089 -1.78189821 -3.4138015200000003 2.302605 0.294322 1.920346
1660 4.88015127 0.11152008000000001 -2.7387067500000004 2.21997 -0.0081 1.962886
1680 1.02417381 2.9277650700000004 2.03845914 2.207082 -0.486426 1.978364
1700 -2.10582441 4.982086980000001 3.9362134500000003 2.356477 -1.155132 1.777302
1720 -4.42045467 8.6591889 0.17708031000000002 2.376725 -1.030351 1.191898
1740 -7.7170561200000005 18.08359704 -5.498220510000001 2.027934 -1.062284 0.423587
1760 -6.903493200000001 26.8442802 -0.722997 1.496394 -0.861502 -0.041855
1780 -5.984256960000001 18.22714677 -2.2382986500000004 1.168116 -0.498488 -0.228347
1800 -2.95470333 12.662914770000002 -1.9115275500000002 0.921664 -0.433021 -0.402136
1820 1.9981989000000002 12.0225474 -1.99445148 0.80985 -0.871484 -0.413038
1840 3.12474987 14.620098060000002 -0.06646275 0.575362 -1.544829 -0.18735
1860 4.48452378 18.11921715 -1.3156092899999998 0.367503 -1.46638 0.087767
1880 -2.57299623 13.82285898 -5.501212560000001 -0.177558 -0.908633 0.141998
1900 -3.9603166200000004 6.963216480000001 -1.30543632 -0.784556 -0.635071 -0.077305
1920 -0.5837832900000002 6.55995681 -0.36299943 -1.2774450000000002 0.382331 -0.730463
1940 1.46201373 5.91284997 -0.6147730800000001 -0.4798810000000001 -1.005655 -0.107817
1960 2.8601055 1.58700294 1.0891356300000001 -1.205032 -0.31044 -0.441717
1980 2.3616397800000004 -1.0352493 0.5773479300000001 -1.838309 1.354946 -0.78156
2000 1.1642802300000001 -1.88682597 0.8226862200000001 -2.483311 2.132759 -1.061595
2020 -0.09415638000000001 -0.40296537000000004 0.57645522 -2.373155 2.474992 -1.492826
2040 -0.3101529600000001 -0.14205861 -1.12072383 -2.205835 2.345868 -1.581223
2060 1.21831371 0.9711801900000001 -3.57246846 -2.333453 2.695636 -1.56013
2080 3.61977228 3.0042536400000004 -5.091507720000001 -2.34335 2.87673 -1.550817
2100 7.397318790000001 6.29395866 -6.79122756 -2.4438020000000003 2.739219 -1.1753280000000002
2120 9.61481043 8.641825200000001 -10.445275980000002 -2.605383 2.902747 -0.90427
2140 10.543022820000001 9.87825798 -11.810435580000002 -2.64597 3.4309 -1.07935
2160 5.557796639999999 7.897579740000001 -7.08296715 -2.529433 3.5811589999999995 -1.460084
2180 -0.91385055 10.840756319999999 -8.66023857 -1.942036 3.219982 -1.956514
2200 1.9865151900000002 25.821754470000002 -11.38936095 -1.302804 2.200952 -1.821488
2220 -3.2953948200000003 4.64155245 -3.44613528 -1.256311 1.086989 -1.4084709999999998
2240 -3.00365523 3.53684835 -3.63698883 -0.928758 1.7785939999999998 -0.954143
2260 -3.71048535 4.45309254 0.48438837 -0.734907 2.937935 -0.670127
2280 -2.4281025300000003 8.53091334 -4.10296383 -1.020577 3.119527 -0.546305
2300 0.5022033300000001 11.87165979 -1.9008935100000002 -1.046594 3.515847 -0.533108
2320 0.60159825 13.55910732 -1.83219408 -1.003723 3.5731660000000005 -0.518995
2340 0.27857457 10.511738730000001 -1.6880361300000002 -1.04621 2.69753 -0.487191
2360 0.29264211 8.57851146 -0.97627158 -1.114984 1.527587 -0.360122
2380 0.52406001 8.83104048 0.26853894 -1.12924 1.215573 -0.109858
2400 0.8108651700000001 10.30352148 0.94004325 -1.233975 0.931646 0.121578
2420 0.69949224 11.28144114 1.04273433 -0.807395 0.628792 0.097172
2440 1.01234295 10.36354887 0.48334851000000006 -0.296501 -0.001009 -0.023434
2460 2.13859962 8.57072232 0.8628091200000001 -0.419814 0.095417 0.211658
2480 2.2589487 8.60769621 2.59350894 -0.523295 0.912537 0.553855
2500 2.60338761 9.497453400000001 3.175497 -0.367675 1.221353 0.181737
2520 1.14751494 7.74743769 2.03771358 0.157722 1.030153 0.121559
2540 0.15043635 6.61055679 1.76198391 0.354124 1.268608 1.057319
2560 0.07484049000000001 6.862026330000001 2.5861710600000003 0.986965 2.0559540000000003 1.812759
2580 1.47593412 8.641825200000001 2.24473401 1.774961 2.369961 1.990913
2600 3.01967496 9.40823145 1.4277277800000001 2.7716 2.341292 2.168827
2620 4.6669995900000005 9.42769449 0.07304525999999999 2.747319 2.780752 2.3144400000000003
2640 5.669905320000001 9.69249582 -1.25334522 2.468314 3.059107 2.476641
2660 4.31956863 10.426264200000002 -2.36253249 2.516788 2.500422 2.28862
2680 2.3167296000000004 8.94794625 -2.09025594 3.291891000000001 1.904052 1.571612
2700 1.8068940900000001 8.73987615 -0.45714600000000005 3.953645 1.496594 0.8631850000000001
2720 0.28515708 9.10331703 0.5319963 3.638223 1.374949 0.6549699999999999
2740 -1.6820520300000001 9.01485045 0.74514798 2.997668 2.25275 0.67394
2760 -1.35872424 9.03745269 0.56911734 2.210633 2.139176 0.720931
2780 2.8648927800000004 9.991573290000002 1.7904231000000002 1.736256 1.902771 1.109958
2800 1.8482040000000002 12.689264430000001 2.1266314200000007 1.673847 0.79102 1.065013
2820 -0.22393287 15.399973440000002 3.36125916 1.567138 -0.01159 0.7394890000000001
2840 -0.52315749 15.425724690000001 -0.06242103000000001 1.282631 -0.391188 0.277584
2860 0.60085269 11.73260304 0.19534653000000002 0.749033 -0.273088 -0.288179
2880 -1.36635642 12.66411159 -0.09415638000000001 0.113736 0.035929 -0.8239190000000001
2900 -3.8248503300000003 16.654064220000002 -1.27848825 -0.648575 0.449316 -1.243175
2920 -6.116427090000001 17.94228399 -2.57958855 -1.5533370000000002 0.544512 -1.62029
2940 -5.447767679999999 15.404613569999999 -1.42039971 -2.434283 0.423705 -1.814296
2960 -3.26785815 12.880569240000002 -0.8886977100000001 -2.5972470000000003 0.787266 -1.748602
2980 -1.06488531 11.58650271 1.0370445300000004 -0.6462720000000001 1.949391 -0.48878
3000 1.35692901 9.667794240000001 2.3483178000000002 0.994669 0.117059 0.765235
3020 2.7385596000000003 6.96845502 2.4168700800000003 0.84049 -0.342933 1.378975
3040 3.2795320500000003 6.3298828799999995 2.0243916 -0.40956 2.138694 0.449461
3060 1.81557594 5.71256901 -1.18853055 -1.572845 3.814292 -0.651466
3080 -0.31898196000000006 3.9661535700000004 -1.04302863 -1.399733 2.900522 -1.392569
3100 -0.31734369000000007 2.83255902 -1.11982131 0.224894 -0.942196 -1.135946
3120 0.01886463 2.3394888000000007 -0.21675195 -0.089393 0.337039 -1.621549
3140 0.30565998000000005 1.2907703700000002 -0.33275520000000003 0.095255 0.88797 -1.561145
3160 0.62046288 1.7215667100000003 -1.1653299000000001 -0.011624 1.332514 -1.549642
3180 2.0122664400000003 1.9999941300000001 -2.2845528000000006 -0.482493 0.981783 -1.344179
3200 3.8404089900000002 1.85838678 -3.8118226500000003 -1.930368 1.102582 -0.7284689999999999
3220 5.38594506 5.334609330000001 -6.132446820000001 -2.497469 3.223045 -0.378361
3240 9.76809168 22.24134972 -8.23093335 -2.230219 3.868630000000001 -0.084629
3260 8.64796626 30.14820972 -10.274935140000002 -0.970584 2.699606 0.25895300000000004
3280 4.843922940000001 13.20328881 -10.26250587 -0.122374 1.93002 0.436779
3300 1.23268536 11.20839588 0.31285071000000003 -0.485861 2.297507 0.49359
3320 -6.418349460000001 14.082568920000002 1.89400689 -0.934578 2.591237 0.6877
3340 -11.61270522 20.19225654 1.7528508 -0.674496 1.804244 0.667025
3360 -9.894572010000001 13.36301523 -11.37904083 -0.652756 1.486227 0.257387
3380 -1.5834026700000001 4.54245183 1.6143924600000004 -0.71138 1.1458959999999998 -0.097236
3400 -1.31681592 3.22084863 5.0208561000000005 -0.577965 1.152909 -0.101654
3420 -0.8608569300000001 3.9999784500000004 6.43451634 -0.6590199999999999 0.928392 -0.095524
3440 -2.06316072 11.87121834 6.8572390500000004 -0.369529 0.6339229999999999 -0.233061
3460 -0.9804604500000001 14.289432390000002 4.525088129999999 -0.405644 0.590689 -0.312307
3480 1.28852388 10.18152432 3.1484017800000004 -0.398349 0.982863 -0.356555
3500 2.42540478 9.71060508 -0.01406754 -0.344195 1.256074 -0.262524
3520 3.43805184 10.1920014 -1.5672456000000001 -0.25041 1.716025 -0.015699
3540 2.9696733900000005 9.58231971 -1.17834777 -0.06751 2.143278 0.072626
3560 3.2430094200000004 10.612330470000002 1.4441987699999999 0.348658 2.197077 0.110715
3580 4.63062411 10.223442450000002 3.0735612900000002 0.879388 1.833241 0.5934520000000001
3600 2.24832447 8.211627270000001 -0.48858705 1.303507 1.478441 1.306168
3620 0.11795544000000001 7.381299060000001 -0.28021284 2.030316 1.548622 2.038614
3640 0.07289811 7.8800590800000005 -0.66775689 2.2985900000000004 1.974756 2.598622
3660 2.0824668 8.35697223 0.29293641 2.430866 2.637189 2.792046
3680 3.6121401 10.86844995 -0.49427685 2.772053 2.577347 2.543473
3700 2.71325961 9.36033903 -0.47751156 2.717321 1.133769 2.356934
3720 1.14871176 7.380406350000001 -0.87313905 3.128939 0.969202 3.193233
3740 -0.28156662 9.58336938 -1.8362358000000003 3.746736 0.341779 3.982427
3760 -0.7695454500000001 9.892178370000002 -1.02881394 3.908093 0.747703 4.095197
3780 0.02215098 12.86050779 0.46178613 3.955714 0.501038 3.934545
3800 0.46343421000000007 16.83773685 0.49891698 3.5621629999999995 -3.128502 4.311393
3820 0.77374413 18.27639297 -2.9835937800000005 3.520637 -3.130624 3.813314
3840 5.094058320000001 15.704289450000001 -3.6911694600000002 3.56156 -4.584218 1.789045
3860 4.8734118 10.656338130000002 -1.25798535 2.664279 -4.244599 0.222739
3880 5.21261217 9.040003290000001 -1.1858328 1.347255 -2.516573 -0.8024180000000001
3900 4.683313620000002 8.88297462 -1.4762284200000002 -0.098019 -1.414809 -1.214508
3920 2.90920455 10.2469374 -3.78532584 -1.504782 1.016758 -1.74447
3940 1.5497249400000002 12.659030009999999 -3.7652742000000003 -2.588338 2.727163 -2.029832
3960 -1.4615624699999998 14.34826296 -3.8305303200000003 -3.116539 3.246359 -2.20617
3980 1.50497172 14.747480910000002 -5.29015041 -2.9033580000000003 2.945179 -2.463873
4000 2.6589220200000003 16.5079737 -6.60336606 -1.995945 3.3529160000000005 -2.651405
4020 3.04931097 23.27435253 -5.04256563 -2.377012 3.105498 -1.189218
4040 7.2253200600000005 26.047482570000003 -4.0222863900000005 -3.216572 2.103201 -1.026087
4060 9.465266790000001 24.8460813 -7.62574464 -0.188894 3.391081 -2.3076830000000004
4080 14.70452292 24.38085186 -2.14414227 -0.75657 1.14993 -2.395302
4100 9.1766664 14.918577120000002 -8.52537069 -0.483465 -0.409839 -2.048497
4120 3.1783419 5.250478770000001 -2.35221237 -0.675928 -0.417193 -2.4397330000000004
4140 -0.24189498000000004 2.73406662 -0.75398679 -1.310099 0.488891 -3.104417
4160 -1.88128332 -0.6074352000000001 -1.2344805900000002 -1.797868 0.28702 -2.548885
4180 -4.49350974 -3.8287350900000003 5.478904620000001 -2.398455 0.324727 -1.336424
4200 -6.700367340000001 -6.0655328100000006 6.828054300000001 -3.0061400000000003 1.378468 -0.855978
4220 -5.54955624 -7.62215418 5.477109390000001 -2.965916 0.149403 -2.02062
4240 -4.48931106 -4.597839090000001 1.0159334100000001 -2.468665 0.051088 -2.373807
4260 -2.2191397200000003 0.31225230000000004 -2.84618511 -1.46212 0.678247 -1.843083
4280 2.5188156 5.02984206 -6.237227430000001 -0.8860540000000001 0.337004 -1.45513
4300 9.21978135 15.498475650000001 4.21627914 -0.457532 -0.011651 -1.482668
4320 1.39495257 13.771062180000001 4.38139125 -0.147966 -0.416273 -0.732232
4340 2.153569680000001 14.51666142 -9.31064157 0.939051 -0.414326 0.500609
4360 -0.6598304100000001 10.201438620000001 0.42197715 1.983416 0.068208 1.733604
4380 -0.5772007800000001 7.224574500000001 2.93764374 2.112379 1.33119 2.794699
4400 0.28231218 8.97308928 2.38034745 2.447545 1.736644 3.406475
4420 3.27773682 18.193920300000002 -4.1011686 1.968711 0.575 3.14611
4440 8.31445569 26.33294376 -1.01339262 2.6955240000000003 -0.550458 2.914415
4460 14.46187257 18.744624270000003 0.84753495 2.685685 -0.400082 2.879971
4480 6.83343999 19.32541551 -1.6860937500000002 2.042335 0.885625 3.457078
4500 -4.03276347 21.65636961 -3.9315733200000005 1.949848 1.303218 3.802001
4520 1.0659349800000002 21.172118580000003 -3.5600490000000002 2.525214 -0.6559149999999999 4.3907120000000015
4540 6.0317079300000005 17.036526690000002 -5.29194564 2.823527 -1.73794 4.590735
4560 4.390367400000001 8.12839923 -4.0433877 2.5552 -2.676367 4.004677
4580 1.97379162 0.48947976000000004 -1.1249127 2.729439 -3.313274 3.289934
4600 4.77357543 -1.54194561 -2.7300249 2.7230950000000003 -4.528268 1.578018
4620 8.67640545 -1.33881975 -4.8698213400000006 1.614954 -3.874578 0.240572
4640 9.433080180000001 0.8529304500000001 -4.681067130000001 0.183634 -2.331845 -0.701824
4660 4.74497928 1.9318833 0.7439511600000001 -0.670722 -0.423256 -1.462266
4680 -0.4252635 2.58392457 2.49980382 -1.308727 0.8512870000000001 -2.092197
4700 -2.6180535600000003 3.87154593 -3.82409496 -2.149248 2.085544 -2.329317
4720 -3.3302791800000002 9.58262382 -7.3824958800000005 -2.526022 2.843938 -2.2485310000000003
4740 -0.32722236 16.76753649 -2.9975141700000005 -2.1743080000000004 3.299471 -2.18577
4760 3.2091747300000004 26.727521580000005 2.08830375 -1.548474 3.911125 -1.710028
4780 9.36497916 24.81764211 -4.81773024 -2.434246 2.998982 -1.142479
4800 12.28420953 23.34186495 -10.338700140000002 -2.71536 1.946243 -1.369557
4820 9.014409 22.656734550000003 -5.23686249 -1.026776 1.975966 -1.7412919999999998
4840 10.464739020000001 24.8520654 -1.77785649 -0.96848 1.974471 -1.41828
4860 7.1816165100000005 15.75474228 -6.663540600000001 -0.904922 0.378748 -1.48843
4880 2.73211443 7.92346833 -4.21283583 -0.311706 0.799724 -1.783928
4900 1.22759397 -0.11884815000000001 -1.4374593 -0.129977 0.189663 -1.760512
4920 -3.82229973 -1.7528508 1.03793724 -0.8039189999999999 -0.477928 -1.793206
4940 -5.8627110600000005 -2.19069072 5.2853631299999995 -1.289871 0.187893 -2.44266
4960 -5.62814415 -4.649027670000001 6.37464591 -2.121461 1.709271 -1.763552
4980 -2.88959436 -5.723644500000001 5.514985800000001 -2.2681720000000003 1.372111 -1.503498
5000 -3.1663638900000004 -3.95297874 2.62149687 -2.30175 0.805092 -2.199487
5020 -1.84640877 -0.65279664 -0.5376861000000001 -1.685861 0.55505 -2.274981
5040 3.4756241400000003 3.29075469 -4.76174457 -0.986112 0.767997 -1.789666
5060 2.37182256 13.05390213 2.78735454 -0.795764 0.5695399999999999 -1.609689
5080 -1.4274334800000001 10.70514288 5.55794379 -0.60218 0.453753 -1.593234
5100 1.14153084 9.20061261 -1.16143533 -0.218998 0.108183 -1.0218200000000002
5120 5.10707619 10.06626663 -2.1977343 0.461381 0.160212 0.293574
5140 3.40930854 10.05638796 0.79050942 1.053779 -0.054208000000000006 1.451666
5160 1.9116747 15.44802282 0.29099403 1.612506 0.424307 2.2465080000000004
5180 1.62097497 17.37452043 -2.0998305 1.807885 1.400718 2.720912
5200 1.6428316500000002 12.563971109999999 0.05134554 1.680516 0.951149 2.837035
5220 5.6772432 17.69844663 -1.2954105 1.251264 -0.216692 2.219169
5240 10.69630407 23.96666385 2.1483311400000003 2.171471 -0.7337670000000001 2.058548
5260 8.89734627 22.61736702 -2.18829708 1.609213 0.995681 1.88683
5280 2.18260728 19.9120437 -1.1593359900000002 1.294538 1.983013 1.671859
5300 3.6567461700000004 18.42518124 -0.8880993 1.6823279999999998 0.553604 1.554622
5320 3.1892702400000004 17.09729964 -3.10409982 1.552756 0.046576 1.389861
5340 3.12280749 13.047613920000002 -3.8363770800000006 1.696084 1.699011 2.015791
5360 1.39091085 2.4478598700000003 -4.0923396 1.843973 1.233522 1.878551
5380 1.4687433900000002 -2.7403548300000002 -4.03785486 1.96169 0.314933 1.591063
5400 6.005063970000001 -1.38491694 -5.22563004 2.062317 -0.252315 1.90014
5420 8.05010562 -1.43970579 -5.344340850000001 2.102043 -0.74633 2.063421
5440 6.36072552 -0.50579379 -3.25333935 2.287411 -1.516333 1.589275
5460 2.4927700500000003 -0.04909905 0.28186092 2.338113 -2.022001 1.195035
5480 -1.38058092 2.67808095 3.58219998 2.379835 -2.058337 0.655921
5500 -1.6464221100000003 5.625603360000001 0.15208443 2.033401 -1.579846 0.112368
5520 -2.3047614000000003 11.721223440000001 -3.15050112 1.419306 -0.7853020000000001 -0.382185
5540 -0.67569318 23.734343430000003 -3.0925730700000003 0.749946 -0.15249200000000002 -0.609862
5560 -1.83188997 25.22104893 -2.8821093300000005 0.30563 -0.012504 -0.600326
5580 -1.9148139000000002 15.47482374 -3.53998755 0.01596 -0.360835 -0.353008
5600 -0.8189486100000001 12.2767245 -0.69515622 -0.377935 -0.325596 -0.033201
5620 4.00013541 12.15293211 -0.7791298200000001 -0.712024 -0.008502 0.079427
5640 3.2702517900000005 15.25403007 -5.68563075 -1.044856 -0.282956 0.270802
5660 -0.69905079 12.969928530000002 -4.4938040400000006 -1.1671790000000002 0.468661 0.227324
5680 -0.9669913200000001 7.92286992 -1.05740028 -0.292002 -0.077318 -0.390773
5700 2.8889959500000004 7.15930857 -0.48828294 -0.8780209999999999 -0.401495 -1.130456
5720 4.6824111 4.75306272 -1.02461526 -1.067117 0.978427 -1.596085
5740 1.96137216 2.90904759 -0.89648685 -1.989822 2.285196 -1.514474
5760 -0.43334694 1.67576382 0.6637151700000001 -1.702561 2.6121790000000003 -1.482977
5780 -1.11204198 0.14699304000000002 2.0001412800000002 -1.639573 2.61412 -1.490017
5800 -0.9410929200000001 -1.01953368 1.69417719 -1.742531 2.643597 -1.579436
5820 -0.20761884 -0.7876645200000001 -0.01497006 -1.840532 3.183797 -1.78698
5840 1.0856923200000002 0.5695686 -2.70427365 -1.853889 3.619095 -1.941455
5860 2.56506975 3.3855094800000005 -5.142706110000001 -1.95941 3.4541440000000003 -1.891774
5880 5.801938110000001 5.02520193 -6.87086514 -1.990981 2.987066 -1.7429130000000002
5900 10.111471109999998 7.71600645 -8.52642036 -1.632445 2.419627 -1.609359
5920 10.841354729999999 9.2287575 -11.273652 -1.136196 2.5135240000000003 -1.545124
5940 10.79180442 9.474095790000002 -11.524385790000002 -0.683034 2.7778080000000003 -1.695053
5960 6.074214660000001 9.902959560000001 -5.93111619 -0.554423 2.269989 -1.619797
5980 0.8157996000000001 19.916830980000004 -16.992960480000004 -0.48694 1.18418 -1.339128
6000 -3.2322282300000005 6.060745530000001 -4.80515382 -0.589438 1.171845 -1.096273
6020 2.94033168 4.3237575 -1.9486485900000001 -0.934215 1.960888 -0.982188
6040 -0.9834525000000001 2.97686412 -1.8675198900000003 -1.378332 2.154212 -0.724892
6060 0.54426861 8.001310680000001 -2.48708025 -1.716189 2.290551 -0.428325
6080 1.07895285 9.536663970000001 -2.7087666300000004 -1.566113 1.801978 -0.123275
6100 1.5497249400000002 9.936333180000002 -1.08179775 -1.491357 0.8177180000000001 0.06437899999999999
6120 1.07940411 11.17307007 -0.004640130000000001 -1.22122 0.8604719999999999 0.060870000000000014
6140 1.4867055 12.02718753 0.29159244 -1.158705 1.239382 -0.177393
6160 1.8851778900000002 13.820455530000002 -0.86834196 -0.5819310000000001 1.146607 -0.652877
6180 2.3406856200000004 14.532229890000002 -0.6029422200000001 -0.056112 1.021565 -0.740911
6200 2.6376637499999998 12.61397268 0.31075136999999997 -0.050437 1.541741 -0.293953
6220 1.87290558 9.755368110000001 0.91444896 -0.062577 1.672034 0.166199
6240 0.8178989400000001 8.08977726 0.99752985 -0.038859 1.367991 0.521404
6260 0.9681881400000001 7.13505825 1.0788057 0.503305 0.953978 1.021377
6280 1.3608235800000001 7.76345742 1.43401599 0.838152 0.843829 1.901935
6300 2.3601388500000002 7.823033550000001 2.79633069 1.946287 1.515516 2.664048
6320 3.74371182 7.9040151000000005 3.3040766700000006 3.468377 2.624588 2.9125400000000004
6340 4.2490641600000005 7.11125919 2.24832447 3.686425 4.345436 2.883016
6360 4.00611951 6.18783408 1.27534905 3.830576 1.946034 2.592269
6380 3.28462344 6.27539814 -0.49891698 3.650646 0.955173 1.988736
6400 2.25341586 6.896155320000001 -0.7806307500000002 3.13512 2.860914 0.848241
6420 1.06787736 8.65500003 -0.00703377 2.894277 3.3986440000000004 0.849075
6440 0.18516375000000002 10.5096492 -1.57457367 2.471703 3.07379 1.733163
6460 0.07229970000000002 9.29971323 -1.68174792 2.075038 1.260857 1.769035
6480 0.6182163900000001 6.834185550000001 -0.8777791800000001 1.7015049999999998 0.68709 1.456309
6500 2.6952975 9.14043807 0.8240400000000001 1.590396 0.027505 1.065409
6520 4.60681524 9.47230056 2.49485958 1.430652 -0.508441 0.6996479999999999
6540 6.89451705 9.4513464 1.45437174 0.969848 -0.328728 0.380005
6560 6.53242014 9.954746550000001 0.9310671 0.312411 0.16203299999999998 -0.032208999999999995
6580 3.57291972 11.258387640000002 0.56043549 -0.272276 0.411983 -0.492744
6600 0.9967744800000001 14.003078490000002 0.38859372000000003 -0.882575 0.452047 -0.924347
6620 -1.2805875900000003 13.46240034 -0.81999828 -1.790857 0.625375 -1.390249
6640 -3.23253234 17.14654584 -3.5301088800000002 -2.4959740000000004 0.8281120000000001 -1.927408
6660 -6.1194289500000005 20.031794370000004 -4.20056352 -2.185722 1.482 -2.414256
6680 -6.713983620000001 17.28994842 1.4745803400000002 -0.054038 2.945075 -1.180264
6700 -4.51999674 16.56754983 0.76715181 1.451266 -0.525917 1.321519
6720 1.64687337 13.03129989 -2.1363531300000003 0.366448 0.213094 1.535185
6740 6.43601727 10.659330180000001 -1.05515379 -0.215029 2.6568400000000003 0.175623
6760 4.6970868600000015 8.602908930000002 0.45460521000000004 -1.192427 3.941784 -0.895732
6780 2.76489945 4.92730794 2.18320569 -1.49107 1.526586 -1.912738
6800 1.8405718200000003 2.97041895 -0.2956341600000001 0.637452 -2.521306 -1.932208
6820 0.65803518 2.85711345 -0.67449636 0.524228 1.633066 -1.7834299999999998
6840 -0.12843252 2.7725316300000005 -0.37377081000000006 0.361256 1.786976 -0.971848
6860 -0.10867518 3.10783743 -0.06601149 -0.303002 2.475904 -0.852389
6880 0.99258561 2.8337558400000002 -0.91894194 -0.869967 2.939853 -0.766145
6900 2.65742109 2.6897548500000004 -1.35528093 -1.867197 2.491933 -0.574916
6920 3.8267927100000003 2.46941244 -1.8925157700000002 -2.454487 2.437183 -0.7594770000000001
6940 4.43482632 2.17587762 -4.06015299 -1.855599 2.628531 -0.645512
6960 4.78046205 5.69670624 -6.06763215 -0.484596 2.539262 -0.02373
6980 10.860817769999999 21.17452203 -5.30961345 0.112976 1.839693 0.44388
7000 13.79366442 29.53628154 -14.912740170000001 -0.699454 2.59726 0.842091
7020 9.32396355 8.619075810000002 -4.8083028300000015 -0.726767 2.07817 0.940842
7040 1.03419963 7.47725067 4.50862695 -0.276872 1.575518 0.511998
7060 -4.87670796 11.164084110000001 3.1530419100000002 -0.4679100000000001 1.241798 -0.048657
7080 -9.20690082 21.534813900000003 0.04685256 -0.715056 1.244159 0.107711
7100 -9.53981298 19.3020579 -18.18987858 -0.794346 0.867583 0.043546
7120 1.1966139900000001 5.78472156 4.05147114 -0.559555 0.673733 -0.167142
7140 1.4009366699999999 4.12242687 6.990910110000001 -0.337106 0.563095 -0.39725
7160 0.7699967099999999 6.7759632000000005 6.48077049 -0.254605 0.808103 -0.46749
7180 -0.51298452 11.548930409999999 6.618041820000001 -0.131348 1.229289 -0.408417
7200 -0.98210853 12.145142970000002 3.64596498 -0.090379 1.620929 -0.348812
7220 0.37976472000000006 10.21490775 1.1183203800000001 0.006751999999999999 1.532676 -0.208084
7240 2.5863182100000004 8.641982160000001 0.9196875 -0.010492 0.870842 -0.118694
7260 5.309760600000001 8.2191123 -1.4111194500000002 0.156826 0.13621 -0.099492
7280 6.17346243 8.61637806 -2.2722706800000005 0.589721 0.266146 0.330654
7300 5.54132565 9.870920100000001 3.86017614 1.08392 0.745379 1.002199
7320 3.8357688600000004 9.7667379 1.26741276 1.610034 1.608284 1.6029719999999998
7340 0.9681881400000001 7.927961310000001 -2.25566235 2.065896 2.755817 2.214641
7360 -0.18097488 7.402106070000001 0.7095278700000001 2.3471900000000003 2.756746 2.537071
7380 3.8785797000000004 6.935522850000001 2.43917802 2.443357 2.127586 2.3494740000000003
7400 4.32361035 7.1608095 2.1225897000000002 2.212676 1.138481 1.883385
7420 2.7647523000000005 9.95923953 0.45594918 2.446974 1.079157 2.3957080000000004
7440 1.23059583 10.87129485 0.66851226 2.84848 1.212421 3.884238
7460 0.041309910000000005 11.037593970000001 1.02267288 3.126964 0.4854520000000001 4.819673000000001
7480 -0.18202455 9.95295132 1.73593836 2.985388 0.8204450000000001 5.084242
7500 0.7355734200000001 10.899429930000002 1.4112666 2.7482990000000003 -0.207574 5.296479
7520 3.3048320400000004 12.99822057 1.08134649 2.174334 -2.311843 5.082591000000002
7540 6.25728888 14.91378984 1.78025013 2.825556 -3.604752 4.169057
7560 7.585925850000001 15.80353722 0.50939406 2.988827 -5.692171 2.3013470000000003
7580 5.05887966 14.511726990000001 0.39981636000000004 2.510313 -5.5846 0.858972
7600 3.42098244 12.894931080000001 1.80060588 1.592645 -4.681838 -0.592831
7620 2.4788496600000003 9.951303240000001 1.6253208000000001 0.285484 -3.009737 -1.493933
7640 2.17662318 8.836877430000001 0.7650622800000001 -1.021426 0.363891 -1.933605
7660 2.18111616 8.94434598 -0.8122091400000001 -2.277906 3.292196 -2.407606
7680 1.65256317 10.24993926 -1.98876168 -2.730384 3.79413 -2.595144
7700 1.14167799 10.779983370000002 -2.44831113 -0.864281 4.317083 -2.3242700000000003
7720 2.82268035 10.33840584 -1.98382725 -2.353895 4.022325 -1.381443
7740 7.885003320000001 11.202254820000002 -3.7411710300000003 -3.439922 2.91232 -2.04029
7760 7.762260600000001 14.68775763 -3.0070985400000003 -0.221938 2.623056 -3.086732
7780 5.188813110000001 19.30296042 -2.83255902 -0.58068 1.90726 -2.793491
7800 9.24776928 22.192103520000003 -5.469771510000001 -0.398578 0.958554 -2.000519
7820 13.054657500000001 21.97176111 -6.39350073 0.105606 1.554367 -2.251998
7840 21.68450469 28.42364115 -3.57890382 -0.195216 0.5127010000000001 -2.832809
7860 11.76433839 22.161712140000002 -7.352408610000001 -0.948435 0.37739 -2.973561
7880 6.96741516 6.361019820000001 -0.22108797000000002 -1.7805080000000002 0.752889 -2.383786
7900 6.16612455 3.4075133100000006 -0.7370645400000001 -2.316122 1.172018 -1.240794
7920 0.02454462 -0.6101329500000001 -0.67524192 -2.021318 0.708703 -1.781866
7940 -7.592066910000001 -3.2403116700000005 7.205866830000001 -2.137221 0.189451 -2.630179
7960 -11.36361951 -5.76585693 11.13070068 -1.503212 0.654338 -2.22149
7980 -8.80723161 -7.30062162 6.63839757 -1.088293 0.620134 -1.753871
8000 -4.7502178200000005 -2.7229911300000005 -0.53857881 -1.0576370000000002 0.485246 -1.3486280000000002
8020 0.9310671 7.25212098 -7.560174600000001 -0.660335 0.29230700000000004 -1.395812
8040 6.10400763 12.55664304 8.18572887 0.028939 -0.211339 -0.7195090000000001
8060 3.2885082000000003 10.11850488 2.70966915 1.005645 -0.540309 0.5129859999999999
8080 3.4015292100000005 15.95846655 -5.958809820000001 1.914232 -0.323651 2.018838
8100 2.9184848100000003 11.67616611 -1.38895866 2.260444 1.00814 3.000178
8120 2.00358459 7.549099110000001 1.8173711700000001 2.130618 0.37909 3.246836
8140 3.2799833100000004 7.5889179 -0.6331864500000001 1.647841 0.283729 3.270292
8160 3.019518 10.37941164 -1.3742927100000002 1.91992 -0.177234 3.757756
8180 6.69527595 14.965576830000002 0.61896195 1.639587 0.275848 3.91545
8200 11.12337261 20.095108110000005 0.14490351 0.950315 1.659802 3.4078660000000003
8220 12.563676810000002 21.05416314 0.67509477 1.359061 1.416072 4.329704
8240 3.20483871 22.64161734 -4.28214348 1.395502 0.01655 5.033574
8260 2.47211019 19.98958194 -1.4507812800000002 1.894143 -1.408985 5.1830940000000005
8280 6.23887551 16.77921039 -3.0717660600000003 1.090999 -3.099766 4.86132
8300 7.16844168 12.775778820000001 -5.5781523900000005 1.162728 -3.838471 3.586243
8320 2.95665552 6.889572810000001 -3.7969997400000004 1.533258 -5.753195 2.307282
8340 3.42681939 2.38498758 -1.69147944 1.214418 -5.538277 1.053891
8360 5.654640960000001 -1.41920289 -2.42181432 -0.07726799999999999 -3.2973790000000003 -0.111682
8380 8.98087842 -2.43932517 -4.17257559 -0.78461 -1.590975 -0.787517
8400 8.51025348 -1.6464221100000003 -3.58160157 -1.083773 -0.198206 -1.439802
8420 2.6297274600000002 0.27991854 2.9214768600000003 -1.475529 1.170792 -1.928197
8440 0.28680516 0.99976653 1.39150926 -2.029541 2.0758810000000003 -2.147939
8460 0.46778004 3.39119928 -2.03666391 -1.950409 2.282555 -2.219222
8480 1.56963924 12.13196814 -6.84451548 -1.6571619999999998 2.673759 -2.26895
8500 0.18546786 20.741763690000003 -2.3074493400000002 -0.6048319999999999 3.255272 -1.28599
8520 1.89221166 25.99329213 2.15656173 -2.1599 4.185213 -0.460557
8540 8.54378406 17.139512070000002 -5.037778350000001 -1.853133 1.28178 -1.119128
8560 9.10840842 16.941173490000004 -5.59760562 -0.303396 0.219344 -1.839742
8580 14.037511590000001 16.77921039 -4.52628495 0.002533 1.475957 -1.469611
8600 18.44210349 21.54289734 -3.3528814200000006 -0.06515900000000001 1.651674 -1.663657
8620 15.84993852 20.44328463 -6.311028060000001 -0.163252 0.688895 -2.168377
8640 7.912844100000001 11.01514869 -2.6162583300000004 0.039852 0.8316690000000001 -2.350876
8660 2.86474563 6.113886300000001 -0.00987867 -0.141438 0.785687 -2.416176
8680 -0.19518957000000003 -0.12094749 1.29376242 -0.91014 0.315726 -2.77132
8700 -2.6955918000000003 1.60915392 1.1322407700000001 -1.289842 0.152906 -2.484276
8720 -6.309232830000001 -0.49366863 5.716757879999999 -1.373103 1.51834 -1.8179
8740 -5.210218530000001 -2.7671459400000002 5.432356169999999 -2.00276 1.52917 -1.051056
8760 -3.8350233 -5.01412644 3.0635256600000003 -2.124932 0.7011970000000001 -2.477993
8780 -2.54201625 -3.8107729800000003 -0.46972242000000003 -2.033167 0.682852 -2.498693
8800 -0.29129814000000004 -1.41215931 -0.91205532 -1.376903 0.48462 -2.246027
8820 4.55068242 2.4267487500000002 -4.418365140000001 -1.17339 -0.041082 -1.760028
8840 9.01604727 13.93077879 3.8815815600000003 -1.137644 -0.154144 -1.7553599999999998
8860 3.6398337300000003 13.567190759999999 -1.1771509500000001 -0.860132 -0.402948 -1.315132
8880 0.96788403 11.84307345 -3.2030434800000003 -0.106134 -0.8615149999999999 -0.513452
8900 2.9635421400000004 7.5339819 -0.59306355 0.743842 -0.781679 0.361915
8920 1.7944648200000002 6.784645050000001 -0.26465418 1.098964 -0.6226189999999999 1.035035
8940 0.00404172 8.49707865 -0.44742429 1.277919 -0.549004 1.650419
8960 -1.4160538800000002 11.169028350000001 -0.34054434000000006 1.5079280000000002 -0.524621 2.013053
8980 0.30955455000000004 12.23750412 0.02245509 1.320256 -0.758143 2.232095
9000 4.976554139999999 15.881821020000002 1.70211348 0.908228 -0.008157 2.314782
9020 9.80640954 15.97432932 2.6925997500000003 1.282116 0.963583 2.471041
9040 16.90329708 19.2528117 0.24758478 1.75849 1.925476 2.603459
9060 13.822554870000001 16.337171790000003 -0.28021284 2.133609 0.694526 2.417513
9080 2.11315248 24.21484704 -1.92215178 2.3701950000000003 0.217733 3.430314
9100 -1.1546958600000001 22.765704030000002 -1.58535486 2.838316 0.260779 4.246446
9120 7.196135310000001 17.38409499 -2.39546466 2.647554 0.436696 4.375211
9140 8.270300879999999 14.570851860000001 -3.6628872300000004 2.580741 0.072736 4.874071
9160 5.22713097 8.02286325 -3.78353061 2.289843 -0.737162 4.931828
9180 2.54635227 1.3614219900000002 -1.97813745 2.015367 -1.827175 3.898337
9200 2.8198354500000002 -0.54307179 -3.63039651 2.257625 -3.32576 3.092238
9220 5.26290804 0.4047606000000001 -4.940777070000001 1.847324 -4.572734 1.735396
9240 5.63203872 1.15425441 -2.83839597 1.17269 -3.860711 0.61882
9260 3.55345668 1.88936676 -0.6974027100000001 0.308789 -3.122841 -0.138051
9280 0.05718249 1.03479804 1.7485147800000003 -0.664297 -1.643709 -1.023754
9300 -0.9824028300000001 0.94513464 2.82926286 -1.218591 -0.08265399999999999 -1.7143560000000002
9320 -0.022602240000000003 2.7937899 1.4012407800000002 -1.851438 1.919235 -2.289636
9340 1.6217303400000003 7.43070222 0.21345579 -2.266767 2.728341 -2.60229
9360 0.88450884 14.94552519 -1.1612881800000001 -1.878844 2.945073 -2.526151
9380 2.30984298 20.070259380000003 -2.8834533 -1.100442 3.206397 -1.686767
9400 6.252795900000001 13.34235537 -1.5944879699999999 -3.31327 2.70686 0.209465
9420 10.240953300000001 12.3957198 -2.4869331000000003 -3.2484740000000003 2.691527 0.25800700000000004
9440 8.47282833 18.05664897 -2.09279673 -1.6411619999999998 2.381517 -1.129739
9460 7.2093101399999995 19.77118191 -1.9989444600000001 -2.204176 1.026313 -1.130867
9480 6.29411562 20.66812002 -6.526279080000001 -1.572607 0.79089 -0.8804629999999999
9500 10.925328330000001 19.715951610000005 -8.561442060000001 -0.681109 1.010854 -1.515451
9520 8.669371680000001 17.476907399999998 -7.091207550000001 -0.582613 0.975587 -2.104376
9540 13.95847242 12.711268259999999 -3.26710278 -0.6456069999999999 1.080585 -2.466009
9560 7.526349720000001 6.543191520000001 -3.1699543500000003 -0.978667 1.72209 -2.495863
9580 4.5466407 5.082825870000001 -2.6063796600000004 -1.541259 2.308134 -2.310401
9600 0.25042968 0.01961019 -1.32863697 -1.644711 2.172935 -1.977665
9620 -4.18305267 -0.19205037000000003 2.55473982 -1.293772 1.442013 -1.979618
9640 -6.21821565 -3.1856797800000005 6.35084685 -0.974314 0.9006360000000001 -1.6701130000000002
9660 -5.857315560000001 -6.6743217900000005 5.011281540000001 -0.709398 0.8780540000000001 -1.048665
9680 -2.17767285 -5.3133510600000005 -0.28470582000000005 -0.581056 1.568494 -0.663025
9700 -0.79469829 -2.47675032 -1.4400099000000002 -0.5818770000000001 1.955875 -0.567387
9720 3.21366771 4.62567987 -7.021595790000001 -0.371249 1.921593 -0.7015359999999999
9740 8.75544462 8.436305700000002 8.51384394 -0.33405300000000004 1.6974630000000002 -0.894337
9760 4.05536571 10.887461730000002 -4.11419628 -0.515839 1.476083 -0.786365
9780 5.635177919999999 17.22872421 -4.12496766 -0.8403510000000001 1.342521 -0.404969
9800 5.11800453 13.437855720000002 -0.69590178 -0.8634639999999999 1.13317 0.02029
9820 3.7522465200000004 11.99680596 -4.2131399400000005 -0.735537 1.190992 0.101226
9840 3.4471849500000005 12.67085106 -3.91211028 -0.305074 1.203743 0.002736
9860 2.8803141 10.093509 -0.86549706 -0.085423 1.897496 0.014063
9880 2.5503939900000003 7.8115068 0.9877983300000001 0.147874 2.457425 0.179482
9900 2.80965267 8.77520196 3.15468999 0.386408 2.389243 -0.026000000000000002
9920 3.36260313 11.30179689 3.27249828 0.22041 1.448474 -0.115685
9940 3.5880369300000003 11.00422035 2.14923366 0.063999 0.715834 0.484503
9960 4.22571636 10.01357712 0.5951628900000002 0.068855 0.483466 1.312706
9980 4.16478645 8.66697804 1.2849236099999999 0.720302 0.091874 1.97151
10000 3.55899933 6.244859610000001 1.75076127 1.942452 0.044958 2.520627
10020 1.50167556 4.75231716 2.0510355600000003 2.91154 1.7017240000000002 2.680166
10040 -0.66387213 4.84572798 1.8768001500000002 3.751214 3.754081 2.592602
10060 -0.42736284 5.71256901 1.5004787400000001 3.688133 2.660831 2.7164080000000004
10080 1.0374957900000001 6.165231840000001 1.91691324 3.231765 1.183092 2.363669
10100 2.83121505 6.318660240000001 1.79357211 3.162386 1.686519 1.205655
10120 3.5657388000000005 6.91621677 1.28044044 3.673722 1.724156 0.941054
10140 2.69364942 7.23041145 1.00261143 3.270829 1.712439 1.555687
10160 1.80524601 8.710240140000002 0.28965006000000004 2.780399 1.56506 1.806687
10180 1.7812998 10.23765714 -0.03128409 2.248457 1.604431 1.746306
10200 1.47727809 8.52013215 0.17289144 2.243517 0.182649 1.6604990000000002
10220 1.6902826200000003 8.51219586 0.4263131700000001 2.189534 -0.614438 1.240264
10240 2.9068011000000005 9.78814332 2.06990019 1.968346 -0.503958 0.710875
10260 6.28407999 9.99995103 2.4089436 1.456459 -0.356954 0.090747
10280 7.84204533 9.33324381 1.68834024 0.931073 -0.040873 -0.442097
10300 5.82454035 10.862760150000002 1.10290887 0.380293 0.374159 -0.922903
10320 4.42808685 12.203973540000002 2.4381283500000004 -0.222075 0.848449 -1.2599360000000002
10340 2.4957621000000003 12.33689904 1.04034069 -0.883727 1.072117 -1.475284
10360 -0.45909819 11.356438590000002 -1.6313049000000004 -1.520385 1.065024 -1.54702
10380 -2.98943073 14.13466002 -4.8876363000000005 -1.300841 1.055781 -1.02525
10400 -3.9772290600000004 17.85098232 -3.1630677300000003 -0.12665 1.6623279999999998 -0.54674
10420 -3.7220121000000006 16.354241190000003 0.77688333 0.431683 0.614254 -0.005249
10440 -2.8916838900000004 18.72276759 -0.40940073 -0.091594 -0.07985 0.599803
10460 2.88584694 13.90159404 -2.56356882 -0.103834 1.077705 0.44441
10480 6.80709033 11.50238196 -0.8176046400000001 -0.910017 3.751772 -0.776011
10500 3.70285317 10.01147778 1.01683593 -1.333749 5.099361 -2.009153
10520 2.1612018600000003 7.73980551 1.6217303400000003 -0.443524 1.383724 -2.258819
10540 3.00454794 6.40772523 -1.9320304500000003 0.709254 -0.470895 -1.1353030000000002
10560 2.7774758700000004 5.68831869 0.00777933 0.646079 3.637487 -1.249968
10580 1.9014919200000002 3.7479105 1.5340093200000002 0.01963 3.160984 -1.690636
10600 1.19855637 2.45609046 0.71641449 -0.148228 3.569517 -1.678445
10620 0.68033331 1.71408168 -0.19549368000000003 -0.248059 2.9119330000000003 -1.248874
10640 0.9635480100000001 1.26891369 -0.60054858 -1.125424 3.1163380000000003 -0.72329
10660 2.16509643 1.45542141 -0.7387126199999999 -1.50209 4.771048 -0.481282
10680 3.9448953 2.1065699700000002 -1.3639627800000003 -1.306143 4.835829 -0.334719
10700 6.251147820000001 2.32961013 -3.2204071800000005 -0.983576 4.739763 -0.034308
10720 9.4746942 2.79019944 -7.1199410400000005 -0.446301 4.354812 0.39509
10740 12.38479146 8.64676944 -11.43801855 0.215509 4.122797 0.566653
10760 11.177710200000002 19.14324381 -13.2718509 0.116128 4.037057 0.515862
10780 7.738010280000001 19.64425032 -9.493254720000001 0.161544 2.947274 0.478052
10800 3.36664485 7.270975800000001 -3.3096193200000004 0.17641600000000002 2.091262 0.34786100000000003
10820 0.65055015 11.606112900000001 2.3186817900000003 -0.085173 1.493694 0.029538
10840 -3.62606049 14.678173260000001 0.31718673000000003 -0.476026 1.374717 -0.247573
10860 -6.628067639999999 20.359311030000004 -3.29075469 -0.754616 1.198379 -0.396708
10880 -6.03664236 20.86705701 -11.813133330000001 -0.7898 0.509196 -0.378979
10900 -1.5658918200000003 10.34723484 6.817273110000001 -0.92422 0.22235700000000005 -0.192611
10920 -0.38799531000000004 6.7036635 6.37134975 -0.799524 -0.003016 -0.150859
10940 1.07806014 6.541249140000001 6.955584300000001 0.08821799999999999 0.523095 -0.353636
10960 2.47540635 9.27606132 6.0435289800000005 0.7366699999999999 1.547157 -0.465786
10980 2.1595635900000003 12.1381092 5.31514629 0.431156 1.662355 -0.5043880000000001
11000 2.87866602 10.13841918 4.90454874 0.095037 1.618916 -0.538726
11020 4.21568073 9.27022437 4.017195 0.370449 1.304368 -0.17213599999999998
11040 5.44716927 8.60455701 3.5860945500000003 0.574679 0.572516 0.184878
11060 6.94196802 8.75544462 2.04938748 0.728329 0.377101 0.7010850000000001
11080 6.27675192 8.555006700000002 -0.38185425 1.268828 0.728279 1.388072
11100 6.060147120000001 9.600281820000001 0.12154590000000001 1.800817 0.924601 1.913897
11120 7.15347162 9.04015044 0.49741605 1.997004 1.311078 2.330311
11140 6.36357042 6.332727780000001 0.2484873 2.250522 1.21658 2.565075
11160 4.34531007 5.48489853 -0.67569318 2.459496 1.04502 2.662895
11180 4.20775425 6.7702734 -0.57315906 2.300524 1.081641 2.700193
11200 4.5771792300000005 7.48533411 0.85606965 2.172223 0.465617 2.618901
11220 2.61252072 5.89519197 0.6798820499999999 2.284951 0.624053 2.859836
11240 2.09848653 4.3246600200000005 1.54209276 3.140945 0.7949890000000001 4.389949
11260 2.52090513 6.6165408900000005 2.4927700500000003 2.790538 0.7751140000000001 5.666188
11280 1.02477222 15.06406923 0.59695812 3.078465 1.268531 6.432414
11300 -0.8684891100000001 19.85680359 -0.6674625900000001 2.327925 -2.656585 6.177964
11320 0.37347651000000004 13.345347420000001 0.8993317500000001 1.992914 -3.39356 6.153068
11340 3.13582536 13.37947641 3.4296642900000003 1.974258 -5.340791 4.5498949999999985
11360 5.20632396 17.524956780000004 1.32175035 2.037193 -6.132746 3.279097
11380 7.982603010000001 14.946565050000002 -0.41493357000000003 1.319318 -4.913293 1.844307
11400 4.51506231 12.427003890000002 0.70009065 0.27300100000000005 -3.099784 0.253707
11420 3.6565990200000003 10.86335856 1.74476736 -0.6051949999999999 -1.885337 -1.122376
11440 4.1339536200000015 8.72715258 0.5912683200000002 -1.331265 0.337939 -2.101311
11460 4.24397277 8.41026015 -0.11975067000000002 -2.090265 2.30396 -2.654993
11480 3.2886651600000003 8.621018190000001 -0.59935176 -2.46798 2.782364 -2.883639
11500 2.07737541 10.027801620000002 -0.6427610100000001 -1.893555 3.035292 -2.963272
11520 1.81048455 11.83064418 -1.3328258400000002 -1.884446 3.612741 -2.988518
11540 1.49674113 13.48425702 -1.06773021 -1.675061 3.758569 -3.141066
11560 1.51006311 13.809978450000001 -0.66057597 -0.021252 3.785535 -1.464191
11580 5.670356580000001 12.45964176 -2.1255817500000003 -3.268605 2.331199 0.34165
11600 8.61233634 12.856318920000001 -3.67111782 -0.080023 -0.422334 -1.139811
11620 12.45170547 14.303656890000001 -3.19780494 0.00378 1.222642 -1.525893
11640 14.32461105 16.06774014 -5.77753083 -0.471554 1.3742299999999998 -1.72596
11660 14.91842997 18.96705621 -4.7741738400000004 -0.643748 0.986012 -2.260777
11680 32.64411897 27.409502970000002 -2.19429099 -0.112861 0.51578 -2.874966
11700 18.942658740000002 22.827232350000003 -2.32825635 0.3194 0.335122 -3.092837
11720 3.2727925800000004 4.14218421 -0.80218332 -0.6546529999999999 -0.14486300000000002 -2.629008
11740 0.4122456300000001 3.0344880600000006 -0.13113027000000002 -0.98797 0.288785 -2.094577
11760 -2.17692729 0.6156657900000001 -0.46493514 -1.935075 1.378802 -1.06855
11780 -6.716534220000001 -0.98854389 5.0871717 -1.997818 0.8340629999999999 -1.184727
11800 -8.64138375 -1.53326376 8.75769111 -2.314086 0.365126 -2.985221
11820 -6.049071629999999 -5.244641820000001 4.6547174700000005 -1.799721 0.9004280000000001 -2.23349
11840 -3.40437411 -3.8032879500000005 1.6404380100000002 -1.248687 0.499415 -1.7954290000000002
11860 -1.08958689 -1.3787856900000002 -2.03082696 -0.766837 0.681905 -1.762387
11880 2.0547731700000003 1.8947622600000003 -0.8720893800000001 -0.34189 0.795308 -1.7189720000000002
11900 0.7960422600000001 2.5423105500000003 0.6709058999999999 0.260102 0.059786 -1.321787
11920 8.9537832 8.15444478 -11.215880910000001 0.844891 -0.366825 -0.10686
11940 14.761254150000001 22.525908389999998 8.94569976 1.543879 -0.306904 1.349659
11960 1.22265954 12.054586859999999 -10.30667049 2.377133 0.068368 2.682799
11980 1.0584499500000002 3.92843412 0.6421626 1.554011 0.33917 3.074081
12000 1.5423968700000001 3.00994344 -0.9818044200000001 0.709101 -0.6929420000000001 2.972293
12020 -0.4972689 5.76047124 0.9695321100000001 1.42251 -0.36809 2.901017
12040 -0.9746235 12.75826797 -0.35386632 1.6043459999999998 1.607363 2.635904
12060 4.5472391100000005 19.4520528 0.10777265999999999 1.499858 1.575846 2.35
12080 10.82549196 19.936294020000002 -0.15552774 1.360936 -0.290259 2.671887
12100 13.553113410000002 19.4087907 2.7155061000000003 1.404963 -0.470201 3.143511
12120 16.27535898 17.3553615 2.27706777 1.701656 0.868685 3.992036
12140 5.99787324 18.96825303 -2.74887972 1.127956 0.352428 4.122218
12160 -1.11204198 20.13507405 -0.46882971 1.286406 -0.489522 4.3465940000000005
12180 7.590261870000001 20.73697641 -3.01712436 1.207465 -2.161789 4.095017
12200 9.29522025 18.49389048 -5.75014131 2.034397 -3.953945 3.469634
12220 6.765034860000001 10.10533986 -3.7389245399999997 2.547164 -4.006392 2.55568
12240 2.7876488400000006 2.85052113 -3.10109796 2.02305 -3.250033 1.942163
12260 1.40019111 -2.2537101600000002 -3.85822395 1.7716 -2.277635 1.411459
12280 5.63877819 -3.5536136400000005 -4.84632639 1.4729370000000002 -1.575761 0.907478
12300 8.701254180000001 -3.12385716 -4.910238540000001 0.944662 -1.579596 0.460481
12320 8.215816140000001 -0.5599842300000001 1.0659349800000002 0.22653 -2.090732 -0.03099
12340 2.31134391 2.52943983 4.3803415800000005 -0.903247 -2.084962 -0.759939
12360 0.30311919 5.630390640000001 0.6271925400000001 -1.907066 -0.8342790000000001 -0.967242
12380 2.59619688 14.02448391 -2.5737516 -1.676723 0.508574 -0.785756
12400 3.6139353300000003 24.12219159 -2.7605634300000004 -1.301321 0.136228 -0.17163399999999998
12420 2.99676861 23.892716070000002 -2.6092245600000004 -1.440733 0.376266 -1.202681
12440 1.99131228 13.92060582 -1.23837516 -2.173584 1.694736 -1.813035
12460 4.13739693 12.14843913 -0.265851 -2.007597 2.757619 -1.359244
12480 7.82243514 14.508283680000002 -1.0976703300000001 -2.00111 2.837248 -1.298412
12500 5.27772114 13.41106461 -1.6597440900000002 -1.969596 2.737699 -2.004159
12520 5.91989355 7.946521830000001 -2.0092743900000003 -1.550145 2.497554 -2.519009
12540 5.069808000000001 7.2733792500000005 -3.2349259800000003 -1.251286 2.424592 -2.381163
12560 2.76205455 4.50188748 -1.50167556 -0.937444 2.496979 -2.107736
12580 -0.42990363000000004 -2.54336022 1.1621808900000001 -0.755603 2.39491 -2.314638
12600 -2.79169056 -3.0919746600000004 2.98928358 -0.752369 2.125434 -2.593076
12620 -2.5038455400000004 1.39479561 2.27197638 -0.665267 1.495724 -2.9014450000000003
12640 -0.46328706 1.9284399900000002 -1.3995927 -0.5580229999999999 0.6347470000000001 -2.935912
12660 2.38110282 2.23514964 -4.925208600000001 -0.673874 0.428022 -2.288046
12680 8.36161236 1.46440737 -6.40458603 -0.689253 0.5882189999999999 -1.3120040000000002
12700 11.59249662 -2.43379233 -5.102887320000001 -0.5460699999999999 1.001818 -0.705852
12720 12.49571313 -0.6575839200000001 -3.0966147900000003 -0.554583 1.170676 -0.30234
12740 10.23122178 1.40258475 -7.206465240000001 -0.496042 0.7418130000000001 -0.463751
12760 19.144587780000002 18.802101060000002 -22.587731010000002 -0.5607439999999999 0.788107 -0.263436
12780 3.67530669 11.65865526 -8.69616279 -0.458193 0.899381 0.058672
12800 3.3888056400000006 6.83523522 -2.05297794 -0.02466 0.325596 0.115847
12820 -3.07670049 0.36449055 0.44862111000000005 0.283744 0.050852 -0.17540799999999998
12840 5.03462934 9.4425174 -5.638925340000001 0.201317 0.321229 -0.319472
12860 5.805077310000001 11.975694840000001 -3.85044462 0.385996 0.539985 -0.838686
12880 4.63825629 11.24686089 -3.80268954 0.240763 0.7500100000000001 -1.552474
12900 3.1753498500000004 9.81868185 -2.6945421300000003 -0.06665599999999999 1.429219 -2.507277
12920 3.1415151600000004 7.73591094 -1.46440737 -0.715032 1.242981 -2.524386
12940 4.4424585 7.53532587 -0.38140299 -1.002671 0.290107 -2.145956
12960 4.13933931 7.68037653 -0.3526695 -0.924899 -0.683828 -2.145233
12980 4.73016618 7.59714849 0.23620518 -0.679475 -0.8532350000000001 -2.084549
13000 5.62529925 8.04457278 0.18891117000000002 -0.721183 -0.5030479999999999 -1.710343
13020 6.4872058500000005 9.92720988 -0.60758235 -0.8052189999999999 0.107434 -1.391246
13040 7.154374140000001 9.990376470000003 -0.4167288 -0.540223 -0.332786 -0.491524
13060 6.58226475 7.14119931 0.58767786 0.245474 -1.258142 0.8643139999999999
13080 4.69588023 4.65801363 -0.9051687 0.713908 -1.548598 2.229941
13100 1.91930688 3.8574783900000003 -2.22572223 1.136662 -1.414536 3.5007019999999995
13120 2.06061012 3.2337291600000007 -1.1966139900000001 1.37499 -0.8059810000000001 4.0218110000000005
13140 4.693486590000002 3.66348564 -0.91070154 1.267554 -0.569045 3.47169
13160 5.522912280000001 4.378693500000001 -0.5929164 1.567325 -0.236437 2.6198490000000003
13180 3.51049869 6.2206092900000005 -2.4766031700000006 2.313182 1.331647 2.506613
13200 2.8678848300000004 6.326439570000001 -0.5980077900000002 2.279903 1.522778 3.221844
13220 2.10731553 7.51961025 -1.4768268300000003 2.093446 1.052264 4.363074
13240 0.059428980000000006 11.740235220000002 -0.8288272799999999 2.636735 2.464584 5.015606
13260 -1.43341758 17.32078125 2.0558228400000003 2.207545 -0.284177 4.942423000000002
13280 2.52061083 19.22736456 -0.60803361 2.388595 -1.313721 5.173607
13300 8.865169470000001 18.12116934 -2.04594417 2.458472 -2.4163900000000003 5.140257
13320 11.311675560000001 21.9540933 -0.72374256 2.3393770000000003 -4.3315769999999985 3.602571
13340 9.22906161 23.441407020000003 -0.9243276300000001 2.120048 -4.946232 1.927923
13360 4.1327568 17.622703620000003 -0.24638796000000002 1.438611 -4.523137 0.6108439999999999
13380 1.7272565100000001 10.381363830000002 -0.03173535 0.422157 -3.023362 -0.338213
13400 1.5619972500000001 4.617145170000001 0.033530580000000004 -0.694688 -1.488316 -1.229264
13420 5.59521198 4.0383061200000006 -0.06361785 -1.463111 -0.493546 -1.844793
13440 7.481596500000001 5.0289395400000005 -0.48514374000000005 -2.02515 0.8818309999999999 -2.182698
13460 7.800882570000001 5.842355310000001 -0.38245266 -2.547485 1.609219 -2.745959
13480 5.66242029 7.461986310000001 0.8033801400000001 -2.601093 2.006611 -3.242497
13500 2.7113074200000002 8.26984962 1.71244341 -0.119138 0.8455860000000001 -0.9002899999999999
13520 0.68078457 9.47918718 -0.18202455 -2.951769 1.640855 0.610735
13540 -0.27108954 11.23548129 -3.66812577 -1.67318 1.610922 -0.469882
13560 0.0318825 11.20839588 -1.6935787800000002 -2.351399 1.921881 -1.187522
13580 4.3900731 11.28053862 0.053592030000000006 -2.212217 2.500814 -1.429778
13600 8.772062759999999 13.653410850000002 -0.4090966200000001 -1.645197 2.516377 -1.284832
13620 7.391030580000001 13.77959688 -3.9788771400000003 -1.511478 2.154322 -1.967096
13640 6.91262631 10.534340970000002 -4.94975322 -1.296436 1.616287 -2.4018080000000004
13660 9.326955600000002 9.58951044 -3.9906981900000003 -1.0217 1.196099 -1.990221
13680 14.014458090000002 12.254416560000001 -5.5938680100000004 -1.198068 1.462727 -1.648895
13700 13.48860285 9.1043667 -2.31508152 -1.319511 1.7358810000000002 -1.654367
13720 8.87908986 8.47282833 -3.3563247300000003 -1.256322 1.649937 -1.79482
13740 7.704028440000001 5.55719823 -2.59979715 -1.451035 1.1918879999999998 -1.897075
13760 7.14823308 2.43678438 -2.4798895200000004 -1.422865 1.074403 -2.11144
13780 3.63788154 0.24294465 -3.9797698500000003 -1.240138 0.74321 -2.030691
13800 1.8988039800000003 -2.7101106 -1.52487621 -1.081009 -0.0004150000000000001 -1.620565
13820 1.9296368099999999 -4.7267228700000015 -1.1557455300000001 -0.725475 0.212062 -0.985967
13840 -2.3067037800000003 -4.538262960000001 0.34593003000000005 -0.497853 1.53435 -0.455165
13860 -5.881124430000001 -5.216349780000001 1.04946399 -0.763935 1.645346 -0.010649
13880 3.78996597 7.980650820000001 -16.83054612 -0.8902469999999999 1.789708 0.227565
13900 8.283475710000001 11.947108500000002 7.665710580000001 -0.550276 2.089198 -0.103729
13920 0.35251254000000004 16.587454320000003 -6.60740778 -0.143046 1.759429 -0.8386030000000001
13940 1.13448726 8.71921629 0.44561925 0.202885 1.879414 -0.774384
13960 0.09999333 4.421955600000001 0.5081972400000001 0.203411 1.901428 -0.153771
13980 2.73376251 5.5640750400000005 -1.9121259600000002 -0.102965 1.594859 0.053853
14000 5.80237956 11.70820557 -2.53243188 -0.24753000000000006 1.168469 -0.017113
14020 4.87670796 12.968133299999998 -1.7024077800000001 -0.285724 0.980043 -0.016069999999999997
14040 4.1035622400000005 9.80490861 -1.85479632 -0.08984 0.730819 0.06787
14060 3.12474987 8.236171890000001 -0.30402171 0.008167 0.805679 0.176349
14080 2.65128984 8.67131406 0.87582699 0.103876 1.115834 0.319762
14100 2.68212267 8.01508392 1.25873091 0.19798 1.089176 0.24461
14120 2.9303058600000003 8.31445569 1.08344583 -0.126329 0.929161 0.315189
14140 3.0042536400000004 10.177482600000001 1.73863611 -0.103865 0.874073 0.485264
14160 3.43790469 9.51601392 1.84581036 0.079706 0.689207 1.001666
14180 4.153710960000001 6.64483293 1.9272431700000001 0.640776 0.310937 1.604274
14200 4.11868926 5.4687316500000005 3.1823836200000004 1.705857 0.224037 2.165164
14220 1.43027838 5.88740283 3.24600147 3.023197 1.424087 2.48368
14240 -0.18531090000000003 6.5487341699999995 2.4439653 3.5644190000000004 3.708918 2.327504
14260 -1.34315577 7.57095579 1.76797782 3.997426 4.10706 2.286222
14280 -1.5555618900000003 7.52814495 2.0697432300000003 3.903438 2.092262 2.192007
14300 -1.34794305 8.65545129 -0.36628578000000006 3.990381 1.945792 1.450388
14320 3.4205409900000006 9.456732090000001 0.53812755 4.043699 2.438514 0.997203
14340 6.265068210000001 8.268956910000002 1.6962765300000002 3.678066 2.082828 1.284593
14360 4.988228040000001 6.92384895 1.5792138 3.213334 1.79444 1.611796
14380 4.16643453 7.437735990000001 1.01728719 2.749182 1.465187 1.768141
14400 4.4617743899999995 7.925273370000001 0.74650176 2.523956 0.26737 1.542708
14420 4.51910403 8.79196725 0.46149183000000005 2.348567 -0.8917450000000001 1.186182
14440 3.43939581 9.08865108 1.02027924 1.961504 -1.080235 0.7072930000000001
14460 2.60623251 8.84735451 1.60630902 1.4681879999999998 -0.935981 0.226167
14480 2.8205810100000006 8.28945981 1.9432629 0.8822399999999999 -0.490024 -0.232491
14500 4.124074950000001 8.519985 2.21988528 0.248916 0.220854 -0.5668380000000001
14520 3.9294739800000005 10.44288234 1.8974502000000002 -0.404057 0.922914 -0.810513
14540 3.05005653 11.71583775 0.88450884 -0.937139 1.287734 -1.0048469999999998
14560 3.53669139 13.1534442 2.2933818 -1.4348459999999998 1.225214 -1.188773
14580 3.55990185 13.777350390000002 1.6676803800000002 -1.648173 1.290613 -1.374081
14600 1.7944648200000002 12.63941982 -0.06526593 -1.302815 1.511836 -1.318541
14620 -1.29630321 13.88751669 -0.9262700100000001 -0.277278 0.860775 -0.8319799999999999
14640 -2.20056939 16.850009160000003 -3.1959999000000003 0.08429099999999999 -0.759421 0.428851
14660 -2.49336846 16.28284401 -2.2290183900000002 -0.083191 -1.125493 1.010331
14680 -2.66820228 15.20987526 0.13876245 -0.592806 0.892583 0.808701
14700 -1.0529073 13.82180931 -0.12649014 -1.246927 3.76068 -0.580755
14720 2.8083087000000004 10.344085830000001 -0.5911211700000002 -0.768111 5.056185 -2.091673
14740 5.0783427 8.649163080000001 0.64995174 0.776118 -0.670392 -2.45063
14760 5.57964351 7.687410300000001 1.07865855 0.732988 0.6205930000000001 -1.051079
14780 5.335953300000001 7.01516043 -0.47646189000000005 0.6706409999999999 3.323583 -1.093434
14800 3.67126497 6.658449210000001 -2.3128448400000003 0.12992 3.235446 -1.227421
14820 2.48213601 5.314253580000001 -0.4573029600000001 -0.568071 2.644768 -1.292428
14840 2.02963014 4.15311255 0.00299205 -0.8586360000000001 2.236116 -1.144383
14860 2.0959457400000003 3.7381789800000003 -0.13771278 -1.369399 2.295649 -0.6716
14880 1.73325042 2.74469085 -0.22108797000000002 -1.529801 3.652356 -0.419154
14900 0.9351088200000001 1.9260463500000002 -1.07012385 -1.4148040000000002 4.517206 -0.21436
14920 1.4534790300000002 2.66865354 -1.91811006 -1.0028700000000002 4.953011 0.200292
14940 3.6685672200000004 3.1240043100000006 -2.84138802 0.432032 4.204644 0.42385
14960 6.0276662100000005 3.0287982600000003 -4.48677027 0.699527 3.854601 0.6163109999999999
14980 8.47971495 3.4187359500000003 -6.79631895 0.180265 4.166387 0.618694
15000 12.454854480000002 7.20885888 -9.29716263 -0.150323 3.474207 0.842666
15020 15.648912000000001 15.707438460000002 -10.082737620000001 -0.270309 2.661889 1.090697
15040 11.49938991 18.28373085 -8.557253189999999 -0.201828 2.358601 1.218682
15060 6.128110800000001 9.896524200000002 -5.664225330000001 -0.138463 1.98539 0.988867
15080 2.5414178400000003 10.60574796 0.15747012000000002 -0.185812 1.435592 0.526701
15100 -3.1127816700000004 13.49712774 -0.40999914 -0.360586 0.96741 0.011197
15120 -5.94189738 18.68220324 -2.4739054200000004 -0.440395 0.5933390000000001 -0.411897
15140 -5.40406413 20.2217454 -14.037953040000001 0.12046099999999997 0.6291859999999999 -0.538349
15160 0.97641873 6.65396604 4.1715259200000006 0.363403 0.547431 -0.550434
15180 -0.01721655 6.07541148 6.6547116000000015 0.464535 0.410011 -0.6382140000000001
15200 -0.42136893000000003 6.636151080000001 6.67626417 0.501788 0.937965 -0.564923
15220 -0.39053610000000005 9.56241522 5.91884388 0.54813 1.283998 -0.559701
15240 0.99916812 12.83790555 4.54125501 0.446037 1.515945 -0.400478
15260 1.9634715 10.59795882 4.14517626 0.471448 1.433034 -0.201505
15280 2.5450083 9.13775013 4.39486038 0.893914 1.503804 0.115412
15300 3.66916563 8.98896186 3.5578025100000006 1.090612 1.534348 0.298345
15320 5.11771023 8.5752153 1.3894099199999999 0.718623 1.277289 0.436013
15340 4.6330177500000005 7.54177104 0.90861201 0.332081 -0.157389 0.974603
15360 6.203696850000001 9.51556266 3.3670961100000003 0.7423109999999999 -0.488815 1.714967
15380 8.132892210000001 9.62333532 3.45706362 1.704935 0.180886 2.566864
15400 7.90894953 6.85783746 2.30730219 2.598061 1.468933 3.357663
15420 6.825807810000001 4.41896355 1.0538098200000001 2.893242 1.694652 3.663879
15440 5.4113922 3.87634302 0.07739109000000001 3.055155 1.063628 3.086843
15460 4.33109538 5.742361980000001 0.13337676 2.981782 0.634392 2.600839
15480 3.90402684 8.513696790000001 0.65263968 3.037127 1.298597 4.0147
15500 4.11224409 11.93467923 0.2080701 2.83201 1.364874 6.528845
15520 4.11943482 11.05346655 -1.41096249 2.277176 -0.601595 6.469806
15540 3.4218849600000003 8.19441072 -0.9231308100000001 1.713614 -2.539371 4.573327
15560 3.90402684 8.95857048 1.5832555200000002 1.930209 -4.127559 4.883454
15580 3.7868267700000002 14.225971500000002 0.69455781 1.341752 -4.41742 3.291269
15600 2.55024684 13.59831789 1.6483743 1.689599 -5.617634 1.838182
15620 3.26006901 11.13863697 1.4153083200000003 1.0341790000000002 -5.298241 0.324866
15640 5.186419470000001 11.785145400000001 2.54725479 0.253525 -3.076101 -0.855274
15660 5.80478301 14.7355029 1.7227635300000004 -0.385774 -0.193086 -1.726557
15680 4.79976813 15.26061258 0.36568737 -1.257829 2.671594 -2.339865
15700 4.0169007 10.6744572 -0.49083354000000007 -1.569774 3.692231 -2.893486
15720 5.78801772 6.02272197 -0.03143124 -1.082912 3.88693 -3.25353
15740 8.407120950000001 5.8824684 2.1165957900000003 0.120993 4.276569 -3.434696
15760 7.005733020000001 8.06043555 1.5242778 -2.234832 4.517534 -1.980518
15780 3.17174958 9.227109420000001 -0.11855385 -2.335278 2.423131 -2.1419740000000003
15800 1.82859381 11.27230803 -0.46702467 0.562661 1.251946 -2.410787
15820 2.8026189 14.547052800000001 -1.12266621 -0.280934 1.2447629999999998 -2.015019
15840 3.3114145500000003 17.16480225 -1.5521185800000001 -0.259615 0.549933 -2.231897
15860 2.9928740400000002 17.87523264 -0.8108651700000001 -0.282972 0.502996 -3.25963
15880 7.176073860000001 14.674435650000001 -0.74485368 -0.362108 0.62871 -4.52405
15900 12.922624710000001 16.78653846 -3.2218983000000003 -1.099179 0.102834 -3.180429
15920 17.25237612 22.428161550000002 -6.63180525 -1.556148 1.555679 -1.406893
15940 17.76580209 20.290454640000004 -2.5056407700000003 -1.600402 1.077924 -1.77299
15960 17.68273101 17.333651970000002 -1.7919240300000001 -2.10885 0.222808 -2.737914
15980 23.466854160000004 17.015121269999998 -4.00492269 -1.8161650000000005 0.242269 -2.796783
16000 10.18391796 9.91956789 -2.2010206500000002 -1.535547 0.541583 -2.500377
16020 2.4650764200000004 1.83877659 1.06787736 -1.09663 0.518375 -2.139427
16040 -3.13658073 -0.43200297000000004 3.33880407 -0.502633 -0.096853 -1.980666
16060 -11.265568560000002 0.04491018000000001 8.125554330000002 0.291845 -0.575665 -0.946873
16080 -11.81208366 -4.3188230700000005 9.974808 1.05554 -0.408187 0.462959
16100 -10.26489951 -5.417082000000001 4.1936769 1.407361 -0.367819 1.516495
16120 -4.09293801 0.027095220000000003 -0.49547367000000003 1.5997709999999998 -0.242741 2.037903
16140 1.99579545 4.40968329 -0.6195603599999999 1.941695 -0.482816 2.636666
16160 11.025027360000001 12.342735990000001 -2.5268990400000004 2.042141 -1.518752 3.4697720000000003
16180 9.593405010000001 14.05652337 6.3134217 1.1723059999999998 -0.643247 3.462574
16200 6.24202452 13.04088426 -7.33968504 1.076763 1.304532 3.16565
16220 5.383257120000001 8.71218252 -2.57330034 1.551748 2.051383 2.199133
16240 1.06802451 3.71766627 1.6691813100000001 1.632562 0.28919 1.919946
16260 1.41575958 3.2588721900000004 1.5959790900000002 0.906127 -0.5539930000000001 2.952127
16280 3.1127816700000004 9.10915398 2.63527011 1.636705 0.462988 4.270908
16300 6.24516372 22.382505810000005 -0.9759674700000001 1.491593 0.17064200000000002 3.979713
16320 14.587018740000001 22.91270688 1.75390047 1.419909 -1.362848 3.914947
16340 13.27244931 18.03703878 0.91698975 1.546666 -3.3487949999999995 3.873512
16360 7.32681432 20.296144440000003 -0.347274 2.017227 -4.055831 3.389528
16380 9.24387471 18.508262130000002 -1.83548043 2.378952 -3.744592 2.49969
16400 5.9778216 16.36007814 -4.01989275 2.1432330000000004 -2.685598 1.878186
16420 6.90528843 12.90960684 -3.5600490000000002 1.606935 -1.582758 1.47458
16440 1.83143871 3.94085358 -2.95350651 1.297942 -0.829508 1.185173
16460 3.4908885 -0.93570723 -3.30706872 1.204602 -0.649496 1.0048290000000002
16480 7.87706703 -0.33919056000000003 -4.53601647 0.936077 -0.882641 0.933818
16500 7.3905793200000005 -1.61663895 -2.8089071100000003 0.191951 -1.048364 0.398995
16520 5.276082870000001 -1.3347780300000003 -1.36695483 -0.649522 -1.08889 -0.191149
16540 1.5938895600000003 0.11346246 2.15207856 -1.239211 -1.631822 -0.56845
16560 -0.55744344 2.8340599500000003 2.69080452 -1.788823 -0.92599 -0.77936
16580 1.25887806 8.00370432 -1.54015038 -2.151225 0.011894 -1.107833
16600 3.73218507 17.67225393 -2.2125474 -1.189267 -0.2514 -0.567733
16620 4.49530497 30.919550400000002 1.1720595600000001 -2.150885 0.502162 -1.168279
16640 -1.2698064 23.26521942 -1.2900150000000001 -2.003327 1.6044040000000002 -2.28068
16660 -0.39383226000000005 11.74936833 -1.3308834600000001 -1.471856 2.525448 -2.104027
16680 5.706879209999999 10.813965210000001 -0.01751085 -1.7344849999999998 2.628278 -1.485357
16700 12.609626850000001 13.601162790000002 -0.9919872000000001 -1.613129 2.518224 -1.773856
16720 5.51692818 8.69242518 -3.5594505900000004 -1.235758 2.64162 -2.056594
16740 3.0280527000000004 5.192550720000001 -1.45108539 -0.682344 2.409192 -2.220141
16760 2.02678524 4.71189996 -0.22842585 -0.402571 2.115822 -2.091761
16780 0.9187849800000001 0.70338681 -0.27602397 -0.311128 2.230878 -1.906467
16800 -1.96451136 -0.6140275199999999 2.4742095300000004 -0.337166 1.97499 -1.828341
16820 -4.384677600000001 1.07910981 3.25617444 -0.51767 1.970024 -2.028285
16840 -3.00035907 0.06002739000000001 0.6987466800000001 -0.412308 2.048675 -2.606626
16860 0.1562733 0.94004325 -2.7653507100000003 -0.290256 0.969918 -3.070136
16880 3.64536657 1.3986901800000002 -5.65284573 -0.912997 -0.387076 -2.838806
16900 6.55038225 0.9969314400000001 -6.952288139999999 -0.746684 0.12269 -2.059564
16920 10.38315906 0.31988447999999997 -3.88412235 -1.340439 1.039894 -1.013756
16940 13.943502359999998 0.87881904 -6.7321026900000005 -1.568152 1.061053 -1.844314
16960 13.292962020000001 2.31538563 -8.368950240000002 -1.909407 1.015361 -2.641396
16980 12.19393791 2.8586045700000002 -8.15549445 -1.905295 0.593255 -2.315019
17000 8.67371751 10.64136807 -14.25994353 -1.252175 -0.248837 -2.483498
17020 15.80623497 18.162027990000002 -13.08757986 -0.796177 0.0057810000000000005 -2.084329
17040 2.36193408 6.299197200000001 -1.32564492 -0.607885 0.78404 -2.133149
17060 -3.0687642 0.38200140000000005 -1.06309008 -0.368785 0.686871 -2.017055
17080 1.5290748900000002 5.131179360000001 -2.7741797100000003 0.016114 -0.116151 -1.335016
17100 3.9881574000000004 10.326123720000002 -5.76585693 0.419884 -0.577785 0.003673
17120 5.29149438 10.678341960000001 -3.68324298 0.957886 -0.718793 1.231794
17140 4.99435929 8.93821473 -1.6703781300000002 1.829725 -0.544027 2.324042
17160 4.41716832 6.995854350000001 -1.64058516 1.298459 -0.6362439999999999 2.934677
17180 4.28783328 4.06495008 -1.73279916 0.505021 -0.7380180000000001 3.23264
17200 3.69401436 3.3977817900000002 -1.3051322100000002 0.38841 -0.8714770000000001 3.408253
17220 4.22945397 4.503829860000001 -0.6502460400000001 0.8876069999999999 0.01527 3.132866
17240 4.86323883 7.10961111 -1.49030577 1.512053 2.171219 2.36855
17260 3.9960936900000004 9.337736790000001 -0.11256975000000001 1.596564 1.740687 2.601496
17280 4.14802116 10.636129530000002 0.02470158 1.442996 0.227254 3.451599
17300 6.84706608 15.87104964 -1.19331783 1.743486 -0.827996 4.14619
17320 13.982271480000001 19.252664550000002 -1.0279114200000001 1.646459 0.141933 4.63031
17340 11.0567529 13.18204035 3.60675441 1.429617 -0.129166 4.415499
17360 0.60698394 19.08276516 -4.04278929 1.622398 -1.7399669999999998 4.540686
17380 6.88523679 19.27361871 0.6185106900000001 1.808581 -2.101821 4.2946230000000005
17400 10.96454871 18.12071808 0.02499588 1.6462310000000002 -3.030859 3.400578
17420 7.04659167 15.533801460000001 -1.8233552700000002 1.587026 -3.797386 2.2699
17440 4.973562090000001 13.19371425 -3.4290658800000005 1.143969 -3.4285980000000005 1.272886
17460 2.0871069300000005 7.51168377 -4.50143622 0.714176 -2.918333 0.315308
17480 4.28424282 1.38746754 -3.21276519 -0.031631 -1.743409 -0.882475
17500 5.57889795 -2.5104280500000002 -1.83847248 -0.5501159999999999 -0.5436350000000001 -1.831942
17520 7.387587270000001 -3.8191605300000004 -3.37443399 -0.942009 0.564344 -2.313594
17540 5.74849323 -3.2563314 -3.0252078000000004 -1.277135 2.04993 -2.703467
17560 2.1495279600000003 -0.8402068800000001 -0.48933261000000006 -1.535259 1.833378 -2.9367970000000003
17580 1.68130647 3.03134886 0.5001138 -1.239457 2.015196 -2.574973
17600 2.3456200500000004 5.61856959 2.78900262 0.12503499999999998 2.395252 -0.502124
17620 2.30041557 8.653656060000001 0.6963530400000001 -2.487187 3.540339 0.982219
17640 0.77344002 15.91834365 -2.5557894900000004 -1.085977 1.580497 -0.828937
17660 -0.32991030000000005 21.026479320000004 -4.72507479 -1.095566 2.367152 -1.473082
17680 2.9117453400000004 12.954958470000003 -3.42038403 -1.483572 1.697625 -1.269835
17700 6.4116198 11.22875163 -2.42331525 -0.754886 1.7173770000000002 -1.246611
17720 9.03505905 13.35821814 -3.4138015200000003 -0.43023 2.209467 -1.776948
17740 12.62609784 14.403051810000001 -1.74836763 -0.579681 2.552287 -2.129877
17760 10.984904460000001 15.45296706 -2.8719265500000004 -0.739746 2.58984 -2.324391
17780 10.314449820000002 15.963253830000001 -3.7247000400000005 -1.13147 2.3479650000000003 -2.769061
17800 11.08310256 19.24817157 -5.3670902400000005 -1.2560209999999998 2.307372 -2.633147
17820 12.892694400000002 17.38035738 -5.407350480000001 -1.1053 1.654184 -1.9219580000000005
17840 12.34826883 10.33989696 -2.06076708 -0.932269 1.379066 -2.0026490000000003
17860 8.46265536 7.2419382 -2.31912324 -0.4411640000000001 0.95655 -2.26146
17880 5.53683267 6.1629853500000005 -2.66580864 -0.113044 0.048259 -2.11059
17900 2.5743500100000003 1.3822290000000002 -0.9081607500000001 -0.400228 0.081243 -1.320017
17920 -0.12603888 -1.5018227100000001 0.8732862 -0.408855 1.0008629999999998 -0.8523069999999999
17940 -1.1094913800000001 -2.9521625400000007 3.52711683 -0.560661 1.542009 -0.717328
17960 -2.95635141 -5.51273931 4.850368110000002 -0.951224 1.062877 -0.705555
17980 -4.24397277 -5.5468683 1.15829613 -1.017088 0.8459610000000001 -0.748466
18000 -2.75756157 -4.87326465 -1.42248924 -0.858241 0.8877430000000001 -0.679044
18020 1.6527103200000002 2.7382554900000002 -6.6023163899999995 -0.917156 1.156062 -0.59541
18040 19.767895560000003 13.790672370000001 1.0976703300000001 -0.94522 1.011572 -0.66806
18060 -1.75165398 9.4829346 -1.70675361 -0.414237 0.99129 -0.8512639999999999
18080 4.187839950000001 11.18339019 -5.18341761 0.138157 1.210677 -1.048512
18100 4.48512219 8.32538403 2.3740592400000002 0.256174 1.58645 -0.817433
18120 3.4426919700000003 6.458766659999999 -3.47996016 0.155666 1.907135 -0.207523
18140 2.9635421400000004 8.14531167 -2.45219589 0.116178 1.616764 -0.01942
18160 2.2836502800000003 11.819274390000002 -1.79746668 0.007705 0.923991 0.160171
18180 2.45938662 12.14574138 -1.5575140800000002 -0.035237 0.325933 0.572971
18200 4.5574218900000005 11.016943920000001 0.4281084 -0.142071 0.116531 1.349091
18220 6.64184088 11.828701800000001 1.64732463 0.503576 0.051116 1.962571
18240 7.331748750000001 12.16954044 0.57989853 1.7932709999999998 0.030676 2.225843
18260 5.7827791799999995 11.297303910000002 -0.07724394 2.765004 1.140739 2.437375
18280 3.76167393 9.206459370000001 0.7086253500000002 3.359488 3.476239 2.35094
18300 3.91181598 9.230699880000001 0.22976981999999999 3.653624 3.3084580000000003 2.495283
18320 5.419926899999999 7.70881572 0.7024842900000001 3.3556470000000003 2.125677 2.568425
18340 4.20969663 5.314096620000001 2.18396106 3.518826 2.112002 1.851737
18360 1.9862208900000002 4.0519224000000005 2.89378323 3.781808 2.328738 1.236932
18380 0.39218418 4.35504159 2.28350313 3.148442 1.953765 1.252216
18400 0.69845238 5.845641659999999 1.3921076700000001 2.623193 2.37003 1.505456
18420 1.9336785300000001 6.852304620000001 0.53543961 2.143259 2.227766 1.80032
18440 2.1375597600000003 6.98058018 0.7764320700000001 1.7247400000000002 1.340159 1.688507
18460 1.65990105 7.580687310000001 -0.055083150000000004 1.658977 0.303395 1.275974
18480 0.84873177 8.25788142 -0.7592253299999999 1.447646 0.253967 0.7671560000000001
18500 0.9412400700000001 8.57925702 -0.29278926000000005 0.9001319999999999 0.303108 0.142631
18520 1.73010141 8.15609286 1.06773021 0.222707 0.643528 -0.484242
18540 3.0548438100000004 7.29343089 1.20783663 -0.53346 0.913321 -1.229079
18560 4.04278929 7.63307271 1.70704791 -1.366815 0.955995 -2.119442
18580 5.136722010000001 8.39244519 1.9540342800000001 -1.50586 1.25164 -2.937982
18600 6.518646899999999 9.52993431 0.8002311300000001 -0.771126 1.972271 -2.369752
18620 5.21261217 10.807677 0.95082444 -0.680013 1.719845 -0.331693
18640 3.4069149 14.05532655 3.2838680700000005 -0.348017 0.119009 0.6426229999999999
18660 2.7470844899999998 14.368922820000002 2.36987037 -0.472012 1.10754 0.495212
18680 1.7059982400000002 12.06760473 -0.94783239 -1.234301 2.208885 -0.669477
18700 -0.09385227000000002 12.40186086 -0.7987400100000002 -0.778891 1.064794 -1.067549
18720 -1.16801784 16.10545959 -2.19608622 0.7662100000000001 -0.344467 -1.099816
18740 -2.91069567 15.86221083 -1.839375 0.8030430000000001 1.447285 -0.855096
18760 -4.13828964 16.14617109 -0.7487384400000001 0.5314260000000001 1.939757 -0.698459
18780 -2.8806084000000003 16.0943841 -0.39203703 0.175691 2.131343 -0.881719
18800 1.06923114 11.501479439999999 -0.48843009000000004 -0.311815 1.7363849999999998 -1.056602
18820 3.5630410500000003 9.01635138 1.5901421400000002 -1.215027 1.077117 -1.106931
18840 3.8425083300000002 6.72356799 2.9404886400000003 -2.244695 1.411508 -0.987434
18860 3.96046377 5.158725840000001 1.4561767799999998 -2.05613 2.252828 -0.556701
18880 3.907323 5.196298140000001 -1.63220742 -1.09872 2.394493 0.214652
18900 2.4887283300000003 4.73405094 -0.8268849 0.176404 2.429602 0.452113
18920 1.39719906 4.0169007 -0.16765290000000002 0.343434 2.496397 0.386964
18940 1.46859624 3.77903763 -0.17394111 0.318295 2.082265 0.343522
18960 1.73144538 2.6726952600000002 -0.5536960200000001 0.262734 1.72918 0.24531
18980 2.74873257 2.28230631 -2.3234690700000002 0.120125 1.709831 0.146063
19000 4.67822223 1.99265625 -4.49275437 -0.228164 1.272525 0.051255
19020 7.973018639999999 3.23177697 -5.047657020000001 -0.655771 0.905081 -0.129654
19040 13.728398490000002 7.881560010000001 -3.8769414300000005 -0.7828189999999999 0.410174 -0.130976
19060 16.55946639 19.11165561 -5.2608087 -0.722254 0.428949 0.182412
19080 8.788376790000001 12.02629482 -8.42717259 -0.28677800000000003 0.7596970000000001 0.475587
19100 4.5346725 12.473110890000001 -0.6134291099999999 0.261318 0.844432 0.388508
19120 -1.2629197800000003 15.788420010000001 -1.43805771 0.462097 0.576653 0.313341
19140 -5.149288620000001 21.133653570000003 -2.5626663000000005 0.721091 0.7580140000000001 0.555268
19160 -4.263131700000001 14.304853710000001 -5.18910741 1.133598 0.985638 1.348342
19180 0.45670455000000004 4.1197291200000015 4.13904501 1.6896639999999998 1.17616 1.971551
19200 0.60444315 5.622905610000001 4.62807351 3.237787 1.539012 2.329072
19220 -0.46074627 7.89308676 5.3075141100000005 3.937208 2.951009 2.66116
19240 -0.1038879 10.8944955 5.136722010000001 3.805365 3.297648 2.669409
19260 1.21966749 12.22583022 3.4239843000000003 3.751002 2.248873 2.319996
19280 1.82110878 9.96447807 1.89969669 3.639037 1.252298 2.020321
19300 1.81213263 7.57334943 2.1083652 3.433056 0.56776 1.824275
19320 3.3024285900000003 6.96816072 -1.01429514 3.4017510000000004 0.707704 2.285349
19340 3.7342844100000003 8.332123500000002 -0.46209024000000004 3.4480760000000004 0.417773 3.08721
19360 4.40309097 9.88334937 1.3395653100000002 3.071896 -1.843518 3.340649
19380 5.99743179 9.62258976 0.76042215 2.901332 -2.355267 2.794252
19400 6.682101120000001 7.94128329 0.49292307 2.747039 -2.422491 2.157668
19420 6.51265299 6.22930095 0.7879588200000001 2.3945990000000004 -1.870527 1.36081
19440 5.377420170000001 6.08110128 0.8155053 1.819384 -1.55176 0.998529
19460 4.96098567 6.9048371699999995 0.8900514900000001 0.842867 -1.499109 0.400914
19480 5.6598795 8.03065239 0.42825555000000004 0.114296 -0.711879 -0.030336
19500 4.54544388 7.837699500000001 -0.17708031000000002 -0.15750799999999998 0.311553 -0.25253200000000003
19520 1.7554014000000002 8.231237460000001 -0.47691315 -0.514026 -0.019244 -0.069796
19540 0.60384474 9.25360623 -0.24339591000000002 -0.880044 -0.151617 0.050663
19560 3.17519289 11.58545304 1.4349185100000001 -1.466511 0.999011 -0.538157
19580 4.52793303 12.65752908 3.17070972 -0.29966 0.886445 -0.572591
19600 2.89213515 12.386439540000001 1.8685597500000002 -1.322162 2.369066 -0.424605
19620 3.6706665600000004 14.824420740000003 0.3529638 -1.859327 2.403983 -1.230636
19640 5.52022434 14.4605286 -2.8548669600000003 -0.941774 2.802507 -1.786623
19660 4.88404584 12.668457420000001 -1.6069074300000001 -1.172018 3.332603 -2.016441
19680 3.43355886 14.86828125 -1.93008807 -1.122854 3.392878 -2.213796
19700 1.1758069800000002 16.657811640000002 -2.04983874 -0.796665 3.477328 -2.303493
19720 -0.06361785 15.263006220000001 -0.57435588 -0.227717 2.832975 -2.298693
19740 2.14713432 11.784841290000001 0.11016630000000001 -0.084922 2.406133 -1.973478
19760 6.114180600000001 9.60328368 0.024848730000000003 -0.002074 1.919686 -2.141055
19780 7.673342760000001 10.551410370000001 -0.32646699000000007 -0.165979 1.032875 -2.405982
19800 7.146437850000001 12.055783680000001 -3.38985531 -0.688474 0.389333 -1.924903
19820 5.425763850000001 11.53770777 0.24698637000000004 -0.37208 0.880337 -0.8465540000000001
19840 0.10568313 6.3336303 0.49502241 -0.379507 1.294518 0.276633
19860 1.6673860800000002 2.98419219 0.03981879 -0.520309 1.752105 0.25263
19880 2.1718359 1.58041062 -0.7963463700000001 -0.241788 0.970405 -0.30737600000000004
19900 2.3962200300000003 0.59322051 -0.8420021099999999 -0.242539 1.1850120000000002 -0.162378
19920 3.3564718800000004 -2.2108993200000002 -1.20618855 -0.082208 1.644136 0.233396
19940 5.59850814 -1.14002991 -5.041368810000001 0.257935 1.51546 0.149411
19960 8.76996342 0.82059669 -8.661288240000001 0.543912 0.958765 0.05705
19980 10.95452289 2.1573171 -8.664878700000001 0.531048 0.63961 0.227216
20000 8.853044310000001 2.31239358 -6.20534493 0.376919 0.548565 0.484766
20020 6.72940494 6.699317669999999 -4.77013212 0.615323 0.113379 0.416486
20040 10.674898650000001 22.37996502 -11.42873829 0.723958 0.738499 0.371579
20060 4.9602303 15.61852062 -0.6723970199999999 0.713845 0.704018 0.212387
20080 -2.5737516 7.17113943 -2.9240176500000006 0.5949939999999999 0.465215 -0.171628
20100 -1.7292087000000003 7.284601889999999 1.66722912 0.033515 0.702117 -0.586051
20120 0.81610371 10.288257119999999 0.39802113000000006 -0.347214 0.6905140000000001 -1.34927
20140 4.97984049 13.20883146 -0.37108287 -0.280747 1.810444 -1.488041
20160 6.581666340000001 15.883773210000001 -0.12005478000000001 -0.33217 1.746664 -1.743624
20180 4.8717735300000005 11.95892955 -0.14519781 -0.545683 1.066229 -2.159782
20200 3.92303862 8.78373666 0.51358293 -0.544994 -0.09229 -2.285411
20220 3.8302360200000005 7.514518860000001 0.53094663 -0.34937 -0.036394 -2.314026
20240 6.404880330000001 8.32913145 -0.07260381 -0.197167 0.788949 -2.118536
20260 10.31085936 9.38937663 0.18231885 -0.111324 1.059646 -1.955913
20280 9.19657089 6.526279080000001 0.48498678000000006 -0.017002 0.253998 -1.430793
20300 6.6345030000000005 6.45367527 2.5737516 0.210134 -0.755985 -0.272097
20320 0.87013719 7.43683347 -1.4635048499999999 0.8855870000000001 -1.430986 1.175586
20340 0.61282089 6.968307870000001 0.15701886 1.24431 -1.01577 2.255396
20360 3.82829364 5.91944229 0.17064495 1.538066 0.066599 2.786967
20380 4.68989613 5.178630330000001 -0.7277842800000001 2.068505 0.6229100000000001 3.0666290000000003
20400 5.06366694 5.69295882 -1.73339757 2.461064 0.903615 3.124559
20420 5.74684515 5.83396776 -1.38881151 2.914169 0.998305 3.294245
20440 4.902007950000001 4.2351437700000005 -0.11047041 2.708362 -0.206596 3.490904
20460 1.6090067700000001 3.62905254 -0.6063855300000001 2.339735 -1.043564 3.725479
20480 1.6735173300000001 5.243445 -3.0975075 2.8818200000000003 0.30593000000000004 4.1067550000000015
20500 4.784503770000001 4.62627828 0.23725485000000002 3.043565 -0.955779 4.604088
20520 1.1870296200000001 6.52044213 -2.31508152 2.865774 -2.029183 4.393782
20540 2.09818242 9.003627810000001 -1.28223567 2.185555 -4.219698 3.995527
20560 2.5129786500000004 11.95069896 3.40676775 2.158184 -4.954223000000002 3.890523
20580 2.8458810000000003 19.5710481 1.72875744 1.904033 -5.878851 2.772573
20600 6.26582358 22.933513890000004 1.37474397 1.002148 -4.989073 1.357216
20620 9.903253860000001 23.78358963 -0.7432056000000001 -0.289012 -1.866449 0.005714
20640 13.433814 25.7168169 -2.0101671000000003 -1.414984 -0.24819 -0.90794
20660 11.78529255 21.83704038 -1.6048080900000001 -1.802449 0.889515 -1.634223
20680 6.104606040000001 19.26493686 -2.19429099 -1.976016 2.112991 -2.150818
20700 3.8574783900000003 12.8585556 -1.62831285 -2.527729 3.102991 -2.560796
20720 3.54926781 6.39230391 -2.0966913000000007 -1.960967 3.286699 -2.905313
20740 5.07234879 2.9193775200000003 -1.0404878400000002 0.018352 2.702446 -2.104527
20760 7.172336250000001 3.3471916200000003 -1.58834691 -1.0601459999999998 4.4334 -0.875141
20780 7.48503 4.61221074 -0.5891787900000001 -2.630142 2.896052 -1.3392
20800 5.969434050000001 4.57837605 1.40811759 -0.654903 0.967689 -1.931819
20820 3.6330942600000005 5.507647919999999 1.84775274 -0.138697 2.078086 -2.207374
20840 2.9216240100000004 6.48855963 -1.0282155300000004 -1.190354 1.3270030000000002 -2.079161
20860 4.23634059 8.97803352 -6.346501020000001 -1.122503 0.923529 -1.672246
20880 4.892423580000001 12.29662899 -6.444699120000001 -0.591342 1.045579 -1.752013
20900 5.05423953 15.41254986 -3.01727151 -0.25567 1.248178 -2.889721
20920 8.69512293 16.85345247 0.34054434000000006 -1.018673 0.15381 -3.476897
20940 7.5579379200000005 11.42289153 0.73781991 -1.291817 -0.020732 -2.217012
20960 10.15054434 10.44168552 -2.5643143800000003 -1.233708 1.067038 -1.234167
20980 16.475335830000002 11.44086345 -5.87513052 -1.605424 0.909738 -1.5345959999999998
21000 15.53125086 19.07333775 -6.43107303 -1.960357 0.840922 -2.397974
21020 13.00675527 15.056741160000001 -3.23447472 -1.924819 0.168854 -2.192834
21040 6.30728064 12.541221720000001 -2.2977178200000004 -1.6816 -0.5637840000000001 -2.205151
21060 2.61176535 5.091360570000001 -0.6019023600000001 -1.529525 -0.628301 -1.920928
21080 2.2091040900000003 -0.030391380000000003 -1.04362704 -0.8998430000000001 -1.004501 -1.628696
21100 -2.05642125 -0.15687171 -2.59784496 -0.6985520000000001 -1.315 -1.145124
21120 -5.27682843 -2.36029581 1.80854217 0.011243 -1.094999 -0.035906
21140 -3.7432703700000003 -4.694683410000001 3.98291886 1.087878 -0.898595 1.3280040000000002
21160 -2.1622515300000003 -4.997508300000001 3.33506646 1.559792 -0.287506 2.34426
21180 -3.2968957500000005 -2.4659691300000004 0.47436255000000005 1.495967 0.061954 2.653151
21200 1.54104309 4.286930760000001 -5.54371929 1.967827 -0.399678 2.602559
21220 8.80334685 14.74494012 0.5074418700000001 1.6441990000000002 -0.47633 2.60467
21240 5.545818629999999 11.435772060000001 0.9247788900000001 1.878528 1.104875 2.849971
21260 0.87433587 10.014322680000001 -2.27063241 1.7100919999999995 1.160016 3.591139
21280 2.5990417800000003 7.459739820000001 -1.55541474 1.239966 0.495045 3.791669
21300 2.68436916 7.834854600000001 -1.01833686 1.347345 -0.4735970000000001 4.5734629999999985
21320 2.98569312 5.67544797 0.8388531 0.8738889999999999 -0.732308 5.21142
21340 3.0021543000000004 5.176530990000001 1.98127665 1.182309 -0.034642 4.701002
21360 3.3664977 8.394691680000001 0.37496763 0.942648 -1.700598 4.608527
21380 4.60502001 17.7866091 -0.70009065 0.618911 -3.148788 4.210743
21400 9.45223911 24.92736696 -0.8903457900000001 1.037176 -3.706275 3.403599
21420 13.81970997 18.83503323 1.41710355 0.996049 -4.515357 2.243191
21440 8.3699901 16.70017122 -2.33918469 0.965732 -4.320125 0.867927
21460 6.91442154 19.621500930000003 0.03697389 0.371386 -3.183956 -0.35972600000000005
21480 12.93041385 18.36246591 -1.01129328 -0.5814520000000001 -1.157765 -1.406221
21500 12.866344740000002 14.257854000000002 -2.20147191 -0.820208 0.062658 -1.901903
21520 10.385699850000002 11.52797625 -2.8472249700000005 -0.739855 1.240801 -2.224387
21540 1.7458170300000002 8.17793973 -2.0104712100000004 -1.349898 2.145483 -2.559888
21560 -2.51551944 1.4754828599999998 -1.43281917 -1.696871 2.523869 -2.844807
21580 1.3644140400000002 -1.8562874400000002 -3.2971900500000006 -0.791042 2.830572 -2.540839
21600 5.77633401 -2.9509657200000006 -5.49207945 -0.465025 4.026176 -0.5200859999999999
21620 5.917647060000001 -1.46500578 -4.197267360000001 -2.540826 4.901284 -0.448113
21640 3.2790807900000005 0.33006726 -0.5772007800000001 -0.437283 -0.545317 -1.7756040000000002
21660 0.80113365 1.70704791 2.215392300000001 0.253304 0.8451139999999999 -1.636898
21680 -0.5536960200000001 1.23523596 1.13957865 -0.401897 1.487792 -1.680754
21700 2.42451207 5.52770937 -0.34877493 -0.351941 1.0121209999999998 -2.116698
21720 4.75800696 13.94051031 -2.351457 0.53279 1.7958009999999998 -3.057967
21740 4.81548375 21.144434760000003 -2.22751746 0.360631 1.661929 -4.06099
21760 8.876686410000001 23.024217150000005 -5.88740283 -0.356892 0.890465 -2.32488
21780 13.727358630000001 16.82875089 -2.81849148 -0.201404 1.458157 -2.168561
21800 13.23667224 13.746360600000001 -1.26052614 -0.96027 2.619758 -1.890135
21820 11.135340809999999 18.26741682 -3.9019373100000005 -1.116942 1.936425 -1.897831
21840 16.80465753 17.70802119 -4.71160566 -1.279817 0.559286 -2.886378
21860 16.325497889999998 13.8158154 -3.13837596 -1.351778 0.386273 -2.714675
21880 11.080404810000001 12.69674946 -4.042642140000001 -1.164728 0.9003 -2.751415
21900 5.9856009299999995 8.46414648 -0.7080269400000001 -1.1889040000000002 1.6940110000000002 -2.750465
21920 4.8933261 1.23462774 -0.38723994000000006 -0.835549 1.152191 -2.625525
21940 3.7471551300000003 -1.24915635 -0.045351630000000004 -0.156371 0.3118 -2.17746
21960 -0.7463448 -2.11106295 -0.40925358 0.349841 0.250671 -0.917617
21980 -3.7020978 -3.65390127 3.1886718300000005 0.734101 0.6933239999999999 0.205065
22000 -4.65202953 -4.32569988 4.72208274 0.7669520000000001 0.713279 0.513985
22020 -5.61482217 -4.64215086 2.80725903 0.342505 -0.348624 0.8371200000000001
22040 -4.6309184100000005 -1.22759397 -0.78212187 0.200951 -0.754707 1.544883
22060 3.35362698 4.159547910000001 -7.132664610000001 -0.013193 -0.158363 2.314948
22080 16.26188004 14.108761620000001 5.36424534 0.528446 -0.076402 3.192432
22100 3.4296642900000003 13.269006000000001 -1.69417719 -0.103934 1.125498 3.140541
22120 -0.6819813900000001 8.96634981 -7.24672548 0.07598099999999999 1.0137459999999998 2.1613130000000003
22140 2.41133724 4.60592253 -1.0268617500000001 0.6033229999999999 1.014522 2.575193
22160 3.10709187 3.68862867 0.6647648400000001 1.020275 0.495342 2.577702
22180 2.7738854100000006 4.52119356 2.10731553 1.136989 1.538063 3.054676
22200 2.5721035199999998 11.853403380000001 1.77965172 1.363101 2.185053 2.767007
22220 5.2781724 22.9978773 -5.33176443 1.675527 2.003009 1.669154
22240 12.45694401 20.78188659 0.6786852300000001 1.9181740000000005 2.637684 1.250224
22260 17.050594230000005 17.1011844 3.99009978 2.273245 2.785981 1.685144
22280 18.23927193 13.50685926 -0.32512302000000004 2.361723 2.517174 1.43187
22300 13.260177 19.94811507 -0.57390462 2.355626 2.169348 0.775317
22320 10.02061089 19.29832029 -0.12080034 2.561664 1.637185 0.212348
22340 6.82325721 13.16707029 -1.56978639 2.5667310000000003 0.787283 -0.104857
22360 4.36627404 10.39602978 -3.88082619 2.285914 0.35527600000000004 -0.251544
22380 4.692888180000001 6.33872169 -5.31708867 2.310678 0.374163 -0.99915
22400 5.42755908 0.60384474 -5.315891850000001 2.206521 0.185913 -1.516656
22420 2.03965596 0.36523611 -3.96929277 1.892581 -0.149581 -1.7940200000000002
22440 4.320912600000001 2.2716722700000003 -3.6398337300000003 1.322361 -0.117388 -1.89098
22460 5.89174866 3.44912733 -3.2618642400000004 0.72645 0.07608999999999999 -1.806728
22480 4.73525757 -1.3127742 -1.66244184 0.176872 0.17443399999999998 -1.6814380000000002
22500 3.1976479800000006 -5.035080600000001 -0.5956141500000001 -0.362131 0.009637 -1.561078
22520 3.0075498000000005 -6.08095413 2.27796048 -0.93127 0.329371 -1.372115
22540 1.08000252 -3.1482546300000003 2.0441489400000004 -1.220229 1.251366 -0.722631
22560 -3.8396634300000003 0.31150674000000006 1.4721867000000002 -0.649544 1.873165 -0.072099
22580 -3.3763763700000005 8.931779370000001 -0.40236696 -0.221021 1.075081 0.403003
22600 2.10731553 17.43215418 -0.9580053600000001 -0.251454 0.852094 0.781227
22620 0.37467332999999997 27.725345730000004 -2.8620478800000004 -0.64652 1.829713 0.4012
22640 -2.18501073 20.439998280000005 -4.7244763800000005 -0.7563850000000001 2.69078 -0.648596
22660 0.35431757999999997 17.38889208 -4.175714790000001 -1.394108 3.469867 -2.317271
22680 0.21285737999999998 21.55966263 -3.5657388000000005 -0.8992389999999999 1.965946 -3.073529
22700 -1.0741655700000001 24.862552290000004 -2.35281078 0.698773 -2.295399 -2.534546
22720 0.76026519 20.4212808 -1.6816007700000002 1.060021 0.66145 -0.896091
22740 3.4536203100000002 13.943208060000002 -4.034862810000001 1.048532 5.598611 -0.522211
22760 3.19271355 11.5047756 -2.8241812800000003 0.800154 5.393824 -0.775784
22780 2.0381648400000003 8.81337267 -1.02027924 -0.035445 4.86635 -0.543799
22800 2.20491522 5.753584620000001 -0.75293712 -1.117394 4.040619 -0.635756
22820 2.5908111899999997 3.9601694700000003 0.39068325000000004 -1.914834 3.898669 -0.676396
22840 3.1157737200000004 0.80921709 0.15148602000000003 -1.463626 5.037058 -0.703545
22860 2.7190965600000006 -0.54936 -1.11682926 -1.012537 6.222137 -0.418834
22880 1.3623147 0.19474812000000002 -3.0776030100000002 -0.469996 5.892387 0.320315
22900 0.9586037700000001 1.7311510800000003 -1.73533995 0.366171 5.48331 0.929157
22920 0.44621766 2.2561038 0.021552570000000004 0.399088 5.427993 1.147375
22940 -0.15402681000000001 2.6017395300000006 0.03922038 0.201079 4.605103 1.176957
22960 0.49576797 3.52771524 -0.9759674700000001 0.092076 3.656049 0.978722
22980 3.5609417100000003 4.12751826 -2.43603882 0.35129 3.132038 0.462049
23000 7.0982413200000005 4.52867859 -3.34569069 0.328054 2.795148 0.547776
23020 9.54146106 5.58248841 -5.015617560000001 0.053531 2.193373 0.4932180000000001
23040 10.847191680000002 11.52378738 -7.959843810000001 0.014057 1.850806 0.148346
23060 9.880651620000002 16.28748414 -11.78603811 -0.010112 1.632654 -0.15385
23080 7.2994248 12.551551650000002 -8.821152 -0.043063 1.540461 -0.512885
23100 3.2597747100000003 8.462949660000001 -4.0499800200000005 -0.329363 1.547379 -0.662308
23120 -0.21479976 8.15459193 -2.10791394 -0.240866 1.413336 -0.7843640000000001
23140 -2.4051961800000003 10.816506 -0.7218001799999999 0.022028 1.753397 -0.539409
23160 -5.58982629 16.2856791 -1.4865583500000001 0.363668 2.136504 -0.205296
23180 -9.18085527 18.647917290000002 -4.48452378 0.8387700000000001 2.147995 -0.027872000000000004
23200 -9.083559690000001 13.21452126 -1.9208078100000001 0.986752 2.036856 -0.068357
23220 -3.8863688400000003 9.65417796 7.979159699999999 0.835126 1.594939 -0.246174
23240 -1.34136054 8.4158028 7.76135808 0.603028 0.531474 -0.231478
23260 -2.0408527800000003 10.40485878 11.80310751 0.5665279999999999 0.058519000000000015 0.05943
23280 -1.10695059 11.982130200000002 10.65769191 0.8430139999999999 0.123703 0.567615
23300 0.6162642 9.60971904 7.578136710000001 1.310774 0.258518 1.079183
23320 4.85724492 10.613831399999999 7.92123165 1.51607 0.485373 1.445658
23340 7.30361367 10.57236453 6.077814930000001 1.499974 0.675375 1.896092
23360 8.55695889 9.19762056 2.9822498100000003 1.30738 0.899531 2.48305
23380 7.763908680000001 7.44986115 2.5307838000000005 1.16655 0.804747 2.864611
23400 7.119048330000001 8.93118096 3.9341141100000003 1.24957 0.466039 3.046154
23420 7.134616800000001 9.337432680000001 3.4124575500000005 1.291278 0.21877 2.775434
23440 6.1908261300000005 8.259078240000001 3.11637213 1.464123 0.232814 2.310879
23460 4.52793303 7.697593080000001 1.14002991 1.662447 0.126872 1.993001
23480 6.328391760000001 6.718927860000001 1.8731998800000003 1.905306 -0.268687 2.400061
23500 5.73442569 6.10490034 1.720674 2.001689 0.069137 3.613801
23520 3.3202435500000003 8.104443210000001 0.45594918 2.0836080000000003 -0.145459 3.927637
23540 1.54493766 8.395594200000001 0.61836354 2.300791 -0.96221 3.926996
23560 1.0593426599999998 7.4783003400000005 0.70773264 2.315009 -2.1104700000000003 3.887975
23580 1.9573304400000002 8.17734132 1.05725313 2.430064 -4.09126 3.36682
23600 1.08299457 9.596240100000001 -0.16794720000000002 2.665775 -4.133849 2.625038
23620 1.4756300100000002 10.81860534 -0.11601306 2.681028 -3.166747 1.855854
23640 2.50100064 10.483897950000003 0.4784042700000001 2.3301380000000003 -2.652226 1.629485
23660 3.33551772 13.5468252 0.30701375999999997 2.01879 -1.7994310000000002 1.489485
23680 4.89691656 16.12761057 -0.39203703 1.6539099999999998 -1.171441 1.403879
23700 8.97203961 14.8362516 -0.45953963999999997 1.299474 -0.625386 1.286403
23720 8.38331208 14.44840344 -0.26465418 1.113805 0.221477 1.18895
23740 3.7052468100000002 16.52294376 -0.95711265 0.91697 0.510065 1.118839
23760 2.64933765 17.67494187 -0.8975365200000001 0.490573 0.146989 0.910159
23780 3.9478873500000002 13.80773196 0.04909905 0.049876 -0.701082 0.787458
23800 3.3407562600000005 9.1012275 0.05627997 -0.257464 -1.287769 0.4517100000000001
23820 3.0707163900000003 7.2533178000000005 0.79185339 -0.722168 -1.095935 0.30080300000000004
23840 2.76160329 8.04337596 0.74844414 -1.321446 -1.312249 -0.228671
23860 1.64612781 9.35943651 0.11541465 -1.801288 -0.904534 -1.072167
23880 1.2772914300000002 11.261830950000002 -1.24151436 -1.986214 -0.142952 -1.421607
23900 1.3216032000000002 14.393918700000002 -1.9432629 -2.02132 -0.319927 -1.622451
23920 0.86804766 17.20253151 -1.7330934600000003 -1.925154 0.494284 -1.790534
23940 0.10927359 16.85555181 -0.5695686 -2.013585 1.259246 -2.0036400000000003
23960 -0.35161983 14.16654252 0.3182364 -1.800182 1.82796 -2.152429
23980 3.9158577000000006 11.50417719 -0.31225230000000004 -1.625061 2.410929 -1.837895
24000 5.12115354 12.09664233 -1.54747845 -1.998401 2.629795 -1.635685
24020 4.40803521 11.4583743 -2.25162063 -2.048338 2.807123 -1.981297
24040 6.511161870000001 8.73808092 -1.6483743 -1.6773049999999998 2.977281 -2.231024
24060 5.710773780000001 8.87084946 -0.5450141700000001 -1.26197 2.949595 -2.327432
24080 4.0577593499999995 7.13251746 2.3733136800000008 -0.825471 2.174 -2.4205970000000003
24100 1.9272431700000001 2.37586428 1.82455209 -0.815032 1.411333 -2.181333
24120 0.5436702 2.05163397 -0.43305264000000004 -0.8511350000000001 1.164507 -2.229339
24140 0.12498921000000002 4.344711660000001 -0.35730963 -0.397925 0.889843 -2.931916
24160 -1.05725313 2.86803198 0.10972485000000001 -0.968916 -0.853273 -3.686767
24180 -0.10088604 1.83279249 -1.76722245 -1.896503 0.369691 -2.358468
24200 0.02963601 0.27078543 -1.90329696 -1.996671 1.954115 -1.031262
24220 0.45385965 0.09700128 -3.73922865 -1.829761 0.692645 -1.927922
24240 2.48363694 -0.27961443 -5.546711340000001 -2.096455 0.962763 -2.379853
24260 6.428080980000001 -0.8107180199999999 -7.052732730000001 -1.890665 0.468793 -2.371373
24280 10.297537380000001 0.52092081 -8.034242850000002 -1.866429 0.227809 -2.068588
24300 11.542347900000001 3.0774460500000003 -9.16992693 -1.2805030000000002 0.075403 -2.025844
24320 14.278209750000002 5.725292580000001 -12.48494175 -0.517161 -0.21187 -1.71036
24340 12.099791340000001 8.05010562 -14.903459910000002 0.365054 -0.719408 -0.761375
24360 10.68343335 7.466028030000001 -15.84440568 1.295692 -0.323941 0.764698
24380 10.274935140000002 4.8469248 -15.132180060000001 1.977457 0.017912 2.061571
24400 5.19360039 4.55981553 -9.619892010000001 2.468471 -0.084885 3.099171
24420 0.64290816 6.1790050800000005 -3.63818565 1.105006 -0.889135 3.4731019999999995
24440 0.69859953 5.765562630000001 -2.3513098500000003 0.914865 -0.761364 3.653207
24460 1.7501628599999999 6.71323806 -5.019963389999999 1.784557 0.6632319999999999 3.617933
24480 2.4206175 9.23968584 -4.492460070000001 1.559002 1.255007 2.878526
24500 3.76332201 8.971892460000001 -3.5708203800000002 1.363136 0.8509959999999999 2.849901
24520 4.4077311 7.658519850000001 -2.10432348 0.969853 0.4563390000000001 3.316609
24540 4.63481298 7.75238193 -1.3245952500000002 0.6954 -0.15141400000000002 3.956404
24560 5.30242272 6.79736862 -1.45018287 0.957874 -0.881625 4.651381
24580 4.07617272 5.90028336 -2.36044296 0.99973 -0.8932200000000001 4.584391
24600 3.306470310000001 6.073920360000001 -2.5682089500000003 0.8253659999999999 -2.334385 4.431195
24620 1.03135473 6.93972153 0.07739109000000001 1.154082 -3.705914 3.744109
24640 0.29862621000000006 8.349487200000002 1.77066576 1.583584 -3.828031 3.009125
24660 3.82664556 11.8113381 -1.24122006 1.799047 -3.0401990000000003 2.142224
24680 12.513380940000001 24.024140640000002 -0.10044459 1.55869 -2.2551490000000003 1.566972
24700 14.870979 20.593279530000004 -0.7520346000000001 1.275834 -1.446344 1.214651
24720 3.4822066500000006 17.07274521 -3.7749959100000003 1.2625309999999998 -0.477641 0.868281
24740 9.588156660000001 14.633567190000003 -1.09227483 1.111646 -0.580548 0.627009
24760 10.43644698 18.376837560000002 -3.67501239 0.418637 -1.5173370000000002 0.531502
24780 7.26080283 17.99513046 -4.99676274 -0.385111 -1.677328 0.213104
24800 3.69790893 10.43390619 -2.4532455600000005 -1.052731 -1.221001 -0.104065
24820 3.33985374 1.2795379199999999 -3.0446708399999998 -1.486268 -0.55173 -0.064154
24840 4.15985202 -2.50069653 -2.84438988 -1.6575259999999998 -1.211357 -0.126462
24860 7.838003610000001 -2.0915999100000002 -3.0919746600000004 -1.806598 -1.000827 -0.6971350000000001
24880 6.0376920300000005 -0.42915807000000006 -1.6591456800000002 -2.372162 0.507633 -1.544778
24900 1.4373121500000001 2.50968249 2.43678438 -2.339846 1.252185 -1.820039
24920 0.53064252 6.62612526 0.59426037 -2.189965 1.783579 -1.639143
24940 3.3012317700000002 10.83626334 -0.67000338 -2.22212 2.192888 -1.6719389999999998
24960 1.35678186 18.52921629 -2.62883475 -2.034305 2.29179 -2.058519
24980 -0.86384898 23.12136558 -3.00365523 -1.885376 2.450878 -2.277736
25000 -1.3491398700000001 16.88368689 0.17423541000000003 -1.779628 2.466539 -2.289836
25020 0.48679182000000004 13.68589176 0.8087658299999999 -1.619552 2.536155 -1.989705
25040 5.576651460000001 13.142221560000001 -1.19092419 -1.526721 2.482794 -2.045604
25060 7.3250190900000005 10.70558433 -2.50324713 -1.236518 2.325718 -2.442891
25080 7.930060650000001 8.92848321 -1.6578017100000002 -1.136662 1.594064 -2.842907
25100 6.17929938 7.394768190000001 -3.72605382 -0.879972 0.715448 -3.3901220000000003
25120 1.89985365 5.65284573 -1.43640963 -0.8614719999999999 -0.193028 -3.191208
25140 0.29249496 2.9186319600000004 0.34503732000000004 -1.112427 -0.5097970000000001 -1.548561
25160 -2.78450964 0.058977720000000004 1.8709632 -0.71677 0.533776 -0.461821
25180 -4.5087741 -0.9430353 2.3516139600000003 -0.717968 0.717326 -0.009139
25200 -2.4674700600000006 1.21606722 1.2892694400000002 -0.434429 0.335323 -0.0964
25220 0.019011780000000002 1.98277758 -1.5489793800000002 -0.32741 0.40092 -0.342495
25240 2.24368434 2.20520952 -6.054457320000001 -0.264069 0.436174 -0.156227
25260 5.38864281 0.7119215100000001 -5.83710696 -0.099909 0.296596 -0.025647000000000003
25280 10.92787893 0.32691825 -4.294867050000001 0.22025300000000006 0.108941 0.004604
25300 15.450269310000001 0.25372584000000004 -7.45359876 0.15950899999999998 -0.07752300000000001 -0.198544
25320 14.325807870000002 2.06151264 -9.62648433 0.099843 0.153727 -0.700253
25340 15.354170550000001 12.376266570000002 -16.99371585 -0.606147 -0.332903 -1.735395
25360 13.067979480000002 15.64666551 -12.03227892 -0.7043020000000001 0.803227 -1.786675
25380 4.340826900000001 4.59065817 -3.5362499400000003 -0.768041 0.807938 -1.843742
25400 0.19114785 4.79871846 -2.78151759 -1.089256 -0.062729 -1.7476619999999998
25420 3.4118591400000002 8.81786565 -3.1033444500000003 -1.316341 -1.172121 -1.707234
25440 4.767434370000001 10.09500993 -4.822223220000001 -1.302669 -0.561425 -1.526323
25460 5.001550020000001 9.51092253 -4.75066908 -1.1829379999999998 -0.105505 -1.359428
25480 3.3389610300000006 8.715478680000002 -3.88666314 -0.6673060000000001 0.031034 -1.053695
25500 3.3280326900000006 7.148085930000001 -2.6964943200000002 -0.086871 -0.299306 -0.199981
25520 3.83831946 5.751936540000001 -2.3017595400000004 0.423527 -0.862158 1.050921
25540 4.4718002100000005 5.674251150000001 -1.23987609 1.013051 -1.194892 2.49436
25560 4.24172628 6.210887580000001 -0.29788065 1.560635 -0.600051 3.512233
25580 4.30594254 6.57238608 -0.58767786 1.884567 0.199087 3.452583
25600 4.4771859 7.041058830000001 -0.56687085 2.382458 -0.102481 2.513208
25620 4.5732944700000004 7.297472610000001 -0.36823797 1.814983 0.607576 1.528774
25640 6.212084399999999 9.41497092 -1.2567885300000001 2.201969 1.973493 2.731477
25660 8.26625916 8.153091 -0.8577177300000002 2.402788 0.8363809999999999 3.205422
25680 5.7968467200000005 5.81002155 -0.54606384 1.854134 0.321988 4.178604
25700 2.33110125 5.24928195 -2.0787291900000002 2.535751 1.0173219999999998 4.193156
25720 0.61462593 5.225482889999999 -1.8805377600000002 2.374113 -0.113408 3.652956
25740 2.87791065 4.414617720000001 -0.75218175 2.298807 -2.121311 3.682777
25760 4.644985950000001 4.43872089 -2.3583436200000003 2.459903 -2.513384 3.290231
25780 4.4191107 6.28288317 -1.15005573 2.6359060000000003 -2.981084 2.350956
25800 2.24368434 7.69609215 -0.8767295100000001 2.434935 -2.609934 1.618413
25820 1.74701385 8.41520439 0.22393287 1.974607 -1.7744240000000002 1.135563
25840 -0.08487612 10.607994450000001 1.9323345600000001 1.693295 -1.139094 0.740747
25860 -2.14608465 12.673244700000001 1.84595751 1.365944 -0.484651 0.401131
25880 5.27772114 17.01452286 -0.7836228 0.8808090000000001 -0.336498 0.003379
25900 8.82265293 21.2828931 -1.58834691 0.366023 -0.694987 -0.476184
25920 11.23877745 21.538708470000003 -1.06698465 -0.01081 -0.934723 -0.669721
25940 5.19360039 22.46318325 -1.66528674 -0.508003 -1.219379 -0.71449
25960 0.7514361900000001 19.160303400000004 -2.4209118000000007 -0.907025 -0.633603 -0.6037279999999999
25980 1.2214627199999997 12.69615105 -2.02453875 -0.542921 0.476157 0.209242
26000 1.41081534 8.22629322 0.7864677000000001 -1.7375740000000002 0.389403 0.29608
26020 4.16538486 6.42583449 1.10530251 -2.034428 -0.28788800000000003 -0.567181
26040 4.5792785700000005 6.6575565 1.82246256 -2.144622 -0.100416 -1.265739
26060 4.3463597400000005 6.899902740000001 0.28396026 -2.0820830000000004 0.689124 -1.096467
26080 4.028270490000001 8.45711271 0.7168559400000001 -1.788819 1.127137 -0.864244
26100 2.13290982 11.002268160000002 0.69006483 -1.80206 1.723809 -0.882193
26120 0.08622009 15.168408390000002 -0.7592253299999999 -1.87456 2.329501 -1.239193
26140 -0.73362123 14.574295170000001 -0.48858705 -1.758405 2.661805 -1.590253
26160 1.30273857 13.67646435 -2.49126912 -1.57711 2.541214 -1.6935169999999995
26180 1.00036494 13.66987203 -2.6855659800000002 -1.41357 2.134882 -1.453641
26200 6.475836060000001 13.975541819999998 0.7050348900000001 -1.22003 2.28515 -1.637284
26220 4.62014703 11.698326900000001 -1.0084483800000001 -1.022251 2.484184 -1.765412
26240 3.1169705400000005 8.12959605 -4.27810176 -0.906344 2.558661 -1.842678
26260 4.07528001 9.22097817 -1.5603589800000002 -0.8525889999999999 2.551414 -1.941638
26280 4.68540315 6.99495183 0.0489519 -0.903273 2.326175 -2.047458
26300 -0.03577707 -0.66626577 0.019306080000000003 -1.182817 2.02379 -2.109911
26320 -2.4819888600000004 -0.9630967500000001 1.7407256400000002 -1.2690629999999998 1.76525 -2.647498
26340 -1.4198013 -0.20911977 1.2651662700000001 -0.941316 1.862756 -3.072623
26360 -1.3201022700000002 0.22333446 0.42107463000000006 -0.576235 1.053732 -2.736819
26380 -1.15754076 0.5749542900000001 0.20761884 -0.575501 -0.200864 -2.0141560000000003
26400 0.9686394 -0.7670046600000001 -1.10410569 -0.804431 -1.007388 -1.256284
26420 5.86585026 -1.54388799 -3.46020282 -1.005435 -0.255992 -0.644423
26440 11.22575958 -0.9906432300000001 -5.41798452 -1.0331290000000002 0.41353 -0.220323
26460 11.44759311 -0.36194976 -6.81622344 -1.138764 0.420359 0.027827
26480 9.114990930000001 3.09241611 -7.7468392800000005 -1.135099 0.368772 -0.12804200000000002
26500 13.585594320000002 15.495326640000002 -15.17723739 -0.8553299999999999 0.530243 -0.257686
26520 20.01113451 15.793658550000002 -12.75587433 -0.845714 0.872708 -0.393722
26540 9.6221385 8.18558172 -9.36856962 -1.1023969999999998 1.391542 -0.448523
26560 2.10746268 2.4010073100000002 -4.802308920000001 -1.1017549999999998 1.587337 -0.395358
26580 -0.12618603 2.4266016 -1.6628931 -0.704483 1.047533 -0.545715
26600 1.25887806 6.49829115 -4.6687948200000005 -0.45111 0.8900889999999999 -0.8193450000000001
26620 2.2686802200000002 8.669518830000001 -4.90245921 -0.188521 1.652893 -0.7971239999999999
26640 3.00140874 9.516612330000001 -3.8922057899999998 0.489831 1.511595 -0.41619
26660 2.6634150000000005 9.16903422 -2.60324046 -0.173638 0.671067 -0.101417
26680 2.89648098 8.356825080000002 -2.19563496 -0.785014 0.35835500000000003 0.308115
26700 2.54874591 6.180044939999999 -2.9068011000000005 0.029429000000000007 0.438866 0.7794449999999999
26720 2.5355808900000003 5.785172820000001 -2.380651560000001 0.6083689999999999 0.776146 1.445355
26740 3.1292428500000002 6.793022790000001 -2.15387379 0.982025 0.8198469999999999 1.913653
26760 3.86465931 8.070314220000002 -1.6386427800000003 1.84985 0.837607 2.313866
26780 4.20775425 8.5518675 -1.39883733 2.48206 1.765178 2.635424
26800 4.71085029 8.31206205 -1.34226306 2.961809 2.9159650000000004 2.680029
26820 4.810392360000001 8.287664580000001 -0.26554689 3.203341 2.880484 2.552507
26840 5.2926912 10.33840584 0.18695898 3.075486 2.148146 2.254518
26860 4.71938499 10.44348075 0.09325386000000001 3.105456 2.355758 1.7256919999999998
26880 2.97041895 10.43106129 -1.12027257 3.248216 2.670933 1.372703
26900 3.0005062200000006 9.640404720000001 -0.5290042500000001 2.843381 1.872129 1.152982
26920 5.960605050000001 8.609344290000001 0.25356888000000005 2.186837 1.583439 1.189358
26940 6.886727909999999 6.72282243 2.2841015400000004 2.074107 2.453004 1.744
26960 4.53481965 4.77850986 2.7831656700000007 1.962334 1.862964 1.810205
26980 1.16172963 4.511020590000001 1.49973318 1.803233 0.371001 1.293987
27000 -0.87567984 5.876484300000001 0.76236453 1.571077 -0.167755 0.894609
27020 -1.4292287099999998 6.99810084 0.71641449 1.109317 -0.078125 0.459707
27040 -1.20214683 7.95311415 0.46194309 0.560052 0.218577 -0.001709
27060 -0.055230299999999996 8.97548292 0.9023238000000001 0.08033 0.480199 -0.541643
27080 1.26996336 9.08206857 0.85068396 -0.438921 0.548917 -1.024989
27100 1.2120255 8.44184835 0.62615268 -1.10848 0.6203890000000001 -1.533959
27120 0.8207438400000001 8.21192157 0.19010799 -1.676188 0.769403 -2.075431
27140 1.87065909 9.159155550000001 0.9487251000000001 -1.492966 1.130098 -2.125888
27160 4.3385804100000005 8.98596 2.17812411 -0.477275 0.393349 -0.716342
27180 7.391481840000001 8.040383910000001 3.94070643 0.11581500000000003 -0.613433 0.922402
27200 6.58795455 9.6420528 3.8767844700000005 0.139045 -0.88502 1.419636
27220 1.9706524200000002 12.12972165 -0.9348047100000001 -0.764608 1.455155 0.664706
27240 0.9017253900000001 14.053972770000001 1.5349118400000004 -1.378845 2.517462 -0.7221569999999999
27260 2.46522357 13.12815402 4.657562370000002 -0.17993900000000002 0.980011 -1.961632
27280 2.40758982 10.94194647 1.38955707 0.872558 -0.298565 -1.215568
27300 1.1653299000000001 11.055408930000002 -0.36644274000000004 0.501155 0.867158 -0.971829
27320 0.04984461 13.749362460000002 -0.97791966 0.34626 1.112505 -0.920882
27340 -1.3458535200000001 15.20882559 -1.4606599500000002 -0.223034 1.738621 -0.627627
27360 -2.36477898 15.570471240000002 -1.47533571 -0.703216 1.855756 -0.732613
27380 -2.94557022 15.772998690000001 -0.55340172 -1.372405 1.486615 -0.812658
27400 -2.1275241300000003 13.69726155 0.43709436 -2.014726 1.676486 -0.851571
27420 0.029341710000000003 10.06297047 0.28800198 -2.113596 2.226632 -0.615821
27440 1.9553880600000002 7.881864120000001 1.13568408 -1.566507 2.7041060000000003 -0.082773
27460 4.978800629999999 6.4466415 2.26822896 -0.229126 2.665283 0.473548
27480 6.50786571 5.836067100000001 0.7912549800000002 0.346908 2.706707 0.537339
27500 4.460126310000001 6.29964846 -1.97694063 0.399882 2.649959 0.563419
27520 2.53752327 6.442599780000001 -1.1244614400000001 0.350025 2.49453 0.581429
27540 0.7562234700000001 5.57949636 0.060321690000000004 0.266044 2.482361 0.500742
27560 0.32018859000000005 4.5972406800000005 0.29084688000000003 0.019767 2.400613 0.378417
27580 0.8358610499999999 3.58219998 0.24504399000000002 -0.319754 2.137379 0.16808
27600 1.5892494300000002 2.87611542 -0.04715667 -0.6215729999999999 1.730148 -0.028991000000000006
27620 3.0502036800000005 2.74319973 -1.25573886 -0.758081 1.4262709999999998 -0.108604
27640 4.81323726 2.38693977 -2.12018625 -0.5683590000000001 1.0276809999999998 -0.228545
27660 6.052367790000001 2.71715418 -2.73765708 -0.356906 0.486348 -0.102461
27680 8.20728144 8.768462490000001 -4.1553590400000004 -0.108777 0.77155 0.28774
27700 16.384328460000003 21.4653591 -6.22435671 0.35330300000000003 1.03424 0.527776
27720 12.08960856 15.85816911 -6.4490351399999994 0.510679 0.691692 0.539996
27740 8.14277088 11.52991863 -4.796471970000001 0.785328 0.825895 0.5737899999999999
27760 2.8910854800000005 12.279412440000002 1.3720462199999999 1.043425 1.083912 1.093349
27780 -2.3831923500000003 18.59672871 -2.97505908 1.935399 1.557254 1.561513
27800 -5.648352750000001 21.70456614 -8.49229137 3.449682 1.902563 2.072644
27820 -3.91107042 8.796460230000001 -2.81564658 3.15463 2.858917 2.926072
27840 0.58677534 4.58930439 3.1804314300000005 3.0574830000000004 3.3618980000000005 2.967478
27860 0.058232160000000005 2.4971060700000005 5.77169388 2.941934 2.076182 1.985554
27880 -1.3614219900000002 4.85664651 6.1828898400000005 2.756998 1.311515 1.297307
27900 -1.72785492 11.463308730000001 4.12018038 3.004591 1.349761 0.842857
27920 -0.17453952 14.328652770000001 2.49067071 2.932804 1.50995 1.071818
27940 0.74978811 11.939917770000001 2.4459174900000002 2.53568 1.65658 1.510032
27960 1.4756300100000002 9.186397920000001 2.2472748 2.080926 1.51374 1.6608619999999998
27980 2.9056042800000004 7.915541850000001 0.48050360999999997 1.661674 0.925527 1.53691
28000 3.80732967 7.56107712 0.10193571 1.609261 0.223532 1.576968
28020 3.76810929 8.861274900000002 2.30400603 1.509818 -0.095684 1.305354
28040 4.495000860000001 9.55014291 2.3215266900000002 1.251194 -0.493161 0.763536
28060 4.674926070000001 8.37598401 2.2778133300000003 0.872251 -0.688525 0.131957
28080 4.25355714 7.175181149999999 2.32107543 0.459401 -0.556882 -0.461822
28100 4.420905930000001 7.08372252 2.24607798 -0.02533 -0.234475 -1.013619
28120 4.48512219 7.58802519 1.82964348 -0.591284 0.310792 -1.549177
28140 5.05184589 8.22928527 0.98704296 -1.3051469999999998 0.5738479999999999 -1.978585
28160 5.38070652 8.49618594 0.35880075000000006 -1.36112 0.5278689999999999 -2.153037
28180 5.65628904 8.7545421 0.1733427 -0.413712 0.437804 -1.763881
28200 5.02070895 8.692876440000001 -0.5547456900000001 0.248958 -0.131036 -0.213874
28220 3.4566123600000003 8.58525093 0.057633750000000004 0.2566 -0.531312 0.776934
28240 1.8582396300000001 8.831334779999999 0.61192818 0.024178 0.7115279999999999 0.796151
28260 2.12722983 9.932291460000002 1.3678573500000002 -0.8978879999999999 2.469247 -0.005163
28280 1.8979014600000002 10.69646103 3.4784690400000002 -0.504992 2.895282 -0.592623
28300 1.04333274 12.37206789 1.47653253 0.667481 0.189999 -0.672834
28320 3.2245960500000006 13.2342786 -0.58962024 0.418905 1.727393 -1.039736
28340 6.425991450000001 9.44191899 -0.18396693 0.646424 1.940108 -0.8856629999999999
28360 6.441550110000001 11.132201610000001 0.89019864 0.431211 1.636831 -0.7810239999999999
28380 2.5268990400000004 17.412543990000003 -2.36778084 -0.07848 1.097958 -0.911012
28400 -0.6736036500000001 21.22750584 -2.18216583 -0.7590100000000001 0.555422 -0.776201
28420 -2.2731732 16.2421227 -0.17858124000000003 -1.539969 1.4818360000000002 -0.804208
28440 1.59433101 12.04096077 -0.24653511000000003 -1.443861 2.323799 -0.4542390000000001
28460 4.9392761400000005 9.524391660000001 -0.02769363 -0.003416 1.818678 0.205949
28480 4.94317071 7.735763790000001 0.3505701600000001 0.252922 1.310148 0.348328
28500 2.73555774 7.8303714300000005 0.43753581 -0.709503 1.7588119999999998 0.337826
28520 2.10716838 8.06133807 -0.24234624000000002 -0.8436110000000001 1.202754 0.183778
28540 2.90201382 7.54880481 -1.30723155 -0.445599 0.8928940000000001 0.337574
28560 1.93621932 6.1170255000000004 -0.16959528 -0.47087 0.858376 0.466697
28580 1.91257722 4.84467831 -0.06541308000000001 -0.436222 0.422854 0.392721
28600 2.09519037 4.18095333 0.008681849999999998 -0.377558 0.209593 0.659392
28620 1.65390714 3.5075066400000003 0.11765133000000001 -0.103763 -0.266822 0.747372
28640 1.55601315 3.11981544 -0.30596409 0.117955 -0.188299 0.6323840000000001
28660 2.00537982 2.70038889 -0.7439511600000001 0.281194 0.215163 0.560369
28680 3.31306263 2.29727637 -2.9304530100000004 0.730374 0.362052 0.467178
28700 5.9604579 2.71715418 -5.07968667 1.026229 1.011276 0.093467
28720 10.703337840000001 6.765182010000001 -6.30967428 0.5590229999999999 0.467514 -0.714539
28740 15.793060140000001 15.823892970000001 -4.883143320000001 0.049315 0.8370350000000001 -1.837002
28760 11.21751918 16.93204038 -6.94840338 -0.152359 1.396529 -1.984405
28780 5.68712187 9.47873592 -4.050274320000001 -0.412091 1.554033 -1.720434
28800 1.94026104 13.30672545 2.6110197900000003 -0.71627 0.766878 -2.00997
28820 -4.219575300000001 20.240610030000003 0.8984292300000001 -0.61114 0.104227 -2.088503
28840 -7.825280040000001 20.28432339 -6.708902040000001 -0.183217 0.322457 -1.889241
28860 0.22244175000000002 6.27090516 0.10148445 -0.005999 0.6551 -1.579713
28880 2.9541049200000002 3.6844398000000003 2.76265296 -0.187355 0.781159 -0.979733
28900 2.9289618900000005 5.198240520000001 3.78383472 0.20898000000000005 0.054331 0.084711
28920 1.8154287900000001 10.28002653 5.24898765 0.902409 -0.522313 1.428776
28940 2.7521758800000002 13.95488196 4.1848479 1.364254 -0.066403 2.632099
28960 4.26987117 12.64001823 2.7457405200000005 1.191969 0.363332 2.94013
28980 6.1191248400000005 9.03835521 0.11496339000000001 1.7417619999999998 0.06889400000000001 2.569401
29000 5.331460320000001 5.59671291 -3.898494 2.487996 0.931012 2.3780240000000004
29020 2.50040223 7.0683012 -1.11891879 2.769381 1.762352 2.560522
29040 3.7598787000000002 8.79510645 3.96360297 2.365718 0.664979 3.2107240000000004
29060 4.341719610000001 10.12479309 1.5669414900000003 2.804002 0.053957000000000005 4.315906
29080 4.446205920000001 8.493782490000001 -2.91368772 2.512936 -0.463253 4.705504
29100 4.2370861500000006 6.569089920000001 0.237402 2.844151 -0.6187739999999999 4.68238
29120 4.421955600000001 6.0951786299999995 0.2689902 2.5016580000000004 -2.416302 4.548763
29140 5.238804870000001 6.110747100000001 0.27542556 2.128877 -4.4615290000000005 3.781797
29160 5.27742684 6.302797470000001 -1.3498952400000002 2.3932450000000003 -5.99144 2.53258
29180 4.881799350000001 7.82572149 -1.2910646700000001 1.868885 -5.977894 1.466019
29200 3.71527263 6.605759700000001 0.01018278 1.042044 -3.814225 0.296313
29220 2.4525 7.233256350000001 -0.7235954100000002 0.033894 -1.76318 -0.524137
29240 0.76446387 9.06005493 -2.48932674 -0.547068 -1.005943 -1.307899
29260 2.00028843 9.84307932 3.9311220600000003 -0.973686 0.4961100000000001 -1.740093
29280 -0.11032326000000002 13.781539259999999 3.86211852 -1.8128990000000005 2.462343 -2.011257
29300 0.25057683000000003 20.989348470000003 5.10558507 -1.914564 3.136781 -2.218998
29320 6.251599080000001 24.0593193 3.5363970900000004 -1.355493 3.60774 -2.463524
29340 14.506929900000001 22.6019457 2.65308507 -0.701731 3.90764 -2.104692
29360 14.073435810000001 17.64530586 0.26689086 -2.87974 3.810272 -0.910554
29380 10.320738030000001 18.30767706 0.7592253299999999 -1.5000209999999998 1.52328 -1.345571
29400 5.39328294 14.482836540000001 -0.40715424 -0.151017 1.894272 -1.7842080000000002
29420 2.4617802600000003 8.02481544 -1.63804437 -0.7176710000000001 1.110241 -1.828822
29440 2.6008370100000002 4.255499520000001 0.5599842300000001 -0.75029 0.735274 -2.06892
29460 5.55868935 4.65217668 -0.25102809000000004 0.07279400000000001 1.079495 -2.549652
29480 7.67663892 5.3191880099999995 -0.5727078 0.302227 0.76553 -3.3530870000000004
29500 5.0248978200000005 6.774462270000001 1.1047041 -0.6364810000000001 -0.010256 -2.740149
29520 2.1604563000000003 9.84922038 -0.6810788700000001 -1.424801 1.023875 -1.728965
29540 1.35363285 11.180250990000001 -2.29831623 -1.6012309999999998 1.067856 -1.120299
29560 3.1174218000000002 9.77706783 -3.2530352400000004 -2.012939 0.550554 -1.667305
29580 4.95828792 9.95190165 -1.4253341400000001 -2.3523240000000003 0.212844 -2.699009
29600 8.028553050000001 11.49205203 -2.5101337500000005 -2.058369 0.090417 -2.707481
29620 9.95624748 15.23128068 -4.218525629999999 -1.568003 0.457475 -2.484473
29640 9.06035904 15.401925630000001 -1.91361708 -1.049553 0.548039 -2.139136
29660 10.636129530000002 15.53784318 -4.31418294 -0.318491 -0.074643 -2.100117
29680 16.10186913 21.73869513 -4.722828300000001 0.085825 -0.554046 -1.378833
