time Ax Ay Az Gx Gy Gz
20 -1.72022274 10.65334608 -1.7925224400000002 -1.347334 -0.156136 0.519559
40 -1.53910071 10.54227726 -1.8601820100000002 -1.090103 0.004233 0.418601
60 -2.01136392 10.53464508 -1.34839431 -0.892705 0.413959 0.348952
80 -1.88068491 9.724378320000001 -1.16038566 -0.648804 0.5144880000000001 0.305661
100 -1.09511973 8.77400514 -1.40213349 -0.5557949999999999 0.492053 0.24117800000000006
120 -0.15522363 7.644158010000001 -1.02776427 -0.482042 0.452662 0.171241
140 0.60833772 6.584059980000001 -0.64725399 -0.410582 0.334624 0.057592
160 0.64710684 6.00461271 -0.18815580000000004 -0.328587 0.236588 -0.005803
180 -0.0009025200000000001 6.10310511 0.20986533 -0.304243 0.428262 -0.008015000000000001
200 -0.7984359000000001 6.61983705 -0.06406911000000001 -0.229604 0.562603 -0.101669
220 -0.99976653 7.34836689 0.17169462000000002 -0.322031 0.724438 -0.26596
240 -0.9110056500000001 7.828870500000001 0.63558009 -0.402637 0.468599 -0.15296400000000002
260 -0.33081282000000006 7.70837427 0.34547877 -0.258469 0.34101 -0.072745
280 0.28934595 8.3207439 0.40835106000000004 -0.16178499999999998 0.488747 -0.072259
300 0.95142285 8.995240260000001 -0.26344755000000003 0.133246 0.690773 -0.233895
320 0.01466595 10.726391340000001 -0.6276438 0.514447 0.4955729999999999 -0.500174
340 -0.13352391000000002 11.28533571 -1.94790303 0.8219120000000001 0.19453 -0.607668
360 -0.20342997 11.896812630000001 -1.03329711 1.383526 0.082727 -0.574759
380 -0.43229727000000007 11.518097580000001 -0.37242684 1.842478 0.318968 -0.37744
400 -2.06825211 13.583200680000001 0.28934595 2.031358 0.72036 -0.220675
420 0.048353490000000006 17.86055688 1.91392119 1.864997 0.460105 -0.261027
440 -0.8381075400000001 17.72703297 2.32032006 1.416965 0.053339 -0.44737
460 -3.0888256500000004 14.86393542 1.82710269 1.136714 -0.271003 -0.61235
480 -3.6878831100000005 12.457395270000001 1.79596575 1.174692 -0.131576 -0.6144
500 -2.87072973 10.05892875 1.9550839500000001 1.333424 -0.057004 -0.486268
520 -2.0806715700000002 9.82856052 1.21682259 1.321526 -0.046498000000000005 -0.439363
540 -1.3537800000000002 10.450073069999998 -0.04550859 1.399073 0.097121 -0.458233
560 -0.30342330000000006 10.60739604 -1.5988239899999999 1.397246 0.183342 -0.440197
580 -0.23905008000000003 10.87249167 -1.5263771400000001 1.17385 0.191173 -0.34028600000000003
600 -0.9256716 11.400740549999998 -1.00471077 0.8293280000000001 0.069477 -0.24426
620 -1.42324461 9.787397760000001 -0.19848573000000003 0.779047 0.204276 -0.078141
640 -1.6069074300000001 7.58398347 -0.42227145000000005 0.585884 0.583566 0.07598400000000001
660 -1.35393696 7.804924290000001 -0.17258733 0.32810900000000004 0.440641 0.077571
680 -1.4441987699999999 8.33377158 -0.8014377600000001 0.011364 0.258404 0.104434
700 -1.6711236900000002 8.05250907 -0.6427610100000001 -0.373383 0.168961 0.161682
720 -1.5786153900000002 6.5243367 -0.77853141 -0.325649 -0.02869 0.263749
740 -2.03247504 7.123384350000001 -1.1193700500000001 0.157498 -0.047371 0.520317
760 -1.95582951 6.916069620000001 -1.27310256 0.373161 -0.367239 0.404729
780 -1.9896642 6.57313164 -1.79342496 -0.101435 -0.562786 0.167723
800 -1.70735202 3.41365437 -2.08351647 -0.585769 -0.152697 0.33152600000000004
820 -2.35609713 3.84190992 -2.49920541 -1.0360969999999998 -0.546868 0.194289
840 -3.5774127 4.81952547 -4.142782620000001 -1.041813 -0.381781 0.206857
860 -2.25566235 5.586687090000001 -4.3605842400000006 -0.958799 -0.5000220000000001 0.133881
880 -0.08726976 7.54117263 -4.26747753 -1.071457 -0.660409 0.114071
900 1.53520614 9.41346999 -5.65329699 -1.084418 -0.645651 0.164168
920 1.18958022 11.43546795 -6.217921350000001 -1.142556 -0.6756260000000001 0.251395
940 -1.81378071 13.17919545 -5.526954000000001 -1.131192 -0.463906 0.308887
960 -4.41521613 14.84208855 -2.5454595600000007 -1.061969 -0.20336 0.360311
980 -3.96840006 15.064373340000001 -2.65742109 -1.050998 -0.05671 0.440316
1000 -4.74917796 12.11026842 -3.1295469600000003 -1.041463 0.042931 0.555623
1020 -3.303027 10.09845324 -2.05297794 -0.984332 0.01684 0.637241
1040 -1.63624914 10.023161490000001 -1.9652667300000002 -1.010848 -0.164251 0.658652
1060 -0.8243343 9.552987810000001 -1.1906200800000002 -1.033364 -0.390157 0.6951039999999999
1080 -0.9660888000000001 10.743313590000001 -1.16009136 -1.003372 -0.381667 0.677143
1100 -1.36156914 11.240572680000001 -1.18403757 -0.919071 -0.467886 0.587043
1120 -1.70570394 10.412343810000001 -1.31651181 -0.698674 -0.462795 0.455048
1140 -2.0622582 9.28115271 -1.0593426599999998 -0.580231 -0.264891 0.411825
1160 -2.2990716000000004 8.33286906 -1.15514712 -0.546936 -0.033619 0.356214
1180 -1.87484796 7.74219915 -1.1364394500000001 -0.482821 0.092399 0.221904
1200 -1.02566493 7.61166729 -0.84109959 -0.4300270000000001 0.14891 0.163448
1220 -0.25162650000000003 8.23287573 -0.49786731 -0.43739 0.106589 0.097221
1240 0.72733302 8.24635467 -0.26794053 -0.519212 0.014859 -0.06880700000000001
1260 1.06847577 7.3345936499999995 -0.11975067000000002 -0.319745 0.112694 -0.198931
1280 0.19310004 7.277116860000001 0.20073222000000002 -0.111988 0.306833 -0.177432
1300 -0.9021766500000001 7.65987363 -0.00987867 -0.159424 0.502625 -0.347862
1320 -1.31127327 7.89158583 0.19474812000000002 -0.28478600000000004 0.544913 -0.424635
1340 -1.13284899 7.60209273 0.265851 -0.247306 0.194993 -0.329921
1360 -0.95680854 7.727680350000001 0.4192794 -0.27371 0.377818 -0.20642600000000005
1380 -0.25356888000000005 8.457858270000001 0.7614620100000001 -0.097802 0.765201 -0.264446
1400 0.13113027000000002 9.01320237 0.81670212 0.326871 0.587646 -0.452464
1420 0.15672456 9.66360537 0.34982460000000004 0.592968 0.276351 -0.6243270000000001
1440 -0.08217837 11.40793128 -0.6230036700000001 0.996499 0.069444 -0.64688
1460 -0.59276925 12.525349140000001 -0.94453623 1.488409 0.215281 -0.514376
1480 -0.028439190000000003 12.50723988 -1.83548043 1.5821889999999998 0.631727 -0.310224
1500 -1.2627726300000002 13.43830698 -0.86221071 1.674822 0.914417 -0.222345
1520 0.9047174400000001 16.52443488 2.65397778 1.582472 0.660625 -0.344443
1540 -1.5356574000000003 16.34496093 2.29742352 1.463662 0.495178 -0.425177
1560 -2.30266206 13.89186252 1.9272431700000001 1.233846 0.309912 -0.515207
1580 -2.36717262 12.03377985 2.8759682700000004 1.145591 0.104758 -0.549744
1600 -1.9034441100000001 10.648254690000002 3.3275814300000004 1.216253 0.174759 -0.534385
1620 -3.0178699200000003 9.85984461 1.8796450500000002 1.320822 0.461832 -0.487021
1640 -2.7693924300000003 10.412795070000001 0.7280883900000001 1.298131 0.43619 -0.44869
1660 -2.4204703500000004 10.845543600000001 -0.41463927 1.230434 0.335199 -0.442625
1680 -1.84162149 11.02847067 -0.7589212200000001 1.037972 0.224086 -0.4609180000000001
1700 -2.3297572800000004 12.54451788 -0.51253326 0.762245 -0.005505 -0.349318
1720 -1.6277144399999999 11.582019540000001 -0.22558095000000003 0.61971 -0.004519 -0.206105
1740 -1.52443476 8.65454877 -0.1130112 0.606951 0.043309 -0.1678
1760 -1.5766730100000002 7.910303310000001 -0.10747836000000001 0.587258 -0.042999 -0.145394
1780 -1.3859666099999999 7.8920370900000005 -1.2693649500000002 0.377293 0.124496 -0.025298
1800 -1.4747373 7.91358966 -1.8519514200000002 -0.056223 0.231782 0.16061199999999998
1820 -1.7351927999999999 8.108043480000001 -1.8034507800000001 -0.4940479999999999 0.202175 0.21848
1840 -1.54015038 7.45210764 -1.03494519 -0.465674 0.091346 0.203865
1860 -1.35962676 4.71983625 -1.05051366 -0.128773 -0.207006 0.196987
1880 -0.9442321200000001 5.17384305 -1.14811335 0.267951 -0.027093 0.415308
1900 -0.8214894 5.182220790000001 -1.3099292999999999 0.4864729999999999 0.124654 0.372843
1920 -1.6278615900000002 5.038072649999999 -1.84640877 -0.159425 -0.121762 0.21802800000000006
1940 -2.5765965 5.37682176 -2.259252810000001 -0.693815 -0.179105 0.369261
1960 -2.5129786500000004 6.290819460000001 -2.3852916900000003 -0.810213 -0.279592 0.291665
1980 -2.0401072200000003 6.26372424 -2.8442329200000005 -0.864978 -0.252131 0.398069
2000 -1.6679844900000003 6.825807810000001 -4.06868769 -0.8782040000000001 -0.587631 0.394134
2020 -0.99707859 8.06328045 -5.2197930900000005 -0.968353 -0.756491 0.34244600000000003
2040 -0.7643069100000002 10.108930319999999 -5.61721581 -0.945273 -0.6350140000000001 0.313609
2060 -1.19945889 11.06678853 -6.10295796 -1.049523 -0.5452560000000001 0.335199
2080 -2.1157030800000003 11.179348469999999 -5.50420461 -1.073723 -0.186359 0.381572
2100 -4.959788850000001 17.318387610000002 -4.81099077 -1.0315379999999998 0.253155 0.456079
2120 -4.01749911 16.395256800000002 -4.277954610000001 -1.02905 0.406247 0.530675
2140 -3.3082655400000003 11.224258650000001 -4.7139993 -1.072199 0.317911 0.547579
2160 -3.9143567700000004 9.61780248 -2.1615059700000003 -1.04984 0.080237 0.557653
2180 -2.1525200100000004 9.58231971 -1.55811249 -1.085034 -0.144453 0.56731
2200 -1.40198634 9.38009637 -1.1508111 -1.1145969999999998 -0.25324800000000003 0.627063
2220 -1.31411817 9.80476146 -0.7670046600000001 -0.975919 -0.220854 0.6643100000000001
2240 -1.9850240700000001 10.63029258 -0.89364195 -0.931986 -0.214471 0.628289
2260 -2.39696559 10.36295046 -1.42473573 -0.8193809999999999 -0.188878 0.524357
2280 -2.30535981 9.51601392 -1.36635642 -0.657316 -0.070809 0.428129
2300 -2.43498915 8.86336443 -1.2952535399999998 -0.6044069999999999 -0.040721 0.317365
2320 -2.29008564 8.260275060000001 -1.3097723400000003 -0.5301560000000001 0.013699 0.23022
2340 -1.4112666 7.7303781 -1.0090467900000002 -0.471941 0.024645 0.106699
2360 -0.54307179 7.50764205 -0.85128237 -0.346797 0.018128 0.029601
2380 0.44547210000000004 7.587868230000001 -0.13696722 -0.233499 0.003066 -0.031545
2400 1.02312414 7.8600074399999995 -0.2951829 -0.179633 0.070188 -0.08039299999999999
2420 0.62794791 7.48772775 -0.29383893 -0.14768299999999998 0.22058000000000005 -0.155138
2440 -0.15118191 7.134165540000001 -0.06271533 -0.293285 0.505827 -0.233433
2460 -0.39084021 7.14883149 0.008230590000000001 -0.362954 0.269287 -0.160977
2480 -0.39637305000000006 7.904613510000001 0.11360961 -0.298228 0.283491 -0.305821
2500 -0.25806186000000003 8.397987839999999 0.17693316 -0.319096 0.4834520000000001 -0.210083
2520 0.1013373 8.48360952 0.03128409 -0.159011 0.716253 -0.225287
2540 0.20207619000000002 9.218280420000001 0.10148445 0.187318 0.7177600000000001 -0.369216
2560 0.09310671 10.229426550000001 -0.11047041 0.386275 0.494827 -0.4690220000000001
2580 -0.17094906 10.619217090000001 -0.34877493 0.707442 0.265734 -0.466485
2600 -0.17423541000000003 10.751995440000002 -1.2060414 1.214904 0.134193 -0.5119100000000001
2620 0.05074713 11.335631580000001 -2.1630069 1.669154 0.391174 -0.435359
2640 -0.82897443 11.350297529999999 -0.58573548 1.736522 0.8429559999999999 -0.25387
2660 1.44898605 13.74860709 2.80965267 1.6799110000000002 0.931157 -0.15075999999999998
2680 -0.9313614 15.48425115 2.42076465 1.366609 0.32907600000000004 -0.361549
2700 -2.8122032700000004 16.07642199 2.5909583400000002 1.250242 -0.012122 -0.449519
2720 -3.2844664800000003 14.413224779999998 2.9701246500000003 1.161383 0.170296 -0.436486
2740 -1.8552377700000002 12.10787478 3.5292063600000003 1.189601 0.272482 -0.440693
2760 -2.0240874900000003 10.89688914 2.55488697 1.332213 0.4148 -0.456971
2780 -2.65323222 10.53883395 1.5771242700000003 1.285482 0.4119680000000001 -0.5075
2800 -2.76130899 10.932362099999999 0.12857967 1.25338 0.441703 -0.456488
2820 -2.11494771 11.30389623 -0.89978301 1.105081 0.458132 -0.440453
2840 -1.32953949 11.11005063 -0.9936352800000001 0.957107 0.38265 -0.350591
2860 -1.1066464800000002 10.858865580000002 -0.3008727 0.747501 0.194187 -0.19158
2880 -2.17048212 10.805724810000001 -0.02110131 0.612137 0.039976 -0.137849
2900 -1.61798292 9.206606520000001 -0.12633318000000002 0.514947 -0.004340999999999999 -0.15983499999999998
2920 -1.2214627199999997 8.26940817 -0.38395359 0.291311 -0.12086 -0.131338
2940 -1.75689252 7.94412819 -0.85202793 0.061423 -0.091867 0.010161
2960 -2.3285604600000003 8.183482380000001 -1.11144357 -0.26321500000000003 -0.054937 0.1136
2980 -2.63287647 8.83867266 -0.88316487 -0.301811 -0.309502 0.138226
3000 -2.11929354 6.53481378 -1.0160903700000001 -0.019133 -0.443043 0.254671
3020 -1.8308403 6.001914960000001 -1.12132224 0.050887 -0.385283 0.401432
3040 -1.26322389 6.199203870000001 -1.27295541 0.055108 0.047442000000000005 0.608142
3060 -0.67434921 6.311479320000001 -1.4605127999999998 0.323873 -0.06933099999999999 0.273679
3080 -1.15021269 6.123912120000001 -1.6070545800000002 -0.279285 0.192273 0.377022
3100 -1.7284533300000002 5.636227590000001 -1.97739189 -0.669545 -0.123196 0.485795
3120 -2.3017595400000004 6.1022124 -2.42929935 -0.724576 -0.329502 0.178027
3140 -2.12527764 6.120772919999999 -3.0729628800000004 -0.614479 -0.217232 0.244882
3160 -1.7899816499999999 6.621181020000001 -3.46335183 -0.7090770000000001 -0.400031 0.21988600000000005
3180 -1.4103640800000001 7.6493965500000005 -4.8671334 -0.875229 -0.347213 0.209044
3200 -0.40280841 9.30150846 -5.97632067 -0.871655 -0.300208 0.172689
3220 -0.21495672000000002 9.62603307 -5.8585123800000005 -0.8702139999999999 -0.191657 0.198198
3240 -1.39330449 8.88268032 -4.27585527 -0.847467 0.17238399999999998 0.249165
3260 -4.60037988 11.386967310000001 -3.9395096100000004 -0.81579 0.431817 0.345193
3280 -5.355259380000001 17.159867820000002 -2.99078451 -0.817384 0.4345350000000001 0.465888
3300 -2.21689323 15.166466010000002 -5.10513381 -0.773065 0.398931 0.53995
3320 -3.31471071 9.911935710000002 -2.7385596000000003 -0.7318939999999999 0.267894 0.506223
3340 -2.16000504 8.65260639 -1.07865855 -0.722069 0.051723000000000005 0.477726
3360 -1.7051055300000002 9.334136520000001 -1.1078433 -0.735494 -0.032605 0.53222
3380 -1.23957198 9.83754648 -0.21555513 -0.776342 -0.0582 0.574696
3400 -1.7295030000000002 11.10181023 -0.68931927 -0.742795 0.019559 0.547057
3420 -2.12378652 10.73657412 -1.13015124 -0.693268 0.060105999999999986 0.4875310000000001
3440 -2.05642125 9.92735703 -1.5988239899999999 -0.594532 0.112272 0.410173
3460 -2.07229383 9.2230677 -1.6973163900000001 -0.459297 0.205891 0.324472
3480 -2.05852059 9.18534825 -1.46006154 -0.479848 0.353083 0.296366
3500 -1.55885805 8.91980136 -1.3939029000000003 -0.487316 0.257619 0.200296
3520 -0.7920005400000001 8.657992080000001 -1.33148187 -0.427323 0.216252 0.10356
3540 -0.42272271 8.70290226 -1.12341177 -0.407472 0.315434 0.058706
3560 0.32901759 8.518788180000001 -0.6655202100000001 -0.5731569999999999 0.164003 -0.023442
3580 0.43110045 8.29859292 -0.5089428 -0.503217 0.200363 -0.11914
3600 0.26719497000000003 7.70582367 -0.21180771 -0.437687 0.28966 -0.12947899999999998
3620 -0.43888959000000005 7.462731870000001 -0.18186759 -0.440958 0.517616 -0.123384
3640 -0.74769858 7.49102391 -0.18052362000000002 -0.416905 0.787438 -0.22077
3660 -0.97192575 8.01568233 -0.29024847 -0.661441 0.438178 -0.046842
3680 -0.6447132 8.112232350000001 -0.19699461000000001 -0.579034 0.521941 -0.019669
3700 -0.2775249 7.819590240000001 0.18007236000000001 -0.4970729999999999 0.99766 0.024091
3720 -0.21031659 8.31566232 -0.37257399 -0.38621 0.801966 -0.15114
3740 0.21749751 9.26064 -1.2145761000000002 -0.17599 0.573159 -0.389728
3760 0.49711194 9.04808673 -0.92836935 -0.000684 0.580277 -0.456879
3780 0.00359046 9.22337181 -1.1693716200000002 0.13866199999999998 0.491359 -0.452587
3800 -0.09759969 10.91140794 -2.4035481 0.38218 0.580937 -0.421091
3820 -0.28889469 11.75790303 -2.3423337 0.857816 0.841068 -0.351872
3840 -0.5418749700000001 11.8375308 -1.3608235800000001 1.194112 0.887848 -0.353856
3860 -0.39488193 12.436588259999999 0.39158577000000006 1.345219 0.787239 -0.366558
3880 -1.31711022 13.8735963 1.81108296 1.760887 1.165043 -0.368412
3900 -2.03396616 14.519957580000002 -0.09774684000000002 1.683298 1.1040370000000002 -0.4959939999999999
3920 -1.72036989 15.54891867 0.24983127000000002 1.372209 0.876444 -0.586538
3940 -1.12656078 15.935560200000001 1.5676870500000002 1.218882 0.8358700000000001 -0.696515
3960 -0.5001138 13.531560840000001 2.2053664800000004 1.137269 0.534356 -0.881502
3980 -0.86505561 10.94254488 2.9532122100000002 1.2329290000000002 0.718208 -0.8543629999999999
4000 -1.9107721800000002 9.76599234 2.84947146 1.22869 0.812678 -0.7658520000000001
4020 -2.7892969200000004 9.73784745 2.12018625 1.173744 0.661728 -0.798089
4040 -2.5147738800000004 10.057888890000001 1.03210029 1.115006 0.516632 -0.692559
4060 -2.39981049 10.29634056 0.09984618 0.986043 0.376192 -0.6249140000000001
4080 -1.96720911 10.49752404 -0.75248586 0.7995369999999999 0.247684 -0.56089
4100 -1.9173645000000001 10.83791142 -0.47885553000000003 0.686397 0.339278 -0.45818
4120 -2.16315405 10.60993683 -0.34952049 0.455312 0.329964 -0.326255
4140 -2.25506394 8.73583443 -0.07079877000000001 0.130406 0.316788 -0.213139
4160 -2.50219746 8.44888212 -0.49576797 -0.082254 0.368143 -0.084368
4180 -2.5243484400000002 8.773406730000001 -1.2325382100000002 -0.26112 0.327826 0.029803
4200 -1.43626248 9.027574020000001 -1.573524 -0.337181 0.127391 0.13635
4220 -0.7258419 8.638538850000002 -1.42353891 -0.349871 0.014117 0.235752
4240 -0.35655426000000007 6.3858685500000005 -1.09392291 -0.421017 -0.076474 0.30801
4260 0.06331374000000001 5.552558100000001 -1.2726513 -0.6611229999999999 -0.068263 0.327687
4280 -0.85816899 5.39103645 -1.5302717100000003 -0.307081 0.253857 0.451524
4300 -1.7970154200000001 5.85387225 -1.8449176500000002 -0.261374 -0.108254 0.125431
4320 -2.4969589200000004 5.8823212499999995 -2.0917470600000008 -0.7874329999999999 0.425061 0.677617
4340 -3.0132297900000005 5.3908892999999996 -2.3185248300000003 -0.908669 0.023818 0.425184
4360 -2.8946759400000004 5.95161909 -2.6707430700000003 -0.946122 -0.002786 0.184607
4380 -2.47450383 5.98724901 -3.24420624 -0.857685 0.330912 0.307642
4400 -1.88308836 6.675067350000001 -4.176018900000001 -0.930935 0.386665 0.281422
4420 -1.14751494 7.662120120000001 -5.030587620000001 -1.108046 0.626951 0.285218
4440 -0.85247919 8.873400060000002 -5.813464860000001 -1.228964 0.8370200000000001 0.337515
4460 -1.4449443300000002 9.2805543 -5.77453878 -1.200391 1.037133 0.35241300000000003
4480 -2.70622584 8.67700386 -6.099514650000001 -1.058592 1.271988 0.372331
4500 -4.160597580000001 9.652677030000001 -5.686072200000001 -0.8785870000000001 1.45454 0.385105
4520 -7.07294133 17.4251106 -4.59229644 -0.7820060000000001 1.317945 0.361385
4540 -3.1364237700000004 16.593291269999998 -5.319639270000001 -0.706983 1.340379 0.546683
4560 -3.6064503 9.572441040000001 -4.3245030600000005 -0.654153 1.265466 0.586672
4580 -3.3605136 8.20115019 -0.67464351 -0.608096 1.188014 0.468521
4600 -2.2601455200000005 9.03056607 -0.44322561 -0.675552 0.999173 0.332627
4620 -3.50002161 9.644142330000001 -0.06196977000000001 -0.725055 0.848303 0.275859
4640 -4.2164361 10.778482440000001 -0.32931189000000005 -0.715062 0.7394430000000001 0.317729
4660 -4.0399443900000005 10.841658840000001 -0.83870595 -0.80995 0.798185 0.361856
4680 -3.02895522 10.258022700000001 -0.5204695500000001 -0.94485 0.7939890000000001 0.4624
4700 -1.84176864 9.82990449 -0.46837845000000006 -0.888541 0.736288 0.457527
4720 -1.65390714 9.43248177 -0.24833034 -0.67719 0.967901 0.428796
4740 -1.97619507 9.20525274 -0.5060979 -0.6561 1.10755 0.386035
4760 -0.9035206200000001 8.16761961 -0.8777791800000001 -0.693555 1.007844 0.311126
4780 -0.83676357 7.7251395600000015 -1.00561329 -0.651885 0.952582 0.242053
4800 -0.6948521099999999 7.349867820000001 -0.64890207 -0.556685 0.947167 0.181837
4820 -0.41538483 6.75245844 -0.30955455000000004 -0.497979 0.9003030000000001 0.128896
4840 -0.32122845000000005 6.82071642 0.40940073 -0.524363 0.8720049999999999 0.035812000000000004
4860 -0.29742939 6.9070836600000005 0.66970908 -0.590618 0.738451 -0.07450599999999999
4880 -0.31988447999999997 7.51168377 0.8994789 -0.551823 0.797018 -0.102084
4900 -0.43783992 7.816892490000001 1.0334540700000001 -0.423205 0.997628 -0.032008
4920 -0.8786718900000001 8.592127740000002 0.5544513900000002 -0.362547 1.011072 0.016468
4940 -0.8899043400000001 9.46436427 -0.24908571000000002 -0.304816 0.720481 0.175341
4960 -0.57390462 9.254803050000001 0.01616688 -0.201112 0.5803699999999999 0.225383
4980 -0.6717986100000001 9.27680688 0.06675705 0.030591000000000007 0.790764 0.157297
5000 -0.4801995 9.342219960000001 -0.06107706 0.306522 1.021706 0.240114
5020 -0.11376657 9.52214517 -0.35535744 0.655283 1.334343 0.342562
5040 0.030391380000000003 9.787397760000001 -0.52496253 0.821456 1.751459 0.5824699999999999
5060 0.14639463000000003 9.560472840000001 -0.63378486 0.5475180000000001 1.541714 0.791265
5080 -0.37572300000000003 9.67049199 -1.48581279 1.009459 1.204814 0.459502
5100 -0.5953100400000001 10.114168860000001 -2.553543 1.568591 1.474344 0.237667
5120 -0.29742939 10.60783749 -2.42106876 1.76151 1.587658 -0.560161
5140 -0.029341710000000003 10.783720980000002 -2.2841015400000004 1.585746 1.7816150000000002 -0.427041
5160 1.6896842100000002 10.45411479 -0.9147432600000001 1.508752 1.7847970000000002 -0.6230680000000001
5180 2.2722706800000005 10.743313590000001 0.27692649 1.188226 1.324073 -0.7464930000000001
5200 0.75906837 11.07755991 -0.14954364 1.219635 0.94264 -0.757536
5220 -1.1066464800000002 11.76149349 0.36673704 1.1072620000000002 1.266215 -0.5931609999999999
5240 -2.72897523 12.07898433 1.0190824200000002 0.962293 1.271077 -0.617681
5260 -0.66820815 11.066641380000002 3.70120509 0.827354 0.782075 -0.756865
5280 -0.6072880500000001 9.01889217 6.7042619100000005 0.665191 0.949219 -0.590501
5300 -3.51289233 8.87100642 4.86892863 0.355256 1.235118 -0.423185
5320 -3.9002892300000003 8.781784470000002 0.93570723 -0.022689 1.04426 -0.318759
5340 -5.07205449 11.746670580000002 0.06900354 -0.354324 0.725356 -0.201026
5360 -5.10348573 21.57178779 0.74514798 -0.512533 0.587807 -0.032107
5380 -1.3013946 12.48942492 0.9574069500000001 -0.717073 0.323755 0.111013
5400 -0.5996558700000001 9.640404720000001 0.8071177500000001 -0.703767 0.12809 0.279067
5420 0.5081972400000001 9.699676740000001 0.38065743 -0.223365 -0.051448 0.271971
5440 1.1771509500000001 8.719069140000002 -1.21666563 0.134535 -0.260099 0.192485
5460 0.66956193 7.07324544 -0.5313978900000002 0.08913 -0.355012 -0.008536
5480 -1.0484241300000001 7.4064518999999995 -1.3913522999999999 0.03864 -0.359499 -0.174458
5500 -1.4202427499999999 7.065760409999999 -1.7188787700000001 0.259377 -0.260737 -0.28841
5520 -0.78407406 6.48436095 -1.63086345 0.628542 0.059376 -0.208262
5540 -0.9876413700000001 6.1659774 -2.14983207 0.856606 0.0573 -0.153255
5560 -0.63677691 6.295459590000001 -2.5533860400000004 0.518075 0.418706 -0.195607
5580 -0.38859372000000003 5.863603770000001 -2.98509471 -0.278581 0.239365 -0.210556
5600 0.12080034 5.739968340000001 -3.24509895 -0.660474 -0.124028 -0.112345
5620 0.52092081 6.778199880000001 -4.25475396 -0.455174 -0.252605 -0.104337
5640 0.30221667 8.27883558 -4.540205340000002 -0.389618 -0.414633 -0.13465
5660 -0.13157172 10.540629180000002 -4.120327530000001 -0.362815 0.002256 0.016691
5680 0.87941745 12.665308410000002 -2.28424869 -0.705702 0.375379 0.244554
5700 -1.6374459600000002 13.07066742 -2.84812749 -1.00689 0.22027600000000006 0.398609
5720 -3.55136715 12.87428103 -5.43040398 -0.8135 0.279273 0.395611
5740 -3.95343 13.389502230000002 -6.080355720000001 -0.513245 0.5841 0.362067
5760 -2.50908408 12.860654940000002 -3.4531690500000005 -0.5446949999999999 0.7120270000000001 0.365956
5780 -3.4801171200000005 12.19962771 -1.6137940499999999 -0.8047479999999999 0.536091 0.366501
5800 -4.599487170000001 10.649157210000002 -0.03367773 -1.023428 0.368288 0.428214
5820 -4.83643791 9.23624253 -0.45745011 -0.970514 0.445064 0.363324
5840 -1.9928034 7.96732884 0.22857300000000003 -0.8554200000000001 0.618444 0.328654
5860 -0.40670298000000005 8.48450223 0.604296 -0.936506 0.593259 0.303551
5880 0.006141059999999999 9.32860368 0.5017520700000001 -0.935209 0.5170680000000001 0.17547100000000002
5900 0.39038895 10.20323385 1.25334522 -0.673793 0.5850420000000001 -0.000115
5920 -0.11406087000000001 9.81434583 1.6537599900000002 -0.470125 0.697657 -0.100318
5940 -0.9593591400000001 9.536663970000001 1.02910824 -0.340642 0.739995 -0.144333
5960 -1.5609573900000002 9.011259990000001 -0.67150431 -0.365705 0.8180189999999999 -0.187337
5980 -1.9287342900000002 7.91628741 -1.3012474500000002 -0.254785 0.801687 -0.195087
6000 -1.9411635600000001 8.41640121 -0.10777265999999999 -0.42254 0.417116 -0.048351
6020 -1.62696888 9.06095745 0.30237363000000006 -0.356652 0.6807380000000001 0.036161
6040 -1.14766209 9.00752238 0.14445225 -0.243118 0.793205 0.050696
6060 -0.6798820499999999 8.89150932 -0.35161983 -0.145976 0.845967 0.0919
6080 -0.06107706 8.825497830000002 -0.33395202000000007 0.01828 0.703291 0.197916
6100 0.40071888000000006 8.500227660000002 -0.22677777 0.328152 0.639087 0.26746
6120 0.47780586 8.959620150000001 -0.25820901 0.5464319999999999 0.647493 0.37366
6140 0.53588106 9.75461274 -0.6813829800000001 0.683247 0.388468 0.295899
6160 0.39292974 9.88499745 -0.82672794 1.0231370000000002 0.144871 -0.085974
6180 -0.22333446 9.99695898 -0.9166954500000001 1.158221 0.31569899999999995 -0.298894
6200 -0.11391372000000001 9.421111980000001 -1.66154913 1.355315 0.402718 -0.386291
6220 0.29129814000000004 9.668696760000001 0.033530580000000004 1.553954 0.827559 -0.241238
6240 -0.73916388 10.76890788 0.61611705 1.58988 1.019056 -0.209186
6260 -0.42107463000000006 11.249254530000002 -0.26599815 1.479061 0.907097 -0.352958
6280 0.0896634 11.52977148 -1.03494519 1.281145 0.180732 -0.48587
6300 0.7315317000000001 12.3029172 -1.1934649800000001 1.151039 -0.424274 -0.390931
6320 0.15373251000000002 12.9621492 -0.79933842 1.208079 -0.448325 -0.286885
6340 0.16256151000000002 12.867394410000001 0.027242370000000002 0.912834 -0.633674 -0.299392
6360 1.55960361 11.35015038 2.306850930000001 0.679801 -1.019364 -0.348595
6380 0.9318126600000001 9.492509160000001 4.296966390000001 0.552322 -1.008775 -0.222381
6400 -2.06136549 8.264012670000001 4.15521189 0.437702 -0.887835 0.002059
6420 -3.8853191700000003 9.80461431 2.6613156600000005 0.181768 -0.924927 0.175507
6440 -4.10551443 11.20539402 0.67779252 -0.161107 -0.872107 0.317254
6460 -2.55997836 13.16527506 -0.51477975 -0.405903 -0.880172 0.414899
6480 -1.55122587 12.924419940000002 -1.2463114499999999 -0.5585600000000001 -0.880785 0.43413
6500 -1.1587375800000002 11.654319240000001 -0.96534324 -0.591956 -0.816345 0.332333
6520 -0.18980388 10.601549280000002 -1.18478313 -0.289883 -1.1588 0.196013
6540 1.6591456800000002 9.62992764 -0.94169133 0.039969 -1.260577 0.054237
6560 2.23170633 8.777448450000001 -1.28417805 -0.210319 -0.924156 0.056330999999999985
6580 1.9904097600000001 7.745495310000001 -1.07536239 -0.055406 -1.063385 0.107798
6600 0.48259314000000003 6.56624502 -0.8873537400000001 0.5232479999999999 -1.241054 0.081089
6620 -0.37182843 6.424039260000001 -1.4341631400000003 0.8610620000000001 -1.12173 0.051249
6640 -1.3787856900000002 7.184157300000001 -2.07229383 0.50088 -0.990657 0.085953
6660 -2.01690657 6.950051460000001 -2.3192802 0.128333 -0.7064729999999999 -0.062291999999999986
6680 -1.60331697 6.210436320000001 -2.16480213 -0.33615 -0.787963 -0.060091
6700 -1.06099074 6.07122261 -2.49800859 -0.599599 -1.232279 0.191807
6720 -0.12259557 6.4972414800000005 -2.82641796 -0.596129 -1.589391 0.249973
6740 0.8640059400000001 7.2890948700000004 -2.2260165300000003 -0.600761 -1.848585 0.070812
6760 0.62943903 9.09418392 -0.16765290000000002 -0.7359289999999999 -1.7121240000000002 -0.104428
6780 -2.3281092 12.24423378 -0.74530494 -0.883634 -1.507369 -0.032014
6800 -3.8176596000000003 14.684167170000002 -1.69776765 -0.999197 -1.618568 0.170283
6820 -2.5524933300000003 12.852120240000001 -5.30272683 -0.8904540000000001 -1.447134 0.360966
6840 0.11765133000000001 10.40726223 -6.16238694 -0.613502 -0.901227 0.532049
6860 2.3137375500000004 10.36025271 -3.70285317 -0.505847 -0.60578 0.613607
6880 0.29578131 12.657224970000001 -0.5298969600000001 -0.577222 -0.595888 0.599209
6900 -3.00963933 14.23689003 0.07050447000000001 -0.570571 -0.6498 0.489298
6920 -4.772820060000001 12.7888065 0.06930765000000003 -0.583124 -0.763061 0.319508
6940 -3.27713841 10.26161316 -1.7181234000000003 -0.534665 -0.838159 0.14368599999999998
6960 -1.29630321 7.60972491 -0.88001586 -0.462452 -0.7942560000000001 0.024493
6980 -0.19893699 6.96636549 0.45505647 -0.456614 -0.71213 -0.005482
7000 1.12431429 7.1639487 1.93517946 -0.517022 -0.643655 -0.027356
7020 1.51635132 8.90573382 2.69933922 -0.615368 -0.50248 -0.081635
7040 0.69784416 10.84180599 2.2129986600000002 -0.6140979999999999 -0.328408 -0.190808
7060 -0.6869256300000001 11.59668549 0.6484508099999999 -0.533913 -0.21724 -0.354896
7080 -1.61798292 10.36025271 -0.6810788700000001 -0.4461 -0.186483 -0.397051
7100 -2.3255684100000003 9.10362114 -0.95561172 -0.35487 -0.048383 -0.379499
7120 -1.5013812600000003 8.69242518 -0.08622009 -0.229616 0.06402999999999999 -0.361677
7140 -1.03255155 8.66188665 0.30476727000000003 -0.130604 0.173845 -0.204097
7160 -0.6277909500000002 8.82339849 0.5213622600000001 -0.078706 0.240169 -0.052132000000000005
7180 -0.11211849 8.615338200000002 0.22034241 0.013732 0.278765 0.072378
7200 0.30221667 8.621773560000001 -0.05613282 0.343822 0.15821 0.097271
7220 0.8226862200000001 8.71876503 0.04715667 0.797914 0.200727 -0.0064340000000000005
7240 0.5192727300000001 8.88447555 0.22692492 1.077159 0.012771 -0.13136099999999998
7260 -0.02679111 9.130716360000001 0.1733427 1.207715 -0.389232 -0.145957
7280 -0.10463346000000001 9.06095745 -0.09834525 1.174067 -0.705807 -0.33593
7300 -0.25911153 9.02099151 -0.25641378000000004 1.272525 -0.71967 -0.417478
7320 -0.35850645000000003 9.58307508 -0.03562992 1.553658 -0.086853 -0.139656
7340 -1.1846359800000001 10.54033488 -0.0928026 1.764168 0.19483 -0.168456
7360 -2.2808053800000003 10.77489198 -0.19549368000000003 1.638065 -0.177222 -0.257523
7380 -1.64807019 11.38547619 -0.07155414 1.491838 -0.728274 -0.320863
7400 0.68183424 11.89382058 -0.27587682 1.278471 -1.132609 -0.253469
7420 2.12737698 12.37012551 -0.7668575100000001 1.14134 -1.412637 -0.169679
7440 2.32287066 13.253888790000001 -0.08607293999999999 1.075243 -1.335971 -0.104009
7460 -0.33919056000000003 13.832139240000002 0.78272028 0.998796 -1.335267 0.052485
7480 0.29024847 11.69218584 3.4774193700000002 0.934539 -1.242954 0.199332
7500 -0.5999501700000001 9.429636870000001 5.488783290000001 0.737067 -1.280443 0.421259
7520 -2.4638796000000003 10.217007090000001 3.7193143500000003 0.413336 -1.399517 0.642409
7540 -2.21718753 10.75034736 1.9905569100000002 0.10338 -1.482758 0.6820109999999999
7560 -0.92088432 12.36862458 0.47002653 -0.101609 -1.421808 0.536291
7580 -0.5695686 12.65483133 0.36704115 -0.257364 -1.284497 0.432478
7600 -1.59313419 10.97353467 -0.06586434000000001 -0.262751 -0.942039 0.311293
7620 -0.7346709 9.79084107 0.28575549 0.102552 -0.960964 0.198501
7640 0.09684432000000001 8.785679040000002 -0.16899687000000005 0.268091 -1.289127 0.069754
7660 0.32572143000000003 8.927884800000001 0.18831276000000002 0.174319 -1.11162 -0.016586
7680 0.50459697 8.762331240000002 -0.31210515000000005 0.30159 -1.278253 -0.014415
7700 0.20058507 8.46429363 -1.03793724 0.569924 -1.344263 0.275964
7720 -0.19190322 8.09022852 -1.0681814699999999 1.001733 -1.356515 0.567415
7740 -0.7726944600000001 7.74219915 -1.24421211 0.992115 -1.27469 0.891983
7760 -0.83436012 7.389686610000001 -1.0388397600000001 0.713328 -0.770256 0.994075
7780 -0.7611677099999999 6.7065084 -0.73302282 -0.538383 -0.69091 0.884817
7800 -1.09571814 5.56782246 -0.88196805 -1.239746 -2.409141 0.679158
7820 -1.23538311 5.507500770000001 -1.52503317 -0.439748 -2.523693 0.128349
7840 -0.85936581 6.51654756 -1.83548043 0.078024 -1.7383669999999998 -0.108322
7860 -0.9657945 7.652839860000001 -1.3073787000000001 -0.208201 -0.704767 -0.197104
7880 -2.8867494600000003 10.795846140000002 -2.109709170000001 -0.8724459999999999 -0.392376 -0.220304
7900 -3.05933679 13.559401620000003 -3.9005933400000004 -1.387116 -1.359123 0.094602
7920 -1.2614286599999998 12.57130899 -3.6994098600000003 -0.891835 -1.269269 0.371411
7940 0.37063161000000006 11.044480590000001 -5.344635149999999 -0.372839 -0.6935600000000001 0.605035
7960 2.04070563 9.45568242 -6.046226730000001 -0.474349 -0.666821 0.666248
7980 2.31763212 11.53560843 -4.812638850000002 -0.840528 -0.7909579999999999 0.592279
8000 2.6520354000000004 14.18390622 -2.01570975 -1.010125 -0.90174 0.471595
8020 -1.77920046 15.474970890000002 0.51133644 -0.993399 -0.7717109999999999 0.440567
8040 -4.80036654 15.34503744 3.1234059000000003 -0.805001 -0.450432 0.385923
8060 -2.3842420200000003 10.579849560000001 0.01781496 -0.703062 -0.185122 0.283746
8080 -2.00238777 4.06959021 -0.8526263400000001 -0.810477 -0.02116 0.133235
8100 -0.30177522 4.57208784 0.10238697000000001 -0.860349 0.104345 -0.040326
8120 0.45984375 7.407197460000001 2.30909742 -0.745833 0.25163800000000003 -0.210631
8140 0.33275520000000003 11.06109873 3.98277171 -0.755047 0.309311 -0.239611
8160 -0.94647861 14.98758066 1.5995695500000002 -0.725863 0.379573 -0.253384
8180 -1.91361708 12.088117440000001 -1.47967173 -0.5851970000000001 0.175335 -0.182705
8200 -1.56918798 8.29409994 -2.2820022 -0.5266850000000001 0.116737 0.034627
8220 -0.6107313599999998 7.27532163 -0.32646699000000007 -0.440724 0.239107 0.260466
8240 -0.021258270000000003 7.09883973 1.00201302 -0.206072 0.309322 0.346405
8260 -0.3505701600000001 7.9561062 0.93525597 0.130462 0.259871 0.433208
8280 -0.6475581 8.73583443 0.78212187 0.644896 0.440749 0.5743699999999999
8300 -1.24167132 9.05945652 0.2200383 1.043754 0.438162 0.609206
8320 -1.6440284700000003 9.20586096 -0.3752717400000001 1.193256 -0.067163 0.30966
8340 -1.61873829 9.15960681 -0.6948521099999999 1.456679 -0.12886 -0.20650900000000005
8360 -0.7833186900000001 8.76786408 -0.8909442000000001 1.478556 -0.016097999999999998 -0.452192
8380 -0.35700552 8.7864246 -0.94468338 1.409847 0.355001 -0.22241100000000005
8400 -0.18262296000000003 9.158400180000001 -0.6846791400000001 1.584922 0.791403 -0.283704
8420 -0.73362123 9.43802442 -1.2843252 1.621644 1.033474 -0.37883
8440 -1.3328258400000002 9.78156081 -0.64156419 1.365875 0.5616270000000001 -0.4409
8460 0.58962024 10.380167010000001 -0.5084915400000001 1.349499 -0.051691 -0.496845
8480 1.5530210999999998 11.83049703 -0.0058369500000000005 1.231689 -0.15778599999999998 -0.5028729999999999
8500 1.9782846 12.524456429999999 0.42017211000000004 1.053489 -0.187963 -0.52758
8520 -0.51193485 15.084277830000001 1.0538098200000001 0.803884 -0.282435 -0.395674
8540 -0.7429014899999999 14.894032500000002 2.5390242 0.5309689999999999 -0.130639 -0.290953
8560 1.15454871 11.94486201 6.31552104 0.215331 0.097655 -0.099034
8580 -1.8799393500000001 10.42566579 5.69640213 -0.154575 0.129029 0.101304
8600 -3.0837342600000004 10.125695610000001 3.06696897 -0.498152 -0.233519 0.221146
8620 -3.39464259 10.840462020000002 1.21847067 -0.7054520000000001 -0.5650729999999999 0.19769
8640 -2.95754823 12.45215673 0.40625172 -0.742679 -0.7185779999999999 0.256379
8660 -2.54350737 12.21385221 0.22812174000000002 -0.412011 -0.883073 0.346494
8680 -1.3298337900000001 11.510465400000001 -0.40416219000000003 0.078916 -1.026702 0.407791
8700 0.18965673000000005 10.439743140000001 0.07454619 0.212837 -0.854894 0.217295
8720 0.07304525999999999 9.17546958 -0.2721294 -0.112348 -0.8430709999999999 -0.059525
8740 0.6665600700000001 8.01463266 -0.8243343 0.047868 -0.6832520000000001 0.06103
8760 0.036826740000000004 7.72663068 -0.6481565100000001 0.69606 -0.384821 -0.0063950000000000005
8780 -0.1793268 7.128475740000001 -0.8150540400000001 1.047168 -0.337144 0.020565
8800 -0.57121668 6.451438590000001 -1.2789395099999998 0.64058 0.229364 -0.104778
8820 -0.99348813 5.4664851599999995 -1.54463355 -0.24381 -0.416627 -0.29493
8840 -1.1064993300000001 5.42755908 -1.61005644 -0.456158 -1.122115 -0.042341
8860 -0.95531742 5.19689655 -2.23590501 -0.270507 -1.0727719999999998 0.244108
8880 -0.7126670700000001 4.88748915 -2.9479736700000005 -0.464338 -0.744053 0.258356
8900 -0.33574725 5.777236530000001 -3.64416975 -0.552569 -0.388133 0.305354
8920 -0.11226564 7.23849489 -3.54881655 -0.915446 -0.354102 0.367937
8940 0.1212516 9.866731230000001 -2.7214902000000003 -1.171239 -0.385872 0.27646
8960 -0.60968169 13.25014137 -2.54710764 -0.919045 -0.045911 0.289537
8980 -3.5108028000000004 15.31016289 -2.31523848 -0.6753600000000001 0.215699 0.456478
9000 -3.78113697 13.35537324 -4.76399106 -0.641508 0.204714 0.5101399999999999
9020 -1.8984998700000002 11.39280426 -5.863456620000001 -0.789528 0.230939 0.473821
9040 -0.4309533 11.95339671 -2.7831656700000007 -0.978094 0.190459 0.371074
9060 -1.65825297 14.710359870000001 1.44764208 -1.001048 0.201611 0.266214
9080 -5.68517949 15.154036740000002 2.65442904 -1.045074 0.380711 0.271018
9100 -4.1905377 9.85250673 -0.5084915400000001 -1.085083 0.402545 0.173503
9120 -0.49980969000000003 7.269484680000001 -0.86130819 -1.092163 0.37533 0.059188
9140 1.20140127 6.37569558 0.20147778000000002 -0.995302 0.428795 -0.0748
9160 1.4283261900000002 9.003480660000001 1.4280318900000002 -0.877007 0.519405 -0.192662
9180 0.67958775 10.61816742 1.86991353 -0.775176 0.591625 -0.226226
9200 -0.20163474 10.98834777 2.6072821800000003 -0.5848140000000001 0.762192 -0.155681
9220 -1.3841713800000002 10.025251019999999 0.75547791 -0.4313010000000001 0.725479 -0.165244
9240 -2.15237286 8.796460230000001 -0.79050942 -0.366507 0.61158 0.023362
9260 -2.4628299300000003 8.523428310000002 -0.47032083 -0.388331 0.4935600000000001 0.25196
9280 -1.90059921 8.14636134 0.02110131 -0.16247 0.685484 0.278929
9300 -1.09138212 7.67528514 0.44457939 0.137665 0.994449 0.276357
9320 -0.44951382000000006 7.83365778 0.33889626 0.438842 1.063709 0.277304
9340 0.21929274 8.2917063 -0.17513793000000002 0.8411569999999999 0.868345 0.299592
9360 0.6033934800000001 8.55920538 -0.23785326 1.096969 0.4621560000000001 0.423677
9380 0.4912749900000001 8.494086600000001 -0.01751085 1.189816 -0.086463 0.343843
9400 0.5126804100000001 8.513696790000001 0.08741691000000001 1.361985 -0.036945 0.066177
9420 0.5327418599999999 8.78493348 -0.06885639 1.636372 0.683433 0.031919
9440 0.04595004000000001 9.39655755 -0.15986376000000002 1.7710669999999995 1.035348 0.08795599999999999
9460 -0.89888049 10.7442063 -0.83032821 1.76095 0.908554 -0.162984
9480 -2.12408082 11.34011475 -0.72479223 1.525526 0.428105 -0.488752
9500 -2.07454032 10.53883395 0.2200383 1.198927 -0.07887999999999999 -0.4935890000000001
9520 1.30933089 10.64107377 1.5655975200000003 1.088214 -0.356043 -0.349797
9540 2.6725383000000003 11.39401089 -0.03098979 1.0363 -0.409541 -0.246473
9560 1.35528093 12.84957945 -1.6688772 0.8808040000000001 -0.62934 -0.290007
9580 -0.36374499000000005 13.28172957 -0.7726944600000001 0.733427 -0.884552 -0.275754
9600 -0.99124164 13.298946120000002 0.9243276300000001 0.659674 -0.89715 -0.258093
9620 0.43529913000000003 11.595488670000002 3.9049293600000006 0.385673 -0.7888689999999999 -0.192848
9640 0.11915226000000001 9.57408912 6.90260049 -0.004394 -0.7636930000000001 -0.023621
9660 -3.0208717800000002 10.553205600000002 5.11171632 -0.364665 -0.81296 0.088225
9680 -3.6059990400000004 12.07044963 1.8034507800000001 -0.578051 -0.801617 0.100607
9700 -2.26703214 13.564188900000001 0.39038895 -0.640092 -0.728336 0.210107
9720 -2.1573171 12.676835160000003 0.12364524000000002 -0.409149 -0.777393 0.289763
9740 -2.30385888 11.08819395 0.03143124 -0.08708099999999999 -0.7669590000000001 0.331523
9760 -0.9786652200000001 9.58277097 -0.4504163400000001 0.15678699999999998 -0.679192 0.282908
9780 1.13269203 9.8245188 -0.32153256 0.110168 -0.601396 0.04961
9800 1.2482538300000001 8.8931574 -0.9695321100000001 0.179677 -0.529345 0.086323
9820 1.11173787 8.42582862 -1.1461709699999998 0.6409050000000001 -0.606934 0.175102
9840 0.09744273000000002 7.853415120000001 -0.97013052 1.119305 -0.5785 0.108973
9860 -0.1963962 6.668936100000001 -1.21068153 1.21362 -0.353512 0.239666
9880 -0.46912401000000004 6.20085195 -1.15485282 0.781262 0.093154 0.269189
9900 -0.8678907000000001 6.02931429 -0.91698975 -0.280195 -0.723964 0.136771
9920 -1.07191908 5.692066110000001 -1.28702295 -0.551583 -1.554876 0.104962
9940 -1.1300040900000001 5.25063573 -1.9279887300000003 -0.254569 -1.032677 0.060434
9960 -1.0343467800000004 5.552401140000001 -2.56057677 -0.26978800000000003 -0.549277 0.132347
9980 -0.6586335900000001 6.43795965 -2.9133934200000002 -0.583002 -0.496749 0.321304
10000 -0.42841251 7.71540804 -2.63302362 -1.082054 -0.32397 0.436169
10020 -0.34503732000000004 9.81090252 -1.96151931 -1.286798 -0.419613 0.555571
10040 -1.5561603 12.93295464 -1.6994157300000001 -1.087441 -0.488235 0.760013
10060 -3.50810505 15.30088263 -2.9071052100000006 -0.92014 -0.457165 0.836986
10080 -2.1171942 13.616584110000002 -5.473518929999999 -0.939276 -0.57481 0.703475
10100 -0.52750332 11.13953949 -6.13589013 -0.988652 -0.513476 0.593025
10120 0.19549368000000003 11.587856490000002 -3.7474592400000004 -1.12984 -0.29272600000000004 0.655849
10140 -1.07446968 13.281582420000001 -0.95142285 -1.084886 -0.12628399999999998 0.5523319999999999
10160 -4.20415398 15.29294634 1.83847248 -0.979734 -0.136727 0.40887
10180 -5.54955624 13.69786977 2.8735746300000002 -0.748753 0.211908 0.402559
10200 -1.76198391 8.46968913 0.52331445 -0.608001 0.376757 0.34778400000000004
10220 1.4272863300000003 6.519539610000002 0.05988024 -0.735924 0.247852 0.194299
10240 1.25169714 8.60979555 0.75218175 -0.715901 0.316418 0.080052
10260 0.22931856000000003 10.08108954 1.8741024 -0.666269 0.428146 0.068505
10280 -0.30491442 10.853479890000003 2.1472814700000002 -0.621751 0.6048100000000001 0.072862
10300 -1.65002238 11.232793350000001 0.42122178 -0.5974079999999999 0.847412 0.12186
10320 -2.06734959 10.62820305 -0.8827136099999999 -0.53272 1.008001 0.13278800000000002
10340 -1.7670753 8.88806601 -1.4889519900000001 -0.475865 1.000653 0.056282000000000006
10360 -0.9862974000000001 8.13318651 -0.76102056 -0.169946 0.696004 0.0524
10380 0.23636214000000003 7.90880238 -0.26449722000000003 0.062163 0.520881 0.221957
10400 1.39015548 7.860301740000001 0.49591512000000004 0.301684 0.327536 0.146966
10420 0.81131643 8.0400798 0.34997175 0.7250409999999999 0.548482 -0.061867999999999986
10440 -0.39548034000000004 8.76157587 -0.06660990000000001 0.936371 0.385491 -0.243917
10460 -0.3990708 9.26797788 -0.64455624 1.194202 0.097807 -0.452187
10480 -0.24638796000000002 9.14088933 -0.63558009 1.266399 -0.099043 -0.571072
10500 -0.03831786 8.53225731 -0.40999914 1.263294 -0.044836 -0.538048
10520 0.22648347000000002 8.69452452 -0.6236020800000001 1.514824 0.491773 -0.417338
10540 0.61237944 9.44206614 -0.28800198 1.627741 0.698013 -0.409336
10560 0.2718351 9.81269775 -0.38620008 1.609844 0.69935 -0.461805
10580 0.16136469000000003 10.92547548 -0.10717425000000001 1.636738 0.471449 -0.501918
10600 0.11989782 12.661119540000001 0.20447964000000002 1.66937 0.43805 -0.436486
10620 0.53169219 13.67061759 0.19578798 1.806482 0.426503 -0.331896
10640 1.0975133700000002 15.06946473 0.7939527300000001 1.901361 0.396399 -0.345081
10660 2.9806017300000005 15.957416880000002 2.49516369 1.728045 0.255459 -0.380294
10680 0.8186445 15.21331857 3.2084291700000005 1.456655 0.197689 -0.350069
10700 -0.91624419 13.564493010000001 3.81706119 1.222099 0.391748 -0.191723
10720 -0.85367601 11.536962209999999 5.158725840000001 0.980823 0.085923 -0.226131
10740 -0.9184906800000001 10.184516369999999 5.08327713 0.698867 -0.301581 -0.311994
10760 -1.8473112900000002 10.13167971 4.56146361 0.425395 -0.487679 -0.422624
10780 -2.36463183 10.607690340000001 3.2187591 0.378803 -0.334419 -0.347302
10800 -2.01286485 11.75535243 2.07438336 0.353575 -0.314788 -0.17338399999999998
10820 -1.8756033300000001 12.65034816 1.0578515400000001 0.062761 -0.337674 -0.058949
10840 -1.64957112 11.40956955 0.91145691 0.036633 -0.213911 0.182128
10860 -1.0404878400000002 10.81021779 0.92882061 -0.001917 -0.119476 0.308856
10880 -0.36539307000000004 9.979742430000002 0.04161402 -0.209042 -0.139048 0.321321
10900 -0.05134554 9.668539800000001 -0.50774598 -0.285082 -0.14647000000000002 0.378483
10920 -0.40521186000000003 9.14911992 -1.6727717700000002 -0.199337 -0.174955 0.500896
10940 -0.8533719000000001 9.628573860000001 -1.84162149 0.16626300000000002 0.037684 0.5544520000000001
10960 -1.4142586500000003 8.43256809 -1.4027319 0.8155680000000001 -0.008565999999999999 0.368903
10980 -1.20529584 7.2302643 -1.0135397700000002 0.150147 -0.346553 -0.045509
11000 -0.99348813 7.701183540000001 -1.44704367 -0.6830579999999999 -0.316042 -0.026799
11020 -1.5066198 6.26956119 -1.99639386 -0.813711 -0.227013 -0.06628200000000001
11040 -1.1618865900000004 6.86637216 -2.5709067000000005 -0.695812 -0.222586 0.056314
11060 -0.9053158500000001 5.92303275 -1.45108539 -0.924686 -0.289135 0.113552
11080 -1.18284075 3.4021276200000004 -0.50595075 -1.161271 -0.246698 0.095822
11100 -1.5173911800000002 4.51700469 -1.97215335 -1.216045 -0.373091 0.049668
11120 -1.4299742700000002 6.11223822 -2.9999078100000007 -1.171817 -0.480924 0.07148
11140 -0.8873537400000001 4.89481722 -3.7377277200000005 -1.099642 -0.18878 0.21047800000000005
11160 -0.54756477 6.961725360000001 -4.42061163 -1.065405 0.245029 0.386418
11180 -0.09056592000000001 7.557035399999999 -4.17901095 -0.952377 0.616883 0.5362819999999999
11200 0.0038945700000000004 9.114696630000001 -4.942866600000001 -0.988159 0.578299 0.625812
11220 -0.24624081 10.67625243 -6.733152360000001 -1.10063 0.45097 0.597416
11240 -0.6224052600000001 11.94022188 -5.65643619 -1.121413 0.25536 0.5152680000000001
11260 -2.89124244 15.801143580000002 -3.94983954 -1.072702 0.11481199999999997 0.455968
11280 -1.7253141300000001 17.51238036 -2.99407086 -1.068861 0.059246000000000014 0.495591
11300 -1.9739485800000003 12.86454951 -5.246142750000001 -1.117623 -0.089796 0.513601
11320 -3.03823548 9.44326296 -2.5228573200000004 -1.075593 -0.026967 0.482835
11340 -3.46948308 11.29775517 -1.75360617 -0.8749870000000001 0.144137 0.4103100000000001
11360 -2.2778133300000003 11.57932179 -1.0847898 -0.671565 0.217277 0.32511100000000004
11380 -1.06758306 11.090283480000002 -0.10956789 -0.565936 0.164927 0.271437
11400 -0.36613863 10.28914983 0.12185001000000001 -0.534121 0.096741 0.246109
11420 -0.39008484000000004 9.40090338 -0.6114769200000002 -0.548326 -0.038256 0.185294
11440 -0.4251163500000001 8.828793990000001 -0.81445563 -0.610123 -0.14088499999999998 0.063217
11460 -0.7960422600000001 9.10690749 -0.9786652200000001 -0.687615 -0.214538 -0.098532
11480 -1.20978882 9.51211935 -0.85037985 -0.54818 -0.187837 -0.236461
11500 -1.3739886 8.89330455 -1.0806009300000001 -0.191496 -0.02124 -0.382666
11520 -1.29720573 8.0340957 -1.17550287 0.069247 0.27096 -0.420743
11540 -0.35416062000000004 7.7387558400000005 -1.2750449400000001 0.114273 0.594494 -0.382387
11560 0.37676286000000003 7.98275016 -0.7969447800000001 0.07608200000000001 0.41679 -0.132462
11580 0.68976072 7.9558020900000015 -0.45610614000000005 -0.053132000000000006 0.051302 0.003836
11600 0.21943989 7.344923580000001 -1.1627793 0.134244 0.527423 -0.143948
11620 -0.0836793 7.58083446 -1.31112612 0.245049 0.784508 -0.328306
11640 -0.08576883000000002 8.879835420000001 -0.8937891 0.08766399999999999 0.580849 -0.410329
11660 0.3179421 9.29522025 -0.75607632 0.103173 0.379825 -0.50183
11680 0.7625116799999999 8.58764457 -0.6373753200000001 0.679425 0.054445000000000014 -0.617029
11700 1.23433344 7.85745684 -0.050295870000000006 1.373873 -0.087154 -0.973056
11720 1.2049917300000001 7.86254823 0.10583028000000001 1.502168 0.016727000000000002 -0.689214
11740 1.00036494 7.75207782 0.4767561900000001 1.886878 0.130651 -0.475165
11760 0.45984375 8.42836941 0.87253083 2.11745 0.5392899999999999 -0.568082
11780 -0.03562992 10.009829700000001 1.06758306 1.980608 0.465246 -0.580693
11800 -0.7144623 11.244467250000001 0.65279664 1.561564 0.340767 -0.52364
11820 -1.07057511 12.40800192 -0.11824974 1.326107 0.06930599999999999 -0.631759
11840 -1.83009474 13.509557009999998 -0.7417046700000001 1.577169 -0.004468 -0.7815979999999999
11860 2.2528174499999998 15.206726250000001 1.73204379 1.555038 0.146515 -0.691148
11880 1.5429952800000002 16.43372181 2.21733468 1.243136 0.180159 -0.575865
11900 -1.6932746699999999 15.898135050000002 1.1593359900000002 1.127207 0.358072 -0.478626
11920 -2.5945586100000004 14.27057757 2.5933617900000003 0.883244 0.278708 -0.400112
11940 -1.6055634600000002 11.86462602 3.86391375 0.602326 0.070484 -0.299258
11960 -1.2500490600000003 9.19388295 2.9337491700000005 0.28702 -0.142087 -0.14736400000000002
11980 -0.8057737800000001 7.777230660000001 1.64253735 0.261027 -0.166745 -0.08555700000000001
12000 -1.37443986 9.393114240000001 0.98076456 0.181055 -0.12929200000000002 -0.05839
12020 -1.7875782 17.226624870000002 0.7171600499999999 0.04484 -0.194183 0.036882
12040 -0.25102809000000004 10.32717339 -1.2081407400000002 -0.083936 -0.246394 0.151417
12060 -1.1642802300000001 9.16020522 -1.18074141 -0.187854 -0.154109 0.339648
12080 -1.20678696 10.33615935 -0.09595161 -0.488579 0.051832 0.514608
12100 -0.39532338 8.77789971 0.83511549 -0.302327 0.162077 0.489063
12120 -0.26839179 7.203021929999999 0.53783325 0.633376 0.143901 0.227498
12140 -1.5666373800000002 7.966583280000001 -1.19422035 0.167689 0.268019 0.228359
12160 -1.7292087000000003 10.10952873 -1.4485347899999998 -0.599023 0.43983 0.550728
12180 -1.93427694 8.65635381 -1.3847697899999998 -0.970909 -0.040057 0.202641
12200 -1.64447973 6.584207129999999 -1.47173544 -0.742845 0.002429 0.302456
12220 -1.4314752 5.70957696 -1.69283322 -0.6560600000000001 -0.419606 0.273693
12240 -1.0653365700000001 6.133947750000001 -2.44052199 -0.8664379999999999 -0.49863 0.238141
12260 -0.81445563 6.317610570000001 -2.2686802200000002 -0.912183 -0.465463 0.242052
12280 -1.3811793300000001 5.75612541 -2.37675699 -0.8839319999999999 -0.317625 0.276243
12300 -1.83743262 5.17384305 -3.4040700000000004 -0.870224 -0.06965 0.323023
12320 -1.47084273 5.28895359 -3.4358053500000003 -0.795186 0.332417 0.409558
12340 -1.1632305600000001 6.393951990000001 -4.24980972 -0.787555 0.477894 0.519452
12360 -0.54756477 7.1260821000000005 -4.8975149700000005 -0.846894 0.405362 0.593906
12380 -0.39682431 7.235806950000001 -5.03762139 -0.933694 0.26421 0.5368649999999999
12400 -0.97163145 7.67124342 -5.242248180000001 -0.886126 0.06948700000000001 0.440238
12420 -2.87955873 9.95714019 -3.8987883 -0.88544 -0.253292 0.439588
12440 -5.58143874 18.182236590000002 -3.0138282000000003 -0.996185 -0.386296 0.496669
12460 -2.32990443 19.056866760000002 -4.9392761400000005 -0.907585 -0.104443 0.5311100000000001
12480 -3.1862781900000003 10.550213549999999 -4.303548900000001 -0.75517 0.088949 0.521245
12500 -1.5798122100000003 8.89196058 -1.20080286 -0.6653479999999999 0.066537 0.453534
12520 -1.2117312 10.84030506 -1.65959694 -0.585705 0.14008900000000002 0.372812
12540 -0.98704296 10.508001120000001 0.30357045 -0.586302 0.202048 0.329999
12560 -0.40595742000000007 11.45777589 -0.35655426000000007 -0.634167 0.127013 0.221871
12580 -1.0380942 10.785221909999999 -0.44802270000000005 -0.551592 0.095275 0.09537
12600 -1.51334946 10.087377750000002 -1.0880859600000001 -0.409296 0.139699 0.051441
12620 -1.3980917700000002 9.747431820000001 -1.2237092100000002 -0.291304 0.261871 0.032881
12640 -1.7172306900000003 9.784405710000001 -1.45393029 -0.143368 0.375514 -0.010028
12660 -1.67487111 9.17906004 -1.52772111 -0.032546 0.520258 -0.072465
12680 -0.8415508500000001 8.52417387 -1.51918641 -0.082715 0.702793 -0.122187
12700 -0.22708187999999999 8.38796202 -1.2064926599999997 -0.24295100000000006 0.70423 -0.076307
12720 0.11465928000000002 8.46758979 -0.56148516 -0.301223 0.413128 -0.221619
12740 -0.11226564 8.599318470000002 -0.5641731000000002 -0.278579 0.586206 -0.100973
12760 0.01616688 8.395437240000001 -0.5884234200000001 -0.080553 0.745251 -0.08590700000000001
12780 -0.10403505 8.04981132 -0.67000338 0.26681 0.707467 -0.261825
12800 -0.39653001 7.678581300000001 -0.35386632 0.514795 0.421721 -0.413551
12820 -0.54831033 7.505689860000001 -0.1966905 0.826983 -0.185344 -0.453321
12840 -0.06601149 7.5694548600000005 0.0028449 1.19665 -0.560477 -0.4684180000000001
12860 0.50385141 7.713612810000001 0.32901759 1.620427 -0.258413 -0.45089
12880 0.5998030200000001 8.18422794 -0.00179523 1.811807 0.47316 -0.28278000000000003
12900 0.45130905 9.27022437 0.06316659000000001 1.883533 0.67355 -0.374403
12920 0.35999757000000004 9.79562835 -0.32437746000000006 1.7815439999999998 0.511004 -0.396271
12940 0.013469130000000001 10.54137474 -0.62898777 1.156493 -0.132629 -0.601707
12960 0.04699970999999999 11.00601558 -1.16981307 0.853564 -0.435915 -0.684619
12980 0.49112784 11.020534379999999 -2.0299244400000003 1.267633 -0.04797 -0.557242
13000 -0.69260562 11.61419634 -0.7119215100000001 1.373029 0.185835 -0.509803
13020 0.91894194 12.99657249 1.8194705100000002 1.201651 -0.030618 -0.5769529999999999
13040 -0.7226928900000001 15.8860197 1.4094713700000001 1.013013 0.02645 -0.565525
13060 -0.48543804 16.52174694 1.3304322000000002 0.996832 0.136693 -0.41516
13080 -1.1374891200000001 14.86364112 1.82411064 0.913826 0.110753 -0.250132
13100 -0.5978606400000002 12.54077046 2.5761452400000002 0.6783710000000001 -0.229562 -0.189384
13120 -0.90770949 11.32619436 2.48423535 0.464021 -0.473717 -0.218342
13140 -1.8366772500000002 9.334440630000001 0.18695898 0.384991 -0.466086 -0.193266
13160 -1.9949027400000001 9.26827218 -0.69260562 0.263288 -0.315071 -0.024463
13180 -1.0955709900000001 10.4550075 -1.5058644300000001 0.026674 -0.13791199999999998 0.099708
13200 0.01152675 10.94479137 -1.7330934600000003 -0.161477 -0.167305 0.153979
13220 -0.71206866 12.65363451 -0.7777858500000001 -0.276154 -0.163127 0.273881
13240 -0.70323966 12.490621740000002 -0.20252745000000003 -0.280901 -0.215527 0.328395
13260 -1.5506274600000003 8.120315790000001 -0.2718351 -0.160954 -0.31198000000000004 0.36888
13280 -0.88510725 7.37651178 -0.6316855199999999 0.045442 -0.383241 0.428097
13300 -0.6815301300000001 9.10107054 -1.9998371700000002 0.342808 0.1171 0.5214
13320 -1.5314685300000002 9.4860738 -1.78039728 0.117158 0.323021 0.370009
13340 -2.31613119 7.93065906 -1.66827879 -0.853943 0.037702 0.368933
13360 -1.76288643 6.439460580000001 -1.56349818 -0.99168 -0.27056 0.321364
13380 -1.39779747 6.02272197 -1.6554080700000002 -0.684942 -0.380316 0.330056
13400 -0.97612443 6.772961340000001 -1.60257141 -0.569593 -0.6478689999999999 0.272453
13420 -1.1557455300000001 6.945254370000002 -1.56739275 -0.778609 -0.887798 0.247799
13440 -1.6021201500000002 6.6641390099999995 -1.5359517 -0.803157 -0.970479 0.166549
13460 -2.35385064 5.121899100000001 -2.10821805 -0.819131 -0.996923 0.133356
13480 -2.1255817500000003 4.96292805 -2.89347912 -0.774057 -0.62454 0.210106
13500 -1.4635048499999999 5.721554970000001 -3.3549709500000002 -0.675906 -0.063831 0.297667
13520 -1.1499085800000002 7.25197383 -4.22451954 -0.709633 0.17644200000000002 0.446675
13540 -0.82942569 7.695650700000001 -5.10842997 -0.8295629999999999 0.200871 0.568651
13560 -0.5070004200000001 8.386755390000001 -5.60164734 -0.945714 -0.001144 0.572372
13580 -0.7735871700000001 9.51077538 -5.79400182 -1.057842 -0.268112 0.565521
13600 -1.6732230300000004 9.86134554 -5.47036992 -1.196117 -0.5673020000000001 0.647192
13620 -3.5289120600000006 10.04696055 -1.7130418200000002 -1.110998 -0.592208 0.674524
13640 -5.15198637 19.0589661 -2.92117275 -0.917932 -0.34581 0.693717
13660 -2.8149010200000006 18.04452381 -5.100640830000001 -0.8193879999999999 -0.317157 0.635616
13680 -1.7354870999999998 10.508295420000001 -2.93120838 -0.810584 -0.31907 0.573723
13700 -1.1883834 9.16394283 -1.9176587999999999 -0.697576 -0.160494 0.513421
13720 -0.42136893000000003 9.19133235 -1.2886710300000002 -0.561212 -0.045604 0.435178
13740 0.49217751000000004 9.68186178 0.34667559 -0.404281 0.109798 0.331389
13760 0.02065986 10.70393625 -0.029184750000000002 -0.279964 0.07379 0.171002
13780 -0.93091014 10.5563448 -0.63258804 -0.295837 0.001813 0.069502
13800 -1.4810157 9.18025686 -1.5031764900000002 -0.381273 -0.080724 0.004918
13820 -2.44231722 8.57865861 -2.16599895 -0.297506 -0.041268 -0.07786900000000001
13840 -2.62464588 8.30457702 -2.32660827 -0.106243 0.198004 -0.13986500000000002
13860 -1.43611533 7.94548197 -1.7768068200000002 -0.197617 0.443642 -0.216661
13880 -0.6524925300000001 7.854916050000001 -1.3867121699999998 -0.278519 0.246848 -0.216974
13900 0.10088604 8.02675782 -0.53693073 -0.246066 -0.117634 -0.205598
13920 0.7343766 8.47942065 -0.33320646000000004 -0.041303 0.159457 -0.146839
13940 0.58184091 9.03581442 -0.9394448400000001 -0.042198 0.172346 -0.172499
13960 0.39053610000000005 8.32508973 -0.49007817000000004 0.136649 0.128828 -0.366679
13980 -0.29024847 8.02825875 -0.04371336 0.392027 0.019007 -0.563444
14000 -0.7081740900000001 8.075552759999999 0.01182105 0.756654 -0.124656 -0.650443
14020 -0.68527755 8.16147855 0.08921214 1.140183 -0.189079 -0.5899979999999999
14040 -0.45745011 8.756337330000001 0.00373761 1.330027 -0.13886500000000002 -0.5246430000000001
14060 -0.07409493 9.03012462 -0.03398184 1.469316 0.323669 -0.430259
14080 0.04715667 9.02532753 0.24324876 1.716595 0.602593 -0.33381700000000003
14100 0.56732211 9.28534158 0.12274272000000001 1.705797 0.635406 -0.271978
14120 1.0975133700000002 9.31123998 -0.7240466700000001 1.348904 0.426074 -0.360729
14140 0.85188078 10.13841918 -1.3066331400000002 1.215865 0.14046199999999998 -0.482001
14160 0.6970986 11.279341800000001 -1.98247347 1.285633 0.132107 -0.584052
14180 0.95216841 11.368563750000002 -1.24316244 1.511422 0.259245 -0.606139
14200 -0.17019369 12.266541720000001 0.5043026700000002 1.464237 0.49675 -0.552294
14220 1.94999256 16.09543377 1.84476069 1.319866 0.500129 -0.47319
14240 -0.29189655000000003 16.56260559 0.67165146 1.202051 0.429043 -0.442943
14260 -1.05410412 14.96677365 0.9068167800000001 1.034724 0.28347100000000003 -0.390514
14280 -1.32803856 13.70100897 1.8059915700000002 0.769054 0.05743400000000001 -0.377125
14300 -1.1298471300000001 11.647726920000002 2.4002617500000003 0.523716 -0.152702 -0.361478
14320 -2.00178936 10.170301680000001 2.29592259 0.358128 -0.158691 -0.31883
14340 -2.62539144 9.12203451 1.61917974 0.286715 -0.025756 -0.200926
14360 -2.5274974500000003 9.42410403 0.9391505400000001 -0.045693 -0.032569 -0.07398500000000001
14380 -2.04953463 10.7211528 -0.38020617 -0.323374 -0.012766 0.009508
14400 -1.71139374 12.258605430000001 -0.7315317000000001 -0.413633 -0.06607400000000001 0.098677
14420 -1.23059583 11.63994759 -0.31330197000000004 -0.360717 -0.023138 0.23786
14440 -1.24167132 10.42866765 0.35446473 -0.410744 0.122497 0.358033
14460 -1.5820587000000002 8.70170544 -0.0779895 -0.144985 0.19912 0.4132020000000001
14480 -1.4917968900000003 8.52372261 -0.8408052900000001 0.568513 0.13583199999999998 0.17044
14500 -1.8905733900000001 9.04598739 -1.28448216 0.210622 -0.138264 -0.237633
14520 -1.92365271 8.63689077 -1.4774252399999999 -0.650937 0.387175 0.177623
14540 -1.6136469 8.121963870000002 -1.0877916599999997 -0.766419 0.03308 0.11745
14560 -1.45781505 6.8433186599999996 -1.18853055 -0.869332 -0.057187 0.136074
14580 -1.41186501 6.47957367 -1.25334522 -0.790147 -0.030617 0.34917
14600 -1.2663630900000002 6.28079364 -1.5423968700000001 -0.962266 -0.152348 0.30432600000000004
14620 -1.18508724 6.063737580000001 -1.59074055 -0.939565 -0.090624 0.300133
14640 -0.99258561 5.60973078 -1.9755868500000002 -0.8519770000000001 -0.044151 0.32418600000000003
14660 -1.3554280800000003 5.07430098 -2.6607172500000003 -0.80924 0.011988 0.367142
14680 -1.70405586 5.86316232 -3.3685970400000005 -0.750627 0.338405 0.471818
14700 -1.3395653100000002 6.42703131 -3.43670787 -0.741637 0.584933 0.617912
14720 -0.9398961000000001 6.866225010000001 -4.7111544 -0.791259 0.488067 0.642258
14740 -0.7725473100000001 7.5139204500000005 -5.911358850000001 -0.924327 0.313835 0.639416
14760 -1.0671318 8.08663806 -6.226299090000001 -1.033511 0.1749 0.580079
14780 -1.61798292 9.04569309 -6.58106793 -1.060705 0.021744 0.542697
14800 -2.38244679 9.55792224 -4.37390622 -1.069997 -0.122135 0.567386
14820 -5.83052445 14.90675607 -3.73278348 -0.948929 -0.010695 0.565952
14840 -4.63974741 17.49681189 -3.00140874 -0.810633 0.166608 0.595533
14860 -0.9241804800000001 11.15734464 -4.20026922 -0.82888 0.135805 0.589036
14880 -3.2091747300000004 9.41871834 -3.9839685300000003 -0.832248 -0.048948 0.440766
14900 -2.82327876 8.165373120000002 -1.2244547700000001 -0.635303 -0.01405 0.33420700000000003
14920 -2.1016257300000003 10.13856633 -0.9635480100000001 -0.483969 0.136892 0.284864
14940 -1.4651529300000001 11.396100420000002 -0.42691158 -0.440017 0.112524 0.213631
14960 -0.71311833 11.33262972 -1.08045378 -0.300879 0.121984 0.12485999999999997
14980 -0.8211951000000001 10.420280100000001 -1.2513930300000002 -0.210287 0.017608000000000002 0.041237
15000 -0.63483453 9.580681440000001 -1.4434532100000004 -0.28239699999999995 0.058568 -0.015934
15020 -0.31569561 9.477686250000001 -1.43476155 -0.292901 0.27402600000000005 -0.075036
15040 -0.44592336000000005 9.52813908 -0.7432056000000001 -0.195565 0.517832 -0.123807
15060 -1.1546958600000001 9.198071820000001 -1.0687798800000001 -0.233764 0.73661 -0.189516
15080 -0.98210853 8.21266713 -0.8640059400000001 -0.33834000000000003 0.749686 -0.172103
15100 -0.56596833 7.83111699 -0.80367444 -0.387471 0.432677 -0.240406
15120 -0.28829628 7.747584840000001 -0.70293555 -0.160951 0.6093810000000001 -0.137569
15140 0.00673947 8.19426357 -0.57225654 -0.138122 0.587508 -0.015605
15160 0.24473988000000002 8.90303607 -0.659232 0.098465 0.6330279999999999 -0.148606
15180 0.66851226 8.66967579 -0.57361032 0.261419 0.6618109999999999 -0.29492
15200 0.7385654700000001 7.6395178800000005 -0.18052362000000002 0.462528 0.481328 -0.356309
15220 0.43274853 7.713612810000001 -0.09729558 0.721066 0.26971300000000004 -0.407643
15240 0.65309094 8.31849741 -0.23964849 1.055128 0.198639 -0.505631
15260 0.64111293 9.07158168 -0.10148445 1.415035 0.241216 -0.542696
15280 0.57899601 9.18415143 0.06825798 1.5982379999999998 0.765289 -0.424583
15300 0.94962762 9.07353387 -0.1329255 1.6687419999999995 0.842577 -0.366506
15320 0.7595196300000001 9.46646361 -0.39517623 1.638026 0.5819850000000001 -0.440094
15340 0.35281665 9.71045793 -1.2886710300000002 1.464379 0.353749 -0.489084
15360 0.1502892 10.13167971 -1.91990529 1.316243 0.353347 -0.526438
15380 0.49172625000000003 10.276583220000001 -1.82215845 1.301657 0.327185 -0.631192
15400 0.6453116099999999 10.64361456 -1.13134806 1.334519 0.203806 -0.707716
15420 0.30431601 11.491453620000001 0.76984956 1.296968 0.219664 -0.6449739999999999
15440 1.3458535200000001 14.69643948 1.34360703 1.272905 0.39842 -0.5716640000000001
15460 -0.20986533 16.1350956 1.18389042 1.235124 0.369511 -0.502456
15480 -1.99939572 15.31150686 1.4331232800000002 1.112864 0.276001 -0.45512
15500 -2.1742295400000007 13.66044462 1.9224558900000002 0.7999310000000001 -0.010633 -0.431302
15520 -1.281186 12.186609840000001 2.70622584 0.5036229999999999 -0.178999 -0.427814
15540 -1.6374459600000002 11.32050456 2.60128827 0.34155100000000005 -0.146521 -0.417238
15560 -2.1155461200000003 10.3366008 1.9336785300000001 0.341719 0.011717 -0.295662
15580 -2.9150415000000005 10.141862490000001 1.0334540700000001 0.095866 0.034434 -0.169222
15600 -2.5806382200000004 10.48958775 -0.051198389999999996 -0.20355 0.05608 0.004915999999999999
15620 -1.18284075 11.55312909 -0.46822149 -0.298393 -0.062215 0.099477
15640 -0.8220878100000001 10.78866522 -0.42750999 -0.256212 -0.08084 0.191662
15660 -1.4322207599999999 10.487488410000001 -0.29742939 -0.350465 -0.093572 0.260454
15680 -1.19840922 9.978398460000001 -0.40775265 -0.5168189999999999 0.019544 0.355288
15700 -0.8072747100000001 8.6996061 -0.9003814200000001 -0.768771 0.010721 0.382381
15720 -1.2009500100000001 8.91770202 -1.32803856 -0.405422 0.3844260000000001 0.385508
15740 -1.5852077100000002 8.841811860000002 -1.6199351100000001 0.298985 -0.124947 -0.181486
15760 -1.60331697 8.97383484 -1.77785649 -0.515865 0.470039 0.117572
15780 -1.13689071 7.64325549 -1.70121096 -0.990964 0.683592 0.404536
15800 -1.4275806300000002 7.431447780000001 -1.96780752 -0.816387 0.259295 0.066604
15820 -1.3082812199999998 6.728512230000001 -1.85943645 -0.936283 0.178714 0.07548400000000001
15840 -1.26247833 6.57178767 -2.08890216 -0.920921 0.492037 0.295244
15860 -1.36695483 6.36716088 -2.28934008 -1.094436 0.589537 0.305657
15880 -1.37548953 5.592524040000001 -2.37900348 -1.213454 0.713449 0.323895
15900 -1.6970220900000001 4.7922831000000015 -2.3511627 -1.112048 0.985712 0.34775500000000004
15920 -1.9976004900000002 5.9501279700000005 -3.12325875 -0.982855 1.250494 0.35366
15940 -2.17991934 6.622829100000001 -3.4774193700000002 -0.839353 1.413871 0.39825
15960 -1.7625823200000001 7.02384228 -4.320912600000001 -0.670521 1.57161 0.498571
15980 -1.10874582 7.27786242 -5.104084139999999 -0.644892 1.6129209999999998 0.535017
16000 -0.89693811 7.6811319000000005 -5.04586179 -0.619088 1.45715 0.572785
16020 -1.0044066600000001 8.51114619 -5.016215970000001 -0.5776359999999999 1.136552 0.524347
16040 -1.5040692000000002 9.127871460000001 -4.85051526 -0.57601 0.917526 0.417817
16060 -2.18455947 9.91088604 -4.17302685 -0.567367 0.676854 0.390412
16080 -5.876484300000001 15.092066970000001 -4.48901676 -0.435496 0.715166 0.28553
16100 -4.46342247 18.55586025 -4.384981710000001 -0.314404 0.775699 0.227546
16120 -1.7275606200000002 12.84883389 -5.2196459399999995 -0.394313 0.863075 0.29096900000000003
16140 -3.46319487 9.517956300000002 -3.94504245 -0.482824 0.861297 0.279671
16160 -3.78383472 8.67850479 -1.5663430800000002 -0.409434 0.99654 0.227667
16180 -1.8598779 8.52522354 -0.56477151 -0.393994 1.091365 0.210562
16200 -1.85150016 9.00392211 -0.5872266 -0.49193 1.114181 0.184211
16220 -2.3126878800000004 9.864484740000002 -0.6469498800000001 -0.597641 1.107042 0.196301
16240 -2.49186753 10.428069240000001 -1.42203798 -0.577183 1.123052 0.170786
16260 -2.232756 9.876158640000002 -1.1587375800000002 -0.570897 1.088976 0.162328
16280 -1.7771011200000002 8.81591346 -0.9467827200000001 -0.572261 1.054763 0.194409
16300 -1.4105210400000001 8.00669637 -1.0124901 -0.522912 1.076054 0.155202
16320 -1.12790475 7.465723919999999 -0.8150540400000001 -0.534557 1.009333 0.067612
16340 -0.92463174 7.39597482 -0.80532252 -0.5626399999999999 0.838302 -0.027437
16360 -0.50399856 7.522308000000001 -0.5956141500000001 -0.540589 0.913132 -0.111768
16380 -0.34877493 7.520807070000001 -0.5516064900000001 -0.453018 1.097411 -0.184032
16400 0.06137136000000001 7.73846154 -0.43319979 -0.413114 1.08397 -0.054481
16420 0.19025514000000002 8.26341426 -0.37182843 -0.433892 0.69442 0.144562
16440 0.11360961 9.08834697 -0.35161983 -0.343787 0.779421 0.121582
16460 0.32602554 9.11709027 -0.14055768000000002 -0.152452 1.070747 0.095839
16480 -0.19235448000000002 9.068295330000002 0.09999333 0.024323 1.295725 0.157675
16500 -0.71775846 8.987156820000001 -0.38544471 0.246614 1.461868 0.241267
16520 -0.5727078 9.1940301 -0.51867432 0.483392 1.7059650000000002 0.265041
16540 -0.6394746600000001 9.26528013 -0.40146444000000003 0.545822 1.924806 0.362405
16560 -0.49203036 9.1536129 -0.44532495 0.735958 1.832043 0.218574
16580 0.00958437 9.19238202 -0.6749476200000001 0.865482 1.788368 -0.159684
16600 0.13053186 9.150473700000001 -1.0707222600000001 1.019568 1.809348 -0.478033
16620 0.44053767000000005 9.70117767 -1.00695726 1.064223 1.632929 -0.620637
16640 0.52331445 9.700432110000001 -1.5617029500000001 1.176101 1.828588 -0.62972
16660 0.77987538 9.31064157 -1.4561767799999998 1.236857 2.088163 -0.594377
16680 0.8264336400000001 9.25735365 -1.1193700500000001 1.079511 1.982151 -0.586795
16700 0.20252745000000003 9.257795100000001 -1.3233984300000001 1.053499 1.898059 -0.5804590000000001
16720 -0.31330197000000004 9.349852140000001 -1.2458601900000001 0.938798 1.743066 -0.6152449999999999
16740 0.55400013 9.6395022 -1.4218908300000002 0.8619620000000001 1.419818 -0.69762
16760 1.90732887 10.539883620000001 0.51822306 0.630185 1.355667 -0.704498
16780 1.99804194 11.00077704 0.8169964200000002 0.497493 1.582719 -0.626668
16800 0.55833615 11.27455452 -0.11406087000000001 0.242837 1.509737 -0.536486
16820 -0.71955369 11.308232250000001 -0.33919056000000003 -0.010723 1.431471 -0.45804
16840 -1.8149775300000002 12.17073726 -0.01601973 -0.247071 1.378738 -0.385916
16860 -2.10611871 12.20531751 0.79888716 -0.399164 1.332051 -0.300393
16880 0.3990708 11.86777503 2.04788655 -0.524119 1.173329 -0.193172
16900 0.7981416 11.569894380000001 4.0635963 -0.70122 1.056283 -0.07355
16920 -1.19242512 10.75603716 4.2081957 -0.780155 0.981348 0.086228
16940 -2.12722983 9.94082616 3.30991362 -0.693416 0.948551 0.220404
16960 -3.60704871 9.847121040000001 1.02477222 -0.549574 0.762318 0.314583
16980 -4.39081866 11.31706125 -0.5174775 -0.594096 0.578222 0.303825
17000 -3.56019615 11.848311990000003 0.01377324 -0.32751 0.432879 0.189438
17020 -1.79850654 11.399092470000001 0.5415708599999999 -0.120704 0.107451 0.140024
17040 -0.7599708900000002 10.88416557 0.56507562 0.030316000000000006 0.073608 0.213762
17060 0.210915 10.265497920000001 0.29233800000000004 0.334596 0.609395 0.228019
17080 0.32272938000000007 9.572598000000001 -0.06122421 0.8330270000000001 0.796477 -0.102024
17100 -0.06287229000000001 8.70754239 -0.6730052400000001 0.830996 0.7858569999999999 -0.374421
17120 -0.41808258000000004 7.41093507 -1.07446968 0.074012 0.707242 -0.57082
17140 -0.58887468 6.88867029 -1.28657169 -0.7117680000000001 0.06566799999999999 -0.619283
17160 -1.0517104800000001 7.06770279 -1.29945222 -0.736049 0.082006 -0.421853
17180 -1.32639048 7.38024939 -1.3647083400000002 -0.13986800000000002 0.6939609999999999 0.004543
17200 -1.3031898300000002 7.2293617800000005 -1.97708778 0.288102 1.613339 0.420824
17220 -1.12760064 7.2792162000000005 -2.32032006 -0.203031 1.828933 0.478006
17240 -0.80651934 7.13146779 -2.7081682199999997 -0.764239 1.673832 0.324734
17260 -0.37377081000000006 6.890622480000001 -3.18822057 -0.738829 1.727572 0.183837
17280 -0.01197801 7.00857792 -3.6312990300000005 -0.343467 1.932581 0.254702
17300 -0.10777265999999999 7.9179354900000005 -3.52577286 -0.096094 1.902945 0.25860500000000003
17320 -0.42601887000000005 8.94180519 -3.2856633000000004 -0.167693 1.846855 0.228266
17340 0.55429443 9.88125003 -3.8844264600000002 -0.597478 1.685215 0.263927
17360 0.8768766600000001 11.898009450000002 -2.84812749 -0.94996 1.57467 0.242379
17380 -0.1790325 12.58238448 -2.7876488400000006 -0.931785 1.640423 0.300105
17400 -2.59559847 12.56891535 -4.428243810000001 -0.716784 1.779163 0.316385
17420 -4.639149 12.72923037 -4.363125030000001 -0.613929 1.811023 0.25190100000000004
17440 -5.7956499 14.190939990000002 -3.62935665 -0.58423 1.657981 0.136936
17460 -4.7702792700000005 15.02694819 0.0031392000000000004 -0.528696 1.601605 0.067962
17480 -5.267842470000001 13.779449730000001 3.69102231 -0.42684 1.654748 0.009853
17500 -4.29367023 7.125336540000001 3.1385231100000004 -0.27460500000000004 1.61679 0.046216
17520 -2.47435668 5.19090264 1.68639786 -0.278304 1.582406 0.123147
17540 -1.13284899 7.088804100000001 -0.16181595000000001 -0.25234 1.721628 0.18297
17560 -0.14833701000000002 9.75671208 -0.01092834 -0.462576 1.605703 0.317314
17580 -0.5526463500000001 11.35957779 1.8326355300000001 -0.611522 1.4815049999999998 0.336729
17600 -1.5817644000000004 10.41025428 2.1914460900000003 -0.371668 1.565269 0.227202
17620 -2.37092004 8.868161520000001 0.6466555799999999 -0.209941 1.835713 0.121163
17640 -1.88608041 8.84570643 -0.3412899 -0.13249 1.911342 0.055378
17660 -1.5477825600000001 9.85431177 -0.37092590999999997 0.165347 1.990039 0.096881
17680 -1.7944648200000002 9.64249425 0.04056435 0.541221 1.971099 0.24480900000000005
17700 -1.8010571400000002 8.655147180000002 0.50624505 0.8393120000000001 1.856077 0.511958
17720 -1.2145761000000002 8.46474489 0.45071064 1.109969 1.908951 0.640899
17740 -0.33110712 9.26423046 -0.09774684000000002 1.348932 1.6736220000000002 0.409997
17760 0.4221243 9.596544210000001 -0.7315317000000001 1.569954 1.48924 -0.291113
17780 0.33664977 9.55179099 -1.2656175300000003 1.691118 1.671634 -0.719925
17800 0.46538640000000003 9.636363 -1.01429514 1.96876 2.1916290000000003 -0.729334
17820 0.2891988000000001 9.7174917 -0.98285409 2.0119 2.265102 -0.759037
17840 0.23860863000000002 9.44864865 -1.2293892 1.915154 1.671907 -0.716224
17860 0.10867518 9.53082702 -1.08239616 1.891056 0.983059 -0.791354
17880 0.3617928 9.01709694 -0.76715181 1.648097 0.7710100000000001 -0.832303
17900 1.04018373 8.905135410000002 -0.18726309 1.341375 0.714313 -0.7734840000000001
17920 2.2270662000000003 9.70971237 0.6228565199999999 1.289945 0.7800779999999999 -0.65856
17940 0.77478399 10.02450546 0.06735546 1.175729 0.803763 -0.622
17960 -0.9457330500000001 10.30322718 -1.1976636600000001 1.01813 0.852324 -0.641323
17980 -1.6121459699999998 10.29378996 -1.95178779 0.89775 0.733117 -0.562963
18000 -1.03255155 10.758725100000001 -1.84446639 0.6191479999999999 0.535658 -0.492017
18020 -0.21840003000000002 11.4558237 -1.52532747 0.262651 0.326786 -0.430146
18040 0.48634056000000003 12.24004491 -0.37302525000000003 0.211106 0.35107 -0.331192
18060 0.44906256 12.65977557 1.6835529600000003 0.139042 0.347617 -0.204573
18080 0.9318126600000001 12.441679650000001 4.70621016 0.067699 0.235631 -0.109856
18100 -2.47120767 10.93940568 5.81600565 -0.077797 0.254878 -0.001938
18120 -5.27922207 11.43008226 3.71826468 -0.353954 0.101189 0.043331
18140 -6.21657738 11.87675118 -0.44906256 -0.5170319999999999 -0.084733 0.05952200000000001
18160 -4.07243511 12.273428339999999 -1.0811993400000002 -0.49821 -0.378928 0.087804
18180 -2.12139288 12.588368580000001 -0.5477119200000001 -0.172656 -0.483791 0.188489
18200 -1.0674261 13.59847485 0.18935262 0.182187 -0.134434 0.16061
18220 0.8934948 12.46847076 -0.9699833700000001 -0.188516 -0.319371 -0.1558
18240 1.4272863300000003 10.341093780000001 -2.1782712600000003 -0.842577 -0.06261900000000001 -0.12651400000000002
18260 1.2177153 9.078174 -1.49538735 -0.815167 0.096033 -0.131867
18280 0.5288472900000001 8.06328045 -1.5762217500000002 -0.681361 0.058939 -0.029404000000000007
18300 -1.02446811 7.870484520000001 -3.1033444500000003 -0.730575 0.101428 0.043905
18320 -2.43004491 7.090756290000001 -3.2236935300000003 -0.929069 0.071301 0.024397
18340 -2.17796715 6.656810940000001 -2.89976733 -1.107612 0.186068 -0.016521
18360 -0.89214102 7.233854760000001 -3.44912733 -1.130131 0.210447 0.033497000000000006
18380 -0.40505490000000005 8.85992112 -4.25864853 -1.080835 0.353707 0.128729
18400 0.022003830000000002 8.3699901 -3.5485222500000004 -0.998461 0.53293 0.259398
18420 -0.18291726 4.394409120000001 -3.09480975 -0.934574 0.6005 0.355898
18440 -1.12355892 5.22473733 -4.20281001 -0.8632 0.592729 0.37243
18460 -1.05904836 6.34396023 -5.023701 -0.805546 0.605298 0.376021
18480 -0.6837766200000001 6.5562192 -5.40585936 -0.7472260000000001 0.755329 0.368759
18500 -0.78122916 7.653879720000001 -5.748346080000001 -0.788486 0.628572 0.401748
18520 -0.59336766 8.56234458 -6.39230391 -0.811873 0.499395 0.4914810000000001
18540 -0.35655426000000007 9.667794240000001 -6.5628017100000005 -0.7828229999999999 0.543013 0.480945
18560 -0.94408497 11.47334436 -7.000945740000001 -0.550705 0.602161 0.406647
18580 -3.1611253500000003 11.850705629999998 -3.9225971700000004 -0.521416 0.6863100000000001 0.383243
18600 -5.206922370000001 19.1284209 -3.63443823 -0.543613 0.6770229999999999 0.327552
18620 -3.3563247300000003 13.13144037 -3.9805252200000005 -0.365261 0.6479189999999999 0.258333
18640 -3.18178521 7.4461137299999995 -2.0847132900000003 -0.21775100000000006 0.674181 0.22301
18660 -3.0776030100000002 9.33982632 -1.0583028 -0.151289 0.657255 0.135902
18680 -2.11630149 10.91080953 -0.4309533 -0.260917 0.596331 0.015572999999999997
18700 -1.64792304 11.821363920000001 -0.14983794 -0.419846 0.5725140000000001 -0.017553
18720 -1.5795179099999999 11.558809080000001 0.17588349 -0.5343399999999999 0.482425 -0.033193
18740 -1.08464265 10.35412146 -0.567018 -0.549133 0.480483 -0.067477
18760 -0.8677435499999999 9.23190651 -0.96280245 -0.5378890000000001 0.565837 -0.110236
18780 -0.54785907 8.73389205 -0.62824221 -0.498094 0.59251 -0.154858
18800 -0.9629496000000001 8.65664811 -0.01377324 -0.39311 0.665737 -0.176651
18820 -1.34719749 8.14097565 -0.30446316 -0.378236 0.653958 -0.174396
18840 -1.16502579 7.6374185400000005 -0.26869590000000004 -0.406216 0.560581 0.024218
18860 -0.905463 7.7651055 -0.15178032 -0.238141 0.5277270000000001 0.102346
18880 -0.5246584200000001 8.51848407 -0.49951539 -0.139016 0.66618 0.024881
18900 -0.11601306 9.30809097 -0.36853227000000005 -0.016452 0.5266489999999999 -0.086248
18920 0.07095573000000001 9.15990111 -0.10762551000000001 0.092349 0.433944 -0.174031
18940 -0.37092590999999997 8.64033408 -0.85757058 0.286599 0.306017 -0.318857
18960 -0.43829118000000006 8.29859292 -0.59949891 0.391706 0.116334 -0.393723
18980 -0.24548544000000003 8.338411709999999 -0.56507562 0.472169 -0.009698 -0.381249
19000 0.5953100400000001 8.84465676 -0.67764537 0.748103 -0.147874 -0.431488
19020 0.94783239 9.616154400000001 -0.77733459 1.222499 -0.1924 -0.630011
19040 0.74769858 9.38937663 -1.09152927 1.441469 -0.081524 -0.575212
19060 0.7369173900000001 8.8350822 -1.22265954 1.687531 0.4719600000000001 -0.40756
19080 0.9178922700000001 8.27749161 -0.98689581 1.7182419999999998 0.651911 -0.413986
19100 0.76356135 8.379878580000002 -0.6647648400000001 1.53531 0.565103 -0.391651
19120 0.36913068000000004 9.46152918 -0.8415508500000001 1.325857 0.158209 -0.486597
19140 0.0076321800000000006 10.065364109999999 -0.7581756600000001 1.254769 -0.081933 -0.577584
19160 -0.13981212 10.11850488 -0.5697157500000001 1.244584 0.007659 -0.5959300000000001
19180 0.10747836000000001 10.07284914 -0.32796792 1.1534719999999998 0.142233 -0.604216
19200 -0.9017253900000001 10.70229798 -0.1300806 1.00611 0.153238 -0.564667
19220 0.9349518600000001 12.37146948 0.47660904000000004 0.8709620000000001 0.06394 -0.493926
19240 0.42466509 14.756162760000002 0.09729558 0.724917 0.12397 -0.46084
19260 -0.13666311 15.294594420000001 0.1562733 0.618847 0.057095000000000014 -0.42838
19280 -0.98210853 14.69853882 0.14639463000000003 0.328181 -0.038868 -0.420674
19300 -0.23964849 14.97695643 0.96594165 0.125652 -0.186436 -0.371693
19320 0.1357704 12.60393705 1.217421 0.174872 0.010867 -0.204959
19340 0.0059841 10.87158915 1.9902626100000003 0.068629 0.032964 -0.044428
19360 -0.8583161400000001 9.365273460000001 1.93068648 -0.045125 0.017912 0.088324
19380 -2.11135725 8.25009228 1.10635218 -0.354306 -0.034823 0.224033
19400 -2.98045458 9.03281256 0.1935513 -0.612846 -0.033179 0.30341
19420 -2.7303192000000003 13.35148848 -0.26180928000000003 -0.689607 0.022308 0.346599
19440 -0.4656807 12.09439584 0.018707670000000003 0.036446 0.067088 0.506506
19460 -0.57854475 9.60986619 -0.64201545 0.982734 -0.27575700000000003 0.175997
19480 -0.75578202 9.73874997 -0.23995260000000002 0.186517 -0.35932600000000003 -0.079422
19500 -0.9448305300000001 9.71359713 -0.15103476000000002 -0.36918 0.201888 0.447952
19520 -1.14002991 9.14373423 -1.0629429300000002 -0.333033 -0.395587 0.114617
19540 -1.14766209 9.28744092 -1.6392411900000001 -0.444126 -0.347578 0.192828
19560 -1.3859666099999999 8.951987970000001 -1.9374259500000002 -0.630488 -0.385773 0.315489
19580 -1.3680045 8.305930799999999 -1.53116442 -0.948543 -0.408119 0.318637
19600 -0.9635480100000001 7.4106407700000005 -1.63325709 -1.045786 -0.505532 0.25505700000000003
19620 -0.77478399 6.73195554 -1.36037232 -0.983234 -0.597348 0.251339
19640 -1.23672708 5.795502750000001 -1.5467328900000001 -0.945472 -0.4920640000000001 0.263218
19660 -1.7592959700000002 6.01554105 -1.94790303 -0.8764639999999999 -0.302797 0.291232
19680 -2.27616525 6.581666340000001 -2.4807920400000003 -0.7975 0.011951 0.366155
19700 -2.0749817700000004 5.975575110000001 -2.1484782900000003 -0.77861 0.283113 0.470626
19720 -1.82919222 5.09061501 -2.41927353 -0.8638370000000001 0.154186 0.55138
19740 -1.85898519 6.230939220000001 -3.6037525500000003 -0.843399 0.249755 0.610153
19760 -1.50916059 6.9624709199999995 -3.4706799 -0.760552 0.118633 0.561761
19780 -0.8110123200000001 6.92040564 -4.352795100000002 -0.833259 -0.145337 0.570138
19800 -0.23096664 8.208625410000002 -5.394479760000001 -0.876768 -0.33478800000000003 0.565803
19820 -0.46553355 9.992318850000002 -6.18124176 -0.776037 -0.308217 0.493834
19840 -0.83361456 11.5363638 -6.54858702 -0.70514 -0.234824 0.460052
19860 -4.93044714 16.10381151 -3.8814246000000003 -0.653111 -0.080429 0.432444
19880 -1.78039728 13.504916880000001 -3.84325389 -0.714989 -0.16191 0.34986300000000004
19900 -1.01085183 10.959006060000002 -4.6270238400000006 -0.622213 -0.054157 0.229664
19920 -3.6217146600000003 10.613831399999999 -3.3108161400000005 -0.47187 0.114894 0.181359
19940 -2.5219548000000005 11.35119024 -1.9128715200000002 -0.522758 0.146128 0.140371
19960 -2.71819404 11.06543475 -1.90493523 -0.480383 0.220934 0.044431
19980 -1.4575207500000003 10.61292888 -1.36366848 -0.293258 0.436994 -0.069906
20000 -0.7095278700000001 9.976456080000002 -1.3349251800000002 -0.071622 0.593958 -0.087787
20020 -0.74769858 9.51570981 -1.26322389 -0.02065 0.7324510000000001 -0.133542
20040 -0.84289482 9.53801775 -0.54307179 -0.177081 0.795952 -0.160354
20060 -0.97282827 9.225912600000001 -0.69859953 -0.248601 0.660466 -0.049585
20080 -0.98390376 9.02249244 -0.90306936 -0.193338 0.36205 -0.062703
20100 -1.8208144800000001 9.16439409 -1.61948385 -0.237916 0.354984 -0.121758
20120 -1.24226973 9.19507977 -1.5073653599999999 -0.082682 0.519269 -0.314232
20140 -0.33724818 8.98686252 -1.26547038 0.161683 0.480266 -0.362682
20160 -0.05463189 8.783432549999999 -0.9336078900000001 0.326548 0.377389 -0.352852
20180 0.6481565100000001 8.649310230000001 0.053739180000000004 0.597859 0.16888599999999998 -0.394487
20200 0.5975565300000001 8.597376090000001 -0.01272357 1.1433950000000002 0.153516 -0.486797
20220 0.09430353000000001 8.63045541 -0.23665644 1.675515 -0.005591 -0.586494
20240 0.39981636000000004 8.375385600000001 0.37871505 1.979978 0.334291 -0.332702
20260 -0.18755739000000002 8.097262290000002 0.71641449 1.942981 0.786605 -0.193603
20280 -0.39443067000000004 7.960746330000001 0.64111293 1.7845650000000002 0.8937459999999999 -0.209802
20300 -0.3700332 8.26341426 0.36240102 1.350587 0.328054 -0.358455
20320 -0.018707670000000003 8.42912478 0.8110123200000001 1.222765 -0.24722600000000006 -0.506025
20340 -0.15806852999999998 8.20474065 0.9228267 1.2423959999999998 -0.14718 -0.500675
20360 -0.18202455 9.05856381 -0.06990606 1.376276 -0.033654 -0.5020220000000001
20380 -0.40311252 10.813366799999999 -1.11293469 1.405942 -0.061528 -0.483619
20400 -0.47900268000000007 11.23039971 -1.58624757 1.299543 -0.041801 -0.529253
20420 0.09056592000000001 11.23848315 -1.9154123100000002 1.137766 -0.224336 -0.562196
20440 -0.7587740700000001 11.968513920000001 -1.5070612500000002 0.994337 -0.240169 -0.474515
20460 3.12010974 13.99993929 1.87829127 0.849999 -0.207051 -0.373016
20480 0.69859953 15.08308101 1.656909 0.651939 -0.376736 -0.391274
20500 -1.43012142 14.25725559 1.48161411 0.5452100000000001 -0.447488 -0.453885
20520 -2.8487259 13.61643696 1.96885719 0.49237 -0.124309 -0.242093
20540 -1.7588447100000002 11.869717410000002 2.77178607 0.129172 -0.070405 -0.08767
20560 -1.55347236 9.966724560000001 2.48842422 -0.35129 -0.009643 0.052038
20580 -1.93322727 9.15765462 1.6271160300000003 -0.467178 -0.086225 0.122897
20600 -1.7943176699999999 9.993819779999999 0.8768766600000001 -0.421285 -0.248595 0.194997
20620 -1.57936095 12.906457829999999 -0.7328756700000001 -0.326438 -0.449439 0.255737
20640 -0.3101529600000001 11.909389050000001 -1.4563239300000002 -0.218447 -0.5364979999999999 0.35488000000000003
20660 -0.00074556 9.804015900000001 -1.3364163 0.434144 -0.045814 0.689958
20680 -0.54890874 10.414296000000002 -0.5827336200000001 0.816901 -0.147215 0.408614
20700 -0.9204330600000001 9.804015900000001 -0.58617693 -0.27123200000000003 -0.306747 0.221757
20720 -0.72239859 8.61039396 -1.22998761 -0.766534 -0.080332 0.5064270000000001
20740 -0.39847239000000007 8.280326700000002 -1.66019535 -0.583288 -0.271118 0.373355
20760 -0.63498168 9.16124508 -2.17767285 -0.760212 -0.366786 0.474792
20780 -1.17925029 9.17697051 -1.9473046200000002 -0.93745 -0.475574 0.394645
20800 -1.79132562 7.3404306 -1.80555012 -1.11155 -0.605649 0.307069
20820 -1.5021268200000002 6.545889270000001 -1.1422764000000003 -1.083572 -0.598106 0.261321
20840 -1.16442738 6.29261469 -1.4153083200000003 -0.923617 -0.426957 0.213081
20860 -1.30947804 6.73569315 -2.09429766 -0.8506459999999999 -0.033311 0.276111
20880 -2.13366519 7.206465240000001 -2.2397897700000002 -0.850668 0.35488800000000004 0.4326430000000001
20900 -2.76549786 7.1263764 -2.37615858 -0.928355 0.323612 0.5955779999999999
20920 -2.4691181400000004 5.53084857 -1.88173458 -1.033607 0.213011 0.63985
20940 -2.4719630400000003 6.048620370000001 -3.18253077 -1.102687 0.030045 0.634261
20960 -1.7265109500000002 6.48361539 -3.6188697600000004 -1.104655 -0.17977 0.6249020000000001
20980 -1.23538311 6.98597568 -4.7485795500000005 -1.036764 -0.26205100000000003 0.629754
21000 -0.72988362 8.00101638 -5.27054022 -0.977254 -0.269895 0.675045
21020 -0.55235205 8.37299196 -5.74145946 -0.9521 -0.365876 0.679617
21040 -0.39084021 8.677455120000001 -6.054457320000001 -0.8342370000000001 -0.355224 0.5778770000000001
21060 -0.53573391 9.949508009999999 -3.9282771600000004 -0.709465 -0.222128 0.4856430000000001
21080 -3.8254487400000006 15.11002908 -4.47958935 -0.63583 -0.018763 0.447441
21100 -5.42606796 17.36404335 -3.59956368 -0.637595 -0.026915 0.35664
21120 -1.8024011100000001 11.42245008 -5.10348573 -0.61411 -0.137329 0.242646
21140 -3.4983735300000003 9.26842914 -3.74386878 -0.475899 -0.08424 0.166631
21160 -2.89648098 9.97136469 -1.53071316 -0.332283 -0.013068 0.092767
21180 -1.6420860900000003 10.88536239 -0.8559225 -0.271419 -0.060979 0.033434
21200 -0.7156591200000001 11.16528093 -0.25626663 -0.191963 0.009223 -0.00883
21220 -1.44479718 9.98798283 -0.35236539 -0.101503 0.09454 -0.110857
21240 -2.19309417 8.80409241 -0.90322632 -0.058721 0.229125 -0.237849
21260 -2.17363113 8.118069299999998 -1.06398279 -0.03788 0.335662 -0.25813600000000003
21280 -1.8312915600000002 8.507261430000002 -0.96429357 -0.14214000000000002 0.090353 -0.094044
21300 -1.78563582 8.7545421 -1.03419963 0.062247 0.34472 -0.212583
21320 -1.38686913 8.73239112 -1.2754962 0.04153 0.695368 -0.237746
21340 -0.51013962 8.08528428 -1.2219041700000002 -0.006091 0.735138 -0.285132
21360 -0.18965673000000005 7.9040151000000005 -1.1349385200000002 0.137864 0.598762 -0.40466
21380 0.40385808000000006 8.11926612 -0.7771874400000001 0.331258 0.602591 -0.464203
21400 0.8243343 8.57506815 -0.47077209 0.614488 0.393149 -0.5474140000000001
21420 0.7532314200000001 8.374188779999999 -0.4564004400000001 0.973766 0.24630900000000006 -0.634447
21440 -0.16854561000000004 8.30098656 -0.6027950700000001 1.468035 0.318069 -0.626814
21460 -0.3962259 8.63883315 -0.7481400300000001 1.910253 0.521776 -0.53746
21480 -0.14025357000000002 9.03056607 -0.50759883 2.09576 0.8328399999999999 -0.432945
21500 0.04491018000000001 9.11304855 -0.21510387 1.957911 1.08235 -0.372271
21520 0.34114275 8.634791430000002 -0.15418377 1.30725 0.6096239999999999 -0.405052
21540 0.7054861499999999 8.702451 -0.42361542 1.056989 0.225975 -0.416991
21560 0.8608569300000001 9.52304769 -0.6394746600000001 1.151549 0.245345 -0.547746
21580 0.95142285 9.64145439 -0.6273495000000001 1.318639 0.127687 -0.573134
21600 0.88630407 9.865985669999999 -0.69905079 1.326437 0.222385 -0.551836
21620 1.13838183 10.18826379 -0.67030749 1.205069 0.311099 -0.5207510000000001
21640 1.0340524800000002 10.2381084 -0.80651934 1.040547 0.368767 -0.414084
21660 -0.10568313 10.86874425 -0.9963232200000001 0.8290569999999999 0.207057 -0.283962
21680 0.384552 12.34692486 0.7355734200000001 0.696054 -0.12722 -0.223575
21700 0.5793001200000001 14.54974074 1.68714342 0.462491 -0.295985 -0.174783
21720 -1.41635799 15.01661826 1.1274534900000002 0.468185 -0.146082 -0.104433
21740 -1.5563172600000001 15.14939661 2.05522443 0.205368 -0.217642 -0.096563
21760 -1.7298071099999999 14.66724492 2.3596974 -0.016812999999999998 -0.263793 -0.08416900000000001
21780 -1.4063223599999999 13.145664870000001 2.88704376 -0.313321 -0.316688 0.08047
21800 -1.87170876 11.45148768 2.33110125 -0.52017 -0.348638 0.25746
21820 -2.38678281 10.39932594 1.16921466 -0.468584 -0.402485 0.358302
21840 -2.6834666400000002 10.90347165 -0.08532738000000001 -0.26426700000000003 -0.63273 0.483938
21860 -2.0938464 10.61742186 -1.24136721 0.339731 -0.253804 0.83698
21880 -1.0666805400000001 9.7929306 -2.00403585 0.843928 -0.174361 0.779511
21900 -0.35071731 10.9260837 -1.4063223599999999 -0.355451 -0.6021989999999999 0.387122
21920 -0.44666892 10.97158248 -0.36389214000000003 -1.111866 -0.480731 0.50346
21940 -0.78841008 8.306676359999999 -0.07380063 -0.8690559999999999 -0.429026 0.4164270000000001
21960 -0.61297785 6.79811418 -0.88450884 -0.5926710000000001 -0.540277 0.29245
21980 -1.57652586 8.62326468 -1.95553521 -0.765568 -0.243819 0.36457
22000 -2.1516273 9.12053358 -2.1257289 -1.011342 -0.106553 0.349858
22020 -2.27841174 8.13453048 -1.79761383 -1.163069 -0.016153999999999998 0.252543
22040 -1.9922049900000003 7.011265860000001 -2.0704986 -1.069034 0.18195 0.180307
22060 -1.45572552 7.24463595 -2.0787291900000002 -1.010537 0.359725 0.161259
22080 -1.01518785 7.0477983 -2.1049218900000004 -0.935372 0.51374 0.208589
22100 -0.9861502500000001 6.05117097 -1.8851778900000002 -0.97278 0.605057 0.315033
22120 -1.4687433900000002 6.609507120000001 -2.08336932 -1.101642 0.478499 0.374115
22140 -2.06421039 5.405260950000001 -1.8492536700000002 -1.078101 0.280181 0.398035
22160 -2.8252211400000005 6.65440749 -2.96054028 -0.997022 0.067804 0.424511
22180 -2.8015692299999997 6.762484260000001 -4.34860623 -0.973707 -0.173156 0.455961
22200 -1.6980717600000002 7.4064518999999995 -4.76833689 -0.940423 -0.062739 0.520145
22220 -0.52480557 7.891438679999999 -5.37158322 -0.896739 -0.023686 0.572743
22240 -0.3094074 8.42582862 -6.55067655 -0.800434 -0.008912 0.524258
22260 -0.30790647 8.774897850000002 -7.22008152 -0.689842 0.073028 0.45015
22280 -0.29264211 9.25090848 -4.4248005 -0.575118 0.120881 0.371842
22300 -3.01293549 16.37010396 -4.47703875 -0.545143 0.294763 0.28530300000000003
22320 -4.283340300000001 17.38769526 -3.15678933 -0.500467 0.327272 0.109316
22340 -2.21689323 9.684863640000001 -3.83442489 -0.482759 0.390378 0.030311
22360 -3.1157737200000004 7.9822989 -2.42795538 -0.366073 0.50173 0.054484000000000005
22380 -3.08148777 8.374483080000001 -0.8165549700000001 -0.331958 0.452784 0.010988
22400 -1.49419053 9.36048618 0.74530494 -0.359222 0.5063529999999999 -0.041614
22420 -1.71003996 11.51719506 0.04939335000000001 -0.345794 0.748664 -0.176427
22440 -2.40310665 11.49474978 -0.61866765 -0.364355 0.83206 -0.23648400000000006
22460 -2.26224486 9.78141366 -0.6441147900000002 -0.359956 0.7802819999999999 -0.079358
22480 -2.10013461 8.83118763 -0.69754986 -0.424813 0.481721 0.04769
22500 -2.074089060000001 8.466098670000001 -0.6647648400000001 -0.14086500000000002 0.946436 0.004213000000000001
22520 -1.7408826 9.00661986 -0.9693849600000001 -0.076799 1.119096 -0.072473
22540 -0.7159632300000001 9.25974729 -1.18418472 -0.117241 0.674874 -0.302922
22560 0.00104967 8.87833449 -1.20049875 0.128085 0.461769 -0.50283
22580 0.6117810300000001 8.347093560000001 -0.8732862 0.472801 0.38534 -0.602873
22600 0.7288339500000001 8.14440915 -0.7244979300000001 0.764915 0.299255 -0.640247
22620 0.8176046400000001 8.2339254 -0.28934595 1.120152 0.329818 -0.599348
22640 0.56792052 8.08229223 -0.02769363 1.550157 0.188425 -0.511774
22660 -0.23665644 8.01178776 0.19623924 1.899359 0.616042 -0.392378
22680 -0.60578712 8.491388850000002 0.40640868 2.0669999999999997 1.149051 -0.364117
22700 -0.7695454500000001 8.35711938 0.87118686 1.79099 0.816292 -0.292979
22720 -0.5752584000000001 8.63538984 1.65450555 1.394388 0.613255 -0.323263
22740 -0.41449212 9.313927920000001 1.9908610200000003 1.111217 0.268063 -0.33334400000000003
22760 -0.18411408 9.69862707 1.2427111800000001 1.387275 0.16395 -0.377216
22780 0.23605803000000003 9.600134670000001 0.25506981 1.550898 0.17433900000000002 -0.452999
22800 0.0068866199999999995 9.12427119 -0.05209110000000001 1.289402 0.072232 -0.532675
22820 -0.30072555 9.333695070000001 -0.8502327000000002 1.06597 0.262415 -0.48
22840 -0.49951539 9.860747130000002 -1.2482538300000001 0.896552 0.191159 -0.362519
22860 -0.32931189000000005 10.76022603 -1.5563172600000001 0.6200600000000001 -0.05938 -0.33956
22880 -0.8672922900000001 12.2192379 -0.39053610000000005 0.563178 0.183378 -0.25908400000000004
22900 3.09990114 14.42625246 1.84356387 0.268173 0.138294 -0.184175
22920 0.13113027000000002 16.109354160000002 0.8451413100000001 -0.053849 0.003872 -0.122158
22940 -1.26846243 14.3651754 0.63587439 -0.306161 -0.07105299999999999 -0.081096
22960 -1.9547896500000002 14.416216830000002 2.15791551 -0.573821 -0.149474 0.048526
22980 -1.29376242 14.136151140000003 2.5036983900000003 -0.791285 -0.130412 0.2649
23000 -0.9714843000000001 12.075236910000001 1.9785887100000001 -0.866742 -0.080974 0.487568
23020 -1.6426844999999999 10.3479804 1.1870296200000001 -0.484199 -0.03922 0.636533
23040 -2.1891996000000002 9.88648857 0.9922913100000001 0.632566 0.015018 0.7564270000000001
23060 -3.0252078000000004 9.71839422 -0.63677691 1.009056 -0.172183 0.358714
23080 -2.17168875 9.56630979 -1.84611447 -0.347078 0.41162 0.726644
23100 -1.47937743 10.90243179 -1.47653253 -0.643456 0.11587 0.6181300000000001
23120 -0.90082287 11.946657240000002 -0.7288339500000001 -0.4526560000000001 -0.313591 0.22584
23140 0.45909819 9.88469334 -0.13097330999999998 -0.530971 -0.00294 0.39581
23160 0.56297628 7.66600488 -0.5620835700000001 -0.702091 -0.24781 0.242173
23180 -0.42451794000000004 8.33406588 -1.21247676 -1.084567 -0.085792 0.283091
23200 -1.45137969 9.346418640000001 -1.9826304300000002 -1.088139 0.052772 0.266865
23220 -2.6411070600000004 8.52941241 -1.89026928 -0.98715 0.16127 0.219361
23240 -2.58347331 7.272025470000001 -1.3108220099999999 -0.965983 0.396478 0.255527
23260 -1.86377247 7.67304846 -1.53685422 -0.956954 0.6016600000000001 0.35146700000000003
23280 -1.7227635300000004 7.6791797100000005 -1.8676670400000002 -0.960203 0.683326 0.444275
23300 -1.35573219 6.5349609300000004 -1.91017377 -0.923877 0.754333 0.504258
23320 -1.43700804 4.99196565 -1.5329596500000002 -0.842881 0.781559 0.551791
23340 -1.8657246600000001 5.38655328 -1.8323412300000002 -0.738537 0.567856 0.623296
23360 -1.8811361700000002 5.16366027 -2.03172948 -0.7400760000000001 0.288506 0.686669
23380 -1.82815236 4.8759624 -2.4051961800000003 -0.7776609999999999 0.306456 0.759022
23400 -1.4311710900000003 5.47381323 -3.1136743800000004 -0.74466 0.317947 0.7870119999999999
23420 -0.53379153 6.851402100000001 -4.04115102 -0.641069 0.269934 0.716226
23440 -0.26165232000000005 9.07263135 -5.3611061399999995 -0.5019359999999999 0.290001 0.639192
23460 0.27303192 10.9872981 -6.0101553600000015 -0.549177 0.393768 0.571431
23480 -4.37479893 17.98135722 -5.94293724 -0.552894 0.420798 0.47523
23500 -3.4548171300000003 15.78677193 -2.4996566700000002 -0.449799 0.48364 0.388276
23520 0.33545295 11.52003996 -4.12826382 -0.410812 0.5444979999999999 0.320104
23540 -3.09272022 11.1202236 -3.5670827700000003 -0.45995 0.462917 0.251499
23560 -3.5628939 10.711725390000002 -0.52226478 -0.444462 0.485636 0.15116500000000002
23580 -2.89602972 10.753790669999999 -0.94902921 -0.375953 0.414515 0.028889
23600 -2.18800278 10.57850559 -0.9918400500000001 -0.34686 0.357375 -0.092611
23620 -1.5688838700000003 9.62034327 -0.70608456 -0.369952 0.366282 -0.168628
23640 -1.6847497800000002 9.65133306 -1.09407006 -0.5168010000000001 0.358645 -0.262579
23660 -1.4449443300000002 9.93469491 -0.38874087000000007 -0.571242 0.463738 -0.389144
23680 -1.4555685600000001 9.58891203 -0.14789556 -0.534331 0.594681 -0.399736
23700 -1.73533995 9.22067406 -0.66686418 -0.539177 0.8412870000000001 -0.26121700000000003
23720 -1.49134563 9.00467748 -1.26755991 -0.6448510000000001 0.799276 -0.053599
23740 -0.74530494 8.56399266 -1.37548953 -0.540931 0.74742 0.036924
23760 -0.15971661 8.30473398 -0.9038247300000001 -0.474956 0.934726 0.025395
23780 0.39008484000000004 8.28677187 -0.7789826700000001 -0.360227 0.919985 -0.116927
23800 0.6466555799999999 8.608147470000002 -0.659232 -0.088642 0.6661020000000001 -0.265324
23820 0.28245933 8.948240550000001 -0.60773931 0.17158199999999998 0.661928 -0.246409
23840 -0.12589173 9.15451542 -0.24504399000000002 0.450459 0.753642 -0.246715
23860 -0.2956341600000001 8.16401934 -0.16645608 0.759763 0.850096 -0.127174
23880 -0.3962259 7.88365935 -0.35655426000000007 1.09728 1.101782 0.042572000000000006
23900 -0.18815580000000004 7.88110875 -0.008829 1.409384 1.258237 0.073394
23920 -0.07559586 8.15489604 0.06526593 1.390362 1.282869 0.057205999999999986
23940 0.4656807 8.04337596 0.15387966000000003 1.295493 1.249321 0.004243
23960 0.9563572800000001 7.93934091 0.6255444600000001 1.233282 1.238522 -0.17136600000000002
23980 1.4425506900000002 7.97212593 0.42391953000000004 1.083209 1.0833959999999998 -0.408292
24000 1.37294874 9.00752238 0.1935513 0.933982 0.915338 -0.608877
24020 1.39180356 9.646094520000002 -0.21495672000000002 0.777369 0.913955 -0.660175
24040 1.6986701700000002 9.67468086 -0.21570228000000002 0.761433 1.023354 -0.565355
24060 1.8269555400000002 9.983342700000001 0.13127742 0.937566 1.10877 -0.500141
24080 1.37384145 10.026300690000001 0.01796211 1.029892 1.186414 -0.549802
24100 0.6481565100000001 10.85333274 -1.00815408 0.8965 1.049981 -0.680882
24120 -0.66251835 12.216991410000002 -0.69545052 0.6451600000000001 0.8306709999999999 -0.763541
24140 1.08509391 13.47482961 0.05343507 0.545095 0.8821450000000001 -0.76217
24160 2.09354229 14.944475520000001 0.9532180800000001 0.479887 0.8567940000000001 -0.7593880000000001
24180 -1.6386427800000003 14.90705037 0.31299785999999996 0.318508 0.884691 -0.669752
24200 -0.44322561 14.443164900000001 1.51365357 0.097562 0.992531 -0.540042
24220 1.2669614999999999 12.919936770000001 2.89916892 -0.150746 0.9842 -0.372987
24240 0.5291514 12.06550539 3.77140545 -0.413239 0.87272 -0.239014
24260 -0.39996351 11.15150769 4.01480136 -0.668859 0.621694 -0.112291
24280 -1.6007663699999999 10.422977849999999 3.56154012 -0.947245 0.575088 0.062081
24300 -2.68810677 10.45620432 3.01802688 -1.212618 0.629421 0.290894
24320 -2.5333344 9.278454960000001 2.1903964200000003 -1.298252 0.5330239999999999 0.495518
24340 -2.32736364 9.37141452 1.8788896800000001 -1.009307 0.332498 0.574705
24360 -2.16195723 10.35591669 1.4871567600000002 -0.617322 -0.172232 0.448835
24380 -1.8731998800000003 10.639425690000001 1.26831528 -0.171798 -0.101067 0.381353
24400 -1.7371351800000001 9.299114820000002 0.8539703100000001 0.021256 -0.097541 0.397652
24420 -1.5648421500000003 9.4279986 0.5469663599999999 0.221718 0.269721 0.554542
24440 -1.6257720600000003 9.1103508 0.64560591 0.469213 0.8244799999999999 0.402804
24460 -1.54269117 8.65664811 0.7288339500000001 0.8016840000000001 1.30423 0.02102
24480 -1.2169697400000001 8.176301460000001 0.59276925 0.198637 0.6971890000000001 -0.296472
24500 -0.87298209 8.152943850000002 0.03577707 -0.666241 0.500101 -0.342853
24520 -0.92403333 8.11881486 0.09669717 -0.8518479999999999 0.199558 -0.414267
24540 -1.20230379 7.882609680000001 0.22438413000000001 -0.733822 0.056727 -0.229525
24560 -1.42159653 7.57544877 0.06571719 -0.509985 0.395175 -0.079912
24580 -1.1454156 7.1317718999999995 -0.35730963 -0.195841 0.939758 0.123478
24600 -1.2445162200000002 7.0063314299999995 -1.1085986700000001 -0.27462600000000004 1.525634 0.198021
24620 -1.0523088900000002 7.25825223 -1.50002748 -0.544725 1.6176620000000002 0.32847600000000005
24640 -1.01848401 6.943164840000001 -1.7780036399999999 -0.498123 1.802871 0.591346
24660 -1.47084273 6.86008395 -2.24667639 0.009375 2.099898 0.730175
24680 -1.33521948 6.436468530000001 -2.2778133300000003 0.206325 2.075384 0.5628029999999999
24700 -1.40751918 6.23737458 -2.5884175500000004 -0.095115 1.733211 0.346423
24720 -1.5135064200000001 6.2625274200000005 -2.8419864300000004 -0.489665 1.415506 0.219092
24740 -1.1066464800000002 6.565950720000001 -3.01263138 -0.6740550000000001 1.381296 0.143073
24760 -1.07146782 7.231166820000001 -3.7673637300000005 -0.598463 1.6693759999999995 0.229758
24780 -1.07686332 8.912620440000001 -4.31837181 -0.574465 1.854378 0.298054
24800 -0.74155752 10.787919660000002 -5.74969005 -0.596028 1.763006 0.25636
24820 1.43087679 11.15435259 -4.511020590000001 -0.5682560000000001 1.641984 0.12745399999999998
24840 1.2603789900000002 12.269082510000002 -2.75712012 -0.42849 1.834496 0.08225
24860 -2.3583436200000003 11.51675361 -1.619631 -0.238027 1.885259 0.009808
24880 -7.2631964700000005 13.420639170000001 -2.7167029200000004 -0.170949 1.7809259999999998 -0.06436499999999999
24900 -7.922575620000001 17.12334519 -0.98959356 -0.186598 1.866178 -0.058174
24920 -5.67110214 16.0107048 1.3807280700000002 -0.26659 1.840061 0.148536
24940 -3.2840250300000005 11.522443410000001 2.03636961 -0.31989 1.560399 0.334392
24960 -2.23440408 6.36341346 1.66363866 -0.220161 1.437539 0.33631500000000003
24980 -0.668061 5.67918558 0.92702538 -0.090049 1.554706 0.227046
25000 -0.12244842 5.84474895 2.08411488 0.057402 1.928707 0.07697799999999999
25020 -0.5348412000000001 7.16439996 2.5512965100000002 0.204334 2.126229 0.104457
25040 -0.6963530400000001 9.51391458 3.03134886 0.419764 1.973903 0.447988
25060 -2.9117453400000004 12.53627748 2.4848337600000003 0.652046 1.814847 0.595092
25080 -3.0298479300000007 11.15734464 1.38686913 1.090171 1.852038 0.239182
25100 -1.69372593 10.775039130000001 -0.55744344 1.082134 1.879879 -0.321726
25120 -0.9279180900000001 9.53996013 -0.4568517 0.895692 1.544424 -0.718909
25140 -0.73347408 9.39102471 0.63123426 0.8932030000000001 1.344647 -0.840448
25160 -0.37227969 9.1359549 1.18358631 1.02037 2.022154 -0.682331
25180 -0.60773931 9.17217342 1.1741589000000001 1.009239 2.485329 -0.351853
25200 -0.6882696 9.324405 0.69245847 0.8001729999999999 2.052362 -0.320712
25220 -0.56821482 9.64145439 0.11824974 0.8109 1.439334 -0.472607
25240 -0.38709279 8.97623829 -0.21959685 0.8424360000000001 1.277532 -0.529864
25260 -0.07933347 8.665035660000001 -0.6854247 0.74315 1.2555379999999998 -0.5380060000000001
25280 0.41598324 9.37485783 -0.48304440000000004 0.5644520000000001 1.119879 -0.557241
25300 0.22168638000000002 9.922118489999999 -0.80532252 0.421708 1.189536 -0.536963
25320 -0.3586536 9.54594423 -0.86056263 0.310961 1.297268 -0.475917
25340 -0.1041822 9.06215427 -0.9249260400000001 0.161485 1.343311 -0.405449
25360 2.5942545000000004 9.111106170000001 0.004492980000000001 -0.055189 1.367321 -0.36106
25380 2.95994187 10.34828451 0.30775932000000006 -0.302204 1.310381 -0.29327800000000004
25400 1.5375997800000003 10.880271 0.004640130000000001 -0.530592 1.180714 -0.169725
25420 -0.20567646 10.49063742 -0.48483963 -0.708875 1.048716 -0.03941
25440 -1.69267626 9.821821049999999 -0.84528846 -0.8168270000000001 0.87502 0.067949
25460 -2.6035347600000005 11.205698130000002 -0.6285463200000001 -0.848748 0.759667 0.171491
25480 -2.4224127300000005 13.479921000000001 1.05754743 -0.744404 0.554451 0.251531
25500 -2.0847132900000003 15.334864470000001 3.2711445000000006 -0.668956 0.155092 0.15643
25520 -1.37414556 13.461203520000002 3.32503083 -0.305514 0.093978 -0.059938
25540 -1.37159496 11.30942907 3.97737621 -0.056541 -0.31056500000000004 -0.074773
25560 -2.3287076100000004 8.09591832 3.2328266400000003 -0.107587 -0.221117 -0.021833
25580 -3.62905254 7.36737867 1.11817323 0.004282 -0.07002799999999999 -0.073588
25600 -4.93613694 8.65170387 -0.9768699900000001 0.385722 0.062834 -0.06361599999999999
25620 -2.9556058500000004 9.93005478 -1.16997003 0.529501 0.589102 -0.193609
25640 -1.01444229 11.002719420000002 -0.84244356 -0.199128 0.880058 -0.394556
25660 -0.40400523 11.67228135 -0.06182262000000001 -0.8692129999999999 0.387044 -0.398605
25680 0.8352626400000002 11.388164130000002 -1.22086431 -0.83934 -0.34896 -0.183809
25700 1.11338595 9.41078205 -1.75435173 -0.43113 -0.109894 0.149885
25720 -0.39592179 7.64879814 -1.43611533 -0.413114 1.1733129999999998 0.51263
25740 -1.37070225 7.093601189999999 -1.54209276 -0.7483989999999999 1.731986 0.419842
25760 -1.52982045 7.2233776800000005 -1.65166065 -0.829095 1.305137 0.142087
25780 -1.58310837 7.48323477 -1.81378071 -0.381398 1.216335 0.382474
25800 -1.79910495 7.71421122 -2.13096744 0.241323 1.803568 0.575146
25820 -2.1194406900000002 7.742052 -2.85935013 0.150731 1.851711 0.602225
25840 -1.9706524200000002 7.49506563 -3.15438588 -0.471187 1.306681 0.5109859999999999
25860 -1.0916764200000002 7.27023024 -3.1380718499999998 -0.926272 0.7900739999999999 0.35998600000000003
25880 -0.06541308000000001 7.31753406 -3.33940248 -0.905302 0.8564069999999999 0.27031700000000003
25900 0.55235205 7.5579379200000005 -3.63818565 -0.7201810000000001 1.458795 0.515461
25920 0.8095212000000002 8.36954865 -3.2989852800000006 -0.677435 1.5542 0.595754
25940 0.39756987000000005 9.409732380000001 -3.5967187800000002 -0.6735359999999999 1.435025 0.558546
25960 0.18860706000000002 10.633588740000002 -4.794382440000001 -0.523807 1.422099 0.464537
25980 0.4980144600000001 12.34602234 -3.70404999 -0.378723 1.309117 0.3546
26000 -1.33447392 13.44159333 -3.9457978200000006 -0.238285 1.098201 0.230869
26020 -3.1043941200000003 11.844868680000003 -5.15004399 -0.126135 1.059728 0.164404
26040 -3.79041723 11.128307040000001 -4.633763310000001 -0.032657 1.1204690000000002 0.078453
26060 -3.3156034200000004 10.184673329999999 -3.0557463300000003 -0.022369 1.182583 -0.012354
26080 -5.12998254 13.28277924 -0.40086603 -0.040888 1.261774 -0.086292
26100 -6.32315322 15.008240520000001 2.34996588 -0.001258 1.447341 -0.172779
26120 -4.55368428 10.00085355 2.99227563 0.006193 1.570267 -0.28398
26140 -1.01099898 6.69752244 1.42308765 0.181429 1.346134 -0.32947
26160 0.33246090000000006 5.24284659 1.28597328 0.247695 0.949412 -0.277224
26180 0.34293798000000003 6.596930700000001 4.13081442 0.323112 0.876705 -0.275536
26200 -2.18530503 9.723927060000001 4.71564738 0.412673 0.917613 -0.459765
26220 -3.57890382 11.611057140000002 1.29495924 0.575905 0.916935 -0.697906
26240 -2.0209482900000006 13.12201296 -0.5074418700000001 0.712504 0.519788 -0.86629
26260 -1.2705617700000003 12.604535460000001 -1.0517104800000001 0.968394 -0.086862 -0.960934
26280 -1.38911562 10.328674320000001 0.93630564 1.359743 -0.306856 -0.8970290000000001
26300 -1.05515379 8.552465910000002 2.6045844300000005 1.563542 0.450857 -0.616703
26320 -0.68063742 8.02302021 1.5117111900000002 1.541866 0.747603 -0.48157
26340 -0.10403505 9.014409 0.5987533500000001 1.629018 0.697136 -0.457396
26360 0.97043463 10.308760020000001 0.04415481 1.631181 0.6897270000000001 -0.471258
26380 0.13636880999999998 9.949812120000002 -0.17603064 1.412923 0.486225 -0.53982
26400 0.40251411 9.43652349 -0.10896948000000001 1.351819 0.379016 -0.582838
26420 1.0057604400000002 9.664056630000001 -0.23381154 1.348942 0.199054 -0.597583
26440 1.42817904 9.796079610000001 0.00045126000000000004 1.257943 0.107843 -0.619466
26460 1.2494506500000002 9.43263873 -0.35625996000000004 1.165905 0.091993 -0.5720189999999999
26480 1.20634551 9.24776928 -0.448317 1.00753 0.083631 -0.474838
26500 0.66461769 9.46406997 -0.45909819 0.942173 0.172735 -0.323721
26520 -0.054190440000000006 9.73560096 -0.4801995 0.769181 -0.036773 -0.26163600000000004
26540 -0.44068482 10.04890293 -0.41493357000000003 0.516333 -0.243739 -0.233226
26560 -0.79110783 10.58059512 -0.30027429 0.288655 -0.32821300000000003 -0.222958
26580 -0.6761444400000001 12.306507660000001 -0.51432849 0.08462 -0.319247 -0.157097
26600 -0.39263544 14.70033405 -0.44921952000000004 -0.230008 -0.203473 -0.065439
26620 2.42495352 16.588052730000005 1.8390708900000001 -0.510746 -0.181409 -0.011881
26640 0.30880899 16.2970587 0.9457330500000001 -0.632795 -0.17393599999999998 0.089806
26660 -1.56813831 14.62294296 0.51298452 -0.687766 -0.175306 0.213338
26680 -1.13673375 12.28495509 1.2621742200000001 -0.497934 -0.297937 0.346212
26700 -0.5269049100000001 10.178237970000001 1.6994157300000001 0.049462 -0.134248 0.495104
26720 -1.0756665 9.052128450000001 1.84416228 0.67771 0.019404 0.686235
26740 -1.99774764 9.33144858 1.25229555 0.287675 -0.222875 0.34092100000000003
26760 -1.8958119300000003 10.453065120000002 -0.6885639 -0.756071 -0.066759 0.566303
26780 -1.40392872 10.48808682 -1.1373321599999997 -0.925916 -0.499136 0.41612
26800 -1.5123096 11.31018444 -1.1418251400000001 -0.7182609999999999 -0.7198319999999999 0.282189
26820 -0.65683836 11.25090261 -0.90711108 -0.644103 -0.781034 0.338333
26840 -0.35102142000000003 9.9138879 -0.90875916 -0.915724 -1.020441 0.237398
26860 -0.49966254000000004 8.50935096 -1.1937690900000002 -1.1143040000000002 -0.958337 0.329935
26880 -1.25693568 8.44738119 -2.0869597800000004 -1.1354229999999998 -0.628206 0.374229
26900 -2.01690657 8.74241694 -2.00298618 -1.133556 -0.421663 0.40282
26920 -1.99145943 7.624842120000001 -2.1112101 -1.056246 -0.035394 0.442389
26940 -1.5322140900000003 7.44776181 -2.2409865900000003 -1.040701 0.197454 0.540475
26960 -1.1454156 7.11066078 -1.9263406500000002 -1.101618 0.243196 0.609426
26980 -1.04707035 5.71871007 -1.5658918200000003 -1.17409 0.050522 0.63694
27000 -1.5242778 5.48040555 -1.6462749600000002 -1.207639 -0.292381 0.637145
27020 -2.01765213 6.033051899999999 -1.5338621700000001 -1.090567 -0.34291 0.650846
27040 -2.3156799300000004 5.73277761 -1.7178290999999999 -1.022957 -0.24624 0.659741
27060 -2.57165226 5.949078300000001 -2.59275357 -0.8988889999999999 -0.21987 0.617845
27080 -2.4676172100000002 6.18588189 -2.77477812 -0.804818 -0.269899 0.526699
27100 -1.8269555400000002 6.366415320000001 -3.3700881600000003 -0.777648 -0.195279 0.490473
27120 -0.83691072 7.3112458500000015 -4.75262127 -0.715831 -0.02908 0.433008
27140 -0.30311919 8.81770869 -5.67320148 -0.656492 0.023292 0.33828400000000003
27160 -0.29967588 9.871822620000001 -5.676193530000001 -0.529586 0.143649 0.233262
27180 -0.7845155100000001 11.027421000000002 -4.4878199400000005 -0.502826 0.244321 0.076291
27200 -3.7326363300000005 15.954719129999999 -5.174441460000001 -0.341679 0.360403 -0.055191
27220 -4.64559417 17.25761466 -3.6471618 -0.17182999999999998 0.5339 -0.166391
27240 0.08547453 11.677814190000001 -4.784346810000001 -0.154133 0.553496 -0.287001
27260 -2.153569680000001 8.49573468 -2.1787225200000004 -0.230143 0.6182479999999999 -0.163701
27280 -1.8299475900000002 9.233996040000001 -1.0686229200000001 -0.140103 0.446539 -0.191694
27300 -1.6512192 10.69675533 -0.7620604200000001 -0.012721 0.380799 -0.11274
27320 -2.3462184600000002 10.84749579 -0.41493357000000003 0.191286 0.510692 -0.271715
27340 -2.34801369 10.00504242 -1.10619522 0.470044 0.403891 -0.444819
27360 -2.44635894 9.09149598 -1.44015705 0.801129 0.09441 -0.5937979999999999
27380 -1.97948142 8.62746336 -0.6786852300000001 1.336569 0.056354 -0.5985550000000001
27400 -1.33806438 8.22494925 -0.57151098 1.77217 0.235488 -0.485715
27420 -1.43087679 8.23213017 -1.1115907199999997 1.942266 0.44751 -0.374771
27440 -1.19331783 7.998171480000001 -0.92238525 1.938814 0.6530229999999999 -0.35049
27460 -0.7188081300000001 7.79429025 -0.68721993 1.611076 0.459816 -0.5010140000000001
27480 -0.33081282000000006 7.96837851 -0.58947309 1.262807 0.039503 -0.583025
27500 0.5956141500000001 8.6068035 0.06675705 1.110629 0.07432899999999999 -0.6354069999999999
27520 0.73885977 8.93881314 0.68781834 1.265818 0.093325 -0.725146
27540 -0.07155414 7.900571790000001 0.5170262400000001 1.4369379999999998 0.138727 -0.772079
27560 -0.6116240700000001 7.97122341 0.60130395 1.429484 0.203487 -0.7102569999999999
27580 -0.4263131700000001 8.20698714 0.23321313 1.28078 0.427403 -0.633603
27600 -0.0011968200000000001 8.87519529 0.12288987000000001 1.150388 0.454174 -0.555499
27620 0.36508896 9.62409069 0.21285737999999998 0.936105 0.355437 -0.453252
27640 0.3013239600000001 10.06327458 -0.29952873 0.6468010000000001 0.176022 -0.356767
27660 0.24100227 10.670415479999999 -0.6649218 0.344795 0.012656 -0.2668
27680 0.20851155000000002 11.768076 -0.99976653 0.157572 -0.047633 -0.212483
27700 0.0025407900000000002 12.35470419 -1.5380510399999998 -0.140754 -0.178754 -0.197307
27720 -0.38319822000000003 12.91828869 -1.1523022199999997 -0.568978 -0.198845 -0.12977
27740 0.6125265900000001 13.486356360000002 1.13015124 -0.797665 -0.13047899999999998 0.021301
27760 0.72658746 14.140496970000001 2.2040127000000003 -0.782717 -0.130412 0.257482
27780 -1.2338821800000002 14.530728960000001 2.7485854200000004 -0.295139 -0.339944 0.28572600000000004
27800 -2.32780509 12.21789393 2.8587517200000003 0.8545459999999999 -0.25200500000000003 0.474173
27820 -2.66041314 10.960506989999999 3.3828117300000002 1.041011 -0.048311 0.256229
27840 -2.64335355 10.26819567 2.16464517 -0.383286 0.107187 0.167033
27860 -2.68781247 10.782828270000001 1.0469232 -0.957052 -0.190669 0.292661
27880 -2.29143942 11.917619640000002 0.6634208699999999 -0.8346549999999999 -0.26562800000000003 0.28399800000000003
27900 -1.8791937900000002 10.694057579999999 -0.21974400000000002 -0.648937 -0.382803 0.387995
27920 -1.43401599 10.72923624 -0.04850064 -0.77298 -0.453714 0.379742
27940 -1.89086769 11.61809091 0.1300806 -0.954915 -0.345472 0.375128
27960 -1.5157431 9.90834525 0.01542132 -0.97796 -0.193287 0.4324560000000001
27980 -1.0584499500000002 8.4735837 -0.23052519000000005 -0.919438 0.05984 0.483815
28000 -1.63489536 8.708886360000001 -1.09257894 -0.769807 0.415947 0.5442239999999999
28020 -1.87395525 9.06005493 -1.50856218 -0.737216 0.605213 0.6040300000000001
28040 -1.85764122 8.2569789 -1.66363866 -0.803678 0.5637840000000001 0.6324609999999999
28060 -1.6570561500000003 6.781348889999999 -1.09931841 -0.881024 0.472333 0.6587430000000001
28080 -1.84176864 5.80701969 -1.12790475 -0.940809 0.242377 0.674643
28100 -1.9513463400000002 5.964793920000001 -1.32115194 -0.973922 0.016572 0.694998
28120 -1.7944648200000002 5.98650345 -1.7173778400000002 -0.884325 -0.027259 0.656155
28140 -1.5905934000000002 6.13110285 -2.15985789 -0.71263 0.117327 0.5802579999999999
28160 -1.9249966800000002 5.86376073 -2.6954446499999998 -0.6779390000000001 0.178175 0.518465
28180 -2.16000504 6.0496700400000005 -3.2287849200000007 -0.695524 0.242389 0.459508
28200 -1.9097323200000003 6.821913240000001 -3.37053942 -0.5625819999999999 0.309349 0.38237
28220 -1.27040481 6.71338521 -3.5088506100000005 -0.446579 0.441205 0.341351
28240 -0.48498678000000006 8.696614049999999 -4.89871179 -0.426088 0.429659 0.28062
28260 -1.10635218 9.8652303 -6.74332533 -0.40097 0.458736 0.180346
28280 -1.8675198900000003 12.076884990000002 -6.1370869500000005 -0.390793 0.469824 0.062898
28300 -5.4765109800000005 15.290699850000001 -4.72582035 -0.359236 0.482998 -0.06188
28320 -5.20542144 16.11787905 -1.38207204 -0.22801 0.6012649999999999 -0.180756
28340 -2.78974818 11.05690986 -3.70450125 -0.246774 0.475571 -0.16683900000000002
28360 -3.06936261 9.26303364 -0.9574069500000001 -0.338937 0.5943579999999999 0.043873
28380 -1.5018227100000001 8.95902174 -0.89199387 -0.34014 0.455358 0.173297
28400 -0.76221738 9.16604217 -0.42855966000000006 -0.123471 0.471662 0.170517
28420 -1.24316244 10.458303660000002 -0.05703534 -0.142764 0.536263 0.016475
28440 -1.5676870500000002 11.15839431 -0.54352305 -0.15118800000000002 0.360264 -0.185252
28460 -1.81691991 9.9025083 -0.44382402 0.08204199999999999 0.14687999999999998 -0.305127
28480 -1.91033073 8.56279584 -0.76730877 0.33150100000000005 0.036558 -0.371609
28500 -2.26808181 8.28721332 -1.00949805 0.695014 -0.124119 -0.465004
28520 -2.0303757 8.50112037 -1.1855385 1.08438 -0.227371 -0.5561550000000001
28540 -0.96340086 8.19785403 -0.69156576 1.454406 0.004492 -0.518617
28560 -0.09789399 7.87766544 -0.44966097000000005 1.740203 0.423432 -0.305649
28580 0.24818319 8.23437666 -0.01946304 1.76598 0.529596 -0.237239
28600 0.42122178 8.574469740000001 -0.07648857 1.825367 0.6032310000000001 -0.321308
28620 -0.13801689 8.83148193 -0.37048446 1.480687 0.233119 -0.439678
28640 -0.22438413000000001 8.09456454 -0.18322137000000002 1.195401 -0.242553 -0.585271
28660 -0.40625172 7.69864275 0.030685680000000003 1.223609 -0.200853 -0.6481520000000001
28680 -0.5007122100000001 7.990382340000001 0.10148445 1.437562 -0.11302 -0.6873630000000001
28700 -0.22423698 8.66802771 -0.030685680000000003 1.44117 0.002981 -0.661849
28720 -0.16794720000000002 9.20555685 -0.04505733 1.276705 0.015077000000000004 -0.613875
28740 0.08412075 9.15241608 0.01961019 1.05019 0.019809 -0.535347
28760 0.21465261000000002 9.33144858 -0.63842499 0.974289 0.041157 -0.4803560000000001
28780 0.46598481 10.165514400000001 -0.9575541000000001 0.90653 0.015442 -0.384657
28800 0.14773860000000003 10.48509477 -1.1602385100000001 0.7599239999999999 -0.054470000000000005 -0.356749
28820 -0.19205037000000003 10.96185096 -1.1268550800000001 0.4988770000000001 -0.119994 -0.261281
28840 -2.3742162 12.37072392 -1.12700223 0.12278 -0.153132 -0.173066
28860 2.48423535 13.089983310000001 0.37841094 -0.250087 -0.119413 -0.024027
28880 0.34233957000000004 14.913338580000001 0.7951495500000001 -0.438811 0.015031 0.08451
28900 -0.35042301000000003 15.45490944 0.58947309 -0.5726680000000001 -0.016776 0.162664
28920 -0.6475581 15.177090240000002 1.03674042 -0.686191 -0.053903 0.221739
28940 -0.38005902 13.726152 1.2458601900000001 -0.5192640000000001 -0.12926600000000002 0.27534400000000003
28960 -0.34323228 11.22964434 1.58011632 0.183417 -0.231687 0.503642
28980 -1.20978882 9.99427104 1.5393950100000002 0.8636719999999999 -0.318461 0.036351
29000 -2.41327962 9.333842220000001 1.05994107 0.12851500000000002 -0.149503 -0.020275
29020 -3.10709187 10.642869000000001 0.5174775 -0.285528 0.14893499999999998 0.297985
29040 -2.1644980200000004 11.91776679 -0.31344912 -0.289769 -0.178767 0.201167
29060 -1.08629073 10.128383549999999 -0.8911011600000001 -0.523604 -0.302259 0.11743900000000003
29080 -0.63393201 9.65162736 -0.40057173 -0.665894 -0.092038 0.416346
29100 -0.9098088300000001 10.503508140000001 -0.21869433000000002 -0.8683700000000001 -0.318073 0.374629
29120 -0.7050348900000001 9.568556280000001 -0.00628821 -1.049159 -0.4696010000000001 0.32976300000000003
29140 -0.81670212 7.87587021 -0.5833418400000001 -0.960103 -0.599855 0.32521100000000003
29160 -1.2641166000000001 8.74076886 -1.34570637 -0.901071 -0.53184 0.314854
29180 -1.7747074800000002 9.52798212 -2.01361041 -0.846659 -0.242483 0.367206
29200 -1.73593836 8.83731888 -1.7090001000000001 -0.845791 0.018234 0.435244
29220 -1.43640963 7.45689492 -1.3443525900000002 -0.8514639999999999 0.254446 0.509678
29240 -1.14916302 6.076912409999999 -1.55032335 -0.8938360000000001 0.366269 0.554104
29260 -1.19706525 6.09458022 -1.8666173700000002 -0.930397 0.338554 0.5902029999999999
29280 -1.3335812100000002 6.11822232 -2.0303757 -0.914233 0.17641700000000002 0.6300479999999999
29300 -1.84102308 6.3857213999999995 -2.2478732100000003 -0.961297 -0.003789 0.71434
29320 -2.03621265 6.395148810000001 -2.68286823 -0.978914 -0.12729200000000002 0.7122390000000001
29340 -1.9128715200000002 6.070025790000001 -3.15289476 -0.8285170000000001 0.037562 0.6479159999999999
29360 -1.6639427700000002 5.88725568 -3.21441327 -0.6783939999999999 0.11411 0.555932
