time Ax Ay Az Gx Gy Gz
20 -3.55525191 6.16208283 -0.9467827200000001 -0.996733 0.387096 -0.035232
40 -3.9754338300000005 10.605443850000002 0.40461345 -0.3055 -1.25294 -0.223787
60 -4.2728632200000005 13.18428684 -0.04056435 -0.05328 -1.216292 -0.282961
80 -4.8777576300000005 12.86095905 -0.9035206200000001 -1.068704 2.955569 0.26969
100 -4.476440340000002 12.1264353 -1.2344805900000002 -1.470633 3.82194 1.074416
120 -3.39942987 12.11655663 -0.86205375 -1.163484 1.550252 1.2044549999999998
140 -2.0660056200000003 12.45873924 -0.62749665 -1.057088 0.8961520000000001 0.8513870000000001
160 -2.4321442500000003 11.84276934 -1.21876497 -1.327685 0.168642 0.269316
180 -3.57576462 9.69039648 -0.8815167900000002 -1.252644 -0.462378 0.032435000000000005
200 -3.7516481100000005 7.692648840000001 -1.3001977800000002 -0.8886200000000001 -0.097621 -0.124655
220 -2.22557508 8.001614790000001 -2.4540009300000003 -0.8498370000000001 0.055254 -0.29335900000000004
240 -1.42308765 7.67049786 -0.7743425400000001 -1.135947 -0.164606 -0.474537
260 -1.5299676 6.629411610000001 3.88307268 -0.94464 -0.8617239999999999 -0.533196
280 -2.38274109 5.9859050400000005 -4.9308984 -1.041248 -1.022124 -0.563575
300 -2.13875658 5.910456330000001 -4.890628350000001 -1.418501 0.067719 -0.519537
320 -0.7940998800000001 6.755450490000001 -0.45894123000000003 -1.603178 0.036436 -0.5282640000000001
340 -2.0853117 6.53570649 -0.9996193800000001 -1.564582 -0.172439 -0.541614
360 -2.6292860100000004 6.94885464 -0.46912401000000004 -1.536568 0.106644 -0.561004
380 -2.2978747800000003 7.48593252 -0.35176698 -1.170726 0.65891 -0.458743
400 -2.84169213 7.50973158 -1.5798122100000003 -0.5502060000000001 0.212155 -0.09705
420 -1.7756100000000004 9.565260120000001 -0.8295728400000001 0.217132 -0.734147 -0.144957
440 -2.6259898500000003 10.78252416 -0.01122264 1.001507 0.511574 -0.129324
460 -4.22331291 11.32050456 -2.8463322600000005 1.416834 2.269005 0.377662
480 -4.05806346 11.84756643 -1.79850654 1.4234790000000002 3.402133 0.985143
500 -4.12811667 11.703114180000002 -0.39397941000000003 1.26175 3.435025 1.158091
520 -4.05297207 13.10494356 -0.14505066000000003 1.589302 2.052912 0.720975
540 -4.86668214 13.247002170000002 -0.69245847 2.682737 -0.290918 -0.169963
560 -5.92138467 16.817822550000002 3.4895445300000003 2.6811540000000003 -0.488828 -0.492324
580 -5.50509732 16.140785400000002 2.9645820000000005 1.496107 2.10965 -0.331948
600 -6.418202310000001 6.10595001 -1.59313419 1.165798 3.371104 -0.354031
620 -7.41393693 7.91942661 -1.7961129 1.157529 3.842129 -0.655931
640 -5.272639560000001 11.30000166 -2.8149010200000006 1.280484 3.62326 -1.172879
660 -2.4673229100000005 10.14664977 -1.16757639 1.264119 2.741628 -1.262663
680 -2.78450964 10.4345046 0.68872086 0.535482 2.4919 -1.050583
700 -5.79505149 11.546683920000001 0.52510968 0.27517800000000003 2.377387 -0.693332
720 -10.274631029999998 12.29528502 -0.16839846000000003 0.490387 1.812135 -0.715674
740 -14.533877970000002 9.39266298 3.46125249 0.26183 1.371552 -0.628043
760 -14.27027346 6.204295259999999 7.21768788 -0.169458 1.198918 -0.505853
780 -10.232124299999999 5.37053355 2.76384978 -0.358151 1.039601 -0.461033
800 -8.634948390000002 5.9360604299999995 0.25387299 -0.390761 0.7866569999999999 -0.580577
820 -7.520512770000001 7.396867530000001 0.44412813 -0.590295 0.541283 -0.583793
840 -6.743629439999999 8.487798390000002 1.06847577 -0.8706280000000001 0.45135 -0.494837
860 -4.11240105 8.808732540000001 0.63093996 -1.1914129999999998 0.705294 -0.31901
880 -2.5258493700000004 7.0124626800000005 0.07693983000000001 -1.519899 1.218894 -0.06879400000000001
900 -2.01061836 6.778808100000001 0.9472339800000001 -1.504256 1.7371299999999998 0.055633
920 -2.40744267 5.150936700000001 0.86834196 -1.462377 1.6641259999999998 0.160705
940 -2.8003724100000005 4.020638310000001 -0.01946304 -1.52875 1.469039 0.25342600000000004
960 -2.58303186 3.1762425600000004 0.36494181 -1.7213080000000005 1.426806 0.325843
980 -2.50040223 2.53198062 0.9666872100000001 -1.603543 1.249681 0.295914
1000 -2.89811925 2.0887550100000003 0.82239192 -1.100689 1.143317 0.351906
1020 -2.65323222 2.39711274 -0.09564750000000001 -0.69716 0.7487199999999999 0.379799
1040 -2.1791639700000003 3.75853473 -1.4929937100000004 -0.801876 0.562203 0.227619
1060 -1.2666672 5.7583719 -3.3864120000000004 -1.6068049999999998 0.721476 0.25597600000000004
1080 -2.46402675 8.06612535 -4.41581454 -1.9902990000000005 1.24714 -0.064639
1100 -3.6739627200000005 9.57035151 -5.64401673 -2.043818 2.960145 0.503223
1120 -3.7181175300000002 9.9312516 -6.56385138 -0.418089 3.272396 0.394538
1140 -3.2129221500000003 10.24155171 -7.103028600000001 -0.135376 2.154493 -0.009048
1160 -1.51320231 10.6460082 -7.3711260900000015 -0.709885 0.8342299999999999 -0.745237
1180 -1.1306025000000002 10.22553198 -7.582031280000001 -2.295882 2.295088 -1.059426
1200 -2.2080544200000003 8.91097236 -7.5812857199999995 -2.581512 1.57021 -0.423832
1220 -1.33372836 8.534052540000001 -6.633600480000001 -2.969343 1.385608 -0.010766
1240 -1.9128715200000002 9.186692220000001 -2.5791372900000002 -3.113495 2.20806 0.365324
1260 -6.35324049 8.317300589999999 1.77201954 -2.533361 2.424385 0.642564
1280 -12.56456952 14.538969360000001 3.4892404200000002 -1.827186 1.4640799999999998 0.420127
1300 -21.890181150000004 18.934722450000002 -5.58712854 -1.363976 0.8941530000000001 0.286292
1320 -9.48547539 1.7625823200000001 3.71512548 -1.454806 1.683399 0.395742
1340 -8.665035660000001 -3.5154429300000003 0.92971332 -1.7476619999999998 2.395551 0.512424
1360 -2.87567397 4.48093332 -1.0135397700000002 -2.3491150000000003 4.09059 0.7207640000000001
1380 -6.130504439999999 9.21244347 3.8437051500000003 -2.715199 5.631658 0.867919
1400 -4.447255590000001 13.918359330000001 4.80500667 -2.153171 5.299645 0.825269
1420 -0.32167971 15.588286200000002 2.8234259100000005 -0.996984 4.49981 0.57586
1440 -0.09460764 14.474596140000001 0.22408002000000002 -0.148523 4.056908999999999 0.309958
1460 -1.22594589 12.35665638 -0.36030168 -0.287765 2.353587 0.15093399999999998
1480 -3.0067944300000002 10.146345660000001 0.9228267 -1.204083 0.52223 0.1832
1500 -4.99930353 9.10511226 3.3783285600000004 -1.435138 -0.250763 0.018071
1520 -5.883518070000001 9.37560339 3.4287715800000003 -1.1094700000000002 -0.21250700000000006 -0.24035
1540 -5.53998168 9.796226760000001 1.87365114 -1.014949 0.151437 -0.493324
1560 -4.613858820000001 8.69092425 2.51941401 -1.185982 0.059428 -0.5125609999999999
1580 -2.9304530100000004 7.50764205 -0.03307932 -1.396423 0.14586500000000002 -0.367795
1600 -1.1825366400000001 8.76037905 -0.3010198500000001 -1.315379 0.302576 -0.200787
1620 1.3319331300000001 9.281898270000001 1.8794880900000002 -0.989356 0.394416 -0.007416
1640 2.45864106 8.48959362 1.98127665 -0.231171 0.479513 0.165482
1660 0.9080136000000001 6.22196307 -0.7824259800000002 0.7256600000000001 0.680814 0.410121
1680 -0.40057173 7.119048330000001 -0.27033417000000004 1.4531040000000002 0.8318690000000001 0.36587
1700 -2.25954711 8.3409525 0.72733302 2.1639150000000003 0.93881 0.17948599999999998
1720 -2.66745672 9.48667221 0.4451778 2.589007 1.506124 -0.069303
1740 -2.7186453000000004 10.4436279 -0.8027817300000001 2.60101 2.339834 -0.24547600000000006
1760 -3.4331076 11.236236660000001 -2.13515631 2.767467 2.058219 -0.294159
1780 -3.29195151 12.388391730000002 -1.52652429 3.1077060000000003 1.496957 -0.357293
1800 -3.30811839 13.215570930000002 -1.1750516100000001 3.0877630000000003 2.113435 -0.527001
1820 -4.24816164 14.79927771 -0.75547791 2.89171 3.202388 -0.6835899999999999
1840 -4.38483456 16.57787976 0.07903917 2.684894 3.895758 -0.7393350000000001
1860 -4.26044376 14.932497510000001 0.39816828 3.106029 3.693401 -1.115352
1880 -5.20257654 12.576841830000001 -1.65495681 2.802096 3.051932 -1.074993
1900 -5.29223994 11.478425940000001 -1.3793841 2.39841 1.376509 -0.5233949999999999
1920 -5.13507393 11.852952120000001 0.44233290000000003 2.521203 1.284192 0.077922
1940 -6.696472770000001 12.819639330000001 2.6595204300000006 3.094394 0.962348 0.412419
1960 -9.52993431 13.272155009999999 2.6364669300000005 3.420996 0.346279 0.480651
1980 -11.080257660000001 11.942164259999998 1.9104778800000002 3.268457 -0.394483 0.445283
2000 -11.03625 11.590848540000001 0.5683717800000001 3.071778 -0.891633 0.266154
2020 -10.93460859 11.26512711 -0.28725642 2.47728 -1.442458 0.002061
2040 -8.96201379 10.720407240000002 -1.18538154 1.839628 -1.642367 0.19762
2060 -5.35915395 10.89823311 0.41987781 1.013215 -1.56686 0.4128729999999999
2080 -4.066598160000001 10.21969503 -0.44068482 0.20353 -1.160901 0.559453
2100 -2.25939996 9.48023685 -1.11847734 -0.549602 -1.031945 0.665122
2120 -1.23298947 7.333396830000001 -0.4363389900000001 -1.230844 -0.44686 0.660682
2140 -1.57113036 5.783976 0.2168991 -1.004787 0.250058 0.674187
2160 -1.4430019500000002 4.970118780000001 0.19578798 -1.611338 -0.377399 0.403698
2180 0.14070483 4.95574713 -1.02027924 -2.929273 0.402043 0.29949000000000003
2200 0.8370578700000001 2.80277586 -0.45939249000000004 -3.412942 1.087305 0.113636
2220 0.12589173 0.19654335 -1.35962676 -4.26564 0.563891 -0.121317
2240 -1.4260797 -1.30917393 -2.0381648400000003 -4.502627 0.600665 -0.054653
2260 -1.74956445 0.26704782000000005 -3.48744519 -4.242383 1.184197 0.311749
2280 -2.61491436 3.2486894100000003 -5.986346490000001 -3.474931 1.933667 0.034138
2300 -4.348459080000001 4.95634554 -7.28879076 -2.456368 1.6570619999999998 -0.407046
2320 -5.76331614 7.87661577 -12.370272660000003 -2.015333 0.5084350000000001 -0.458041
2340 -5.1781790700000006 13.167217440000002 -9.00946476 -1.615373 -0.600316 -0.588422
2360 -9.24927021 4.45518207 0.44367687000000006 -1.315254 -1.127109 -0.711701
2380 -5.480258399999999 -0.81610371 -4.041896580000001 -0.902725 -1.389758 -0.655072
2400 -7.008725070000001 2.5818350400000005 -0.24219909 -0.837153 -1.207054 -0.581141
2420 -9.93453795 4.64619258 -2.4417188100000002 -0.93079 -0.846936 -0.51389
2440 -8.235573480000001 8.06193648 -1.82784825 -0.92536 -1.225429 -0.438591
2460 -6.29111376 13.75699464 0.12319398000000001 -0.756224 -1.181792 -0.043292
2480 -3.47876334 18.51993603 -0.23022108 -0.928024 0.499814 0.221477
2500 -1.5705319500000001 16.98832035 -1.2602318400000003 -1.15555 1.645804 0.480133
2520 -1.5138007199999999 12.883561290000001 -3.71766627 -1.280116 1.262494 0.274656
2540 -1.93353138 9.32260977 -3.1421135700000002 -1.305998 0.376617 -0.076903
2560 -2.8331574300000004 8.63179938 -1.6199351100000001 -1.388221 -0.164165 -0.366273
2580 -3.7925165700000005 9.08954379 -0.2484873 -1.505997 -0.15776400000000002 -0.266691
2600 -4.0140558 9.83095416 -0.10612458 -1.359743 -0.29389 -0.18431
2620 -4.21029504 9.4800897 0.25896438000000005 -1.14506 -0.355961 -0.299167
2640 -3.95148762 8.16461775 -0.55100808 -0.95399 -0.932445 -0.422075
2660 -3.4069149 7.25451462 -0.9294190200000001 -0.6316510000000001 -1.28028 -0.56252
2680 -2.24234037 6.6545644500000005 0.7921575000000001 0.174789 -1.383881 -0.395453
2700 -3.4483817700000006 5.2516755900000005 -0.7758336600000001 1.033872 -1.026972 -0.085466
2720 -2.64215673 5.1304338000000005 -3.2232520800000004 1.863914 -0.494263 -0.023735
2740 -1.9459508400000003 5.954915250000001 -2.8530717300000004 2.897347 -0.551353 -0.229019
2760 -1.9142154900000001 7.71600645 -2.95021035 3.63574 -0.37367 -0.5477609999999999
2780 -0.5550498 9.28519443 -3.0210189300000003 3.489635 1.46686 -0.620574
2800 -0.86384898 10.429266060000002 -3.7808328600000003 2.753221 2.597656 -0.383612
2820 -1.7937192600000003 11.984975100000002 -3.0211660800000004 1.943304 3.339856 0.391718
2840 -5.05349397 13.87988451 -2.7478398600000005 2.3376900000000003 2.376268 0.460869
2860 -7.58233539 16.37414568 -2.5604296200000003 2.253722 1.38407 0.107972
2880 -6.727011300000001 16.83159579 -2.6099701200000003 2.172413 1.562509 0.576125
2900 -4.712949629999999 13.874351670000001 -3.65480379 2.212561 1.895173 0.998995
2920 -3.5461286100000002 11.65925367 -3.6565990200000003 2.566865 1.362684 0.920967
2940 -4.18829121 11.53965015 -5.101092090000001 2.77751 0.568005 0.734382
2960 -5.547761010000001 13.082939730000001 -6.2207662500000005 3.267563 -0.291408 0.510307
2980 -6.277644629999999 14.722779330000002 -3.58069905 2.970716 -0.439142 0.416555
3000 -6.20594334 14.19034158 0.50310585 2.623224 -0.720835 0.300189
3020 -8.73224397 12.80482623 1.8528441300000003 2.210868 -0.8747879999999999 0.26332300000000003
3040 -11.05466337 10.783720980000002 2.78271441 1.903785 -1.2351450000000002 0.336416
3060 -6.886727909999999 6.99824799 3.0418259400000003 1.182064 -1.146087 0.535291
3080 -6.09248088 7.15811175 1.23703119 0.399351 -0.917032 0.675876
3100 -5.04316404 8.73882648 -1.1199684600000002 -0.148642 -0.583751 0.921585
3120 -2.91518865 9.011112840000001 -3.08343996 -0.361835 -0.646396 1.054772
3140 -1.89296703 8.52776433 -2.57315319 -0.548142 -0.801362 0.8090470000000001
3160 -2.25700632 6.42463767 -0.8596601100000001 -0.8859290000000001 -0.5221600000000001 0.27862800000000004
3180 -2.35190826 4.39186833 0.18561501000000002 -1.50027 -0.026929 -0.223021
3200 -2.7976844700000005 2.7351162900000006 -0.9632439 -2.509733 -0.30687800000000004 -0.467927
3220 -1.6639427700000002 2.5270461900000005 -1.0469232 -2.757496 1.358668 -0.649117
3240 -1.64717748 2.5700041800000006 -0.99019197 -2.655 1.199446 -0.348026
3260 -1.76093424 2.71235709 -1.2407688000000001 -2.809019 0.8336979999999999 -0.391362
3280 -2.1055203 3.1481074800000006 -3.17295621 -3.008497 0.399624 -0.358016
3300 -2.24772606 3.8242519200000005 -3.80732967 -3.117789 0.158846 -0.25699
3320 -2.36314071 4.242923100000001 -3.9853125 -2.792037 0.216383 -0.27615300000000004
3340 -2.9891364300000003 3.80957616 -5.7785805 -2.271027 0.066471 -0.268049
3360 -1.97034831 4.7621958300000005 -10.682834940000001 -1.742488 -0.376141 -0.32895100000000005
3380 -4.13110872 2.8340599500000003 -8.38840347 -1.503539 -0.8064899999999999 -0.275456
3400 -7.5955004100000005 3.78817074 -2.95201539 -1.15507 -1.453884 -0.118368
3420 -9.139996620000002 9.0292221 -10.317147570000001 -0.754344 -1.774907 -0.105544
3440 -7.503149070000001 14.969020140000001 -2.39966334 -0.576914 -1.798574 -0.201483
3460 -8.59587516 10.331813519999999 -4.0439861100000005 -0.407523 -1.832271 -0.17995999999999998
3480 -4.68300951 8.14980465 -3.6039095100000003 -0.122792 -2.067748 -0.147759
3500 -3.2906075400000003 8.535553470000002 -1.1656242 0.026437 -2.280479 -0.091965
3520 -2.00552697 11.34910071 -0.25671789 -0.344783 -0.381766 0.131609
3540 -0.6620769 14.587018740000001 -0.3614985 -0.879077 1.832665 0.397436
3560 -0.08067743999999999 14.93324307 -0.42437079 -1.023954 1.437828 0.427908
3580 0.25387299 13.293707580000001 -0.69350814 -0.97621 -0.13762 0.096975
3600 -1.14706368 11.37978639 -1.7434233900000002 -1.328008 -1.047228 -0.164963
3620 -2.72283417 10.140214410000002 -1.40677362 -1.664489 -1.191893 -0.4587520000000001
3640 -3.51349074 9.820182780000001 -0.9949792500000001 -1.366111 -1.0532979999999998 -0.47821
3660 -4.50114192 9.222174990000001 -0.81251325 -0.914737 -0.851082 -0.290514
3680 -5.7431075400000005 8.11596996 -0.40505490000000005 -0.8498760000000001 -0.555592 -0.182549
3700 -5.701944780000001 7.86180267 -1.42174368 -0.861676 -0.8844110000000001 -0.260191
3720 -5.41903419 7.15871016 -1.41904593 -0.311367 -1.25976 -0.111656
3740 -4.34516292 6.02886303 1.07940411 0.841935 -0.528712 0.152905
3760 -3.7107796500000005 4.79183184 0.5285529900000001 2.029882 0.222716 0.08653200000000001
3780 -3.2287849200000007 5.24000169 -2.02080114 2.790319 0.402123 -0.149804
3800 -2.6896077000000003 6.499487970000001 -1.6137940499999999 3.109988 0.891467 -0.522076
3820 -3.4509225600000004 6.68135556 -1.73938167 2.892032 2.744539 -0.738549
3840 -2.43274266 8.3899044 -1.87305273 2.198629 3.484192 -0.49224
3860 -1.16098407 11.422744380000001 -2.35265382 1.467306 3.90878 0.521192
3880 -2.07333369 12.60288738 -3.6715690800000003 1.626744 3.1631970000000003 0.621537
3900 -4.67612289 12.62639214 -4.44365532 1.94864 2.019543 0.495996
3920 -6.041586600000001 14.72652675 -5.00588604 2.02438 2.4202220000000003 0.662654
3940 -6.0356024999999995 16.19407332 -4.846620690000001 2.542152 1.876873 0.760971
3960 -5.1082730100000004 15.336061290000002 -4.20490935 2.664839 1.15741 0.755272
3980 -5.758077600000001 13.874498820000001 -4.00057686 2.9047810000000003 0.246466 0.580791
4000 -6.533764110000001 12.91424697 -4.535565210000001 2.94076 -0.182459 0.454473
4020 -6.77895525 13.55925447 -4.68974898 2.488075 -0.188603 0.518617
4040 -7.0006416300000005 12.84299694 -1.71768195 2.262507 -0.422708 0.383814
4060 -9.01021032 11.0160414 -0.2604555 1.936335 -0.914459 0.298844
4080 -12.943137420000001 11.674518030000002 1.5299676 1.614387 -1.377617 0.252324
4100 -8.79825546 9.83425032 0.71625753 0.997837 -1.305351 0.297063
4120 -5.490735480000001 7.863450750000001 3.0407762700000003 0.067329 -0.8716219999999999 0.530357
4140 -4.730911740000001 8.57791305 2.50413984 -0.8257329999999999 -0.916225 0.7367520000000001
4160 -2.88959436 8.179136549999999 -0.0464013 -1.654565 -1.042664 0.574096
4180 -1.7178290999999999 7.15811175 -2.7858536099999998 -2.228409 -0.151859 0.480284
4200 -1.64822715 6.856042230000001 -2.5336287 -3.061601 0.001848 0.858827
4220 -1.37309589 5.8267868400000005 -0.9660888000000001 -3.816349 0.696461 0.700978
4240 -1.9486485900000001 4.165983270000001 -1.12819905 -3.204436 1.1475799999999998 0.3105
4260 -1.7218708200000001 2.14668306 -0.40400523 -2.726445 0.678148 0.07409
4280 -1.86377247 1.0267146 -0.9123496200000001 -2.714237 0.5778409999999999 0.106351
4300 -1.46739942 0.81684927 -1.34330292 -2.94975 0.32213600000000003 -0.212229
4320 -0.5313978900000002 1.0942270200000002 -2.89811925 -2.790141 0.06729700000000001 -1.088866
4340 -0.0953532 1.6118516699999998 -5.440881060000001 -2.094475 -0.418888 -1.586516
4360 -0.6905160899999999 3.1626262800000005 -8.322391979999999 -1.278384 -1.021993 -1.4550610000000002
4380 0.0577809 5.6857779 -10.786418730000001 -0.703266 -1.260209 -0.990335
4400 -0.6162642 4.82177196 -4.95919044 -0.7938270000000001 -1.214051 -0.733585
4420 -4.2309549 1.72576539 0.9381008700000001 -1.016093 -1.067177 -0.507794
4440 -9.37201293 6.386918220000001 -10.138713480000002 -1.267142 -0.903204 -0.270476
4460 -10.40681097 21.3349842 -2.97865935 -1.213974 -0.510023 -0.074056
4480 -9.08550207 19.933900380000004 -2.3164353 -0.723547 -1.081573 -0.09233
4500 -3.3450922800000003 10.49872086 -1.2205602 -0.235902 -1.8011689999999998 -0.114708
4520 -1.91870847 7.340283449999999 0.28800198 -0.352368 -0.84221 -0.066544
4540 -1.5437408400000001 8.61653502 -0.58184091 -0.768518 1.063026 0.429104
4560 -4.07033577 11.282039549999999 -0.18965673000000005 -0.891408 0.804609 0.690291
4580 -6.35068989 11.730209400000001 0.20477394000000002 -1.009784 0.25345100000000004 0.363295
4600 -6.37524432 11.65551606 0.41059755000000003 -1.059819 0.293931 0.140703
4620 -3.5774127 11.692784249999999 -1.4738347800000002 -1.385217 0.613147 -0.017939
4640 -1.40976567 10.27927116 -1.66184343 -1.370539 -0.040495 -0.139844
4660 -1.25274681 8.8846227 -1.09527669 -0.917024 -0.805588 -0.210472
4680 -1.5054229799999999 7.62888384 0.5698629000000001 -0.5823050000000001 -0.736025 -0.313977
4700 -1.60466094 7.331601600000001 0.46792719 -0.60511 -0.500869 -0.226843
4720 -2.0155626 7.9330527 -1.21682259 -0.568808 -0.404419 -0.135914
4740 -2.05777503 8.07720084 -0.5363323200000001 -0.183172 -0.2345 -0.07255
4760 -2.4599850300000004 7.357195890000001 1.1831350500000002 0.8237709999999999 -0.092927 -0.119109
4780 -5.3949310200000005 5.83396776 -2.37106719 1.791334 0.018207 0.021035
4800 -4.7026197000000005 6.7380867900000005 -2.9910788100000003 2.323141 0.30741 -0.035441
4820 -4.14533322 6.66563994 -1.35872424 2.691448 0.40373 -0.465622
4840 -3.10664061 7.0364187 -0.44771859 2.815654 1.488668 -0.428757
4860 -2.7346650300000004 8.71472331 -0.5903756099999998 2.000632 3.216108 -0.146107
4880 -3.3756308100000005 9.73006812 -0.6209043299999999 1.401772 3.641229 0.353366
4900 -2.92551858 10.896437879999999 -1.1124834300000002 1.425992 2.99822 0.494296
4920 -3.3702451200000003 11.50896447 -2.67239115 1.848029 1.855148 0.402569
4940 -5.57724987 10.86426108 -3.26411073 2.448966 1.411089 0.37422
4960 -6.87969414 12.801078810000002 -3.11097663 3.148696 0.87389 0.109536
4980 -7.24433184 15.67046457 -2.57315319 3.338708 0.500069 0.188255
5000 -6.29411562 15.93436338 -1.37728476 3.130788 0.434167 0.332165
5020 -6.06029427 13.812676200000002 -1.0686229200000001 2.854569 0.198725 0.309173
5040 -6.0912840600000004 13.33187829 -0.49098069000000005 2.313684 0.251556 0.353397
5060 -6.6186402300000005 12.4216182 -0.7914021300000001 2.068716 0.219996 0.466026
5080 -7.6136194800000006 11.617943760000001 1.40407587 2.328312 -0.451888 0.431313
5100 -7.87422213 12.081672270000002 1.0747639800000002 2.247051 -0.824068 0.335082
5120 -7.072490070000001 12.36443571 1.13718501 1.949415 -0.968368 0.182568
5140 -3.1263979500000003 10.78118019 0.34563573000000003 1.389418 -0.8846200000000001 0.237302
5160 -3.1322349000000003 10.682982090000001 -0.57256065 0.673002 -0.811521 0.42662
5180 -4.153710960000001 10.04022108 -1.3421060999999999 -0.130714 -0.6912699999999999 0.621678
5200 -5.3173927800000005 7.455246840000001 -0.47570652 -0.969184 -0.877014 0.645969
5220 -5.159618550000001 6.681061260000001 -0.43514217000000005 -1.7895919999999998 -0.926128 0.5858220000000001
5240 -3.0756508200000003 6.45907077 -1.06952544 -2.405755 0.074425 0.522552
5260 -1.82110878 6.903640350000001 -2.11494771 -3.078043 -0.145013 0.570481
5280 -2.1963805200000004 5.542669620000001 -2.6487392400000003 -3.34032 0.7551329999999999 0.002406
5300 -2.53063665 4.348459080000001 -2.241585 -2.866782 0.394726 -0.321769
5320 -1.56544056 3.42951714 -0.87133401 -2.76227 0.236344 -0.232174
5340 -1.29675447 2.7433468800000003 -1.40363442 -2.623964 0.306495 -0.31248200000000004
5360 -1.4238430200000003 1.9214062200000002 -2.00597823 -2.583748 0.415021 -0.8464510000000001
5380 -2.21434263 1.43027838 -3.3353607600000004 -2.364852 0.064185 -1.477928
5400 -1.93353138 1.46634975 -5.22354051 -1.6943150000000002 -0.8751610000000001 -1.583136
5420 -1.4441987699999999 1.73204379 -7.97092911 -1.383943 -1.278006 -1.01109
5440 -0.4716648 3.568878 -12.43000575 -1.268528 -1.096696 -0.632365
5460 0.46957527000000004 4.53841011 -8.147254049999999 -1.405988 -0.616603 -0.426706
5480 -2.6298844200000007 1.14137388 -0.66088008 -1.687654 -0.331283 -0.13955
5500 -9.62318817 4.864288500000001 -6.41057013 -1.550613 -0.307881 0.016269
5520 -10.723850550000002 16.13868606 -6.4872058500000005 -1.265193 0.035285000000000004 -0.001405
5540 -10.874434050000001 17.778231360000003 -0.98255979 -0.994714 -0.075393 0.002762
5560 -4.16209851 12.06640791 -2.20596489 -0.6762600000000001 -0.751458 0.162882
5580 -2.58707358 9.465718050000001 2.7413946900000004 -0.467116 -1.0076379999999998 0.376179
5600 -2.0299244400000003 10.055789549999998 1.7784549 -0.659536 0.072357 0.591368
5620 -3.68009397 11.535765390000002 -0.73481805 -0.805869 0.797161 0.8799739999999999
5640 -6.460866 11.546683920000001 -0.10238697000000001 -0.890583 0.43527 0.611722
5660 -8.13558015 12.07329453 -0.90861201 -1.008583 0.125185 0.204303
5680 -5.51992023 10.999276110000002 -2.021841 -1.126036 0.128582 -0.010167
5700 -3.7402685100000004 9.86163984 -1.77979887 -1.384191 0.288549 -0.096564
5720 -3.08418552 9.0810189 -1.6411835700000001 -1.453633 0.215497 -0.149299
5740 -2.2073088600000004 8.366399640000001 -1.0159334100000001 -1.214504 -0.224351 -0.38421
5760 -1.29510639 7.91583615 -0.43769277 -0.878193 -0.729062 -0.466672
5780 -0.88196805 7.68965679 -1.15349904 -0.946213 -1.141105 -0.462346
5800 -0.4716648 7.84982466 -2.14488783 -0.8536450000000001 -1.125736 -0.390148
5820 0.01886463 8.22284991 -1.4395586400000002 0.016438 -0.709154 -0.094048
5840 -0.80651934 7.673646870000001 0.28515708 1.142924 -0.467045 0.188043
5860 -4.55847156 5.42187909 -1.43970579 2.128126 -1.114816 0.154094
5880 -5.681432070000001 5.92812414 -2.9464727400000004 3.0361580000000004 -1.679034 -0.194558
5900 -6.3105768 6.282137610000001 -2.37481461 3.709239 -1.052853 -0.726906
5920 -4.47958935 6.773863860000001 -1.67710779 3.64038 2.148515 -0.720807
5940 -2.35954044 8.279433990000001 -1.0777560300000004 2.713932 4.872939 -0.047108
5960 -1.5452319600000002 10.23765714 -0.9279180900000001 0.774382 4.627858 1.116839
5980 -1.9124202600000002 12.403508940000002 -0.6736036500000001 1.325017 3.117007 1.244399
6000 -3.09915558 13.664182230000002 -0.05613282 1.773839 1.679093 1.069915
6020 -5.06890548 13.924196280000002 -1.3591755 1.931811 1.818662 1.1947530000000002
6040 -5.8189977 16.17297201 -2.08920627 2.622629 2.184805 1.206587
6060 -5.546711340000001 17.21045799 -0.43289568 2.966212 1.546207 1.033549
6080 -4.98987612 14.13196227 -0.18576216000000004 3.023126 0.571712 0.926236
6100 -5.26260393 11.75250753 -2.8398969000000003 3.387601 -0.348523 0.569971
6120 -5.699992590000001 11.534264460000001 -4.2858909 2.775487 -0.197715 0.417019
6140 -6.238277100000001 13.265111430000001 -4.373160660000001 2.330515 -0.357514 0.272042
6160 -7.45584525 13.449980880000002 -1.89131895 2.193714 -0.863241 0.054885
6180 -8.25683175 12.003692580000001 -1.2669614999999999 2.044098 -1.368937 -0.159156
6200 -9.027132570000001 9.54220662 -1.4200956 1.412729 -1.520276 -0.127053
6220 -9.10556352 13.8012966 3.85073892 0.400854 -0.950819 0.06704299999999999
6240 -5.47756065 9.60657003 5.0587325100000005 -0.537983 -0.461705 0.309823
6260 -6.876702090000001 8.52941241 4.00731633 -1.12597 -0.49999 0.536501
6280 -5.64416388 7.558085070000001 2.03651676 -1.610784 -0.540192 0.354773
6300 -3.64672035 6.895262610000001 -0.5999501700000001 -1.91666 -0.045804 0.062515
6320 -2.8228275000000003 7.14883149 -2.9792577600000003 -2.79013 -0.039201 0.23373
6340 -0.9922913100000001 6.634208699999999 -1.38641787 -3.616649 0.7031470000000001 0.188549
6360 -0.49636638 6.302493360000001 -0.6361785000000001 -2.951027 1.599918 -0.073938
6380 -1.1508111 4.25475396 -1.3771376100000001 -2.205841 0.779007 -0.290939
6400 -1.8857763000000003 2.8789603200000005 -0.67270113 -2.289972 0.695725 -0.170711
6420 -1.6455294 2.1607604100000004 -0.50399856 -2.758816 0.7424390000000001 -0.257367
6440 -1.0383885000000002 1.03120758 -2.07468747 -2.854434 0.5668949999999999 -0.763079
6460 -0.9029222100000001 0.5472606600000001 -4.078419210000001 -2.6488240000000003 0.336627 -1.165136
6480 -1.28747421 1.9378674 -6.86756898 -2.081296 -0.061991 -1.073066
6500 -1.3623147 4.75066908 -7.57035738 -1.628668 -0.232867 -0.8250629999999999
6520 0.49098069000000005 6.989713290000001 -8.54318565 -1.437431 -0.430424 -0.604489
6540 0.18891117000000002 4.94871336 -4.34186676 -1.210999 -0.444671 -0.435178
6560 -4.6288288799999995 0.04699970999999999 -1.5386494500000003 -1.022881 -0.241303 -0.307006
6580 -6.765034860000001 3.9899526300000003 -8.74900926 -0.797723 -0.407452 -0.244332
6600 -6.1269041699999995 16.20873927 -2.43154584 -0.438312 -0.708972 -0.277754
6620 -11.32410483 19.85920704 -3.2648562900000004 0.053617 -1.3098459999999998 -0.423099
6640 -5.1651612 12.659030009999999 -4.4101247400000005 -0.014842 -1.055236 -0.36622
6660 -2.44771272 7.84099566 -1.57083606 -0.812934 1.276575 0.078144
6680 -1.3012474500000002 8.20623177 -1.37668635 -1.319517 3.4613940000000003 0.798196
6700 -1.57457367 10.77639291 -1.1407754700000001 -1.276405 2.36521 1.030638
6720 -3.33595917 12.03722316 -0.29668383 -1.017547 0.685995 0.6254689999999999
6740 -3.80928186 11.868520590000001 -0.20821725000000002 -1.004926 -0.296482 0.15573
6760 -3.32413812 11.630961630000002 -1.5563172600000001 -1.301725 -0.666984 -0.172744
6780 -3.1478033700000005 10.720407240000002 -1.3235455800000002 -1.298326 -0.33059 -0.117604
6800 -3.4230817800000004 10.589129820000002 -0.5352826500000001 -0.997663 -0.060413 -0.27715100000000004
6820 -3.7826379 9.60687414 -0.6629696099999999 -1.152957 -0.280033 -0.365549
6840 -4.1125482 8.489740770000001 -0.26644941 -1.37449 -0.580032 -0.275913
6860 -4.0433877 8.292755970000002 -1.2347847 -1.427107 -0.6862520000000001 -0.307123
6880 -3.1253482800000003 8.57791305 -1.4084217 -1.4877790000000002 -0.7092579999999999 -0.361997
6900 -2.3564012400000003 7.86479472 -1.11532833 -1.313896 0.16501300000000002 -0.432405
6920 -2.47076622 7.3070569800000005 2.02453875 -0.895084 0.489705 -0.474761
6940 -2.25116937 6.246958950000001 -1.12027257 -0.175325 -0.063368 0.01488
6960 -1.84461354 6.87340593 -2.47510224 0.394135 -0.071943 0.066939
6980 -1.8827842500000003 7.9390368 -1.4882064300000002 1.021197 1.000953 0.015464
7000 -2.3601388500000002 7.844291820000001 -0.21479976 1.580901 1.966901 0.127095
7020 -3.85583031 7.269484680000001 -0.34832367 1.898593 2.721751 0.225555
7040 -3.3356648700000004 8.203239720000001 -0.38155995000000004 1.951772 3.165762 0.231767
7060 -1.8465559200000001 9.1681317 -0.81175788 2.017966 3.031887 0.087122
7080 -1.7053998300000002 9.7692885 -2.0667511800000007 1.7248849999999998 3.060771 0.044446
7100 -3.1166664300000004 9.821821049999999 -0.71955369 0.97214 3.567571 -0.034101
7120 -4.62493431 9.66944232 -0.15507648000000004 0.5278579999999999 3.618464 -0.121659
7140 -5.5380294899999996 11.020681530000001 -0.34054434000000006 0.207855 2.77434 -0.270227
7160 -5.6773903500000005 13.52931435 0.97208271 0.284643 1.89162 -0.435202
7180 -4.0894947 16.095728070000003 0.76580784 0.190356 2.266967 -0.445956
7200 -5.21515296 11.92749831 -0.62330778 0.01314 2.5920400000000003 -0.33331
7220 -6.778356840000001 10.892249009999999 -2.9819457000000003 0.167663 2.2403720000000003 -0.16941099999999998
7240 -6.72296958 12.03737031 -3.41230059 0.335213 1.737136 -0.208188
7260 -5.411245050000001 10.82085183 -2.44321974 0.352729 1.189153 -0.381483
7280 -5.86031742 10.20412656 -1.29929526 0.304196 0.6871079999999999 -0.53073
7300 -7.7185472399999995 10.86979392 -0.7144623 0.254641 0.391895 -0.720842
7320 -10.64511549 11.16992106 1.5012243 0.055574 0.348418 -0.86425
7340 -12.517422660000001 9.416619 4.721484330000001 -0.34175700000000003 0.426742 -0.925878
7360 -11.16094491 7.5218567400000005 4.922216550000001 -0.8937209999999999 0.656324 -0.850979
7380 -8.94419883 5.64909831 4.04758638 -1.3950209999999998 0.795057 -0.744632
7400 -7.0477983 6.70500747 1.8853250400000001 -1.6973169999999995 0.8647450000000001 -0.5940770000000001
7420 -5.60853396 7.823180700000001 0.07035732 -1.568409 0.984025 -0.432028
7440 -2.86683516 8.7716115 -1.2567885300000001 -1.407656 1.327874 -0.246543
7460 -1.66827879 8.171661330000001 -0.41598324 -1.577402 1.570274 0.021153
7480 -1.8149775300000002 7.399859580000001 0.33260805000000004 -1.873061 1.2881129999999998 0.242707
7500 -2.7934956000000004 6.074067510000001 -0.32512302000000004 -1.899464 1.023413 0.393482
7520 -3.6516547800000003 5.13821313 -0.5322906000000001 -1.282913 1.276874 0.676269
7540 -4.07932173 4.45862538 -0.6524925300000001 -0.491714 1.456234 0.957167
7560 -3.8784325500000003 3.8883112200000003 -0.39832524 0.44484 1.256431 0.561245
7580 -3.46424454 3.1406224500000004 -0.35999757000000004 0.13227 2.231217 0.817391
7600 -3.02655177 2.8270163700000004 -0.43604469000000007 -1.114943 2.131443 0.47659
7620 -2.9722239900000003 2.8602526500000005 -0.61118262 -2.34513 -1.211671 -0.25090500000000004
7640 -3.59028342 4.1276654100000005 -1.4441987699999999 -3.383604 -0.118465 -0.74026
7660 -4.28319315 6.130200330000001 -2.57899014 -2.217802 0.7934829999999999 -0.703375
7680 -4.7900366100000005 8.64676944 -3.8941481700000002 -1.268547 0.943677 -0.724711
7700 -4.183945379999999 10.56906837 -5.041663110000001 -1.213032 1.154657 -0.520563
7720 -2.44755576 10.23017211 -6.079757310000001 -1.611352 1.382873 0.028633
7740 -1.24031754 9.904754790000002 -7.06755564 -1.778695 1.31697 0.403563
7760 -0.90846486 10.315793789999999 -7.582031280000001 -1.611991 0.978389 0.481005
7780 -1.70749917 12.19454613 -8.67565989 -1.441303 0.85683 0.362712
7800 -6.595881030000001 19.17751995 -8.27180181 -1.326525 0.8803270000000001 0.248116
7820 -6.29156502 15.03832779 2.78061507 -1.204404 0.962042 0.220022
7840 -7.20706365 5.08342428 6.25324716 -1.029461 1.126819 0.15373499999999998
7860 -7.55957619 1.6841513700000001 4.46746419 -0.934141 1.186232 0.131892
7880 -10.49033331 -1.57098321 -7.295383080000001 -0.983672 1.167961 0.214891
7900 -7.6710962700000005 7.381750320000001 -1.3187583 -1.095697 1.209728 0.256784
7920 -5.989044240000001 9.80385894 6.67925622 -1.155413 1.14418 0.183811
7940 -2.9662300800000003 11.77840593 5.21306343 -1.147123 1.055869 0.149799
7960 -1.2995993700000001 12.4329978 2.27931426 -0.998253 1.240477 0.208287
7980 -1.56110454 11.92465341 0.7381142100000001 -0.80414 1.492159 0.237094
8000 -1.92066066 9.84981879 0.08816247 -0.7077869999999999 1.562148 0.233404
8020 -2.99167722 8.45816238 0.40117014 -0.349144 1.585456 0.220924
8040 -3.84939495 8.693622 1.09347165 0.025538 1.811282 0.165568
8060 -3.9053806200000003 8.84570643 1.2039420600000001 0.202912 2.535246 0.117809
8080 -3.75255063 8.78149017 1.0121958 0.44045 3.670934 0.152196
8100 -3.6229114800000004 8.32344165 0.97163145 1.078334 4.980533 0.304525
8120 -3.4629005700000004 8.724160529999999 0.73077633 1.993596 5.534048 0.417031
8140 -3.21651261 9.42604641 0.6902119800000001 3.012369 4.375419 0.235488
8160 -3.28221999 9.46347156 1.09975986 2.639014 3.156096 0.188509
8180 -2.7825672600000004 8.90318322 1.2234051000000001 1.268467 2.916234 0.08844500000000001
8200 -2.4117885 8.60859873 1.14167799 1.114965 3.422655 -0.148285
8220 -2.2659922800000003 8.371638180000001 0.90861201 1.464059 3.461959 -0.156579
8240 -2.5607239200000005 8.531060490000002 0.11331531000000002 1.762954 2.99975 -0.179537
8260 -3.33671454 10.519822170000001 -0.9532180800000001 2.274888 2.2448330000000003 -0.181403
8280 -3.8898121500000005 11.715239340000002 -0.89050275 2.502339 1.606889 -0.151223
8300 -4.2231657600000005 10.98834777 0.08203122 2.493688 0.925977 -0.093795
8320 -5.25991599 10.608141600000002 -0.27737775000000003 2.600149 0.11926 -0.376165
8340 -5.86376073 11.108402550000001 -1.59612624 2.535035 -0.199797 -0.450986
8360 -5.529053340000001 11.63949633 -2.2957754400000003 2.318807 -0.288919 -0.620093
8380 -5.273679420000001 11.84187663 -2.77163892 2.153268 -0.34377800000000003 -0.876484
8400 -7.171884990000001 12.841191900000002 -2.84243769 1.6680400000000002 -0.147854 -0.966651
8420 -10.43090433 13.521230910000002 -3.3917976899999998 1.032957 0.128788 -0.8667549999999999
8440 -10.18302525 10.399924350000001 -2.1266314200000007 0.665304 0.0966 -0.757119
8460 -8.828793990000001 8.80559334 2.8542685500000005 0.190749 0.17706 -0.487072
8480 -8.16656994 9.290276010000001 4.712802480000001 -0.298099 0.364243 -0.253581
8500 -6.108049350000001 11.046432780000002 -0.00538569 -0.826205 0.574036 -0.046031
8520 -4.77986364 11.92675275 -2.9163854700000003 -1.315825 0.6035050000000001 0.201544
8540 -2.2342569300000004 12.009970980000002 -4.7264187600000005 -1.651177 0.569454 0.482324
8560 -1.4180060700000001 11.675871810000002 -4.432128570000001 -1.576535 0.599928 0.5223300000000001
8580 -2.14608465 8.605606680000001 -3.68025093 -1.160097 0.8448389999999999 0.453354
8600 -3.02401098 5.4426861 -1.9881632700000003 -0.890027 0.419849 0.471809
8620 -3.61977228 3.10499253 -0.50804028 -1.019817 -0.367586 -0.164749
8640 -3.02655177 3.0868832700000004 -1.4012407800000002 -1.488597 0.319704 -0.337683
8660 -2.30895027 4.1992195500000005 -3.2040833400000004 -2.288375 0.331316 -0.416992
8680 -2.2064161500000004 4.57882731 -4.432432680000001 -3.245953 0.871727 -0.464966
8700 -2.6571267900000004 3.8407131000000003 -4.6030776300000005 -3.937118 1.810717 -0.5190670000000001
8720 -2.4182238600000003 3.7211095800000002 -4.33992438 -4.366084 2.314618 -0.952134
8740 -1.6913322899999998 3.59312832 -4.53855726 -4.158245 2.440926 -1.017074
8760 -2.03981292 2.84693067 -5.67918558 -3.171779 2.600423 -0.999706
8780 -2.05672536 2.57763636 -6.912175050000001 -2.248465 2.029252 -0.955137
8800 -2.12467923 2.9958660900000003 -7.204218750000001 -1.810889 0.974836 -0.8535209999999999
8820 -1.49733954 4.05985869 -6.90619095 -1.46505 0.395864 -0.7552909999999999
8840 -1.0737143100000002 5.54476896 -8.64617103 -1.256928 0.107789 -0.822903
8860 -0.66896352 9.38398113 -12.307851630000002 -1.12653 -0.296477 -0.804383
8880 -4.34411325 11.092382820000001 -12.26519775 -1.2589 -0.4402720000000001 -0.694028
8900 -5.19434595 9.027132570000001 -8.940157110000001 -1.352551 -0.385517 -0.453334
8920 -7.544311830000001 5.265448830000001 -3.98710773 -1.076399 -0.528695 -0.318762
8940 -10.763070930000001 1.8443192400000001 -3.80732967 -0.628496 -0.931371 -0.440099
8960 -8.05504986 4.29352308 -1.03929102 -0.310981 -1.261648 -0.438526
8980 -7.132223160000001 7.79923449 0.94827384 -1.036474 1.134677 0.059672
9000 -6.79481802 12.22956783 1.5160472100000002 -1.551447 2.134949 0.5109239999999999
9020 -5.6396709000000005 16.08958701 0.7963463700000001 -1.408106 1.438037 0.442316
9040 -2.29188087 18.76273353 1.0532114099999998 -1.006769 0.726156 0.164021
9060 0.32827203 15.96071304 -0.27377748 -0.611032 0.222965 -0.083602
9080 0.0011968200000000001 11.522286450000003 -1.29735288 -0.647494 -0.146196 -0.174183
9100 -0.7399094400000001 9.3329397 -1.14976143 -1.0634 -0.334401 -0.167233
9120 -1.1451213 9.22861035 -1.7871367500000002 -1.121361 -0.488357 -0.244352
9140 -2.52719334 9.56600568 -1.38132648 -0.931378 -0.583377 -0.356135
9160 -3.00186 9.93948219 -1.44584685 -0.935753 -0.355452 -0.341502
9180 -3.3795253800000005 9.6508818 -1.40407587 -0.789799 -0.253228 -0.191063
9200 -2.94078294 9.26363205 -1.91377404 -0.554761 -0.309881 -0.08039
9220 -2.46252582 8.661592350000001 -2.6023379399999995 -0.124564 -0.510519 -0.095288
9240 -2.25356301 8.3696958 -2.2252709700000004 0.399031 -0.557121 -0.084093
9260 -2.94497181 7.7468392800000005 1.6408892700000002 0.953118 -0.256436 -0.100904
9280 -3.5579496600000002 6.532861590000001 -0.50085936 1.465802 -0.137808 -0.108157
9300 -3.3988314600000002 6.724470510000001 -1.66244184 1.883863 -0.23277 -0.16600399999999998
9320 -2.5725547800000004 6.64797213 -1.5715816200000001 2.290054 0.030591000000000007 -0.310919
9340 -2.1044706300000002 7.2447831 -0.777933 2.474781 1.216805 -0.34533200000000003
9360 -1.45213506 7.56856215 -0.7566747300000001 2.453627 2.550179 -0.239298
9380 -2.50489521 7.891438679999999 -0.98510058 2.3799810000000003 3.5283260000000003 0.034536000000000004
9400 -3.61513215 8.10683685 -0.73258137 2.2008400000000004 3.185487 0.144819
9420 -4.1556631500000005 9.270077220000001 -0.58453866 2.051248 2.501783 0.223698
9440 -4.9355385300000005 10.89898848 -0.43439661 2.147626 1.708573 0.301232
9460 -5.0647166100000005 12.40934589 -0.02080701 2.61015 1.571768 0.27899999999999997
9480 -4.95350064 13.11033906 -0.5020561800000001 2.889153 1.616908 0.203979
9500 -4.8277560600000005 14.231504339999999 -1.23583437 2.924859 0.846316 0.272514
9520 -5.481151110000001 13.749656759999999 -1.3096251900000002 2.834685 0.200309 0.4628560000000001
9540 -5.407654590000001 12.22567326 -0.5290042500000001 2.7004 -0.165986 0.539299
9560 -5.858963640000001 11.190129660000002 -0.25072398 2.50157 -0.273865 0.516684
9580 -6.844221180000001 10.988651879999999 -1.06443405 2.468256 -0.719476 0.361062
9600 -6.708902040000001 11.31093 -2.05821648 2.233103 -1.2738459999999998 0.139008
9620 -6.21268281 12.025990710000002 -2.16554769 1.7450580000000002 -1.472045 0.043986
9640 -6.134987610000001 11.817322200000001 -1.72800207 0.937524 -1.378965 0.110865
9660 -6.83523522 11.358979380000001 -0.8252368200000001 0.02954 -0.943087 0.319745
9680 -8.67520863 12.779673390000001 -1.8585339300000001 -0.686437 -0.505783 0.53851
9700 -7.60448637 11.19237615 0.17573634 -1.303287 -0.539774 0.782072
9720 -5.8188505500000005 10.034982540000001 1.3956981300000002 -1.628865 -0.358539 0.7635430000000001
9740 -4.95574713 9.07308261 2.28275757 -1.7169470000000002 -0.308056 0.47017
9760 -4.09907907 7.2618525 -0.41718006 -2.64359 -0.620368 0.520713
9780 -3.31096329 6.999739110000001 -3.61647612 -3.156513 0.8460110000000001 0.027074
9800 -2.9083020300000006 8.153091 -3.6036054 -3.396052 1.399973 0.22979
9820 -1.17789651 8.156534310000001 -1.408716 -3.5544800000000003 1.32238 -0.20812
9840 -0.5192727300000001 6.539895360000001 -0.79364862 -3.031437 0.8668020000000001 -0.484826
9860 -0.6102801 3.7688646600000006 -0.4363389900000001 -2.147792 0.66662 -0.740111
9880 -1.49988033 1.92365271 -0.8813696400000001 -1.516336 0.141334 -0.994605
9900 -1.2460073400000002 0.34802937000000006 -1.509759 -1.262808 -0.552404 -0.88726
9920 -0.8220878100000001 -0.13367106 -2.74873257 -1.158144 -1.01271 -0.419126
9940 -1.7193202200000002 0.38560167000000006 -4.2284043 -1.087564 -0.892914 -0.335465
9960 -1.97888301 2.0299244400000003 -6.03319905 -1.253201 -0.44081 -0.298745
9980 -1.9505909700000001 3.61797705 -7.480389870000001 -1.143067 -0.430255 -0.103573
10000 -1.0737143100000002 5.71511961 -12.588368580000001 -1.054663 -0.574882 0.02328
10020 -0.87373746 8.701254180000001 -8.590038210000001 -0.932542 -1.026633 -0.06395
10040 -10.842404400000001 4.68001746 0.55070397 -0.5858369999999999 -1.728863 -0.044606
10060 -8.00085942 7.317828360000001 -6.257887290000001 -0.257222 -1.976036 -0.055879999999999985
10080 -8.44139709 10.11506157 1.4114137500000001 -0.567695 -0.303478 0.194045
10100 -7.926313230000001 8.84840418 -0.5840874 -1.230901 1.596662 0.580083
10120 -5.8146616799999995 10.6687674 -0.7289811 -1.301807 0.921889 0.4885850000000001
10140 -3.6077942700000003 12.968584560000002 -1.2283493400000003 -1.035825 -0.15745599999999998 0.047446
10160 -1.8546393600000002 15.864908580000002 -0.99124164 -1.117106 -0.260376 -0.251024
10180 -1.82859381 15.1112259 -2.2320104400000003 -1.354325 -0.717066 -0.389896
10200 -3.6739627200000005 11.656860029999999 -2.8231316100000003 -1.27259 -1.521634 -0.389363
10220 -3.71302614 10.035580950000002 -2.62194813 -0.968604 -1.544931 -0.155405
10240 -3.2373196200000005 9.903852270000002 -1.8670686300000001 -0.825209 -0.956404 -0.136998
10260 -3.4828050600000005 9.671688810000001 -1.2524427 -0.372049 -0.376053 -0.207216
10280 -3.27563748 9.39446802 -0.24908571000000002 0.770742 -0.066888 0.074904
10300 -2.77552368 9.03251826 -0.25342173 1.79073 -0.073576 0.063877
10320 -2.53288314 8.553358620000001 -1.67980554 2.535752 -0.148123 -0.32072399999999995
10340 -2.17272861 8.36251488 -1.6584001200000003 3.036651 0.463433 -0.7762760000000001
10360 -2.3891862600000002 7.444916910000001 -1.2600748800000001 2.915895 2.036381 -0.8218639999999999
10380 -2.8159408800000003 6.604719840000001 1.4188987800000001 2.067463 3.40004 -0.113829
10400 -4.26777183 6.495887700000001 -0.94647861 1.350311 4.0601720000000014 0.591751
10420 -4.474497960000001 7.05423366 -3.24315657 1.914696 3.013561 0.496622
10440 -3.96076788 7.58353221 -1.41485706 2.327182 2.109184 0.394908
10460 -3.23237538 8.002811610000002 -0.88046712 2.278728 1.727213 0.587339
10480 -2.3659758 9.43503237 -2.82777174 2.544063 0.984692 0.629668
10500 -1.29316401 11.12381406 -3.7652742000000003 2.68723 0.690696 0.766709
10520 -2.61551277 11.31781662 -4.12976475 2.60563 0.506965 0.69694
10540 -4.77686178 13.258676069999998 -3.88322964 2.783778 -0.105655 0.5643729999999999
10560 -6.09188247 14.17043709 -1.94386131 2.9109990000000003 -0.587342 0.49965
10580 -5.97856716 11.85624828 -0.9562101300000001 2.451478 -0.567433 0.448344
10600 -6.53091921 11.13234876 -2.41103313 1.955766 -0.5526310000000001 0.373292
10620 -7.15706208 11.71778013 -3.48820056 1.674611 -0.778151 0.271204
10640 -7.87378068 12.76680267 -2.8309109400000003 1.403647 -1.210919 0.306185
10660 -8.24111613 12.075541020000001 0.03967164 0.983616 -1.46784 0.450995
10680 -8.496333089999998 11.87285661 0.9592021800000001 0.259588 -1.379988 0.687244
10700 -8.709337620000001 14.59479807 0.53259471 -0.39249 -1.236797 0.874785
10720 -4.82970825 10.951825140000002 0.03922038 -1.029476 -1.433992 0.924
10740 -3.7167735600000014 10.34319312 -1.4462883000000002 -1.794818 -0.33196 0.920446
10760 -4.0200399 11.00257227 -1.5619972500000001 -2.00448 -0.259794 0.637947
10780 -3.22968744 9.67348404 -0.32003163 -2.746066 -0.540486 0.61283
10800 -2.213449920000001 8.30113371 -1.37025099 -3.098594 0.955258 -0.170283
10820 -2.42525763 7.2471767400000004 -2.5885647 -3.225074 1.290233 -0.180141
10840 -3.43101807 6.195319110000001 -1.52667144 -3.222506 1.162339 -0.167141
10860 -3.56019615 5.01786405 -0.57569985 -2.939751 1.005524 -0.091257
10880 -2.74559337 4.205350800000001 -1.28956374 -2.6037470000000003 0.68812 -0.394015
10900 -1.83188997 2.9313555300000003 -1.3305793499999998 -2.120152 0.347182 -0.800397
10920 -1.97619507 2.58078537 -1.5877485 -1.576559 -0.269273 -0.823584
10940 -1.43012142 2.2200324300000007 -2.23859295 -0.987631 -0.873527 -0.474729
10960 -0.69036894 2.0707929000000003 -3.36515373 -0.6578189999999999 -0.959316 -0.352674
10980 -0.16585766999999998 2.20297284 -5.366491830000001 -0.5890989999999999 -0.932638 -0.423799
11000 -0.29278926000000005 2.78181189 -6.78868677 -0.692422 -0.8514950000000001 -0.37976
11020 -0.7018858800000001 3.4172448300000005 -10.59137631 -0.8401930000000001 -0.587384 -0.232647
11040 2.24667639 5.12055513 -12.11026842 -0.682262 -0.308969 -0.197718
11060 -5.30242272 3.83083443 2.01361041 -0.35641100000000003 -0.564231 -0.314756
11080 -11.691587430000002 3.4596044100000003 -3.76991433 -0.185124 -1.4741 -0.166047
11100 -9.907148430000001 11.53321479 -2.2532687100000004 -0.58527 -0.740892 0.10582
11120 -10.18407492 12.5081424 1.82904507 -1.3212780000000002 1.589825 0.503617
11140 -4.74602895 11.80595241 -0.99916812 -1.430467 1.627012 0.622447
11160 -2.2418891100000002 13.32977895 -0.42361542 -0.925605 0.452424 0.348673
11180 -1.49614272 15.65908497 -0.7018858800000001 -0.629727 -0.06383 -0.00859
11200 -1.93023522 14.28524352 -0.022003830000000002 -0.981869 0.21828000000000006 -0.188736
11220 -2.7756806400000005 12.9100581 -1.74267783 -1.382112 -0.148532 -0.285065
11240 -4.40309097 11.468252970000002 -2.2179330900000003 -1.55063 -0.415166 -0.326493
11260 -4.717442610000002 10.2813705 -1.4528806200000002 -1.517121 -0.365027 -0.373325
11280 -4.03965009 9.71854137 -1.11099231 -1.38651 -0.928144 -0.323621
11300 -3.84745257 9.003323700000001 -1.015335 -1.362708 -1.218429 -0.211988
11320 -3.9969864000000004 8.50845825 -0.9894464100000001 -1.081464 -0.885777 -0.260656
11340 -3.82454622 8.41415472 -0.25356888000000005 -0.28186300000000003 -0.22838000000000006 -0.18541
11360 -2.8753698599999997 8.68269366 -0.9253773000000001 0.736819 -0.528957 0.038939
11380 -2.25835029 8.44529166 -2.33889039 1.1916790000000002 -0.672276 0.054051
11400 -1.61858133 7.67304846 -1.30214016 1.708018 -0.544766 -0.046124
11420 -2.19697893 5.85073305 0.5719622400000001 2.60943 -0.365719 -0.31459000000000004
11440 -3.6812907900000003 5.728883040000001 -2.45714013 3.208183 0.834929 -0.587547
11460 -3.91031505 6.2728573500000016 -2.50100064 2.963749 3.088156 -0.684009
11480 -3.40825887 6.7954164299999995 -1.0044066600000001 2.271093 2.597411 -0.171199
11500 -2.8421433900000004 7.172787510000001 -0.39278259 1.232149 3.412979 0.8363780000000001
11520 -2.34202959 7.724982600000001 -1.4837134500000002 1.351993 2.978084 0.798248
11540 -1.8994023900000003 9.13519953 -1.4374593 1.730857 2.2207060000000003 0.728158
11560 -1.66423707 10.551861630000001 -0.92267955 2.048406 1.501288 0.80821
11580 -2.46192741 11.380983210000002 -1.5964303499999999 2.675933 0.633942 0.850024
11600 -3.98561661 12.769049160000002 -2.4168700800000003 2.849235 0.167132 0.754625
11620 -6.12466749 15.574365810000002 -2.6807787000000003 2.59998 0.081459 0.817087
11640 -6.5946842100000005 18.12700629 -1.2521484 2.534269 -0.179883 0.695185
11660 -5.298233850000001 15.659987490000002 -0.91490022 2.493661 -0.229668 0.659714
11680 -4.462372800000001 12.624744060000001 -2.0417553 2.2592220000000003 -0.401442 0.662569
11700 -4.780305090000001 11.414366639999999 -2.61087264 2.154286 -0.6603020000000001 0.48698
11720 -4.77222165 11.454783840000001 -3.5429796 1.749596 -0.917024 0.30288400000000004
11740 -4.92655257 12.708119250000001 -2.90396601 1.236773 -1.122778 0.253632
11760 -5.36618772 13.60191816 -0.08007903000000001 0.535293 -1.139916 0.352372
11780 -6.332727780000001 12.290644890000001 0.41179437 -0.302441 -0.8434200000000001 0.458304
11800 -9.820928339999998 11.264823000000002 1.54269117 -0.881618 -0.855073 0.411544
11820 -7.27008309 10.42642116 1.90493523 -1.468503 -0.37801 0.432471
11840 -5.50824633 8.522231490000001 2.43379233 -1.670797 -0.351582 0.126581
11860 -4.52644191 8.01582948 1.10829456 -2.287635 -0.061004 0.4551850000000001
11880 -2.57344749 6.8858352 0.99408654 -2.515787 0.458328 -0.014956
11900 -1.56873672 6.79287564 0.02784078 -2.891689 0.380691 -0.25355900000000003
11920 -1.36994688 6.735546 -0.89454447 -2.828294 0.868715 -0.340267
11940 -1.07132067 7.41872421 -1.4606599500000002 -2.872717 0.986876 -0.546896
11960 -2.11285818 7.43324301 -0.7945511400000002 -2.585073 0.407368 -0.796244
11980 -3.8499933600000005 6.3453042 -1.29316401 -2.083571 -0.32619000000000004 -1.068471
12000 -3.63668472 4.6747789200000005 -0.73826136 -1.573534 -0.930336 -1.21048
12020 -2.54635227 3.8290392 -0.9479795400000001 -1.023344 -1.296243 -1.025639
12040 -1.97020116 3.1305868200000004 -1.77905331 -0.6190760000000001 -1.583865 -0.578066
12060 -1.7552542500000001 2.43723564 -3.1054437900000007 -0.515696 -1.449573 -0.418351
12080 -1.22924205 2.82222909 -5.254069230000001 -0.576421 -1.311353 -0.299312
12100 -0.6271925400000001 3.39643782 -7.52964588 -0.750161 -1.079306 -0.103201
12120 0.19774017000000002 4.24367847 -10.23915807 -0.7187720000000001 -0.430959 -0.029038
12140 2.1731798700000002 6.245016570000001 -7.90760556 -0.445442 -0.250402 -0.130977
12160 -4.77731304 5.253922080000001 0.65084445 -0.14640799999999998 -1.048606 -0.045612
12180 -8.250837839999999 7.72454115 -5.52530592 -0.104876 -1.913101 0.057266
12200 -9.16798455 13.807437660000002 -4.80067065 -0.959651 0.249023 0.361514
12220 -7.050790350000001 11.344607730000002 -1.66154913 -1.751614 2.099091 0.859949
12240 -3.75478731 10.405457190000002 -1.21292802 -1.459717 0.64042 0.684396
12260 -1.79761383 11.220815340000001 -1.2307429799999998 -1.119802 -0.85152 -0.003526
12280 -2.2829047200000003 13.16317572 -1.6576545599999999 -1.395916 -0.427361 -0.34142
12300 -2.5503939900000003 13.067076960000001 -0.75083778 -1.396153 -0.7065060000000001 -0.330382
12320 -3.59552196 12.027933090000001 0.17064495 -1.077707 -1.2182309999999998 -0.242044
12340 -5.002746840000001 11.647275660000002 -1.1719124099999998 -0.790115 -1.164475 -0.08200700000000001
12360 -4.85096652 10.12644117 -1.4455427399999998 -0.6759029999999999 -0.8265809999999999 -0.231193
12380 -3.8242519200000005 9.35225559 -0.58648104 0.06150700000000001 -0.704944 -0.386432
12400 -4.04833194 8.681045580000001 -0.81430848 1.097392 -0.463506 -0.1242
12420 -4.313878830000001 7.87587021 -0.60054858 1.681545 -0.14036300000000002 0.077087
12440 -3.6718633800000005 7.763153310000001 0.7018858800000001 1.955525 -0.091744 -0.064203
12460 -3.4377477300000003 8.10190242 -0.49576797 2.399769 -0.033607 -0.335708
12480 -2.57015133 8.03798046 -1.4810157 2.856698 0.856834 -0.6989890000000001
12500 -1.0847898 8.1641763 -1.6866921599999998 2.631828 2.202531 -0.833675
12520 -0.9873470700000001 7.773188940000001 1.9505909700000001 1.835125 2.731898 -0.125278
12540 -3.62740446 6.23737458 -1.15095825 1.299356 3.147489 0.5712
12560 -5.020414649999999 7.0880585400000005 -3.57950223 1.831577 2.473043 0.408071
12580 -4.27556097 8.14605723 -1.7961129 2.122863 1.774241 0.417411
12600 -3.0461619600000005 8.239615200000001 -0.8476919100000001 2.177043 1.796127 0.4914689999999999
12620 -2.02004577 9.601929900000002 -2.69364942 2.60141 0.915291 0.619475
12640 -1.1186244900000002 11.463465690000001 -3.3513804900000004 2.836996 0.425392 0.649522
12660 -2.74095324 11.08594746 -3.3895512 2.982535 0.414671 0.5405260000000001
12680 -5.527110960000001 11.873160720000001 -2.9068011000000005 3.057618 -0.095356 0.415654
12700 -6.251599080000001 14.806762740000002 -1.0891356300000001 2.7853790000000003 -0.32258000000000003 0.465318
12720 -5.6046492 14.394213 -0.30476727000000003 2.416646 -0.436475 0.496003
12740 -5.27204115 12.863803950000001 -0.93031173 2.092567 -0.620688 0.490771
12760 -5.9182454700000005 12.551551650000002 -1.87065909 1.738668 -0.933132 0.344489
12780 -6.781201740000001 12.692256480000001 -1.83203712 1.266017 -1.149965 0.367103
12800 -6.812328870000001 12.887004600000001 0.29278926000000005 0.5982069999999999 -1.174007 0.5643630000000001
12820 -7.44581943 12.507092730000002 2.21060502 -0.441862 -0.7852279999999999 0.678377
12840 -8.63434017 10.59706611 2.8023246000000004 -1.384199 -0.008104 0.56184
12860 -7.363336950000001 12.09754485 0.9129480300000001 -1.975354 0.58133 0.457611
12880 -3.9248338500000006 11.036102849999999 0.17109621 -2.80959 -0.17718299999999998 0.390799
12900 -3.54971907 9.94157172 0.22692492 -3.874588 0.919757 0.588121
12920 -3.7024019100000003 9.19702215 0.56163231 -3.88201 2.313111 0.069265
12940 -4.490664840000002 7.584876179999999 -0.9812060100000001 -3.448434 1.213107 -0.412338
12960 -2.8853956800000002 7.22008152 -0.8196941700000001 -3.239474 0.682072 -0.195486
12980 -1.6700740200000002 6.8831374499999995 -1.6401437100000003 -2.914597 0.658086 -0.339532
13000 -1.9697499 6.14366946 -1.99834605 -2.557791 0.643251 -0.934157
13020 -2.94661989 5.360203620000001 -2.32092828 -1.873047 -0.066775 -1.12288
13040 -2.2993659 3.5422340400000003 -2.23110792 -1.4017190000000002 -0.5904189999999999 -1.116781
13060 -1.79282655 2.0938464 -2.07333369 -1.047213 -0.711059 -0.82573
13080 -0.90247095 1.8405718200000003 -1.78099569 -0.963794 -0.555092 -0.47497
13100 -1.2310372800000002 1.4904529199999998 -2.44740861 -1.277607 -0.576306 -0.22610300000000005
13120 -2.18965086 1.42054686 -3.3771317400000003 -1.221252 -0.681602 -0.050386
13140 -2.45459934 2.1323114100000007 -7.1158993200000005 -0.973064 -0.575766 -0.092585
13160 -1.3222016099999998 3.8067312600000003 -11.766133620000002 -0.576141 -0.813603 -0.10019
13180 -1.21053438 4.86668214 -14.63731461 -0.186486 -1.195424 -0.058523
13200 -4.5608652 2.9216240100000004 1.16577135 -0.382576 -0.244217 0.132237
13220 -6.34126248 3.1445072100000004 -2.41837101 -1.279192 2.835287 0.6945939999999999
13240 -7.84518453 11.223807390000001 -2.75666886 -1.546837 3.063508 1.129335
13260 -10.14500169 14.806164330000001 -3.26590596 -1.328156 1.593776 0.852872
13280 -5.86944072 12.22523181 -4.02946731 -1.381907 1.524417 0.396455
13300 -2.56566816 12.52251405 -0.08277678 -1.823834 0.6208140000000001 -0.222907
13320 -1.3867121699999998 12.83595336 -0.63587439 -1.349573 -0.539463 -0.319588
13340 -2.38034745 12.17687832 -1.23657993 -0.904617 -0.745616 -0.300193
13360 -2.8788131700000004 10.91635218 -0.18142614 -1.070019 -1.03663 -0.108695
13380 -3.4717295700000004 10.495571850000001 -0.5626819800000001 -1.350635 -0.647459 0.048011
13400 -4.17616605 10.73956617 -1.0779129900000002 -1.2085629999999998 -0.4717770000000001 -0.052703
13420 -3.66318153 10.86694902 -1.5483809699999997 -1.073733 -0.742334 -0.17532799999999998
13440 -3.2997406500000004 9.95534496 -0.30311919 -1.0812540000000002 -0.279975 -0.175973
13460 -2.61461025 8.615338200000002 0.12498921000000002 -0.922773 1.105119 -0.106138
13480 -2.67777684 7.86314664 -0.55354887 -0.11055 1.316907 0.039201
13500 -2.7664003800000003 7.87347657 -1.33521948 0.350254 0.5517380000000001 0.247431
13520 -2.6646118199999997 8.07930018 -1.9404180000000002 0.581241 0.4815 0.296136
13540 -3.5434308600000004 7.57934334 1.58954373 0.820426 1.233835 0.29257
13560 -4.11868926 6.2565433200000005 -0.04969746 1.004543 2.4046540000000003 0.378881
13580 -3.98710773 6.47089182 -3.0394323 1.30675 2.836632 0.513966
13600 -2.6765800200000003 7.00393779 -0.02095416 1.624424 2.469361 0.442949
13620 -2.215392300000001 7.2631964700000005 1.26547038 1.969232 1.735409 0.13865
13640 -2.23814169 6.872061960000001 0.03742515 2.157889 1.496927 -0.059484
13660 -0.07768538999999999 8.98506729 1.23687423 1.62166 2.174801 0.049133
13680 0.13426947 10.295143740000002 -1.61259723 0.8239879999999999 3.035918 0.114029
13700 -0.55968993 10.751838480000002 -3.87948222 0.660161 3.06874 0.040203
13720 -2.29233213 9.517662 -0.88361613 0.6122350000000001 2.470793 -0.102507
13740 -4.6532263500000015 9.65013624 -0.063765 0.60493 1.6860400000000002 -0.450861
13760 -5.91659739 11.165133780000001 -0.8909442000000001 0.983668 1.629437 -0.7429720000000001
13780 -7.442827380000001 12.059374140000001 -0.29219085 1.184015 2.147041 -0.886446
13800 -6.3598230000000004 15.407762580000002 1.3319331300000001 0.8026800000000001 1.6643599999999998 -0.794488
13820 -3.6155834100000006 12.97651104 0.59740938 0.573799 1.545925 -0.549176
13840 -4.177362870000001 9.40030497 -2.20551363 0.482798 1.356148 -0.430995
13860 -4.73016618 11.25764208 -1.91227311 0.427074 1.063395 -0.432078
13880 -5.1361236 12.0945528 -0.5632803900000002 0.268761 0.908669 -0.4960100000000001
13900 -4.96457613 11.951591670000001 0.5945644800000001 -0.034635 0.737484 -0.580163
13920 -4.402492560000001 11.12980797 0.42227145000000005 -0.463748 0.645405 -0.624703
13940 -4.474341 10.989093330000001 -0.20402838 -1.074965 0.727202 -0.570325
13960 -5.639219639999999 11.623182299999998 -0.8539703100000001 -1.672527 0.7567699999999999 -0.520058
13980 -8.08243938 10.8771318 -0.6009998400000001 -2.226445 0.7871600000000001 -0.447054
14000 -9.34237692 9.92616021 0.75966678 -2.646522 0.7794260000000001 -0.280131
14020 -9.652824180000001 7.9095479399999995 2.6503873200000005 -2.727762 0.900523 -0.123825
14040 -9.12292722 6.498889560000001 3.8079280800000004 -2.148997 0.938335 0.041471
14060 -7.61451219 6.59363454 2.86414722 -2.186796 1.679591 0.650212
14080 -5.40331857 7.52305356 1.1752085700000001 -2.127793 2.643691 0.592773
14100 -3.4419464100000003 8.48959362 -0.6020495100000001 -1.324337 2.154306 0.800906
14120 -2.9945221200000005 8.43420636 -2.14099326 -1.392259 1.513283 0.791639
14140 -2.07064575 8.20294542 -0.97911648 -0.937571 -0.018825 -0.073823
14160 -2.4071483700000003 7.12473813 0.20597076000000003 0.012997 -2.295855 0.035079
14180 -3.01757562 5.36948388 -0.39502908 0.762042 0.34031 0.282625
14200 -2.4737582700000003 4.2861852 0.58962024 0.278425 1.676639 -0.214916
14220 -2.78151759 3.24105723 0.08277678 -0.585537 1.513257 -0.43225
14240 -2.5533860400000004 3.1281931800000002 -0.15163317 -1.473017 1.240848 -0.271457
14260 -2.45549205 3.1234059000000003 -0.5903756099999998 -1.766672 0.8747459999999999 -0.105328
14280 -2.7842055300000004 3.7359324899999997 -0.8265807900000001 -1.70731 -0.117405 -0.061982
14300 -3.3748852500000006 4.383039330000002 -0.5929164 -1.912278 0.482444 0.09071
14320 -3.93741027 5.031931590000001 -0.11945637 -2.288885 2.645319 0.591645
14340 -3.93262299 5.78936169 -0.4263131700000001 -2.301494 3.5714650000000003 0.763422
14360 -4.1532597 8.05504986 -2.54979558 -2.20142 3.338567 0.577481
14380 -4.185897570000002 12.3205752 -8.30457702 -2.013455 2.669872 0.34036900000000003
14400 1.6646883300000002 15.7792869 -8.311316490000001 -1.841913 2.263879 0.222447
14420 6.75664731 15.52751325 -4.648282110000001 -1.709646 2.202918 0.167901
14440 2.58557265 10.535390640000001 -4.714892010000001 -1.585602 2.272768 0.175087
14460 0.29084688000000003 7.965533610000001 -2.29802193 -1.470596 2.335834 0.287973
14480 -6.19771275 11.611057140000002 1.03314996 -1.460448 2.659892 0.491659
14500 -16.502578200000002 19.15057188 -4.98373506 -1.64661 3.192477 0.665933
14520 -12.801677220000002 12.568758390000001 0.7548795 -1.945605 3.569716000000001 0.625973
14540 -6.858583020000001 2.2697298900000002 5.22459018 -1.85558 2.641824 0.557289
14560 -5.904766530000001 2.6634150000000005 3.0588855300000004 -1.2283309999999998 1.143151 0.5037699999999999
14580 -5.864800590000001 5.3627444099999995 3.77843922 -0.676475 0.586793 0.363059
14600 -5.791755330000001 9.03835521 5.2635064499999995 -0.414624 0.667994 0.342352
14620 -5.27308101 12.14005158 4.937186610000001 -0.4573390000000001 0.884443 0.33002600000000004
14640 -3.70599237 12.376109609999999 4.22885556 -0.65065 1.034424 0.286822
14660 -2.52015957 10.48958775 0.62510301 -0.747654 1.6149870000000002 0.374063
14680 -3.58459362 7.827369570000001 0.02185668 -0.190173 2.899055 0.586752
14700 -4.48033491 7.290438840000001 1.07686332 1.2315969999999998 3.639326 0.710034
14720 -4.3742005200000005 8.738679330000002 1.3921076700000001 2.87189 3.28404 0.491211
14740 -3.3988314600000002 9.942778350000001 1.8503033400000002 3.573545 2.975715 0.264703
14760 -2.4768974700000004 9.976907340000002 2.71534914 3.041846 3.4426690000000004 0.102294
14780 -1.5094647 9.45972414 3.0786526800000003 2.890296 3.481236 -0.08682100000000001
14800 -0.8074218599999999 9.255254310000002 2.44472067 3.404227 2.572235 -0.451672
14820 -0.17827713000000003 9.35150022 1.88996517 2.472448 3.215537 -0.67799
14840 0.8256782699999999 9.891128700000001 0.9982754100000001 1.7816869999999998 3.532513 -0.493078
14860 1.6488255600000001 10.83537063 -0.43829118000000006 2.147281 2.545697 -0.450803
14880 0.15208443 10.512641250000001 -2.87701794 2.448992 2.495648 -0.450768
14900 -1.4921010000000001 9.19103805 -3.0509590500000003 2.830167 1.893326 -0.404605
14920 -2.406393 9.270969930000001 -0.47316573 3.051127 0.974376 -0.159398
14940 -2.66146281 9.37125756 1.07296875 2.664343 0.544661 0.011503
14960 -2.9662300800000003 9.27022437 0.90142128 2.339732 0.205068 -0.030921
14980 -4.09338927 9.612259830000001 -0.39772683000000003 2.206649 0.261903 -0.275478
15000 -5.362146 10.3274775 -1.6896842100000002 2.059825 0.267019 -0.361968
15020 -5.949382409999999 11.347903890000001 -2.25236619 1.765175 0.215884 -0.372507
15040 -5.14584531 12.967682040000001 -1.8959590800000001 1.328118 0.147813 -0.28681
15060 -4.46431518 13.76402841 -2.07992601 0.973762 0.178619 -0.224163
15080 -4.474193850000001 13.48770033 -2.7012816 0.8298719999999999 0.019141 -0.17796199999999998
15100 -7.13521521 12.93041385 -0.7144623 0.411512 -0.06324199999999999 0.007228
15120 -9.27995589 12.601092150000001 1.57816413 -0.174488 0.071171 0.201652
15140 -9.97181595 9.97930098 3.78967167 -0.6861430000000001 0.096802 0.362552
15160 -11.31916059 10.734926040000001 1.5813131400000002 -1.102941 0.133579 0.317932
15180 -10.59750756 12.19634136 2.34217674 -1.282827 0.150384 0.001529
15200 -5.34269277 13.626315629999999 0.20866851000000003 -1.689663 -0.28341900000000003 -0.11933
15220 -1.46201373 13.846206780000001 -1.48700961 -2.85094 0.4636020000000001 0.022221
15240 -1.6528672800000002 13.45806432 -5.12264466 -3.166632 1.517716 -0.375509
15260 -3.62606049 12.79105299 -4.81743594 -3.789257 1.610454 -0.383181
15280 -4.60322478 9.14942403 -2.35879488 -3.71983 2.141628 -0.343853
15300 -4.4262916200000015 5.111274870000001 -1.3458535200000001 -3.919746 2.261634 -0.610322
15320 -3.0199692600000003 2.9374867800000004 -0.049246200000000004 -3.854692 2.556126 -0.785434
15340 -1.73908737 2.34397197 -0.64395783 -3.431889 2.922889 -0.962412
15360 -1.4103640800000001 2.9701246500000003 -2.68631154 -2.17477 1.7086439999999998 -1.294974
15380 -1.77905331 3.9651039000000003 -3.1793915700000004 -1.036913 0.6117279999999999 -1.561221
15400 -1.3882131 4.239479790000001 -4.07856636 -1.06194 0.438435 -1.626336
15420 -1.25619012 4.0757214600000005 -4.91218092 -1.209363 0.08143500000000001 -1.465607
15440 -0.94468338 2.73495933 -6.0935305500000005 -1.002437 -0.361439 -1.182651
15460 0.04431177000000001 1.7926695900000003 -7.24238946 -1.037583 -0.334629 -0.930831
15480 -0.27348318 1.3811793300000001 -8.53330698 -1.342725 -0.104403 -0.698248
15500 -1.10559681 2.10926772 -9.552683700000001 -1.444055 -0.006308 -0.366865
15520 -1.0352493 4.0163022900000005 -14.75182674 -1.245764 -0.122672 -0.210438
15540 -5.1503382900000005 6.402937950000001 -9.850417199999999 -0.930973 -0.178884 -0.27867
15560 -7.921673100000001 2.67298956 -3.2061826800000004 -0.859985 0.559621 -0.14132
15580 -7.377708600000001 5.915694870000001 -5.868999270000001 -0.941336 1.419921 0.305662
15600 -9.839037600000001 9.357494130000001 -0.41433516000000004 -1.079399 1.076357 0.29552399999999995
15620 -5.858963640000001 9.85340925 -1.3841713800000002 -1.18744 0.567196 -0.153231
15640 -5.438340270000001 11.346108659999999 -0.3559558500000001 -1.199135 0.242715 -0.250105
15660 -5.17788477 13.02381486 -0.4076055 -1.271829 -0.5442100000000001 -0.531615
15680 -4.569694200000001 13.96490778 -0.41942655 -1.243451 -0.782354 -0.675322
15700 -3.18372759 14.458282109999999 0.08262963000000001 -0.902717 -0.264462 -0.480257
15720 -1.06548372 13.492193310000001 0.36284247000000003 -0.6836939999999999 -0.070781 -0.353993
15740 -0.3150972 11.971653120000001 -0.43349409 -0.258722 -0.472787 -0.356919
15760 -1.9526903100000002 10.783877940000002 -2.1900923100000007 0.56609 -0.5635100000000001 -0.229264
15780 -3.29075469 9.33533334 -0.68721993 0.982715 -0.375508 0.079985
15800 -2.98928358 8.58210192 -0.88929612 1.165393 -0.161606 0.242288
15820 -2.6120694600000003 9.10900683 -1.04393115 1.556874 -0.203344 0.217302
15840 -2.4629770800000004 9.849073230000002 -1.31845419 2.213596 0.0176 0.07312300000000001
15860 -2.1323114100000007 9.49535406 -0.8990276400000001 2.7936330000000003 0.330173 -0.008683
15880 -1.0901853000000001 8.91485712 -1.66483548 2.633123 1.209441 0.026457
15900 -0.56028834 8.345896740000002 -1.0557522 1.930045 2.436907 0.301983
15920 -1.5413472000000001 7.61945643 -0.14235291 1.400823 3.161031 0.560141
15940 -3.73338189 6.450084810000001 -2.13979644 1.391915 2.749277 0.7069529999999999
15960 -4.371355620000001 6.81697881 -3.33506646 1.916239 1.7615889999999998 0.563398
15980 -3.5200830600000006 7.346277360000001 -2.32122258 2.177731 1.2432219999999998 0.497523
16000 -2.4695694 7.53562998 -2.27556684 2.127091 1.017179 0.858518
16020 -1.59133896 9.01500741 -3.88217997 2.197029 0.8605440000000001 0.807933
16040 -1.96735626 10.933264620000001 -4.06315485 1.98756 0.721959 0.747895
16060 -2.1375597600000003 12.00324132 -3.55285827 2.074127 0.010186 0.715228
16080 -3.06756738 13.063633650000002 -4.016449440000001 2.062404 -0.274003 0.665304
16100 -4.53152349 15.40027755 -3.82768542 1.962354 -0.471851 0.412759
16120 -4.9353913799999996 15.481406250000001 -3.03029919 1.855241 -0.805012 0.172087
16140 -5.02729146 12.60319149 -3.82409496 1.463731 -0.8513639999999999 0.114933
16160 -5.26530168 11.31706125 -2.95694982 1.067182 -0.974778 0.15291300000000002
16180 -6.364914389999999 11.376038970000002 -2.48916978 0.52367 -0.880999 0.348754
16200 -7.180566840000001 12.123139140000001 -1.15275348 -0.119523 -0.636731 0.559729
16220 -7.357352850000001 12.441228390000001 -0.34563573000000003 -0.654539 -0.606677 0.700164
16240 -6.16208283 13.3472898 1.31187168 -1.045418 -0.753154 0.639937
16260 -7.349867820000001 14.49989613 0.88465599 -1.393048 -0.108197 0.292715
16280 -7.10826714 11.545487099999999 0.91698975 -0.807318 -0.320519 -0.397266
16300 -7.462427760000001 8.56129491 0.37123002000000005 -1.514481 -1.196926 -0.129754
16320 -6.915618360000001 8.55845001 0.61282089 -2.179456 0.135908 -0.395685
16340 -5.48983296 7.54985448 0.96773688 -2.823348 0.655089 -0.468146
16360 -3.9490841700000003 6.43826376 -0.39756987000000005 -3.16556 0.593801 -0.828312
16380 -1.6881930900000002 6.85214766 -1.58624757 -3.044896 0.184038 -1.024565
16400 -1.2771442800000001 7.283856330000001 -2.86953291 -2.575031 0.32072399999999995 -0.981934
16420 -2.01600405 6.7816431900000005 -2.24757891 -1.841444 0.396195 -1.044204
16440 -1.52547462 5.996234970000001 -0.91010313 -1.217969 -0.276781 -0.855253
16460 -1.0190824200000002 3.8594207700000003 -0.8539703100000001 -0.858483 -0.8548290000000001 -0.467441
16480 -1.96675785 2.33798787 -0.5351355 -0.785325 -0.8841389999999999 -0.394254
16500 -1.98367029 1.4771309400000001 -1.16009136 -0.8669319999999999 -0.724219 -0.355504
16520 -1.37175192 1.6570561500000003 -1.94999256 -1.056977 -0.637742 -0.23837
16540 -1.21412484 2.64844494 -3.0499093800000003 -0.8166720000000001 -0.734791 -0.153246
16560 -1.20544299 3.79924623 -4.60862028 -0.480387 -0.97014 -0.197597
16580 -1.56873672 4.56640785 -5.0269971600000005 -0.24436 -1.845633 -0.17666700000000002
16600 -1.07117352 5.71211775 -7.90326954 -0.200518 -1.60591 0.042318
16620 2.04264801 9.74967831 -14.040199529999999 -0.8663690000000001 1.010694 0.54706
16640 -3.9025357200000004 12.481047180000001 -5.3302635 -1.049144 1.871285 1.009357
16660 -10.741665509999999 8.705001600000001 -2.6304828300000005 -0.760217 0.309912 0.6790229999999999
16680 -7.33220001 7.082368740000001 -5.804184600000001 -1.046645 -0.049439 -0.048908
16700 -8.491388850000002 5.84010882 -1.7491131900000003 -1.407249 0.195629 -0.282477
16720 -7.4324974500000005 7.484882850000001 -0.45610614000000005 -1.227071 -0.686476 -0.424298
16740 -5.89309263 10.095608340000002 -0.75518361 -0.972491 -1.0419889999999998 -0.450906
16760 -3.0943683000000006 13.57377327 0.35925201 -0.81367 -1.286592 -0.424914
16780 -1.12192065 16.226259929999998 -0.6050415600000001 -0.8566940000000001 -1.31434 -0.374973
16800 -1.03060917 15.11557173 -1.9734973199999999 -0.990784 -0.978513 -0.591052
16820 -2.6613156600000005 11.74068648 -3.17968587 -0.405873 -0.675917 -0.5798770000000001
16840 -2.4947124300000003 9.70476813 -2.7602593200000003 0.713676 -0.285722 -0.028832
16860 -2.47929111 8.83447398 -2.0528307900000007 1.325248 -0.320301 0.362181
16880 -2.8678848300000004 8.669371680000001 -1.9034441100000001 1.6582580000000002 -0.7455149999999999 0.382143
16900 -3.18193236 8.892558990000001 -0.7212017700000001 2.163047 -0.903101 0.192523
16920 -2.60368191 9.09388962 -0.6039918900000002 2.801743 -0.34174 -0.350665
16940 -1.93681773 9.513021870000001 -2.8885446900000002 3.093916 0.80435 -0.8329290000000001
16960 -1.8399734100000003 9.40898682 -2.31598404 2.673036 2.018586 -0.69001
16980 -2.38514454 8.312366160000002 1.60525935 1.710105 3.08123 0.268643
17000 -4.518505620000002 6.29725482 0.48828294 1.629822 3.166151 0.413251
17020 -5.64895116 5.369631030000001 -4.7005203600000005 2.115681 2.463738 0.091738
17040 -4.5274817700000005 5.9029713 -3.58160157 2.008135 2.382819 0.440399
17060 -2.9324052000000003 6.36955452 -1.2780468 2.078052 1.843469 0.725725
17080 -2.6595204300000006 7.861057110000001 -1.04782572 2.319313 1.13975 0.941957
17100 -1.17041148 9.41227317 -1.07086941 2.553512 0.7078180000000001 0.8629610000000001
17120 -0.46897686000000005 10.52147025 -3.51843498 2.80768 0.06652899999999999 0.641232
17140 -1.98531837 11.32425198 -5.881124430000001 2.679513 -0.397653 0.682592
17160 -3.9987816300000003 12.787609680000001 -6.4135621800000004 2.250623 -0.560511 0.755649
17180 -5.096599110000001 16.54105302 -5.209620120000001 1.927234 -0.788673 0.5517880000000001
17200 -4.27061673 17.270338230000004 -2.6348188500000003 1.3626049999999998 -0.954569 0.436962
17220 -4.31478135 13.29999579 -1.830546 0.679787 -1.140956 0.48691
17240 -5.0641182 12.205768769999999 -2.78450964 -0.228652 -0.945269 0.556158
17260 -5.6297922300000005 11.568393450000002 -3.05364699 -1.392146 -0.6915720000000001 0.459043
17280 -6.66563994 11.956535910000001 -2.1923388000000004 -2.06936 -0.123691 0.490973
17300 -7.8378466499999995 12.628187370000001 0.15178032 -2.79245 -0.351076 0.439212
17320 -9.08056764 11.82211929 1.82889792 -3.856546 -0.366952 0.270498
17340 -11.444296950000002 10.258915410000002 2.27107386 -3.5343720000000003 1.156866 0.139404
17360 -11.074420710000002 10.58075208 -1.04422545 -2.430642 0.442885 -0.222644
17380 -6.6862998 9.3559932 0.30282489 -1.98932 0.395399 -0.185318
17400 -4.1594007600000005 8.359365870000001 2.18051775 -2.049125 0.515339 -0.290575
17420 -3.40137225 8.82145611 0.9577110600000001 -2.128528 0.412074 -0.770629
17440 -2.3084990100000002 8.02675782 -1.24122006 -1.890865 0.091552 -1.273827
17460 -1.29929526 8.08723647 -1.68145362 -1.496154 -0.408306 -1.288589
17480 -1.88488359 7.43743188 -1.84999923 -1.01876 -0.7179479999999999 -0.992165
17500 -2.6491905000000004 6.321505139999999 -0.62075718 -0.758558 -0.659432 -0.666751
17520 -2.3605901100000004 5.06038059 -0.45370269 -0.816639 -0.618269 -0.520863
17540 -1.8047947500000001 3.68833437 -0.4543011 -1.062353 -0.533891 -0.363523
17560 -1.19197386 2.36762388 -1.04661909 -0.86411 -0.677883 -0.224153
17580 -1.2000573 0.85920885 -2.5333344 -0.482638 -0.8387819999999999 -0.277898
17600 -0.7568218800000002 1.3013946 -4.21343424 -0.25545100000000004 -1.187525 -0.375209
17620 0.30670965 3.15438588 -8.65530414 -0.096843 -1.6868490000000005 -0.318981
17640 1.1563439400000002 4.042190880000001 -8.98251669 -0.32369499999999995 -0.655801 -0.087947
17660 -0.0489519 -0.17708031000000002 -1.8645180300000002 -1.025268 1.712303 0.520482
17680 -5.983511399999999 -0.62180685 0.15657741000000003 -1.156506 1.321457 0.606592
17700 -7.09943814 6.7021625700000005 -5.73487695 -1.0829879999999998 0.466164 0.246075
17720 -12.61905426 20.530103130000004 -0.56373165 -1.098149 0.137105 -0.034552
17740 -9.441467730000001 22.263353549999998 -3.90268287 -1.364126 -0.408566 -0.273924
17760 -3.2618642400000004 12.80227563 -0.33994593000000006 -1.374983 -1.247623 -0.359451
17780 -1.78922628 8.95916889 0.16390548000000002 -0.912564 -1.610297 -0.107928
17800 -1.68639786 8.737629660000001 -1.2234051000000001 -0.7520720000000001 -1.2604229999999998 -0.096573
17820 -2.9181807 9.58516461 -1.1118850200000001 -0.579771 -0.829997 -0.259359
17840 -4.647987810000001 9.84233376 -0.38020617 0.180358 -0.583912 -0.120837
17860 -5.30601318 10.0733004 -0.30641535000000003 0.990684 -0.542619 0.038594
17880 -3.9788771400000003 10.99403757 -0.9714843000000001 1.392884 -0.462442 -0.113592
17900 -2.5035414300000003 11.069633430000001 -1.33028505 1.946151 -0.53596 -0.323277
17920 -2.20072635 9.935293320000001 -1.17011718 2.647583 -0.25913600000000003 -0.6274489999999999
17940 -2.69035326 8.87399847 0.02140542 2.992856 0.94926 -0.753704
17960 -2.59171371 8.63658666 0.02065986 2.408598 2.720743 -0.496204
17980 -2.9761087500000003 8.57416563 -1.0310604300000001 1.5248620000000002 3.083178 -0.057392999999999986
18000 -2.9093517 8.43241113 -1.62756729 1.11424 3.132683 0.4385350000000001
18020 -2.4923187900000006 7.997121810000001 0.6899176800000001 2.008921 2.441873 0.323892
18040 -4.34126835 6.223307040000001 0.6135762600000001 2.02947 2.0115 0.30642800000000003
18060 -4.13634726 6.537805830000001 -3.32114607 1.986218 1.947585 0.609582
18080 -3.95133066 7.18475571 -2.12917221 2.145251 1.56864 0.930577
18100 -2.8648927800000004 8.01912564 -0.8750814299999999 2.4465380000000003 1.175619 0.919298
18120 -2.121687180000001 9.429636870000001 -2.29967001 2.735761 0.797093 0.7572979999999999
18140 -1.6823561400000002 11.109746520000002 -3.31739865 2.741312 0.323216 0.709874
18160 -2.1257289 11.736939060000001 -3.5118426600000006 2.561233 -0.06300599999999999 0.747567
18180 -4.21058934 11.597578200000001 -4.29576957 2.089454 -0.15068299999999998 0.704859
18200 -6.018081840000001 14.471604090000001 -2.65787235 1.672057 -0.310723 0.596395
18220 -6.351288300000001 14.66455698 -0.73481805 1.29049 -0.827673 0.467274
18240 -5.33640456 11.88782667 -0.7611677099999999 0.8106949999999999 -1.2180879999999998 0.4815140000000001
18260 -5.334452370000001 11.02383054 -1.5928398900000003 0.009563 -1.122908 0.5505720000000001
18280 -6.45263541 10.7814843 -2.2957754400000003 -1.021909 -0.864607 0.5195350000000001
18300 -7.3057032 11.63291382 -2.1368043900000004 -1.979211 -0.64957 0.321361
18320 -8.02570815 12.16640124 -1.24151436 -2.741349 0.27007 0.372543
18340 -8.70170544 11.486813490000001 -0.17812998000000002 -3.451874 -0.266214 0.302037
18360 -8.136482670000001 10.605895109999999 -1.46230803 -3.720706 1.2078209999999998 0.345272
18380 -8.40248082 11.489354279999999 -1.6013745900000003 -2.61641 0.86972 -0.242649
18400 -4.772378610000001 10.225384830000001 0.6661186200000001 -2.049779 0.508282 -0.389915
18420 -3.82469337 9.865985669999999 0.73003077 -2.146367 0.557978 -0.213329
18440 -4.74258564 9.47200626 0.35491599000000007 -2.394467 0.4319520000000001 -0.449909
18460 -4.53676203 7.604339220000001 -1.01444229 -2.109167 0.165995 -1.053257
18480 -2.99272689 7.8900947100000005 -1.51664562 -1.630783 -0.201231 -1.27484
18500 -2.20192317 7.4184201000000005 -1.2521484 -1.194057 -0.562942 -1.241415
18520 -1.92365271 6.73599726 -1.7004654000000003 -0.913275 -0.716314 -0.959384
18540 -2.1977343 5.661821880000001 -1.2696592500000001 -0.6617350000000001 -0.830716 -0.5408729999999999
18560 -1.68699627 4.22002656 -1.6190325900000002 -0.916787 -0.648457 -0.344199
18580 -1.4124634200000001 2.97386226 -1.92215178 -1.032111 -0.7583810000000001 -0.194245
18600 -1.0124901 1.9669050000000001 -2.43723564 -0.67324 -0.925742 -0.210751
18620 -0.54890874 1.64313576 -2.5924592700000004 -0.194345 -1.40275 -0.418303
18640 -0.10044459 2.03367186 -3.91181598 0.139828 -1.878811 -0.4709060000000001
18660 0.3376994400000001 2.9325523500000004 -7.5017952900000004 -0.175878 -0.539081 -0.100951
18680 1.09571814 3.8068882200000003 -9.73815156 -0.881984 1.0779379999999998 0.527637
18700 1.3407621299999999 0.05837931 -4.567604670000001 -1.424408 1.073169 0.858208
18720 -4.38184251 -0.07005321 0.53588106 -1.514313 0.077269 0.636666
18740 -8.23781997 6.962176620000001 -7.07728716 -1.683141 -0.558978 0.054121
18760 -12.310098120000001 24.22113525 -2.52015957 -1.7643970000000002 -1.257942 -0.371771
18780 -8.823996900000001 20.23207533 -3.9764835 -1.282844 -1.896715 -0.620758
18800 -2.9073995100000003 10.645262640000002 -1.69178355 -0.632638 -1.796587 -0.383472
18820 -1.59028929 7.88904504 -1.13868594 -0.708494 -0.937333 -0.212051
18840 -1.63146186 9.13220748 -1.8029995200000002 -0.56514 -0.234364 -0.30809000000000003
18860 -2.9773055700000004 10.36909152 -0.5929164 0.233499 -0.272561 -0.239438
18880 -4.511020590000001 10.518772499999999 0.26644941 0.8631690000000001 -0.381508 0.08556699999999999
18900 -4.01315328 11.03924205 -0.34937334000000003 0.96279 -0.187333 0.191768
18920 -4.20235875 10.655592570000001 -0.7803266400000001 1.137465 -0.146932 0.060476
18940 -3.1154696100000003 10.625799599999999 -1.13598819 1.705766 0.004409000000000001 -0.183575
18960 -2.6310812400000003 9.70431687 -0.9981282600000001 2.337901 1.202143 -0.289653
18980 -2.7463389300000003 8.37044136 0.044007660000000004 2.605042 2.608886 -0.399617
19000 -2.49904845 8.060739660000001 0.12783411 2.207886 3.095743 -0.328239
19020 -2.430192060000001 8.256380490000002 -0.9874942200000001 1.357093 3.556621 0.238862
19040 -2.42690571 8.58015954 -0.52645365 1.371805 2.818347 0.501626
19060 -2.3287076100000004 7.79204376 0.50595075 2.227128 1.224238 0.407093
19080 -4.4143234200000006 5.92138467 -2.0303757 2.809321 1.201655 0.222114
19100 -4.31418294 5.087466 -3.8251446300000005 3.284852 0.964301 0.291969
19120 -3.15139383 6.75140877 -2.57958855 3.017496 0.73878 0.444215
19140 -2.4508519200000007 10.205627490000001 -1.78623423 2.898459 0.556262 0.635897
19160 -2.96263962 12.129280200000002 -2.7521758800000002 2.926886 0.125276 0.764835
19180 -2.80337427 13.210175430000001 -2.64260799 2.518983 -0.045395 0.90855
19200 -3.87708858 11.75834448 -2.8259765100000003 2.107843 0.016163999999999998 1.055151
19220 -5.508099179999999 10.81216998 -3.03283998 1.6459400000000002 -0.207954 1.291493
19240 -6.1412758200000015 12.802579740000002 -0.27977139 1.082858 -0.586471 1.332911
19260 -5.60075463 12.664562850000001 0.5373819900000001 0.648417 -1.067803 1.13394
19280 -4.77073053 11.332482570000002 0.25222491 -0.010717 -1.263741 0.8881690000000001
19300 -5.12773605 11.42618769 0.02095416 -0.834565 -1.187015 0.530871
19320 -6.170019120000001 11.979285299999999 -0.43529913000000003 -1.677804 -0.604508 0.246497
19340 -7.313345190000001 12.738059370000002 0.49636638 -2.437179 0.31897600000000004 0.399174
19360 -8.34005979 12.41473158 1.8299475900000002 -3.0438560000000003 0.348058 0.578633
19380 -8.271203400000001 11.211986340000001 1.15499997 -3.663121 1.689918 -0.118551
19400 -7.177574790000001 10.65992859 -0.9554645700000001 -3.082109 0.970375 -0.501336
19420 -6.5092096800000006 12.19154427 -2.59470576 -2.4996240000000003 0.774266 -0.448946
19440 -4.42525176 11.11438665 0.26853894 -2.310679 0.965746 -0.279092
19460 -3.3687441899999997 10.95153084 2.02049703 -2.5102830000000003 1.15075 -0.5499149999999999
19480 -2.3712143400000003 7.976461950000001 2.7881001000000003 -2.344055 0.919533 -1.212892
19500 -2.87821476 7.30166148 0.1591182 -1.891206 0.16424 -1.601867
19520 -2.2339528200000003 8.01073809 -3.0163788000000005 -0.9258 -0.81067 -1.593874
19540 -1.9483444800000003 7.566619770000001 -2.35056429 -0.10659 -1.225001 -1.254336
19560 -2.51851149 6.98672124 -1.02865698 -0.107079 -1.031272 -0.950144
19580 -2.171531790000001 5.92542639 -0.8309266200000001 -0.470412 -0.818336 -0.605783
19600 -1.7904231000000002 3.6782987400000002 -0.7964935200000001 -0.632771 -0.988547 -0.25739
19620 -1.93517946 2.34681687 -1.3973462100000003 -0.598734 -1.177508 -0.185339
19640 -0.87881904 1.89925524 -2.33184681 -0.367767 -1.334766 -0.219844
19660 0.37646856 1.6929803700000001 -3.22653843 -0.115229 -1.620164 -0.19635
19680 0.84619098 2.4092379 -5.95566081 -0.103003 -1.037386 0.041202
19700 2.07617859 4.21209027 -10.36204794 -0.685509 1.103931 0.5172260000000001
19720 3.1581333000000003 3.75688665 -7.98753744 -1.2383879999999998 1.36453 0.828155
19740 -1.6947756 -0.12977649 3.99683925 -1.468029 0.30548000000000003 0.536284
19760 -9.63141876 1.8342836100000002 -4.03651089 -1.364184 0.286122 -0.039806
19780 -9.37216008 14.351559120000001 -7.57275102 -1.282867 -0.397021 -0.301145
19800 -11.25973161 21.09443319 -3.38985531 -1.421872 -1.91987 -0.570425
19820 -3.41918721 16.6323645 -2.5572806100000003 -1.111733 -2.083463 -0.421702
19840 -1.71618102 11.293713450000002 0.60159825 -0.83394 -1.049917 -0.187146
19860 -0.98151012 9.278454960000001 -1.61199882 -0.790852 -0.402813 -0.34470300000000004
19880 -1.5494306400000002 9.596397060000001 -1.29345831 -0.128886 -0.5531020000000001 -0.364455
19900 -3.9231955800000002 9.836192700000002 -0.5029587000000001 0.681601 -1.047145 -0.063332
19920 -4.680321570000001 10.420731360000001 0.3305087100000001 0.8191069999999999 -0.7899079999999999 0.223583
19940 -4.24023516 11.92465341 -0.27812331 1.0845280000000002 -0.5662159999999999 0.263606
19960 -2.2540142700000003 12.45245103 -1.93621932 1.905527 -0.540027 -0.070387
19980 -1.9881632700000003 10.4060556 -2.05433172 2.843727 0.188623 -0.617038
20000 -2.3951703600000003 8.78777838 -0.7491897000000001 3.301097 1.628838 -1.003454
20020 -2.08605726 8.453816549999999 0.07663572 2.8160540000000003 3.157111 -0.7502909999999999
20040 -1.94056515 7.7746800600000014 0.05343507 1.920727 3.406187 -0.457761
20060 -2.32586271 7.531284149999999 -1.23987609 1.142467 3.191158 -0.08904400000000001
20080 -2.56102803 7.54326216 -0.62794791 1.781419 2.863218 -0.15145899999999998
20100 -2.84812749 7.72169625 1.78458615 2.202789 3.021812 -0.217085
20120 -4.44650022 6.07541148 -1.9595769299999999 2.308212 2.597085 -0.121801
20140 -5.17489272 7.055724780000001 -4.4999451000000015 2.281486 1.922658 -0.07198500000000001
20160 -3.20723235 9.262288080000001 0.3924882900000001 2.34535 1.643477 0.158486
20180 -2.98988199 9.003323700000001 0.06735546 2.479229 0.775058 0.363496
20200 -2.22572223 9.86883057 -4.66160409 2.557216 0.345391 0.385956
20220 -0.6822855 12.170590110000001 -5.20257654 2.807119 -0.058325 0.163893
20240 -1.5229338300000004 11.93812254 -5.163061860000001 2.768796 -0.463311 -0.023863
20260 -4.442164200000001 11.64473487 -4.01570388 2.330572 -0.680008 -0.065103
20280 -5.21290647 13.41494937 -0.8705884500000001 1.7938349999999998 -0.769472 -0.137103
20300 -4.41372501 13.97658168 -0.6737508 1.015155 -0.5798989999999999 0.016380000000000002
20320 -4.566555 12.430152900000001 -1.51080867 0.142922 -0.161588 0.324877
20340 -5.852675430000001 11.577977820000001 -1.59028929 -0.693239 0.139707 0.561136
20360 -7.17338592 11.35359369 -1.56813831 -1.311875 -0.0859 0.772885
20380 -8.00669637 12.10876749 -0.4309533 -1.811761 -0.140916 0.845308
20400 -9.14148774 12.601092150000001 1.2271525200000002 -2.433989 0.08055599999999999 0.878065
20420 -11.06708283 10.941200910000003 3.22084863 -2.943259 0.594356 1.234909
20440 -11.22710355 10.7006499 0.68527755 -2.232055 1.568784 0.16186
20460 -10.06626663 9.54864198 -1.6902826200000003 -2.3406290000000003 0.677515 0.16438
20480 -6.367612139999999 9.246572460000001 1.86347817 -2.514402 1.369682 0.114209
20500 -5.359301100000001 8.74690992 4.5955926 -3.2647060000000003 1.5332 0.099145
20520 -4.77910827 7.309744920000001 1.2487050900000003 -4.0144910000000005 2.07457 -0.368258
20540 -2.79873414 7.6746867299999995 -1.7871367500000002 -3.98836 2.477694 -1.035162
20560 -1.42129242 8.315054100000001 -2.58467994 -3.548482 2.459476 -1.122865
20580 -1.49389623 8.674757370000002 -2.1468400200000004 -3.278805 2.039441 -1.011485
20600 -1.6691813100000001 8.59273596 -1.5380510399999998 -2.710485 1.397713 -0.8635510000000001
20620 -0.96788403 6.084995850000001 -0.39113451 -2.002797 0.835677 -0.785248
20640 -0.85322475 3.7684134 -0.10762551000000001 -1.616523 0.566064 -0.8292069999999999
20660 -1.21218246 2.2384458 -1.14452289 -1.531965 -0.157262 -0.901396
20680 -1.4907472200000003 1.1907770400000002 -1.87844823 -1.363805 -0.4859520000000001 -0.900869
20700 -1.7004654000000003 0.82239192 -3.07236447 -1.24902 -0.906682 -0.74784
20720 -2.08846071 0.72988362 -4.36087854 -1.35736 -0.971439 -0.444071
20740 -1.09736622 2.34697383 -6.780603330000001 -1.3252700000000002 -0.541879 -0.26920900000000003
20760 -0.32827203 3.62231307 -9.512570610000001 -1.149318 -0.170262 -0.114632
20780 0.80847153 3.92992524 -12.23226558 -1.110297 0.093278 0.013489
20800 2.39307102 2.3138847 -12.10742352 -1.154928 0.327013 0.208363
20820 -0.6932040300000001 3.07849572 -2.83555107 -1.335106 1.287633 0.429132
20840 -6.00356304 8.3204496 -10.19500326 -1.621017 2.431965 0.620085
20860 -13.445193600000001 21.30669216 -1.85045049 -1.843188 2.912922 0.683078
20880 -8.789269500000001 7.333102530000001 -4.377045420000001 -1.814524 2.4767330000000003 0.515058
20900 -5.264556120000001 3.3120129600000006 -3.70450125 -1.677821 1.7572419999999995 0.238129
20920 -5.920786260000001 4.36223232 -1.6799526900000001 -1.443092 1.005466 -0.042347
20940 -5.56183836 9.190890900000001 1.30184586 -1.2252 0.630504 -0.23476100000000005
20960 -5.71586517 12.73132971 -0.008829 -1.1428 0.398191 -0.285162
20980 -5.392086120000001 13.524075810000001 -0.15268283999999996 -1.273839 0.25887 -0.229283
21000 -4.21882974 11.9155203 0.55489284 -1.553666 0.574581 -0.084228
21020 -3.1466065500000004 11.928096720000001 0.37467332999999997 -1.3809209999999998 0.553741 -0.084063
21040 -2.6668583100000003 11.70251577 0.55938582 -0.814995 0.6922520000000001 -0.04824
21060 -3.0205676700000006 10.989701550000001 0.20911977 -0.411057 1.2663870000000002 0.146125
21080 -2.6743433400000005 9.997106129999999 -0.31060422000000004 -0.34872600000000004 1.389759 0.408117
21100 -2.74514211 9.22516704 0.30386475 -0.095592 1.198369 0.631252
21120 -2.46522357 8.932220820000001 0.18755739000000002 0.520333 1.355675 0.7186739999999999
21140 -2.0281292100000003 8.61458283 0.6450075000000001 1.571849 1.410942 0.638354
21160 -2.23634646 8.555909220000002 1.3415076900000003 2.532816 1.314921 0.374929
21180 -2.6458943400000003 8.47582038 1.31112612 2.930662 1.538052 -0.091527
21200 -3.24555021 8.228392560000001 0.55100808 2.4209110000000003 2.515708 -0.115568
21220 -3.3822133200000004 7.8601545900000005 0.004492980000000001 1.207041 4.274392 0.158914
21240 -3.8458044900000004 7.460485380000001 1.05890121 0.308234 4.7553730000000005 0.269524
21260 -3.66064074 7.411092030000001 0.5387259600000001 0.43137 3.861134 -0.25083
21280 -2.9017195200000003 7.3569015900000005 0.21271023000000003 1.263887 2.831716 -0.881425
21300 -2.5445570400000004 7.619750730000001 -0.03592422 1.559596 2.1244400000000003 -1.154054
21320 -2.54905002 8.23437666 0.21974400000000002 1.1601 2.317441 -0.854785
21340 -2.6541347400000004 8.79241851 0.7337781900000001 1.108673 2.250692 -0.635005
21360 -2.8847972700000004 8.561147759999999 1.15050699 0.940224 1.859031 -0.579064
21380 -3.1540915800000002 8.68254651 0.56596833 0.5695180000000001 1.6233799999999998 -0.46812
21400 -4.0923396 9.13356126 -0.22722903 0.270046 1.37347 -0.316067
21420 -4.049381610000001 8.84719755 -0.6236020800000001 0.036029000000000005 1.303928 -0.304794
21440 -1.8925157700000002 10.54572057 -1.0310604300000001 -0.230221 1.358323 -0.35693
21460 -0.9563572800000001 10.65184515 0.61462593 -0.5735210000000001 1.365034 -0.40527
21480 -0.63962181 10.610682390000001 0.7693983000000001 -0.958859 1.367262 -0.362031
21500 -1.8657246600000001 11.49654501 -1.06398279 -1.29928 1.473409 -0.238495
21520 -2.9045644200000003 12.51637299 -1.3531815900000002 -1.710654 1.467916 -0.106765
21540 -3.6377343900000003 12.093797430000002 -0.3441348 -2.033074 1.230223 -0.059575
21560 -4.97820222 12.58657335 -0.5258552400000001 -2.251927 0.979509 -0.042622
21580 -7.001092890000001 11.67092757 -0.24983127000000002 -2.36282 0.925948 0.12758699999999998
21600 -7.94952369 9.872872290000002 1.1859799500000001 -2.137077 0.72128 0.497963
21620 -9.94711437 8.74705707 3.52396782 -1.828599 0.6452260000000001 0.867683
21640 -12.568464089999999 9.11933676 5.148690210000001 -1.223744 0.803165 0.8065439999999999
21660 -14.73341337 8.94974148 3.3012317700000002 -0.441321 0.93979 0.8599049999999999
21680 -10.547967060000001 8.741975490000002 2.12213844 -0.12793 0.5597880000000001 0.779259
21700 -4.978349370000001 9.48233619 4.060908360000001 -0.334388 0.537626 0.640045
21720 -2.9722239900000003 9.869880240000002 3.0826944000000003 -0.327038 0.70905 0.122857
21740 -2.66580864 9.235791270000002 0.70982217 -0.918319 0.33870900000000004 0.275162
21760 -3.2368683600000003 8.311012380000001 0.2874035700000001 -0.261477 -0.285424 0.208979
21780 -4.33124253 7.33355379 0.20087937 0.15357300000000002 1.778688 -0.5844560000000001
21800 -4.8359964600000005 6.221511810000001 0.2026746 0.213115 2.021052 -0.772357
21820 -4.36881483 5.583243780000001 -0.033383430000000006 -0.6252800000000001 2.181151 -0.655573
21840 -3.2623155 5.24284659 -0.27033417000000004 -1.179609 1.712722 -0.5146350000000001
21860 -2.5727019300000005 4.84812162 -0.59396607 -1.397011 0.634138 -0.4613600000000001
21880 -2.59679529 4.737798360000001 -0.6331864500000001 -1.935327 0.245237 -0.242432
21900 -2.7331641 4.43527758 -0.4773546 -2.778465 0.952189 0.053079
21920 -2.54336022 4.448452410000001 -0.42451794000000004 -3.011057 2.328673 0.483389
21940 -2.3772082500000002 4.6783693799999995 -0.97507476 -2.073498 2.679472 0.6550630000000001
21960 -2.18365695 5.60718999 -1.84386798 -1.386375 2.695057 0.424834
21980 -2.14787988 7.12069641 -3.1240043100000006 -1.336229 2.390485 0.357208
22000 -1.85764122 9.49729644 -5.422918950000001 -1.393442 2.52897 0.406837
22020 -1.26652005 12.79015047 -9.24358041 -1.548366 3.903823000000001 0.645411
22040 1.67367429 15.966393030000003 -10.78536906 -1.689861 4.699146 0.877345
22060 4.02962427 16.43701797 -7.35046623 -1.53529 3.715381 0.872207
22080 0.5956141500000001 12.19154427 -4.4102817000000005 -0.919153 2.844138 0.8327620000000001
22100 -1.94759892 8.95752081 -3.9333685500000004 -0.401325 2.98369 0.65033
22120 -4.627926360000002 8.1730053 -1.9208078100000001 -0.2284 2.479301 0.362696
22140 -7.055283330000001 8.72715258 2.46821562 -0.397773 1.777004 0.313275
22160 -13.58455446 13.42902672 4.63211523 -0.466028 1.392338 0.39768
22180 -21.126766950000004 16.00591752 -14.99013126 -0.264264 1.138276 0.35455
22200 -7.9836526800000005 4.30804188 3.88412235 -0.135871 1.0798020000000002 0.214516
22220 -5.6077884 1.16457453 5.05064907 -0.427798 1.017512 0.06086900000000001
22240 -4.96068156 4.533769980000001 1.60630902 -0.937934 1.089056 -0.07203999999999999
22260 -4.95514872 8.29050948 2.91009726 -1.272643 0.6630050000000001 -0.329137
22280 -4.50697887 11.95818399 3.2726454300000007 -1.601347 -0.054025 -0.551637
22300 -3.6124344 12.546313110000002 3.2701046400000005 -1.7537080000000005 -0.823276 -0.6553329999999999
22320 -2.3396359500000004 12.052781820000002 2.12123592 -1.558007 -0.678188 -0.6114229999999999
22340 -1.3793841 9.18864441 -0.3555144 -0.966374 0.159199 -0.611568
22360 -2.7390010500000006 7.1301238200000014 0.34143705 -0.665416 0.501895 -0.525515
22380 -3.3617104200000005 9.1157463 1.9437043500000002 -0.456277 0.157647 -0.399699
22400 -4.1444307 11.17156914 1.81587024 -0.066817 -0.114111 -0.442564
22420 -3.93381981 11.554325910000003 0.46986957000000007 0.361488 0.015336 -0.418374
22440 -3.0005062200000006 10.95856461 1.99325466 0.741416 0.206161 -0.25039
22460 -1.711845 9.895170420000001 2.6470911600000004 1.099059 0.402476 -0.103934
22480 -0.98719992 8.54034075 -0.50145777 1.397548 0.663184 -0.025271
22500 -2.1630069 8.722512450000002 -2.6168567400000002 1.66819 0.976834 -0.108172
22520 -1.95883137 9.05437494 0.52824888 1.92673 0.931689 -0.23129
22540 -1.12940568 9.36692154 0.79050942 2.135701 0.675137 -0.457033
22560 -1.30648599 9.39820563 -0.36523611 2.443144 0.980641 -0.665717
22580 -1.1201254200000001 8.796156120000001 -0.0606258 2.4642630000000003 2.817159 -0.679673
22600 -0.55385298 8.90588097 -0.78736041 2.538029 4.254043 -0.700227
22620 -0.7161103800000002 9.32111865 -0.74679606 2.908374 4.051286 -0.932389
22640 -1.6973163900000001 8.89121502 -0.40625172 3.191758 2.745339 -1.197928
22660 -2.13441075 8.64287487 -0.10269108 2.966316 1.368239 -1.078097
22680 -1.8359316900000002 8.56129491 1.13419296 2.832104 0.5854699999999999 -0.4819640000000001
22700 -2.4171741900000003 9.49221486 0.8240400000000001 2.768294 0.908636 0.274546
22720 -2.8051695 11.771823420000002 -0.01437165 2.8780650000000003 1.24661 0.641279
22740 -3.1789403100000007 13.836024000000002 -1.0270187100000001 2.9388080000000003 0.413776 0.535949
22760 -5.04630324 15.175295010000001 -2.0246859 2.794902 0.013544999999999998 0.582458
22780 -5.82573717 15.90353055 -0.03503151 2.727098 -0.32828 0.609128
22800 -5.273679420000001 13.14910818 1.89101484 2.447091 -0.496438 0.546499
22820 -4.65966171 11.11154175 3.7857771 1.958394 -0.779036 0.512469
22840 -4.47330114 10.46294379 3.56737707 1.427449 -0.918931 0.526031
22860 -4.04833194 10.86934266 2.7514303200000003 0.670588 -0.867886 0.671298
22880 -4.15281825 11.080110509999999 1.9606266 -0.243766 -0.700282 0.8420219999999999
22900 -4.30414731 11.048669460000001 1.6842985200000002 -1.169927 -0.625009 0.935869
22920 -4.30804188 10.170301680000001 1.67831442 -1.7826229999999998 -0.377215 0.772107
22940 -5.17339179 9.32066739 1.63115775 -1.548786 -0.191232 0.6794979999999999
22960 -6.79017789 9.45628083 1.09691496 -2.373623 -0.7781859999999999 0.592236
22980 -8.65066401 9.95789556 0.41882814000000007 -3.030666 0.215733 0.358841
23000 -10.36489284 9.605226060000001 0.01616688 -3.050322 0.296986 0.303052
23020 -9.906844320000001 9.36318393 0.54546543 -3.377317 0.248736 0.132051
23040 -7.2194831100000005 9.953549729999999 -0.09595161 -3.152289 0.662404 -0.14785
23060 -4.976102879999999 10.696156920000002 0.5998030200000001 -2.627206 0.930012 -0.392352
23080 -2.27272194 10.66412727 -0.7262931600000001 -2.0426290000000003 0.9329999999999999 -0.84654
23100 -0.786762 10.140508709999999 -1.58370678 -1.631807 0.474452 -1.082365
23120 -0.3305087100000001 9.82542132 -1.56649023 -1.484171 -0.579683 -0.800108
23140 -2.4321442500000003 8.39364201 -2.17363113 -1.545281 -0.930601 -0.37066
23160 -3.31919388 7.47081531 -2.5397697600000004 -1.471313 -0.659987 -0.177142
23180 -3.8160115200000004 6.87056103 -1.9050921900000002 -1.411739 -0.329423 -0.04469
23200 -3.21052851 5.65344414 -0.5742087300000001 -1.150415 -0.27946 0.021164
23220 -1.58879817 4.67987031 -1.00097316 -0.707658 -0.349964 -0.047223
23240 -1.6013745900000003 3.3410505600000007 -2.16659736 -0.395307 -0.476468 -0.117519
23260 -1.69447149 1.81646865 -2.6440991100000004 -0.226315 -0.702453 0.038844
23280 -1.19271942 0.6087791700000001 -2.85831027 -0.314021 -0.298212 0.25563
23300 -1.03570056 -0.018413370000000002 -4.01958864 -0.769674 1.313238 0.46189
23320 -0.93600153 1.28657169 -5.69041803 -1.010111 1.7845950000000002 0.543996
23340 -0.6277909500000002 3.0915234000000003 -8.45127576 -1.006917 0.667668 0.138457
23360 -0.3700332 5.3612532900000005 -13.019027580000001 -0.987888 0.053234 -0.201385
23380 -3.83592582 6.78493935 -3.2906075400000003 -1.002573 -0.07900599999999999 -0.15217999999999998
23400 -10.009682549999999 4.30175367 -0.33275520000000003 -1.179278 -0.5680029999999999 -0.256405
23420 -8.2222515 7.3389394800000005 -5.272933860000001 -1.333784 -0.864266 -0.359654
23440 -11.457923039999999 10.07764623 -1.2376296 -1.149557 -0.90341 -0.320929
23460 -8.1730053 10.530897660000003 -2.68242678 -0.903042 -1.052641 -0.24530900000000005
23480 -6.1450232399999996 12.33884142 -0.78286743 -0.663108 -1.189386 -0.355621
23500 -4.95589428 13.054353390000001 0.48978387 0.0276 -1.244341 -0.265268
23520 -3.57890382 12.77668134 0.13157172 0.8391040000000001 -1.042741 0.030698000000000007
23540 -3.46799196 11.75759892 -0.37032750000000003 1.233636 -0.6073890000000001 0.041442
23560 -4.828364280000001 11.693981070000001 -1.95178779 1.806951 -0.489242 -0.164076
23580 -4.615506900000001 11.67826545 -1.83114441 2.486873 -0.197644 -0.415006
23600 -3.36380976 11.333983500000002 -0.8440916400000001 2.860228 0.867834 -0.522722
23620 -2.9294131500000002 10.607543190000001 -0.9285165000000001 2.638959 2.3582810000000003 -0.362739
23640 -3.3178499100000005 9.64219995 -0.65309094 2.094945 2.579887 -0.164929
23660 -3.59327547 8.68673538 -0.5011536600000001 1.363471 2.650917 0.288138
23680 -3.6739627200000005 8.240664870000002 -0.79424703 1.364771 2.635314 0.459082
23700 -3.73758057 7.6350248999999994 -1.2440649600000002 1.883902 2.037049 0.436769
23720 -2.9482679700000003 7.31258982 -1.19107134 1.8339330000000005 1.487154 0.7992520000000001
23740 -2.1999709800000002 6.39275517 0.21360294000000002 2.287463 1.020217 1.025209
23760 -2.7632513700000003 5.7131674199999996 -0.84439575 3.195517 0.306526 0.760069
23780 -2.78690328 6.43107303 -3.57382224 3.30946 0.08100700000000001 0.581693
23800 -2.37376494 7.619907690000001 -2.72987775 3.3309370000000005 -0.34631 0.598414
23820 -2.35490031 7.52575131 -1.59224148 3.055397 -0.629846 0.6139439999999999
23840 -1.95582951 8.23976235 -2.93479884 2.609813 -0.488972 0.669403
23860 -1.37354715 9.962977140000001 -3.82963761 2.489461 -0.722742 0.6261329999999999
23880 -1.39060674 11.229202890000002 -3.34269864 2.187448 -0.8045260000000001 0.561104
23900 -2.91877911 11.58037146 -3.3033311100000002 1.7783060000000002 -1.214072 0.503223
23920 -5.060076480000001 13.88377908 -3.74386878 1.07772 -1.291845 0.5796140000000001
23940 -5.56183836 16.33897683 -3.01652595 0.158526 -1.019805 0.7448279999999999
23960 -4.96173123 15.168555540000002 -3.1623221700000004 -0.721792 -0.659419 0.894178
23980 -4.2728632200000005 12.866344740000002 -3.1267020600000004 -1.634249 -0.54201 0.828902
24000 -5.657937120000001 11.736939060000001 -3.3178499100000005 -2.213794 -0.036547 0.668245
24020 -6.82849575 12.18481461 -2.8674335699999998 -2.147332 0.076812 0.234866
24040 -7.7246883 12.74374917 -1.31725737 -2.960101 -0.210793 0.135554
24060 -7.652839860000001 12.47880069 0.5213622600000001 -2.945359 0.8312959999999999 -0.205373
24080 -7.202276370000001 11.687996970000002 0.8598072600000001 -3.193305 0.943071 -0.237158
24100 -7.951760370000001 11.342959650000001 0.66387213 -3.105669 0.968366 -0.245124
24120 -8.01553518 10.044714059999999 0.9361486800000001 -2.965313 0.766926 -0.341094
24140 -5.32487781 8.30442987 0.5502527100000001 -2.804876 0.695642 -0.502252
24160 -3.4420935600000004 8.72744688 -1.1966139900000001 -2.540544 0.7865850000000001 -0.829534
24180 -1.9984932000000002 9.55029006 -0.28934595 -1.963793 -0.006036 -1.048816
24200 -1.0886843700000002 9.01859787 -0.18576216000000004 -1.312732 -0.804445 -0.951379
24220 -1.12221495 7.9198778700000005 -1.51454628 -0.762223 -1.201789 -0.63083
24240 -2.50698474 6.195917520000001 -1.56349818 -0.423102 -1.327128 -0.483023
24260 -3.26770119 5.7119706 -0.59066991 -0.432323 -1.378636 -0.38154
24280 -3.00260556 5.45345748 -0.95456205 -0.494054 -1.39834 -0.196076
24300 -2.7496350900000004 4.4652177 -1.20783663 -0.293491 -1.615382 -0.171964
24320 -2.45159748 3.6943184700000002 -1.16413308 -0.066525 -1.4276719999999998 -0.1578
24340 -2.95021035 2.8891431 -1.97903016 -0.004914 -1.224521 -0.131993
24360 -2.9428822800000005 2.43453789 -2.48976819 -0.405256 0.026063 0.226804
24380 -2.7232854300000007 1.9743900300000001 -3.16187091 -1.025599 1.784157 0.666734
24400 -2.15686584 2.2676305500000007 -4.6288288799999995 -1.058933 1.4944959999999998 0.672214
24420 -1.6121459699999998 2.41657578 -6.999896070000001 -0.767163 0.476761 0.25254
24440 -0.75233871 2.99961351 -11.304494640000001 -0.771311 0.192534 -0.060114
24460 -0.18695898 4.84872003 -9.59010885 -1.232089 -0.281934 -0.088362
24480 -9.96402681 5.56198551 0.01437165 -1.50219 -0.768046 -0.300065
24500 -8.71128 10.85257737 -7.847578169999999 -1.198618 -1.022058 -0.443965
24520 -8.689276170000001 14.640905070000002 -3.9371159700000002 -0.966013 -0.823376 -0.248179
24540 -5.82858207 11.137891410000002 -2.47256145 -1.068473 -0.644915 -0.29933000000000004
24560 -3.50212095 10.5298578 -2.8253781 -0.607116 -0.7011689999999999 -0.21805500000000005
24580 -1.6242711300000001 10.53853965 -0.47855142 0.330009 -0.975359 0.138151
24600 -0.6566814000000001 10.57131486 -0.7703008200000001 1.095587 -0.7504109999999999 0.229736
24620 -1.2623213700000002 10.38734793 -0.40220999999999996 2.089085 -0.371918 0.08770800000000001
24640 -2.7695395800000004 10.289453940000001 -0.09310671 3.226253 0.035246 -0.42189
24660 -3.8622656699999998 12.22971498 -1.43087679 3.427656 1.1720270000000002 -0.8951620000000001
24680 -3.50600571 12.3928749 -2.0477394 2.696387 2.565656 -0.5901350000000001
24700 -2.4551977500000004 11.08924362 -1.3004920800000002 1.5301280000000002 3.889244 0.290919
24720 -3.2500431899999995 10.36085112 -1.33372836 0.705117 4.879412 0.8735459999999999
24740 -4.21478802 9.624237840000001 -0.7417046700000001 1.508452 3.267705 0.696421
24760 -3.9619647000000002 8.773259580000001 -0.41104881000000004 2.154452 1.800283 0.537239
24780 -3.71587104 8.07705369 -0.18831276000000002 2.559457 1.808057 0.6394029999999999
24800 -3.7673637300000005 8.11612692 -1.02297699 2.722774 1.095006 0.859374
24820 -3.4307139600000003 7.1876006100000005 1.0656308700000001 2.707239 0.436922 0.8088350000000001
24840 -2.9979654300000003 5.95730889 0.0076321800000000006 3.016404 -0.25697600000000004 0.6420359999999999
24860 -3.8327768100000004 5.72454702 -2.53707201 2.717499 -0.505323 0.669108
24880 -3.65435253 6.60441573 -1.6163348400000004 2.303537 -0.5749810000000001 0.599008
24900 -3.9561277500000003 6.9072406200000005 -0.21120930000000002 2.120993 -0.672053 0.52415
24920 -3.89474658 7.15107798 -2.324813040000001 1.886111 -0.8814649999999999 0.34972600000000004
24940 -1.7603358300000003 9.31288806 -2.44695735 1.63057 -1.13147 0.221143
24960 -0.19130481000000002 11.67960942 -3.70554111 1.303027 -1.327577 0.262903
24980 -1.98067824 12.08616525 -4.47749001 0.679377 -1.010926 0.470717
25000 -4.394409120000001 14.88444813 -4.5336228300000005 -0.11123800000000003 -0.489503 0.763629
25020 -5.796993870000001 17.03248497 -2.43648027 -0.740535 -0.545415 0.905651
25040 -5.57829954 15.56717508 -2.5379745300000005 -1.409789 -0.793768 0.722902
25060 -4.684961700000001 13.495489470000003 -3.77948889 -1.669833 0.22646 0.4922470000000001
25080 -5.38864281 12.084821280000002 -4.728812400000001 -2.133324 -0.31758800000000004 0.284608
25100 -6.10954047 11.93558175 -3.04407243 -3.008324 -0.081482 0.07416299999999999
25120 -6.56399853 12.27537072 -0.32916474 -3.076288 0.735574 -0.130321
25140 -8.46474489 10.56937248 1.4687433900000002 -2.882944 0.932352 -0.22322600000000006
25160 -10.7877627 11.602375290000001 -0.94752828 -2.858644 0.97863 -0.361985
25180 -10.13182686 11.11124745 -1.2611245500000001 -3.05726 1.081972 -0.458576
25200 -6.27180768 8.911717920000001 0.39263544 -3.137836 1.08684 -0.8063170000000001
25220 -3.22564572 9.52259643 1.4012407800000002 -2.754326 0.617097 -1.14914
25240 -0.6536893500000001 10.33540398 0.8033801400000001 -2.117843 0.100008 -1.326698
25260 -0.27797616 9.35974062 -2.93898771 -1.283621 -0.574253 -1.265527
25280 -0.6417113400000001 8.05534416 -3.1147240500000004 -0.6454300000000001 -1.146683 -0.925983
25300 -0.9342063 6.80125338 -1.3238496900000003 -0.44075 -1.368009 -0.633713
25320 -1.8390708900000001 5.47426449 -1.4088729600000003 -0.350476 -1.550013 -0.4854350000000001
25340 -2.0269323900000003 4.1692794300000005 -1.77965172 -0.440644 -1.509872 -0.322678
25360 -2.23770024 3.11113359 -1.6735173300000001 -0.4779310000000001 -1.36752 -0.191729
25380 -2.03142537 2.63886057 -1.6341498 -0.334946 -1.151661 -0.217713
25400 -1.60630902 2.1814104600000004 -1.87200306 -0.161208 -0.86711 -0.132474
25420 -1.5820587000000002 2.39711274 -2.56416723 -0.097469 -1.239771 0.031886000000000005
25440 -1.7368408800000001 2.2806582300000002 -4.03231221 -0.651726 0.121333 0.325373
25460 -2.07318654 2.5268990400000004 -5.811218370000001 -1.249386 1.898693 0.722708
25480 -1.5214329000000002 3.19091832 -7.2512184600000005 -1.123795 1.067549 0.67124
25500 -0.025594290000000002 4.23005238 -9.08999505 -0.569462 -0.475979 0.177162
25520 1.4088729600000003 4.584213 -7.968084210000001 -0.715917 -0.20338 -0.200225
25540 -5.51542725 3.79072134 -2.57779332 -1.271523 0.284488 -0.24425500000000006
25560 -8.75319813 5.988445830000001 -5.376066389999999 -1.324031 -0.538547 -0.304456
25580 -7.93694727 14.697489150000001 -7.01875089 -1.131494 -1.573766 -0.26226
25600 -8.38077129 15.401768670000001 -2.74528926 -1.15688 -1.520323 -0.018951
25620 -4.738995180000001 11.376195930000002 -3.62247003 -1.196743 -1.239583 -0.12747999999999998
25640 -3.16561833 9.036255870000002 -0.78481962 -0.622973 -1.005382 -0.318189
25660 -1.62501669 10.010585070000001 -0.66282246 0.358493 -0.795593 -0.086207
25680 -1.47173544 12.000543570000001 -1.62157338 0.954018 -0.555573 0.11313
25700 -2.85037398 11.94695154 -0.14250006 1.228743 -0.523159 0.027413
25720 -3.5700748200000003 11.148515640000001 0.2989303200000001 1.839067 -0.696152 -0.396459
25740 -3.5660331000000003 12.1381092 -1.00889964 2.70357 -0.086042 -0.805673
25760 -2.89617687 12.02285151 -2.18231298 3.059149 1.85376 -0.831312
25780 -2.71699722 10.50036894 -1.09872 2.323636 3.658877 -0.595208
25800 -3.2262441300000004 8.903938590000001 -1.21637133 1.174077 3.067727 0.114297
25820 -3.5660331000000003 8.05834602 -0.7725473100000001 1.171805 3.060402 0.615286
25840 -3.9016332000000005 7.98873426 -0.23395869 2.24593 2.19727 0.282064
25860 -3.7541889 8.31401424 -0.22318731000000003 2.055928 1.832017 0.412596
25880 -3.2808760200000004 8.29440405 -1.1587375800000002 2.119837 1.891227 0.734502
25900 -2.28843756 7.95849984 -1.12176369 2.810206 1.314174 0.853295
25920 -1.9809823500000001 6.84511389 1.1150340300000001 3.013363 1.130424 0.807948
25940 -3.6025557299999997 5.86644867 -1.6060147200000001 3.068095 0.5747720000000001 0.6552180000000001
25960 -4.636461060000001 6.575074020000001 -3.19974732 2.942675 0.017759999999999998 0.46598
25980 -3.49762797 7.11111204 -1.01308851 2.2890770000000003 0.180602 0.535982
26000 -2.8629504 7.741149480000001 -0.27527841000000003 1.927876 -0.115644 0.607546
26020 -1.98038394 8.45097165 -1.19226816 1.704291 -0.555615 0.5381819999999999
26040 -1.2807347400000002 10.081530990000001 -2.42406081 1.286885 -1.086797 0.5359470000000001
26060 -1.11368025 12.190945860000001 -2.7693924300000003 0.583226 -1.335158 0.650991
26080 -3.8399675400000004 11.984376690000001 -3.3232356000000003 -0.8033239999999999 -0.964044 0.687832
26100 -6.06284487 15.378116760000001 -2.39906493 -1.94504 -0.774751 0.427514
26120 -7.033720949999999 16.97470407 0.10822392 -2.783347 0.034434 0.461214
26140 -6.1252659000000005 13.746664710000001 -0.3526695 -3.3040510000000003 0.157033 0.357007
26160 -5.50540143 11.431131930000001 -1.65031668 -3.551856 0.381291 0.16805
26180 -6.537658680000001 10.651099590000001 -3.03852978 -3.303913 0.408177 -0.376114
26200 -7.35420384 11.824660080000001 -3.7097397900000004 -2.632101 0.076859 -0.15521600000000002
26220 -7.348671 12.495114720000002 -2.828223 -2.332996 0.131328 -0.183107
26240 -6.7539593700000005 12.765154590000002 -1.4883535800000003 -2.446196 0.055122 -0.4743560000000001
26260 -6.457118580000001 11.675567700000002 -1.3148637300000001 -2.351996 -0.024719 -1.101711
26280 -7.71450552 11.794121550000002 -0.9392976900000001 -1.900095 -0.312217 -1.524406
26300 -5.463787409999999 11.881391310000001 0.95142285 -1.185824 -0.969605 -1.582668
26320 -4.377643830000001 8.74272105 1.76632974 -0.529679 -1.407512 -1.066913
26340 -4.89586689 8.976532590000001 2.16973656 -0.292423 -1.432158 -0.704166
26360 -5.1654555 7.49745927 0.79589511 -0.368939 -1.217303 -0.555424
26380 -2.93210109 7.504345890000001 -0.02170953 -0.594771 -1.109998 -0.28794699999999995
26400 -2.21763879 7.5058370100000005 -2.2040127000000003 -0.616943 -1.138251 -0.129969
26420 -1.48581279 7.486678080000001 -1.5199417800000004 -0.352001 -1.149466 -0.218903
26440 -1.6265176200000002 6.2670204 -1.08524106 -0.044869 -1.113516 -0.151642
26460 -2.5791372900000002 4.09458609 -1.55152017 -0.189736 0.025323 0.22510500000000006
26480 -2.3682222900000003 3.10993677 -0.35700552 -0.640099 1.104418 0.622228
26500 -1.5955278300000002 3.17998998 -0.7339253400000001 -1.06861 1.020411 0.6898449999999999
26520 -0.7939527300000001 2.66640705 -2.2589487 -1.100918 0.332943 0.543086
26540 -0.26614530000000003 1.78353648 -4.99017042 -0.904399 0.083112 0.245677
26560 1.34794305 1.37489112 -10.29215169 -1.055724 0.137795 0.022359
26580 1.43551692 -0.09744273000000002 -9.04120011 -1.27088 0.028515 -0.168079
26600 3.18447315 -1.8375797700000003 -0.9484308 -1.018789 -0.481151 -0.270351
26620 -6.764730750000001 1.10395854 -1.2976471800000002 -0.8524200000000001 -1.005706 -0.304836
26640 -8.80992936 12.29318568 -10.042918830000001 -0.915465 -0.8814379999999999 -0.158021
26660 -10.38165813 23.517150030000003 -1.13778342 -0.760677 -0.691024 -0.224482
26680 -3.8077809300000003 17.74634886 -3.1654711800000004 -0.122936 -0.553525 -0.264
26700 -1.6363962900000002 12.00324132 -0.31658832000000003 0.434813 -0.423046 -0.077606
26720 -1.4741388900000003 9.93498921 -1.13883309 0.731163 -0.4836 0.156346
26740 -2.53303029 10.20772683 -0.47810997000000005 0.984365 -0.473559 0.089736
26760 -4.575384 9.860747130000002 0.55549125 1.508637 -0.346723 -0.115068
26780 -5.633088389999999 9.90460764 0.9165483000000001 2.210438 0.033346 -0.398005
26800 -6.655310010000001 10.82773845 0.6647648400000001 2.652162 1.558923 -0.5400159999999999
26820 -4.22361702 11.13040638 -0.7839171000000001 2.632382 2.949861 -0.444728
26840 -3.09631068 9.57199959 -0.96115437 2.197572 2.75361 -0.274462
26860 -3.0772989000000006 8.20309257 -1.00157157 1.499336 3.226682 0.307577
26880 -2.7407962800000005 7.2889379100000005 0.05568156 1.606611 2.84732 0.511774
26900 -2.27437002 7.430398110000001 0.18965673000000005 2.12292 1.834769 0.465404
26920 -2.5815309300000004 7.005134610000001 0.08053029000000002 2.5020740000000004 1.479659 0.496281
26940 -2.8853956800000002 7.018907850000001 0.5742087300000001 3.0237700000000003 0.949675 0.446125
26960 -2.9773055700000004 7.040607570000001 -0.67315239 2.940586 0.784586 0.510917
26980 -4.29053103 6.65860617 -2.5423105500000003 2.839251 0.487983 0.446496
27000 -4.944367530000001 6.95079702 -1.6860937500000002 2.679091 0.269968 0.493726
27020 -4.3123779 7.474258620000001 -0.3176379900000001 2.444901 0.012475 0.35462
27040 -4.03410744 7.842339630000001 -1.1169764100000001 2.160305 0.208814 0.25303600000000004
27060 -3.5880369300000003 8.929228770000002 -1.2298404600000001 1.761812 0.212786 0.13808399999999998
27080 -2.30086683 10.60050942 -0.64560591 1.4237 -0.141284 -0.001625
27100 -1.06653339 11.66823963 -1.8675198900000003 1.061922 -0.473166 -0.075297
27120 -2.64260799 10.67609547 -2.4092379 0.327491 -0.319368 -0.071011
27140 -5.072800050000001 10.96889454 -1.90763298 -0.524055 -0.013224 0.031608
27160 -5.3275755600000005 14.538213990000003 -0.6116240700000001 -1.268175 0.049392 0.202586
27180 -4.938226470000001 14.9028615 -0.52166637 -2.146172 -0.18825 0.186076
27200 -4.98119427 12.98040561 -1.15545123 -2.616613 0.534589 0.181864
27220 -5.159618550000001 12.06386712 -1.15918884 -2.975127 0.635534 0.290325
27240 -6.08365188 11.73229893 -1.0011203100000001 -3.475236 0.401118 0.470866
27260 -6.80949378 12.04650342 -0.78736041 -3.022402 0.566327 0.056143
27280 -7.13550951 12.453647850000001 0.71775846 -2.565878 0.24115100000000006 -0.006481000000000001
27300 -8.23901679 12.0023388 1.2301445700000002 -2.496113 0.6019140000000001 0.024522
27320 -7.912392840000001 10.96529427 0.17348985 -2.776382 0.463123 -0.188766
27340 -8.291412 11.08220004 -0.44906256 -2.743998 0.214855 -1.00007
27360 -6.81742026 10.85078214 -0.7683486300000001 -2.288937 -0.088715 -1.6684139999999998
27380 -5.351668920000001 10.089918540000001 1.2549933 -1.603699 -0.633847 -1.801798
27400 -4.93793217 8.680751279999999 2.4869331000000003 -0.917924 -0.8981790000000001 -1.295673
27420 -3.81811086 7.805669850000001 1.22010894 -0.757901 -0.95465 -0.633253
27440 -2.6427551400000002 9.02668131 -2.54486115 -1.056412 -0.701961 -0.429495
27460 -1.55766123 9.43936839 -4.040542800000001 -1.158039 -0.724023 -0.15243900000000002
27480 -1.9220046300000002 8.39603565 -2.7271800000000006 -0.831094 -0.932472 0.010345
27500 -3.62111625 6.06344328 -1.7631807300000002 -0.295632 -1.332203 -0.124272
27520 -3.7859242500000003 3.10783743 -1.3793841 -0.014226 -0.963332 -0.172985
27540 -3.1320877499999997 1.2958519500000003 -1.75195809 -0.33429200000000003 0.109066 0.187669
27560 -2.03097411 0.27602397 -2.46552768 -0.982027 1.091345 0.724542
27580 -0.50714757 -0.01018278 -2.88495423 -1.180404 1.612936 0.994885
27600 0.21061089 -0.045351630000000004 -3.77515287 -0.76227 0.816933 0.693314
27620 0.6575839200000001 0.44367687000000006 -5.7032887500000005 -0.761073 0.443571 0.288945
27640 0.6116240700000001 1.79881065 -7.54161408 -1.224341 0.276268 0.171623
27660 1.3328258400000002 3.2187591 -10.32013962 -1.072098 -0.5645359999999999 0.115012
27680 2.92327209 3.4387974000000003 -8.72461179 -0.8763200000000001 -0.654922 -0.095013
27700 1.25873091 1.6384956300000002 -3.3449451300000006 -0.932708 -0.59634 -0.310194
27720 -6.8993043300000005 4.712949629999999 -7.1654496299999995 -0.922555 -0.5884560000000001 -0.425501
27740 -8.573567220000001 16.411717980000002 -8.746458660000002 -0.92577 -0.6139220000000001 -0.447924
27760 -11.062746810000002 22.292695260000002 -3.0550007700000004 -1.101222 -0.44197 -0.406641
27780 -4.40908488 13.14042633 -2.19563496 -1.292424 0.188399 -0.438694
27800 -2.40983631 7.515127080000001 -0.46448388 -1.1896870000000002 0.853246 -0.556333
27820 -1.9363762800000002 7.46842167 -1.7893832400000003 -0.815477 0.614261 -0.257515
27840 -2.9639835900000002 10.34139789 -0.95501331 -0.5148560000000001 -0.080458 0.054191
27860 -5.57275689 11.635905870000002 0.08471916 0.007439 -0.011723 -0.005274
27880 -6.38377902 11.807443529999999 0.63407916 0.5435479999999999 0.363436 0.017218
27900 -6.40562589 12.39871185 -0.71341263 1.080736 0.597598 0.133902
27920 -2.4798895200000004 12.474013410000003 -2.2279687200000002 1.478641 1.138132 0.211832
27940 -2.1278282400000004 10.789116479999999 -1.08000252 1.405734 2.095715 0.29982600000000004
27960 -2.4152318100000008 9.067392810000001 0.49531671000000005 1.284656 2.317203 0.160896
27980 -2.32227225 8.55516366 -0.12484206 1.378852 1.919494 0.169541
28000 -2.1990782700000002 8.28242604 -0.76011804 1.39163 2.020223 0.276324
28020 -2.9105485200000003 7.3507605300000005 -0.02245509 0.91537 2.668381 0.305281
28040 -3.32877825 7.435038240000001 -0.7146094500000001 0.602774 3.014077 0.1734
28060 -3.43999422 7.40779587 -1.2897207000000002 0.67194 2.782267 -0.257381
28080 -3.2837209200000004 6.34709943 -0.9147432600000001 0.904229 1.92837 -0.5719270000000001
28100 -2.52913572 6.236334719999999 -1.75240935 0.7998689999999999 1.365731 -0.704394
28120 -2.0474451 6.609507120000001 -0.30506157000000006 1.018112 1.8724490000000005 -0.805
28140 -2.5017462000000004 7.45869015 0.67898934 1.034795 2.31734 -0.987051
28160 -2.31493437 7.099585290000001 0.0432621 0.8440690000000001 2.10507 -1.018022
28180 -2.0694489300000005 9.0263772 -1.2552876 0.673755 1.871744 -0.862952
28200 -3.64956525 10.579398300000001 -1.2031965 0.401579 1.663674 -0.807971
28220 -4.498149870000001 10.58733459 0.24473988000000002 0.287154 1.265004 -0.910809
28240 -5.038072649999999 9.374259420000001 -0.038023560000000005 0.03191 1.133035 -0.987198
28260 -5.319639270000001 9.51346332 -1.02596904 -0.360372 1.04568 -0.912914
28280 -5.846995440000001 10.215211859999998 -0.44681607 -0.656978 0.7678729999999999 -0.713804
28300 -5.14360863 15.386357160000003 1.42683507 -0.8914059999999999 0.338503 -0.494838
28320 -4.12003323 15.7735971 0.07334936999999998 -1.1934 0.060669000000000015 -0.284015
28340 -4.58346744 9.70701462 0.0779895 -1.607215 0.086741 -0.05193
28360 -4.62448305 9.35195148 0.06751241999999999 -1.830959 0.461261 0.255812
28380 -6.3020421 11.088645210000001 -0.65743677 -1.6946720000000002 0.763881 0.383494
28400 -6.6565068300000005 11.71059921 -1.05589935 -1.526196 0.887241 0.290509
28420 -4.92026436 10.742411070000001 -0.77329287 -1.679768 1.3682450000000002 0.282411
28440 -4.922667810000001 10.0875249 -0.23845167 -1.6490630000000002 1.604532 0.572879
28460 -6.30863442 10.3246326 -0.33949467 -1.453788 0.877533 0.789887
28480 -8.49258567 9.933792390000002 0.56402595 -1.846318 -0.315172 0.7630359999999999
28500 -9.25719669 8.726407020000002 1.7232147899999999 -1.901512 -0.5874050000000001 0.425442
28520 -9.136102050000002 8.46040887 1.35977391 -0.311849 1.881196 0.29024
28540 -8.34469992 6.89481135 1.839375 0.932661 2.481999 0.545991
28560 -7.672293090000001 5.75956872 3.2343275700000005 0.016345 3.337076 0.892076
28580 -7.0982413200000005 5.680235250000001 3.0756508200000003 -1.1207280000000002 0.042708 0.148077
28600 -5.9201878500000005 6.744375000000001 0.32736951 -2.0793470000000003 0.771676 -0.43212
28620 -4.50652761 7.685467920000001 -0.68018616 -1.604155 0.923083 -0.61166
28640 -3.84310674 7.394022629999999 -1.0240168500000002 -1.300681 -0.034134 -0.72475
28660 -3.7528449299999997 6.32944143 -0.34009308 -1.748525 -0.574203 -0.609682
28680 -4.21134471 5.472018 0.17798283 -2.390744 1.170864 0.176217
28700 -4.30086096 4.83808599 -0.5267577600000001 -2.129866 2.171933 0.820894
28720 -3.4468808400000004 4.75695729 -0.40220999999999996 -1.84815 1.805069 0.679122
28740 -3.1451056200000003 4.551584940000001 -0.8122091400000001 -1.707227 1.184193 0.512123
28760 -2.65622427 4.32690651 -1.20350061 -1.78473 1.18268 0.425057
28780 -2.2448811600000003 4.3504014600000005 -1.3350723300000003 -1.876646 1.908252 0.47476
28800 -2.04160815 5.05797714 -1.93458105 -1.7067009999999998 2.079712 0.340063
28820 -2.35490031 6.267765960000001 -2.62539144 -1.445404 2.097713 0.14104
28840 -2.85546537 7.234306020000001 -3.51289233 -1.31605 2.077337 0.062921
28860 -3.38341014 7.2531706499999995 -4.16882817 -1.352405 2.048744 0.052021000000000005
28880 -4.4248005 8.089031700000001 -5.38160904 -1.416675 1.973407 0.033509
28900 -5.01741279 9.27695403 -6.95214099 -1.443057 1.8614 0.094357
28920 -4.91727231 8.8991415 -6.8850798300000005 -1.4946780000000002 1.886677 0.211469
28940 -4.24786734 6.809935230000001 -6.539748210000001 -1.4222629999999998 1.729387 0.322203
28960 -2.6156599200000006 6.132898080000001 -6.42778668 -1.148031 1.321265 0.381257
28980 0.25252902000000005 7.578440820000001 -5.49177534 -0.8596280000000001 0.967473 0.427522
29000 -6.52972239 15.116768550000002 -3.31471071 -0.717383 0.741406 0.361507
29020 -9.819427410000001 25.428520620000004 1.0340524800000002 -0.62955 0.760509 0.303344
29040 -8.920703880000001 11.760590970000003 2.25176778 -0.517604 0.985936 0.309178
29060 -7.363189800000001 0.62015877 7.781419530000001 -0.467874 1.358649 0.29943400000000003
29080 -10.474323390000002 -2.17482795 -1.7082447299999999 -0.529877 1.825378 0.31869899999999995
29100 -7.113211379999999 4.3963613100000005 2.15656173 -0.695124 2.162289 0.39082
