time Ax Ay Az Gx Gy Gz
20 0.13995926999999997 7.970625 0.44367687000000006 -0.17713299999999998 0.29533000000000004 -0.17466800000000002
40 0.9780668100000001 7.7347141200000005 0.61462593 -0.258989 0.5324800000000001 -0.002491
60 1.31411817 8.554565250000001 0.12379239 0.115716 0.6458619999999999 -0.176276
80 0.72569475 10.46578869 -0.49562082 0.5083310000000001 0.510812 -0.310093
100 0.33560010000000007 11.72301867 -1.32609618 0.804301 0.285354 -0.395331
120 0.84992859 12.262647150000001 -2.04160815 1.2991 0.221886 -0.403544
140 0.99004482 13.60969749 -2.57494842 1.662823 0.215241 -0.389244
160 1.73564406 15.11316828 -0.10837107 1.793939 0.47134 -0.344859
180 2.22945984 16.19691822 1.91197881 1.898954 0.8956780000000001 -0.259212
200 -0.62465175 16.08704622 1.89969669 1.922266 0.743732 -0.376359
220 -1.72591254 13.66478064 2.18396106 1.464084 0.512529 -0.502108
240 -1.8938597400000001 11.577075299999999 2.94273513 1.21779 0.020267 -0.794823
260 -1.3154621400000002 10.11955455 3.3591598200000004 1.283758 -0.182774 -0.958608
280 -1.949247 9.32396355 2.16599895 1.330623 -0.222263 -0.980662
300 -2.0827709100000003 9.668245500000001 1.29495924 1.36717 -0.059814 -0.878066
320 -1.8413173800000002 10.07644941 0.61432182 1.208418 0.101141 -0.765081
340 -1.24990191 11.01454047 -0.6036975900000001 1.118886 -0.11799 -0.766494
360 -1.12116528 11.37663738 -0.2633004 0.870655 -0.274792 -0.765891
380 -1.4834191500000002 11.013794910000001 -0.48634056000000003 0.636993 -0.202906 -0.691771
400 -0.60070554 9.90460764 0.30701375999999997 0.33129200000000003 -0.033762 -0.634303
420 -1.2919671900000003 8.53300287 -0.73736865 0.055376 0.011169 -0.44294
440 -1.1943675 8.89465833 -1.62127908 -0.188452 0.279826 -0.283686
460 -0.9261228600000001 9.222018030000001 -2.171531790000001 -0.443787 0.34194 -0.144543
480 -0.5638788 8.179440660000001 -1.69747335 -0.7426590000000001 0.270811 0.053218
500 -0.25342173 6.195917520000001 -0.9955776600000001 -0.950315 0.357927 0.292005
520 -0.66536325 4.9397274 -1.2723570000000002 -1.019781 0.438699 0.399307
540 -0.9862974000000001 5.284911870000001 -0.57794634 -0.801913 0.31411300000000003 0.464014
560 -1.60121763 5.21650674 -1.1981051100000002 -0.388431 0.130826 0.38702
580 -3.34389546 5.47605972 -1.8616829400000001 0.591317 0.417167 0.125373
600 -4.77087768 4.846620690000001 -2.3312484 -0.22868 0.14995999999999998 -0.007131
620 -4.450846050000001 5.61901104 -3.07715175 -1.160059 1.092087 0.693388
640 -2.93943897 7.297776720000001 -3.10843584 -0.684923 0.825625 0.583816
660 -1.07715762 6.633904590000001 -3.9161520000000003 -0.377377 0.89897 0.357271
680 -0.19145196 7.71151347 -5.30032338 -0.380533 1.236312 0.447616
700 -0.57825045 8.61113952 -6.40518444 -0.747795 1.427173 0.455488
720 -0.95366934 11.316619799999998 -6.3559284300000005 -1.0430469999999998 1.408285 0.373333
740 -2.39935923 10.818301230000001 -6.5764278 -1.056643 1.479663 0.383829
760 -5.379813810000001 12.55648608 -1.6542112500000001 -0.87989 1.932629 0.441099
780 -8.59677768 21.128415030000003 -3.1237002 -0.636648 2.183125 0.457432
800 -3.24509895 12.34857294 -3.22744095 -0.528296 2.401848 0.544435
820 -3.3283269900000003 6.855895080000001 -3.0509590500000003 -0.650162 2.447679 0.643937
840 -3.20004162 6.290672310000001 -0.47630493 -0.790621 2.191843 0.5418029999999999
860 -2.94183261 8.306676359999999 0.75787155 -0.8972709999999999 1.7488580000000002 0.325845
880 -2.6348188500000003 11.34027171 0.60758235 -0.900194 1.727896 0.24253
900 -2.63332773 12.484186379999999 0.66401928 -0.913497 1.880171 0.268948
920 -2.1622515300000003 10.75932351 -0.36284247000000003 -0.914253 1.961088 0.280589
940 -1.9152651600000001 8.82669465 -0.7394581800000001 -1.02125 1.9505740000000005 0.338607
960 -1.7938664100000001 8.931475260000001 -0.7170129000000001 -0.967936 2.061767 0.45741
980 -1.47278511 8.89450137 -0.31165389 -0.7543 2.052768 0.391616
1000 -0.75158334 8.08498998 0.36733545 -0.650838 1.863526 0.207778
1020 -0.21120930000000002 7.6031424 0.8842145400000001 -0.634253 1.715557 0.167492
1040 0.03622833 7.48428444 0.7450008300000001 -0.632742 1.609956 0.200752
1060 0.12453795000000001 7.0452477 0.78556518 -0.529683 1.5052370000000002 0.191992
1080 -0.01182105 7.2413397900000005 0.67898934 -0.459543 1.341353 0.089075
1100 -0.66970908 8.153091 0.65818233 -0.467824 1.2970469999999998 -0.012407
1120 -0.9849534300000001 9.22052691 0.92088432 -0.563516 1.293428 -0.08998300000000001
1140 -0.33650262000000003 9.25599987 0.8604154800000001 -0.691376 1.211262 -0.210412
1160 0.10193571 8.816511870000001 0.27932013 -0.70134 1.2235969999999998 -0.355775
1180 0.22543380000000002 9.18489699 0.03577707 -0.677265 1.2717969999999998 -0.442195
1200 0.74739447 9.381293190000001 -0.038621970000000005 -0.5928800000000001 1.527187 -0.4462060000000001
1220 1.5908877000000001 9.317969640000001 -0.12633318000000002 -0.533361 1.587255 -0.334772
1240 2.0134632600000004 9.253910340000001 -0.68916231 -0.411379 1.414424 -0.11044
1260 1.6247223900000003 9.30884634 -0.75158334 -0.260273 1.476149 0.040087
1280 1.47937743 9.21663234 -0.91010313 -0.179249 1.532047 0.110016
1300 1.2726513 8.67790638 -0.86489865 -0.054078 1.491711 0.231651
1320 0.77044797 8.57476404 -0.5095412100000001 0.139703 1.608459 0.437954
1340 0.17154747 8.892706140000001 -0.84124674 0.375463 1.6077290000000002 0.682088
1360 -0.38859372000000003 9.008415090000002 -1.09227483 0.6745 1.916779 0.925199
1380 -0.21824307 9.37366101 -0.91954035 0.972819 1.934475 1.036219
1400 1.30933089 9.90056592 -0.6104272500000001 1.102044 1.72937 0.801307
1420 1.5004787400000001 11.164535370000001 -0.50340015 1.413797 1.800416 0.347263
1440 0.94319226 11.573631989999999 -0.5213622600000001 1.825245 2.167449 -0.15346600000000002
1460 0.8416980000000001 10.867998690000002 -0.76042215 1.842293 2.024026 -0.5313140000000001
1480 0.03233376 10.27418958 -0.63273519 1.381337 1.804884 -0.74042
1500 -1.22251239 11.22052104 0.84888873 0.999149 1.447485 -0.8088609999999999
1520 -1.10080953 11.75834448 2.59559847 0.940268 1.328786 -0.644614
1540 -1.1006623800000002 11.857288140000001 5.17848318 1.088811 1.481274 -0.545495
1560 -2.00373174 11.39236281 6.965610120000001 1.102615 1.766468 -0.482739
1580 -4.20041637 11.001375450000001 6.03469998 0.749548 2.182503 -0.321232
1600 -3.7272506400000003 11.57348484 1.9420660800000002 0.310601 1.146286 -0.547297
1620 -4.19098896 13.7289969 0.15282999000000003 0.397087 0.96048 -0.510135
1640 -4.677623820000001 15.643967759999999 0.42002496 0.33870700000000004 1.229383 -0.306857
1660 -3.6500067000000005 11.911782689999999 0.49951539 0.134874 1.310676 -0.213314
1680 -1.64747178 10.04081949 1.38716343 -0.08353300000000001 1.117652 -0.238093
1700 1.11368025 9.30404925 0.65339505 -0.34617 0.8012699999999999 -0.277978
1720 1.6810023600000001 8.72909496 -0.75518361 -0.548246 0.5778220000000001 -0.168008
1740 0.6277909500000002 8.52043626 -1.1557455300000001 -0.7445649999999999 0.50221 -0.003708
1760 -0.7292852099999999 7.12413972 -0.7235954100000002 -0.763862 0.380288 0.133046
1780 -2.00268207 6.09817068 0.20597076000000003 -0.676094 0.328356 0.256571
1800 -2.77972236 5.8998321 -3.2400075600000005 -0.5406880000000001 0.32568400000000003 0.274612
1820 -0.7143151499999999 7.22038563 -2.45893536 -0.498685 0.216716 0.315637
1840 -0.7292852099999999 7.713161550000001 -1.7606399400000001 -0.28417800000000004 0.213904 0.300048
1860 -1.2404745000000001 7.44626088 -2.09354229 -0.062736 0.107676 0.299594
1880 -0.79230465 7.498508940000001 -2.40130161 0.02141 -0.150455 0.310127
1900 -0.26779338 7.406893350000001 -2.56476564 0.34184499999999995 -0.269962 0.347769
1920 0.8394515100000001 6.9132247200000005 -3.01427946 1.200115 0.34266 0.380753
1940 1.2391207199999998 7.37756145 -3.21471738 1.871765 0.81171 0.249179
1960 0.8352626400000002 7.761210930000001 -2.9767071600000006 0.375522 0.913777 -0.26774000000000003
1980 -0.37632141 8.2108719 -3.0659291100000003 -0.753318 0.149902 -0.070616
2000 -1.4150042100000002 9.66360537 -3.6356350500000003 -0.749496 0.4285350000000001 0.309341
2020 -1.3350723300000003 11.36556189 -3.50705538 -0.231093 1.3567049999999998 0.313909
2040 -0.37871505 11.995609140000003 -3.7134774 0.009653 1.687415 0.25321
2060 0.07873506000000001 11.574230400000001 -4.185446310000001 -0.349923 1.635583 0.206968
2080 0.35131572000000005 10.39169376 -4.876855110000001 -0.815735 2.234701 0.236061
2100 -0.5544513900000002 9.891285660000001 -4.2508593900000005 -1.132286 2.060172 0.465878
2120 -4.05926028 13.007952090000002 -1.68040395 -0.7687390000000001 1.709823 0.651532
2140 -9.55538145 19.229316750000002 1.02581208 -0.195407 1.897059 0.750369
2160 -10.613831399999999 20.46050118 5.66616771 -0.242258 1.937622 0.7702859999999999
2180 -4.816239120000001 7.412887260000001 2.61940734 -0.771227 1.767871 0.789241
2200 -1.87230717 4.70965347 1.00157157 -0.950007 1.543015 0.69855
2220 -0.8180460900000001 5.44687497 -0.56148516 -0.792989 1.207468 0.559071
2240 -1.2633710399999998 8.231678910000001 0.60758235 -0.475661 1.266194 0.516347
2260 -0.97716429 10.548565470000002 2.24952129 -0.181511 1.427119 0.510718
2280 -1.12940568 12.361149359999999 2.3366439000000003 -0.070016 1.513154 0.477204
2300 -1.6049650500000001 12.21370506 1.27864521 -0.081814 1.4081 0.385389
2320 -1.69013547 10.7123238 -0.3559558500000001 -0.092969 1.356668 0.203779
2340 -0.9053158500000001 8.879982570000001 -1.04108625 -0.015283 1.378395 0.031242
2360 0.19145196 8.48854395 0.3008727 -0.096679 1.447255 -0.06876
2380 1.46530008 8.710240140000002 1.4894032499999998 -0.213751 1.385317 -0.195548
2400 1.9008935100000002 9.02173707 0.6277909500000002 -0.274564 1.511678 -0.30723
2420 1.6584001200000003 9.88993188 -0.6406714800000001 -0.402835 1.630629 -0.372372
2440 1.82889792 9.85206528 -0.8928963900000001 -0.467573 1.627976 -0.451869
2460 1.5513730200000002 9.720935010000002 -0.7722432 -0.523554 1.557696 -0.410509
2480 1.2710032199999999 8.85109212 -0.18157329000000003 -0.362021 1.259597 -0.328882
2500 1.30079619 8.31550536 0.06107706 -0.171802 1.004793 -0.176608
2520 0.73302282 8.28422127 0.32302368 0.210115 1.025722 -0.147261
2540 0.7894597500000001 8.932819230000002 -0.31928607000000003 0.510153 1.058848 -0.166572
2560 1.18089837 9.054973350000001 -0.18891117000000002 0.8391639999999999 0.985922 -0.329755
2580 0.92133558 9.10586763 -0.4801995 1.165624 0.8648879999999999 -0.448029
2600 0.6816870899999999 9.84981879 -1.5197848200000001 1.304544 0.6610020000000001 -0.4638890000000001
2620 0.76805433 11.21124078 -1.3274401500000002 1.51894 0.5413819999999999 -0.5722649999999999
2640 1.11967416 12.145290120000002 -1.41710355 1.636632 1.031346 -0.392609
2660 1.2495978 13.762684440000001 -1.38326886 1.61232 1.093171 -0.381108
2680 2.0534292 15.203135790000001 -0.01227231 1.559368 0.819014 -0.506108
2700 1.27205289 16.42563837 3.1952543400000004 1.500149 0.778419 -0.426353
2720 0.30596409 14.25171294 2.24428275 1.538431 0.749527 -0.427117
2740 -2.5632745200000002 12.93415146 3.3879031200000003 1.592994 0.802523 -0.4075760000000001
2760 -0.9586037700000001 9.56107125 3.65524524 1.627803 0.777644 -0.343208
2780 -1.7082447299999999 9.63725571 2.52180765 1.422757 0.414359 -0.425359
2800 -2.0630135700000003 10.623111660000001 2.06121834 1.133148 0.22607600000000005 -0.5083260000000001
2820 -1.5358045500000002 11.27230803 1.15215507 0.94194 0.30398400000000003 -0.37837
2840 -0.57884886 11.501930699999999 0.7921575000000001 0.76552 0.316986 -0.280274
2860 -0.7144623 10.837313009999999 0.19518957000000003 0.494269 -0.342031 -0.408443
2880 -1.17341334 10.608592860000002 0.13561344 0.204802 -0.66801 -0.422866
2900 -0.77014386 10.166259960000001 0.1588239 0.366149 -0.340608 -0.386907
2920 -0.5307994800000001 9.26363205 -0.47751156 0.320934 -0.306862 -0.262284
2940 -0.95247252 8.59946562 -1.32863697 0.116219 -0.390808 -0.13755599999999998
2960 -1.10260476 9.48203208 -1.67951124 -0.227004 -0.138938 0.043458
2980 -1.7245685700000002 9.16049952 -2.10432348 -0.455953 0.086114 0.17189300000000002
3000 -1.71902592 7.4064518999999995 -1.4657513400000002 -0.337574 0.269216 0.366902
3020 -0.6447132 7.44806592 -1.07251749 0.667672 0.176921 0.464841
3040 0.08471916 7.921830060000001 -1.8208144800000001 0.338725 -0.267975 -0.145773
3060 -0.32167971 7.626038940000001 -1.7298071099999999 -0.104706 0.658894 0.21847800000000006
3080 -0.79499259 6.483321090000001 -1.8507546000000001 -0.370129 -0.10686500000000003 -0.12743
3100 -0.66626577 5.789057580000001 -1.3861137600000002 -0.7859470000000001 -0.053191 -0.135745
3120 -1.02162321 4.57299036 -1.41275772 -1.095548 0.083511 0.045652
3140 -1.90359126 5.438340270000001 -2.5560837900000006 -1.231476 0.066621 0.12484
3160 -1.86976638 6.01090092 -3.69312165 -1.201241 -0.115546 0.099648
3180 -0.8906499 5.80402764 -4.49320563 -1.102162 -0.146785 0.10038
3200 -0.32302368 8.423130870000001 -5.80402764 -1.07072 -0.041406 0.094055
3220 -0.15837263999999998 10.85168466 -6.2526487500000005 -1.114442 -0.020016 0.110814
3240 -2.7222357600000002 12.907507500000001 -5.504950170000001 -1.1787219999999998 0.000128 0.190456
3260 -2.105226 9.70177608 -0.22244175000000002 -1.149418 0.165987 0.245995
3280 -0.16525926000000002 15.703995150000003 -3.76991433 -1.106571 0.226468 0.26865
3300 -3.78936756 13.369146480000001 -2.68257393 -1.144496 0.159236 0.331496
3320 -3.82110291 12.9131973 -3.1352269500000003 -1.109985 0.126665 0.454625
3340 -2.7226870200000004 11.18294874 -2.5468035300000005 -1.102265 -0.031118 0.4783810000000001
3360 -1.32684174 10.19125584 -1.6262135100000001 -1.0648959999999998 -0.103371 0.399687
3380 -0.72479223 9.74518533 -0.82763046 -1.001323 0.033837 0.397818
3400 -0.70637886 10.43390619 -0.39787398 -0.930714 0.053924 0.374785
3420 -1.04003658 11.214674280000002 -0.82284318 -0.919237 -0.074728 0.30345900000000003
3440 -0.8559225 10.80079038 -0.6843750300000001 -0.827974 -0.000259 0.249522
3460 -0.7533785700000001 10.146953880000002 -1.07266464 -0.7626890000000001 0.046381 0.250986
3480 -1.00695726 9.437426010000001 -1.14153084 -0.6831470000000001 0.134696 0.207632
3500 -0.95575887 9.286685550000001 -1.03869261 -0.587453 0.266589 0.175016
3520 -0.21780162 8.85438828 -0.96264549 -0.5697409999999999 0.296809 0.06187
3540 0.11541465 8.85483954 -0.49756320000000004 -0.42166 0.384055 -0.039757
3560 0.27497430000000006 8.793016920000001 -0.2225889 -0.304447 0.54256 -0.086143
3580 0.69200721 8.45292384 -0.28725642 -0.238873 0.72834 -0.248293
3600 1.0811993400000002 7.544311830000001 0.18681183 -0.283261 0.6409159999999999 -0.191875
3620 0.46897686000000005 7.011717120000001 0.68392377 -0.100408 0.359594 -0.328038
3640 -0.2920437 6.830143830000001 0.96967926 0.10306300000000003 0.529328 -0.326834
3660 -0.40311252 6.96995595 0.6210612900000001 0.284578 0.455617 -0.432294
3680 0.02410317 7.5857787000000005 0.30596409 0.446753 0.112466 -0.53968
3700 0.5252568299999999 8.23272858 0.12783411 0.8481120000000001 -0.070064 -0.529165
3720 0.6152243399999999 8.650811160000002 0.31749084 1.417874 0.016059 -0.449452
3740 0.11705292 9.20091672 0.24040386000000002 1.7048310000000002 0.08824 -0.367424
3760 -0.2342628 10.23182019 -0.82837602 1.935405 0.426964 -0.29254
3780 -0.17738442000000001 11.860888410000003 -0.89543718 1.916892 0.488122 -0.385683
3800 -0.8672922900000001 12.6757953 -0.63467757 1.736093 0.31642600000000004 -0.448682
3820 2.49067071 14.47235946 2.25506394 1.31585 0.518514 -0.272416
3840 -0.03697389 15.274689930000001 2.5747914599999997 1.371306 0.069606 -0.479756
3860 -1.81483038 14.195884229999999 3.48669963 1.655643 0.14443499999999998 -0.524868
3880 -2.30371173 12.757071150000002 3.9633086700000004 1.744489 0.168793 -0.5659390000000001
3900 -2.08860786 11.687545710000002 3.86511057 1.564835 0.054456 -0.5884119999999999
3920 -1.71094248 10.98999585 1.86647022 1.247981 0.08315399999999999 -0.563956
3940 -2.04070563 11.7074502 0.9479795400000001 0.952178 0.163511 -0.422984
3960 -2.0209482900000006 12.96184509 0.6478524 0.785572 -0.007837 -0.319242
3980 -1.4522822100000001 11.69847405 0.01092834 0.780313 -0.096767 -0.186705
4000 -1.601973 11.19237615 0.5641731000000002 0.673921 -0.24880700000000006 -0.168026
4020 -1.49658417 11.21108382 0.8759741400000002 0.434537 -0.332154 -0.163182
4040 -0.40565331 8.28811584 1.07491113 0.236635 -0.374377 -0.088666
4060 -1.839375 7.387440120000001 -0.6664129200000001 -0.117697 -0.25760900000000003 0.055056
4080 -1.3108220099999999 9.04404501 -0.9746235 -0.350561 -0.157318 0.21780700000000006
4100 -1.4349185100000001 9.8014653 -0.84319893 -0.206575 -0.204432 0.419698
4120 -1.55601315 7.312295520000001 -0.81715338 0.5756819999999999 -0.101797 0.714519
4140 -1.3913522999999999 6.107745240000001 -0.79035246 0.678007 -0.340012 0.25834
4160 -1.2278980800000001 5.544621810000001 -0.46508229 -0.059315 0.384783 0.528931
4180 -1.28582613 5.456900790000001 -0.6643233900000001 -0.682137 -0.266199 0.294679
4200 -1.0591955100000001 4.42375083 -0.91490022 -0.934079 -0.25697600000000004 0.337772
4220 -1.7687233800000002 5.44223484 -1.7119921500000002 -0.846043 -0.332012 0.378007
4240 -2.29847319 5.78577123 -2.06495595 -0.8888940000000001 -0.393559 0.355354
4260 -1.4567751899999999 6.264921060000001 -3.0605336100000002 -0.986108 -0.464422 0.312037
4280 -0.73976229 6.68689821 -3.1760954100000003 -1.022125 -0.219084 0.262333
4300 -0.4340925 7.94562912 -4.74528339 -0.94144 -0.0628 0.270174
4320 -0.45221157000000006 9.31497759 -6.59992275 -0.986104 0.046768 0.347702
4340 -0.09295956000000001 11.02861782 -8.964260280000001 -1.002378 0.347799 0.472184
4360 -4.31552691 12.9337002 -4.9656258 -0.916555 0.490097 0.509989
4380 -2.38693977 14.667097770000002 -1.98517122 -0.959202 0.294093 0.545194
4400 -3.07939824 13.257783360000001 -4.3822839600000005 -0.86674 0.23722 0.568345
4420 -3.5013655800000003 11.60881065 -1.7121393 -0.866584 0.032694 0.566472
4440 -2.08621422 11.356438590000002 -0.93555027 -1.056737 -0.204422 0.620995
4460 -1.11472992 10.4812002 -0.68796549 -0.94428 -0.078166 0.651529
4480 -0.39996351 11.1287583 -0.42661728 -0.772767 0.03655 0.58635
4500 -1.05515379 11.248656120000001 -0.27781920000000004 -0.80748 0.011648 0.450476
4520 -1.6509150900000003 11.274250410000002 -0.13816404 -0.793978 0.191535 0.474908
4540 -1.37010384 9.89412075 -0.21465261000000002 -0.8239790000000001 0.15545 0.467268
4560 -1.25753409 9.00707112 -0.5290042500000001 -0.728755 0.024858 0.27581999999999995
4580 -1.42982712 8.78792553 -0.8114635800000001 -0.591353 0.156695 0.221063
4600 -0.9961760700000001 8.554261140000001 -0.54950715 -0.565116 0.276 0.199729
4620 -0.35102142000000003 7.9914320100000005 0.030391380000000003 -0.559815 0.150754 0.081354
4640 0.09834525 7.79339754 0.85202793 -0.40344 0.14438900000000002 -0.060687
4660 0.44367687000000006 8.220309120000001 0.45146601000000003 -0.145832 0.167271 -0.14544300000000002
4680 0.5351355 8.412359490000002 -0.20058507 0.000273 0.319387 -0.217256
4700 0.20851155000000002 7.7594157 0.00777933 -0.119513 0.318479 -0.15292999999999998
4720 -0.38694564000000004 8.174054970000002 0.18291726 -0.448737 -0.035199 -0.13234400000000002
4740 -0.18456534000000002 7.79548707 0.25402014 -0.201822 0.06090900000000001 -0.13822
4760 0.2630061000000001 6.77072466 0.15447807000000002 -0.133406 0.398081 -0.067672
4780 -0.2544714 6.75963936 0.11541465 -0.224233 0.317634 -0.117341
4800 0.02664396 7.49057265 0.02080701 0.002821 0.14373 -0.247992
4820 0.9985697100000002 8.17345656 0.14639463000000003 0.270431 0.034419 -0.316485
4840 1.32609618 8.99898768 0.25597233 0.530563 -0.103522 -0.4117
4860 0.79499259 10.30921128 -0.0489519 0.764422 -0.085049 -0.438932
4880 0.54546543 11.147465970000002 -0.7816706099999999 1.187063 -0.048185000000000006 -0.43389
4900 0.68183424 11.2446144 -1.16098407 1.659627 0.080509 -0.525826
4920 -0.40685013000000003 11.220668190000001 -0.4451778 1.895562 0.134998 -0.5039520000000001
4940 3.1105351800000003 12.20846652 1.06473816 1.987638 0.392791 -0.3167
4960 0.4451778 14.590157940000001 0.95980059 2.070194 0.497905 -0.30130300000000004
4980 -1.08434835 15.45461514 0.37212273 1.74458 0.573117 -0.17976
5000 -0.64859796 14.847327090000002 1.30064904 1.529408 0.28356 -0.309079
5020 0.09580446000000001 13.90848066 2.2598512200000003 1.609602 -0.087802 -0.483231
5040 0.6842278800000001 12.807514170000001 2.44067895 1.714893 -0.010058 -0.569121
5060 0.25925868 11.83588272 2.76071058 1.7331299999999998 0.056812 -0.5242140000000001
5080 -0.8256782699999999 10.28914983 1.90389537 1.48003 0.107337 -0.419225
5100 -1.7500157100000002 9.12591927 1.3132156500000003 1.226656 0.060006 -0.351499
5120 -2.46027933 8.67565989 0.71072469 0.987854 -0.07257999999999999 -0.28783600000000004
5140 -2.6030835 9.8680752 0.07349652000000001 0.6977899999999999 -0.244292 -0.252254
5160 -1.85704281 11.58336351 -0.41478642000000004 0.565775 -0.390955 -0.224147
5180 -1.00157157 11.48875587 -0.41822973 0.527459 -0.33662800000000004 -0.190301
5200 -0.68063742 10.65829032 -0.71670879 0.447354 -0.254732 -0.088416
5220 -0.046107 9.623933730000001 0.08726976 0.203639 -0.25111700000000003 0.017768
5240 -1.01877831 8.72445483 -1.01698308 -0.106885 -0.152479 0.128704
5260 -1.3368675600000002 9.110802060000001 -1.6426844999999999 -0.363325 -0.15723900000000002 0.209172
5280 -1.41875163 10.03153923 -2.16509643 -0.481819 -0.08261900000000001 0.299047
5300 -1.54119024 8.443339470000002 -1.65555522 -0.14171 -0.107346 0.327092
5320 -1.13419296 6.94196802 -1.28312838 0.533976 -0.282219 0.316012
5340 -0.7535355300000001 6.744070890000001 -1.71288486 0.482637 -0.297227 -0.14793499999999998
5360 -0.5095412100000001 6.671172780000001 -1.87604478 -0.414621 0.160946 0.070605
5380 -0.81684927 5.56617438 -2.0275308000000005 -0.624287 0.047651 0.079968
5400 -1.21307517 5.12563671 -2.14369101 -0.779637 -0.044807 -0.106869
5420 -1.58415804 5.03627742 -2.02633398 -0.806855 0.133049 0.193951
5440 -1.8952135200000002 5.33370681 -2.8428889500000003 -0.920733 -0.070971 0.164575
5460 -1.4868624600000002 6.01554105 -3.41739198 -1.145505 -0.052910000000000006 0.105298
5480 -1.03644612 6.260879340000001 -3.7368252 -1.133641 0.044776 0.17469
5500 -0.59501574 7.38983376 -5.11561089 -1.012258 0.040955 0.225749
5520 -0.17154747 8.33766615 -5.64895116 -0.907504 0.123527 0.264831
5540 -0.15897105 10.47865941 -5.76884898 -0.8907870000000001 0.341612 0.324489
5560 -1.26726561 11.519745660000002 -6.14741688 -0.975232 0.364042 0.382622
5580 -4.31418294 15.262859070000001 -3.5224767000000003 -1.014629 0.473532 0.475142
5600 -1.7762084100000002 15.722849970000002 -6.105057300000001 -0.940824 0.5689350000000001 0.5289470000000001
5620 -2.5824334500000004 9.45209196 -5.12967843 -0.889152 0.4536270000000001 0.548683
5640 -3.68264457 9.58291812 -1.8959590800000001 -0.971216 0.257813 0.5707939999999999
5660 -2.6705959200000002 10.7729496 -1.7661727800000002 -1.023001 0.16411199999999998 0.604735
5680 -3.0734043300000002 11.27994021 -2.03516298 -0.996482 0.124625 0.59963
5700 -2.2037184 10.631038140000003 -1.0912349700000001 -0.903632 0.057488 0.5255890000000001
5720 -1.5293691900000002 9.65925954 -1.0687798800000001 -0.820258 0.021263 0.454647
5740 -1.47084273 9.20046546 -1.3455494099999998 -0.698984 0.14243499999999998 0.416883
5760 -1.00994931 9.15032655 -1.1621808900000001 -0.661682 0.051025 0.333939
5780 -0.45221157000000006 9.23714505 -0.9657945 -0.492792 0.016773 0.22834
5800 -0.7996327200000001 9.24956451 -0.8270320499999999 -0.345191 0.107837 0.237801
5820 -1.08688914 8.793468180000001 -1.0178856 -0.323604 0.097374 0.171735
5840 -1.5067669500000003 8.49019203 -1.10979549 -0.380014 0.035092 0.078485
5860 -1.15918884 8.55141624 -0.77329287 -0.239574 0.073405 -0.033814
5880 -0.37451637000000004 8.38331208 -0.5824393200000001 -0.270786 -0.016915 -0.063827
5900 0.53543961 8.099803080000001 -0.52092081 -0.295504 0.131442 -0.113328
5920 1.0880859600000001 7.809711570000001 -0.5072947200000001 -0.16943 0.375088 -0.14694200000000002
5940 0.6557886900000001 8.14950054 -0.26839179 -0.387339 0.456246 -0.0075629999999999985
5960 0.36913068000000004 8.31849741 -0.23545962 -0.474687 0.37073 -0.1245
5980 0.29862621000000006 7.836649830000002 -0.164808 -0.436783 0.260865 -0.121958
6000 -0.30326634 7.965533610000001 0.22244175000000002 -0.181003 0.268112 -0.291096
6020 -0.00179523 8.48136303 -0.06660990000000001 0.181754 0.11302 -0.448597
6040 0.66566736 8.71861788 -0.23261472000000002 0.413741 -0.132347 -0.560962
6060 0.78302439 8.860823640000001 -0.06481466999999999 0.684772 -0.12052 -0.5569470000000001
6080 0.8059209300000001 8.99643708 -0.17963091 1.178681 -0.14563099999999998 -0.566284
6100 0.9157929300000001 9.87825798 -0.9137034 1.576688 -0.094973 -0.526181
6120 0.47091924000000007 11.148515640000001 -1.6109491500000002 1.824636 0.218607 -0.305865
6140 -0.03023442 11.35688004 -1.91257722 1.822121 0.475991 -0.200459
6160 -1.38326886 11.910281759999998 -1.6980717600000002 1.7114049999999998 0.248583 -0.244738
6180 1.27295541 13.368695220000001 0.92372922 1.371956 0.197613 -0.257726
6200 0.48498678000000006 15.390241920000001 1.50990615 1.296626 -0.332035 -0.407124
6220 -0.41045040000000005 16.84282824 1.6170902100000002 1.3961370000000002 -0.331061 -0.470524
6240 -1.06937829 14.58058338 1.9247023800000003 1.548571 -0.15568900000000002 -0.502798
6260 -0.5972622300000001 12.674294370000002 2.4840882 1.549352 0.049779 -0.47101
6280 -0.7051820400000001 10.957367790000001 2.4525 1.452603 0.193652 -0.402435
6300 -1.38746754 9.80925444 1.28312838 1.229116 0.117583 -0.366511
6320 -2.2073088600000004 9.382784310000002 0.8232846300000001 1.0350549999999998 -0.058721 -0.331321
6340 -2.06660403 9.827069400000001 0.20372427 0.971885 -0.065067 -0.287957
6360 -1.11144357 10.78268112 -0.89962605 0.90638 -0.133123 -0.261622
6380 -0.48768453 10.55769858 -0.90621837 0.8741200000000001 -0.08230900000000001 -0.154022
6400 -0.9824028300000001 10.44407916 -0.49771035 0.789469 -0.069611 -0.059558000000000014
6420 0.15208443 9.834397469999999 0.16390548000000002 0.701125 0.140961 0.10513
6440 -0.76161897 8.41714677 -0.3381507 0.45357 0.30306 0.27517600000000003
6460 -1.01085183 8.07001992 -0.9018725400000001 0.10595 0.37552 0.304702
6480 -1.4898545100000002 9.10003068 -1.7697730500000002 -0.222433 0.404442 0.283143
6500 -2.13290982 9.60133149 -2.18126331 -0.483871 0.41167 0.300536
6520 -2.04998589 8.19590184 -1.5712873200000002 -0.486667 0.23178 0.26763200000000004
6540 -1.7031631500000002 7.19852895 -1.4488389000000002 -0.041578 -0.046295 0.423853
6560 -1.17086274 7.5098787300000005 -1.55376666 0.532223 -0.259701 0.014733
6580 -0.9803133 7.0482397500000005 -2.168991 -0.317776 -0.232178 -0.270046
6600 -1.15859043 6.199507980000001 -2.29517703 -0.623626 0.13418 0.018973
6620 -1.37414556 5.33430522 -1.86437088 -0.7650600000000001 -0.270111 -0.252825
6640 -1.3403108700000002 4.70995758 -2.0246859 -0.836923 -0.136516 -0.033445
6660 -1.4167994400000001 5.13372015 -2.56371597 -1.027726 -0.184398 0.11804
6680 -1.37414556 5.323828140000001 -3.2470511400000004 -1.201076 -0.238366 0.177787
6700 -1.63610199 6.110295840000001 -4.00492269 -1.156819 -0.288879 0.250799
6720 -1.43865612 6.985377270000001 -4.9491548100000005 -1.064973 -0.2732 0.24608
6740 -0.8000839800000001 7.75207782 -5.94743022 -1.013672 -0.226614 0.273084
6760 -0.8195470199999999 8.88492681 -6.4273354199999995 -0.983464 -0.090611 0.33507800000000004
6780 -0.57600396 10.91649933 -6.47643447 -1.007671 0.128335 0.480974
6800 -0.23486121000000001 9.974660850000001 -6.590789640000001 -1.055021 0.139808 0.583178
6820 -3.35183175 15.756831810000001 -5.03433504 -1.077459 0.187602 0.638508
6840 -1.15904169 14.43313908 -5.14375578 -1.073685 0.091657 0.652544
6860 -1.4341631400000003 12.64241187 -6.00551523 -1.123197 0.02672 0.6843279999999999
6880 -3.2654547000000003 11.67616611 -4.972355460000001 -1.118155 0.013709 0.7367229999999999
6900 -3.5536136400000005 10.52221581 -2.4900723 -1.109807 0.041099 0.80618
6920 -3.6627302700000004 10.69675533 -1.5187449600000003 -1.046474 0.094275 0.77344
6940 -1.63833867 9.70491528 -1.43072964 -0.8428260000000001 0.11987 0.5900270000000001
6960 -0.88945308 9.36842247 -1.60002081 -0.703997 0.235047 0.438093
6980 -1.0653365700000001 9.365871870000001 -1.3822290000000002 -0.745931 0.049227 0.323739
7000 -1.0343467800000004 9.77257485 -1.4642504099999998 -0.590996 0.010703 0.233003
7020 -0.8282288700000001 9.549093240000001 -1.2948120900000002 -0.475832 -0.026886 0.209287
7040 -0.6736036500000001 9.05242275 -0.8177517900000001 -0.335867 -0.096156 0.094985
7060 -0.89574129 8.351586540000001 -0.89543718 -0.204504 -0.17288299999999998 -0.011889
7080 -1.3066331400000002 7.9200348300000005 -1.08000252 -0.16811099999999998 -0.208978 -0.074614
7100 -0.9668441700000001 7.48114524 -0.87253083 -0.164417 -0.170354 -0.146208
7120 -0.7312275899999999 7.312746780000001 -0.41987781 -0.096294 -0.002141 -0.180131
7140 -0.39802113000000006 7.45494273 -0.50055525 -0.171502 0.356052 -0.180047
7160 0.10657584 7.706422080000001 -0.4784042700000001 -0.253238 0.446891 -0.181803
7180 -0.039965940000000005 8.21431521 -0.85412727 -0.41694 0.415321 0.12901500000000002
7200 -0.0031392000000000004 8.295600870000001 -0.78706611 -0.324444 0.317099 0.103081
7220 0.55624662 8.231678910000001 -0.12843252 -0.201081 0.612119 0.011698
7240 0.62824221 8.13512889 -0.19145196 -0.199907 0.6534810000000001 -0.209469
7260 0.9725241600000001 8.414449020000001 -0.66461769 -0.182448 0.23701 -0.237655
7280 1.57996917 8.67865194 -0.64620432 0.044832 0.21503000000000005 -0.26595
7300 1.5030293400000003 9.03326382 -0.17573634 0.224194 0.201787 -0.30634
7320 1.5488322300000001 9.90400923 -0.20357712 0.431568 0.180201 -0.415959
7340 1.41096249 10.010280960000001 -0.8732862 0.718496 0.12928 -0.451278
7360 0.7803266400000001 10.24829118 -1.11383721 1.243747 0.164896 -0.489315
7380 0.20223315000000003 10.54108044 -1.05216174 1.738472 0.359076 -0.460471
7400 -0.2718351 10.3246326 -1.04213592 1.74442 0.569682 -0.385924
7420 -2.18860119 11.177111790000001 -0.29069973 1.789568 0.7480760000000001 -0.282219
7440 1.6015217400000001 13.27649103 0.7357205700000001 1.802152 0.884598 -0.334649
7460 -0.27737775000000003 14.387032080000001 0.6036975900000001 1.371581 1.03822 -0.283374
7480 0.3844048500000001 14.548249620000002 0.8728349400000001 1.529786 0.12899000000000002 -0.5492279999999999
7500 -0.4980144600000001 13.80788892 1.4449443300000002 1.559589 0.26558400000000004 -0.634653
7520 0.84724065 14.447059470000001 2.0806715700000002 1.508715 0.286221 -0.6895140000000001
7540 0.7455992400000001 12.5778915 1.7200755900000002 1.420465 0.159585 -0.646171
7560 0.16091343000000002 11.11259142 2.17767285 1.405572 0.205299 -0.6100140000000001
7580 -0.5330459700000001 10.12285071 2.28230631 1.322642 0.089242 -0.55276
7600 -1.3639627800000003 9.44206614 1.90688742 1.22704 -0.103047 -0.601252
7620 -1.9303823700000002 8.602163370000001 1.01204865 1.041845 -0.222854 -0.583164
7640 -2.45549205 9.846522629999999 0.35685837000000004 0.847194 -0.044464 -0.536682
7660 -2.04998589 12.036320640000001 -0.28874754 0.508787 0.026557 -0.421632
7680 -1.73863611 11.838286170000002 -0.6011469899999999 0.467146 0.266459 -0.173335
7700 -1.18942326 9.51900597 -1.3301379000000002 0.221768 0.44026 -0.001152
7720 0.20716758000000002 9.1766664 0.06151851 -0.13943599999999998 0.4717520000000001 0.161859
7740 -0.84858462 9.518260410000002 -1.94161482 -0.335467 0.32637 0.191655
7760 -0.16660323000000002 9.50972571 -1.5274268100000001 -0.443676 0.237217 0.202764
7780 -0.51298452 9.321569910000001 -1.83383235 -0.567959 0.12683699999999998 0.208446
7800 -1.2552876 8.91097236 -2.00762631 -0.466245 -0.069372 0.16988399999999998
7820 -1.21651848 8.43331365 -1.50362775 0.093803 -0.149784 0.345883
7840 -1.12596237 6.93672948 -1.58011632 0.393692 -0.574082 -0.100132
7860 -0.8530776 6.474786389999999 -1.6747141500000002 -0.449036 -0.096894 0.11128699999999997
7880 -0.72718587 5.199888600000001 -2.1900923100000007 -0.922689 0.075612 0.272264
7900 -1.2855220200000002 4.566555 -2.54590101 -0.74173 -0.222464 0.065607
7920 -2.29891464 5.128187310000001 -2.9614428000000004 -0.8881879999999999 -0.124606 0.228964
7940 -2.02034988 3.7242585900000003 -2.63856627 -1.160108 0.033489 0.356117
7960 -1.8835298100000002 5.33385396 -3.8838280500000004 -1.2299719999999998 -0.038877 0.398451
7980 -1.2846293100000001 6.04457865 -3.97528668 -1.122152 0.003246 0.426924
8000 -0.91698975 6.57327879 -4.8814952400000005 -1.0158040000000002 0.153126 0.415724
8020 -0.34279083000000005 7.80775938 -5.85642285 -0.918938 0.37105 0.446032
8040 -0.31060422000000004 8.57506815 -6.7837425300000005 -0.901245 0.5635859999999999 0.500388
8060 -0.52271604 9.59040315 -6.8627817 -0.931385 0.611197 0.608007
8080 -0.4251163500000001 10.097403569999999 -6.05775348 -0.91976 0.7012430000000001 0.723341
8100 -4.25669634 16.060853520000002 -5.78082699 -0.902848 0.748788 0.806719
8120 -2.9536536600000005 15.56463429 -5.3332555500000005 -0.984037 0.533701 0.852361
8140 -1.18748088 11.829898620000002 -5.00828949 -1.0520459999999998 0.389993 0.885185
8160 -4.14113454 10.36295046 -4.77506655 -1.028555 0.409026 0.90028
8180 -4.81653342 10.76456205 -1.9026887399999999 -0.96393 0.459215 0.814141
8200 -3.0837342600000004 10.53209448 -1.79596575 -0.944031 0.515999 0.7159310000000001
8220 -2.51642196 10.0733004 -1.2663630900000002 -0.8675360000000001 0.635232 0.669311
8240 -1.83188997 9.680969070000002 -1.17475731 -0.748631 0.634187 0.561184
8260 -1.0160903700000001 9.56421045 -1.5275739600000002 -0.559918 0.756386 0.474751
8280 -0.69410655 9.66330126 -1.32624333 -0.46568 0.738336 0.378225
8300 -0.41418801000000005 9.62273691 -0.87238368 -0.469957 0.6014729999999999 0.242706
8320 -0.7315317000000001 9.09434088 -1.16293626 -0.350219 0.550349 0.136786
8340 -0.7050348900000001 8.60006403 -1.4443459200000002 -0.299846 0.5047550000000001 0.039988
8360 -0.8427476700000002 8.39394612 -1.2798420300000002 -0.304128 0.400779 -0.06139
8380 -0.79350147 8.17210278 -0.75278016 -0.276351 0.378435 -0.092146
8400 -0.3101529600000001 8.06193648 -0.72194733 -0.222692 0.4103600000000001 -0.130268
8420 0.10448631000000001 8.08184097 -0.62749665 -0.25283 0.543805 -0.175515
8440 0.028144890000000002 8.18078463 -0.7024842900000001 -0.359668 0.724305 -0.199993
8460 0.03981879 8.27823717 -0.9202859100000002 -0.4533720000000001 0.982507 -0.220207
8480 0.51148359 8.307274770000001 -0.8464852800000001 -0.550932 1.308995 -0.264035
8500 0.42736284 8.4909474 -0.68587596 -0.601175 1.379107 -0.171541
8520 0.27781920000000004 8.75050038 -0.58648104 -0.633161 1.103594 0.024073
8540 0.8440916400000001 8.418647700000001 -0.27243351000000005 -0.528609 1.072459 -0.006135
8560 1.06967259 7.636368870000001 -0.05837931 -0.45465 1.164816 0.010287
8580 1.40782329 8.00176194 -0.46598481 -0.349573 1.3547280000000002 -0.153729
8600 1.22460192 8.66802771 -0.62809506 -0.173989 1.338751 -0.306306
8620 1.1115907199999997 8.73029178 -0.30266793 0.050716 1.1943709999999998 -0.359031
8640 0.8439444899999999 9.14628483 -0.48753738 0.205109 1.108681 -0.376002
8660 0.72254574 9.715549320000001 -0.5110421400000001 0.406526 1.1396110000000002 -0.29345
8680 0.45594918 9.997106129999999 -0.84439575 0.748296 1.363683 -0.148208
8700 0.5836361400000002 9.8302086 -0.67704696 1.035188 1.590603 -0.134744
8720 0.31854051 10.097403569999999 -0.47450970000000003 1.123958 1.613832 -0.15979200000000002
8740 -0.2860596 10.784319390000002 -0.6523453800000001 1.131378 1.550103 -0.213069
8760 -1.03060917 12.27058344 -0.5312409300000001 1.259018 1.372127 -0.304885
8780 1.15664805 14.550339150000001 1.3096251900000002 1.421732 1.41343 -0.384986
8800 2.75068476 15.19460109 1.14961428 1.249236 1.384624 -0.49084
8820 -0.75413394 14.88803859 0.57330621 1.0041209999999998 1.33691 -0.600381
8840 -0.03098979 14.39825472 1.29720573 0.933212 1.428913 -0.636246
8860 0.75592917 13.781539259999999 2.5147738800000004 0.903031 1.565502 -0.668678
8880 0.4773546 12.66831027 3.6354878999999998 0.8459139999999999 1.662694 -0.68202
8900 -0.44202879000000006 10.66008555 3.8838280500000004 0.786158 1.363798 -0.741875
8920 -1.31830704 9.480688110000001 2.9928740400000002 0.883233 1.3252540000000002 -0.777467
8940 -1.99145943 9.290432970000001 2.24174196 0.6344479999999999 1.321696 -0.73754
8960 -2.2519149300000003 9.34850817 1.7905800600000001 0.4754060000000001 1.138737 -0.666845
8980 -1.7095985100000002 9.21573963 1.58729724 0.32247600000000004 1.17926 -0.5451199999999999
9000 -1.1319464700000001 9.33159573 1.29316401 0.070776 1.068914 -0.437778
9020 -1.0298538000000002 10.28077209 0.5307994800000001 -0.151081 0.91812 -0.364359
9040 -1.30273857 10.830426390000001 0.04819653 -0.350682 0.758628 -0.266204
9060 -1.13419296 9.55179099 0.02963601 -0.540701 0.5884739999999999 -0.174378
9080 -1.43820486 8.696614049999999 0.22034241 -0.810337 0.480493 -0.109893
9100 -1.40931441 8.097262290000002 0.20133063 -1.050109 0.398923 -0.016392
9120 -1.29061341 7.832460960000001 -0.35760393 -1.203788 0.284936 0.117277
9140 -1.2325382100000002 7.72034247 -0.49337432999999997 -1.112385 0.117838 0.266612
9160 -1.09691496 7.7585131800000005 -0.39323385000000005 -0.797411 -0.174597 0.397373
9180 -1.28597328 7.54940322 -1.13164236 -0.494246 -0.304834 0.469092
9200 -0.9515699999999999 7.44806592 -1.32504651 0.014044999999999998 -0.192668 0.483181
9220 -0.7385654700000001 7.725433860000001 -0.59381892 0.287418 -0.319545 0.539733
9240 -0.74514798 7.31184426 -1.2115840500000001 0.468953 -0.258491 0.565492
9260 -0.8090699400000001 7.00378083 -1.61604054 0.56905 0.08984400000000001 0.481355
9280 -1.1567952000000001 6.48855963 -2.0917470600000008 0.8304860000000001 0.7825479999999999 0.452383
9300 -1.2862773900000002 6.52597497 -2.1594066300000003 0.52467 0.767817 -0.126574
9320 -1.15290063 6.862183290000001 -2.4650764200000004 -0.743115 0.255334 -0.337735
9340 -1.27040481 6.6463240500000005 -2.63960613 -0.719962 -0.053674 -0.338245
9360 -1.37324304 6.790030740000001 -2.8092112200000003 0.047483 0.5157470000000001 -0.079378
9380 -1.28372679 7.0482397500000005 -3.3235397100000004 0.449649 1.600445 0.308738
9400 -1.10425284 7.64879814 -3.8559774600000005 -0.099059 2.194941 0.499628
9420 -0.45759726 8.426878290000001 -4.107456810000001 -0.987513 1.976622 0.455246
9440 -0.11541465 9.458380170000002 -4.371355620000001 -1.034443 1.816694 0.529898
9460 0.38709279 10.608592860000002 -4.61790054 -0.355958 2.224679 0.478567
9480 -0.02425032 11.940074730000001 -4.0866498 0.03431 2.711928 0.30227600000000004
9500 -2.227370310000001 11.68589763 -3.42248337 -0.250531 2.809376 0.155952
9520 -4.39845084 10.54137474 -3.95537238 -0.690284 2.628236 0.015311000000000003
9540 -5.3627444099999995 11.99874834 -3.96465264 -0.8199709999999999 2.207048 -0.037398
9560 -3.8146675500000002 14.69808756 -1.8160272000000002 -0.808317 2.246192 0.020318
9580 -6.7996053000000005 17.74814409 2.4780942900000005 -0.622674 2.404702 0.179508
9600 -6.22570068 14.01849981 4.70995758 -0.5063380000000001 2.495584 0.261389
9620 -3.19091832 5.830975710000001 1.4768268300000003 -0.502192 2.2472950000000003 0.27775900000000003
9640 -1.51035741 4.767434370000001 0.13247424000000002 -0.563696 1.807746 0.228755
9660 -0.07784234999999999 6.99764958 -0.08412075 -0.597713 1.5343440000000002 0.164774
9680 -0.69664734 9.24941736 2.3245187400000002 -0.532385 1.488715 0.063808
9700 -1.51334946 10.75603716 3.2061826800000004 -0.479191 1.356832 -0.034996
9720 -2.14189578 10.39049694 1.4681449800000002 -0.474077 1.29614 -0.046633
9740 -2.3224194000000002 9.938883780000001 -0.69784416 -0.57598 1.25993 0.039228
9760 -2.4182238600000003 9.16513965 -0.45520362000000003 -0.6375460000000001 1.375012 0.084584
9780 -2.7024784200000003 7.9237724400000005 1.21068153 -0.294669 1.639325 0.022547
9800 -2.2748212800000003 7.6407147 2.42645445 -0.192092 1.661389 0.010416
9820 -1.6334042400000002 8.50112037 2.00164221 -0.154469 1.69334 -0.02034
9840 -0.53034822 10.011634740000002 1.0827002700000001 -0.012618 1.849727 -0.091121
9860 0.38036313000000005 11.34685422 -0.030391380000000003 0.155 1.952166 -0.013169
9880 1.3078299600000003 11.337721109999999 -0.82612953 0.409448 1.9996080000000005 0.15625799999999998
9900 1.69896447 10.2378141 -0.87193242 0.797234 2.126142 0.410905
9920 1.7556957000000002 9.00272529 -1.05635061 1.087565 2.428703 0.68601
9940 1.53341091 8.37268785 -1.24167132 1.122383 2.474919 0.819722
9960 1.34525511 8.51489361 -1.2003516 1.0417459999999998 1.389456 0.344122
9980 0.9310671 9.36467505 -1.3641099300000001 1.921347 1.7089439999999998 -0.393625
10000 1.2049917300000001 9.77482134 -0.8108651700000001 2.29521 2.82368 -0.5654939999999999
10020 1.81617435 9.624689100000001 0.0836793 1.965648 2.420786 -0.757424
10040 0.8012807999999999 10.21625172 -0.01497006 1.876428 1.762895 -0.792455
10060 -1.21577292 10.948980240000001 -1.60915392 1.944959 1.553972 -0.8194819999999999
10080 -1.8013514400000001 10.6687674 -1.8528441300000003 1.74226 1.515428 -0.861441
10100 -0.8195470199999999 9.59938911 -1.40138793 1.420709 0.940264 -0.8704280000000001
10120 -0.21061089 9.64593756 -1.19481876 1.386128 0.882697 -0.830003
10140 -0.33021441000000007 9.919872000000002 -0.9749178000000001 1.166606 0.7479899999999999 -0.7854300000000001
10160 -0.3586536 10.79270694 0.29952873 0.8704860000000001 0.654061 -0.748922
10180 -0.82029258 11.74203045 2.4691181400000004 0.706667 0.608484 -0.664551
10200 -1.19915478 11.62123011 4.7621958300000005 0.62255 0.378797 -0.694754
10220 -2.60757648 10.023161490000001 7.159014270000001 0.348204 0.310645 -0.729698
10240 -4.9530493799999995 9.85027005 5.44223484 0.318106 0.308427 -0.6818350000000001
10260 -6.0894888300000005 12.91065651 0.9660888000000001 0.254792 0.360308 -0.5477479999999999
10280 -4.00492269 16.311283200000002 -0.77688333 0.025851 0.342506 -0.426479
10300 -2.18965086 15.75039645 0.03098979 -0.235967 0.315446 -0.358839
10320 -0.6319896300000001 13.21227477 1.13689071 -0.510495 0.33625700000000003 -0.263575
10340 1.55735712 11.15614782 -0.9786652200000001 -0.68004 0.441965 -0.178368
10360 2.0868126300000003 8.558155710000001 -2.12393367 -0.692787 0.209809 -0.185638
10380 1.41590673 7.74938988 -1.74237372 -0.302474 0.326075 -0.029236
10400 0.5824393200000001 9.071434530000001 -2.2360521600000003 0.081397 0.468743 -0.075876
10420 -1.4030360100000001 9.35898525 -3.26425788 -0.344537 0.3935010000000001 -0.337264
10440 -2.17976238 7.83979884 -3.10409982 -0.995921 0.741023 -0.099773
10460 -1.03374837 7.56452043 -3.1617237600000005 -0.770554 0.7341 -0.16228299999999998
10480 -0.06182262000000001 7.4904255 -3.47143527 -0.772157 0.606306 -0.170677
10500 -0.35655426000000007 8.292157560000001 -3.99009978 -0.874878 0.763424 0.053799
10520 -0.8759741400000002 7.88395365 -3.34688751 -0.945442 0.532347 0.093127
10540 -1.40677362 5.12264466 -3.11412564 -1.124509 0.325273 0.084664
10560 -1.4485347899999998 5.76286488 -3.45556269 -1.137522 0.41001 0.216924
10580 -1.60107048 5.71242186 -3.9243924000000003 -1.121069 0.579054 0.28625700000000004
10600 -1.63893708 6.30114939 -4.90140954 -1.103309 0.7727109999999999 0.326725
10620 -1.39450131 7.0338681 -5.16605391 -1.057204 0.909625 0.413397
10640 -1.3397124600000003 7.962541560000001 -5.20527429 -0.994259 0.994285 0.499186
10660 -1.8269555400000002 8.730448740000002 -5.61168297 -1.0338 1.026193 0.545871
10680 -1.66992687 10.525060710000002 -4.267624680000001 -1.027763 0.95476 0.555619
10700 -4.47823557 15.811473509999999 -5.33805264 -1.055676 0.788233 0.665664
10720 -5.08463091 16.923505679999998 -4.60742346 -1.033579 0.725283 0.67124
10740 -2.17272861 11.429631 -5.38086348 -0.987828 0.7080350000000001 0.682264
10760 -3.49643115 8.80543638 -3.8893608900000003 -0.8975479999999999 0.5991380000000001 0.663806
10780 -3.6297981000000004 9.505379880000001 -1.05395697 -0.675525 0.585733 0.626918
10800 -2.55758472 10.301579100000001 -0.87118686 -0.514791 0.718426 0.60437
10820 -2.50968249 10.88431272 -1.17999585 -0.43989 0.6918350000000001 0.529084
10840 -1.8794880900000002 10.62535815 -1.3572233100000002 -0.269564 0.769314 0.453262
10860 -0.72254574 9.79024266 -1.6774119 -0.265019 0.669812 0.291052
10880 -0.38395359 9.18429858 -1.4042328300000002 -0.303066 0.545067 0.084779
10900 -0.43305264000000004 9.10900683 -0.91519452 -0.4471020000000001 0.360947 -0.099726
10920 -1.26906084 9.202417650000001 -0.54202212 -0.479499 0.327712 -0.284712
10940 -2.54201625 8.63538984 -0.74021355 -0.480995 0.447118 -0.307308
10960 -2.2646385 8.215668990000001 -0.75832281 -0.590865 0.668097 -0.32865500000000003
10980 -1.02417381 8.20024767 -0.40296537000000004 -0.6256229999999999 0.601884 -0.257242
11000 0.30297204000000005 8.123759100000001 -0.4340925 -0.471228 0.25636 -0.297381
11020 0.67704696 8.03050524 -0.59141547 -0.417559 0.360442 -0.265093
11040 0.7036909200000001 7.59910068 -0.27901602 -0.134745 0.8038810000000001 -0.31496
11060 0.06945480000000001 7.94412819 -0.4767561900000001 0.146763 0.668021 -0.416437
11080 -0.2311236 8.25279003 -0.74679606 0.406598 0.505413 -0.469962
11100 -0.17887554 8.47118025 -0.28231218 0.802603 0.268773 -0.509621
11120 0.13936086 8.848845630000001 -0.15342840000000002 1.552119 0.04609 -0.616264
11140 1.0509649200000002 8.746458660000002 0.16854561000000004 1.896787 0.138318 -0.535994
11160 1.07641206 8.80828128 0.5081972400000001 1.998779 0.206546 -0.370863
11180 1.3572233100000002 8.88821316 -0.13217994000000002 1.947399 0.485508 -0.291463
11200 1.38012966 9.565711380000002 -0.98510058 1.564274 0.147326 -0.369549
11220 0.99648018 10.736426970000002 -1.6661892600000001 1.029735 -0.312269 -0.589543
11240 0.66596166 12.41473158 -2.15387379 1.053961 -0.613957 -0.8229280000000001
11260 -1.0681814699999999 13.013641890000002 -2.19862701 1.383022 -0.331511 -0.878675
11280 2.47675032 13.86027432 0.6836294700000001 1.488759 -0.054963 -0.8644040000000001
11300 0.7018858800000001 15.566125410000001 2.44052199 1.340882 0.106137 -0.797277
11320 -0.71790561 14.838792390000002 2.7641538900000002 1.310787 0.411503 -0.6793060000000001
11340 -3.26740689 13.06961775 2.56402008 1.210257 0.440283 -0.596724
11360 -2.6568226800000003 12.14005158 2.8674335699999998 1.059235 0.361766 -0.5442670000000001
11380 -1.6398396000000002 10.33016544 2.24263467 0.812802 0.187682 -0.485945
11400 -1.42368606 10.532997000000002 0.80053524 0.559265 0.080791 -0.441646
11420 -1.44209943 11.01409902 -0.32063004 0.27811 -0.008921 -0.407175
11440 -0.38979054 11.247910560000001 -0.64770525 -0.128021 -0.107882 -0.34899600000000003
11460 0.7833186900000001 10.363401719999999 -1.5998736599999999 -0.468863 -0.090173 -0.220009
11480 0.8960355900000001 8.87369436 -1.16263215 -0.565552 -0.000248 0.019551
11500 -0.29907747 8.992552320000001 -0.39861954000000005 -0.7098810000000001 0.074257 0.160521
11520 -0.44398098 8.40427605 0.69156576 -0.700461 0.193955 0.321735
11540 -2.71026756 7.49267199 -0.31689243 -0.265577 0.31611 0.298978
11560 -2.6946990900000003 9.20136798 -0.97821396 -0.188116 -0.016738 -0.17968599999999998
11580 -3.2192103600000004 9.401354640000001 -1.1931706800000002 -0.329594 0.677914 0.185904
11600 -3.30991362 8.52147612 -0.5159765700000001 -0.755392 0.7907 0.321654
11620 -2.10746268 7.1555709599999995 -0.65683836 -1.362616 0.219829 0.020111
11640 -1.52487621 6.8993043300000005 -0.9518741100000001 -1.33237 0.550029 0.26879400000000003
11660 -1.37144781 6.36386472 -1.0946782800000001 -0.949908 0.5322939999999999 0.376174
11680 -0.88825626 6.461611560000001 -1.59133896 -0.982125 0.431423 0.321599
11700 -0.92088432 6.308781570000001 -2.3779538100000006 -1.02613 0.383596 0.332035
11720 -1.4835663000000001 6.186038850000001 -3.0163788000000005 -1.020789 0.654031 0.363773
11740 -1.91197881 6.45907077 -3.4820595 -0.959755 0.928707 0.352097
11760 -1.8628797600000002 7.48024272 -4.01240772 -0.8462069999999999 1.126068 0.448777
11780 -1.44943731 5.617068659999999 -4.28543964 -0.781632 1.105234 0.541122
11800 -1.85898519 7.737559020000001 -5.786369639999999 -0.7410979999999999 0.88875 0.5641149999999999
11820 -2.16913815 9.00527589 -6.24262293 -0.85706 0.531046 0.607561
11840 -2.12931936 8.6879322 -6.465800430000001 -1.036659 0.273631 0.667525
11860 -5.28924789 12.693159000000001 -4.83734043 -1.007741 0.029709 0.635992
11880 -5.8884525 14.717540790000001 -2.5195611600000003 -0.8449040000000001 -0.101714 0.5935010000000001
11900 -3.85897932 15.93347067 -3.1025988900000003 -0.659944 -0.031983 0.577612
11920 -5.16725073 12.840593490000002 -3.28132728 -0.633366 0.138553 0.531646
11940 -2.90306349 9.03012462 -0.22184334 -0.68189 0.159373 0.428731
11960 -0.16420959 8.43331365 -0.39682431 -0.549225 0.15606 0.343136
11980 -1.14766209 8.638234740000001 0.34743096000000007 -0.416239 0.29839 0.33213200000000004
12000 -1.50721821 9.795334050000001 0.90621837 -0.502368 0.27985 0.248233
12020 -1.6284600000000002 10.851978960000002 -0.64725399 -0.5499310000000001 0.195534 0.063206
12040 -1.54314243 9.79697232 -0.6541406099999999 -0.401922 0.234971 -0.07040700000000001
12060 -1.64761893 8.93522268 -1.24435926 -0.306825 0.4765680000000001 -0.097826
12080 -0.9379537200000001 8.845559280000002 -1.18748088 -0.28733000000000003 0.488432 -0.151116
12100 -0.49846572000000006 8.820259290000001 -1.2927127500000002 -0.284745 0.65222 -0.087214
12120 0.50145777 8.32583529 -0.35161983 -0.261101 0.216437 -0.086491
12140 1.35752742 8.267603130000001 -0.18636057 -0.123006 -0.15475899999999998 -0.086119
12160 1.5874443900000004 8.07346323 -0.12469491 -0.009959 0.004912 -0.1539
12180 1.03329711 8.58734046 -0.1505835 0.205463 0.159943 -0.215619
12200 0.00673947 9.32934924 -0.33365772000000005 0.4648060000000001 0.109255 -0.285313
12220 -0.64007307 8.740474560000001 -0.3817071 0.834658 -0.027098 -0.340239
12240 -1.03644612 8.249346720000002 0.00359046 1.277003 -0.128737 -0.34770100000000004
12260 -0.9159498899999999 8.52386976 0.37766538 1.6582130000000002 -0.036397000000000006 -0.326997
12280 -0.45445806 8.43855219 0.14070483 1.749448 0.144146 -0.267839
12300 0.36329373000000004 8.286919020000001 0.49247181000000007 1.739225 0.259168 -0.25203400000000004
12320 0.44293130999999997 8.07779925 0.24428862 1.6917509999999998 -0.047771 -0.442116
12340 0.182466 9.24881895 -0.33470739 1.465144 -0.201209 -0.502255
12360 0.06795387 10.47925782 -1.09631655 1.301552 -0.189399 -0.649759
12380 0.13965516000000006 11.29505742 -1.53161568 1.479301 -0.442911 -0.8094939999999999
12400 -0.043114950000000006 12.23031339 -2.2775092200000002 1.739335 -0.254259 -0.792964
12420 1.06174611 13.377082770000001 -0.95396364 1.7374310000000002 -0.263596 -0.8538540000000001
12440 3.09331863 15.12664722 1.5206873400000003 1.431127 -0.307191 -0.875166
12460 1.45302777 15.919246170000001 1.9281358800000001 1.06328 -0.237804 -0.8585959999999999
12480 -1.3959924300000002 13.548022020000001 2.12513049 0.905579 -0.178616 -0.605537
12500 -2.34966177 12.565167930000001 2.32990443 0.810211 -0.210485 -0.545273
12520 -2.08905912 10.41114699 2.65727394 0.683942 -0.237967 -0.489504
12540 -2.12587605 10.11850488 1.91392119 0.34146 -0.217689 -0.468422
12560 -1.87036479 10.31999247 1.0353964500000001 0.089158 -0.185444 -0.321743
12580 -1.02836268 9.990072360000001 -0.09924777 -0.265558 -0.124189 -0.148042
12600 -0.42960933 10.65004992 -0.9282222 -0.534515 -0.25055700000000003 -0.015163
12620 -0.62345493 11.1893841 -0.6481565100000001 -0.5272640000000001 -0.362073 0.160219
12640 -1.29615606 11.836932390000001 -0.29788065 -0.30388000000000004 -0.363439 0.308127
12660 -0.86489865 10.20068325 -0.28126251 0.372084 -0.217642 0.557285
12680 -1.67726475 8.796460230000001 -0.65263968 0.654721 -0.126614 0.192743
12700 -2.41088598 9.59984037 -1.63369854 -0.263668 -0.073486 -0.04234
12720 -1.9279887300000003 10.42791228 -1.58999499 -0.761951 0.240139 0.280654
12740 -2.25775188 9.62199135 -1.32923538 -0.706114 0.230716 0.191325
12760 -1.98367029 7.35315417 -0.55085112 -0.8496969999999999 0.26037 0.359063
12780 -1.20768948 6.6741746399999995 -1.1817910800000002 -0.843684 0.295015 0.480838
12800 -0.30565998000000005 4.6747789200000005 -1.39495257 -0.959466 0.077414 0.386305
12820 -0.58348899 4.8819465 -1.9237998600000001 -0.996924 0.258762 0.3559
12840 -1.0571059800000002 4.593797370000002 -2.11016043 -0.905431 0.451207 0.369111
12860 -2.04385464 5.512582350000001 -2.6381150100000004 -0.8338049999999999 0.733205 0.382069
12880 -2.9779039800000002 4.57897446 -3.4468808400000004 -0.977687 0.919512 0.535717
12900 -2.4632811900000005 5.89084614 -4.205654910000001 -0.98755 0.776187 0.688588
12920 -1.56904083 6.82939827 -4.984480620000001 -0.999302 0.618233 0.77203
12940 -0.72553779 8.28916551 -5.73277761 -1.004605 0.343588 0.727479
12960 -1.18104552 9.884399040000002 -6.34889466 -1.071155 0.044366 0.7551720000000001
12980 -2.23919136 11.704909409999999 -6.677313840000001 -1.064531 -0.094341 0.804534
13000 -5.641014870000001 13.878393390000001 -4.84317738 -0.980647 -0.17668599999999998 0.811635
13020 -6.586453620000001 14.518603800000001 -2.6955918000000003 -0.8680559999999999 -0.174449 0.6874359999999999
13040 -2.9186319600000004 12.272231520000002 -2.9612956500000003 -0.7087600000000001 0.033139 0.584665
13060 -3.22280082 8.666673930000002 -2.3192802 -0.607651 0.093999 0.462448
13080 -2.11599738 8.5404879 -0.38664153 -0.631983 0.025303 0.34699800000000003
13100 -1.2795379199999999 9.556274160000001 0.37661571000000005 -0.509948 0.05283 0.283722
13120 -1.7013581100000001 11.69233299 -0.06481466999999999 -0.443083 0.058543 0.12929000000000002
13140 -1.6245752400000002 11.54204379 0.02679111 -0.429754 -0.011059 -0.058535
13160 -1.67815746 10.24006059 -0.46986957000000007 -0.313646 0.093305 -0.150793
13180 -1.7610912000000003 9.08191161 -0.6466555799999999 -0.283824 0.279783 -0.190348
13200 -1.80390204 9.42066072 -0.6738979500000001 -0.412533 0.092885 -0.226259
13220 -1.2295461600000002 8.9916498 -0.8508311099999999 -0.276392 0.6180760000000001 -0.080703
13240 -0.27857457 8.16401934 -0.7668575100000001 -0.180633 0.078739 -0.08682000000000001
13260 0.22199049 7.725737970000001 -0.50235048 -0.105389 -0.06627000000000001 -0.119224
13280 0.59141547 7.777829070000001 -0.34967745000000006 0.032602 0.087312 -0.284031
13300 0.7434999 7.915993110000001 -0.4263131700000001 0.150106 0.014885 -0.388872
13320 0.34353639 7.73830458 -0.5978606400000002 0.439837 -0.147806 -0.447528
13340 -0.38395359 7.87108293 -0.7170129000000001 0.837901 -0.173489 -0.497057
13360 -0.54666225 7.9125498 -0.7143151499999999 1.329854 -0.164483 -0.511792
13380 -0.49951539 8.097115140000001 -0.18546786 1.641771 0.041674 -0.389169
13400 -0.48813579 8.65978731 0.12843252 1.787238 0.286591 -0.225029
13420 0.10807677000000002 8.54093916 -0.14400099 1.7948689999999998 0.426762 -0.120469
13440 0.74186163 8.67760227 -0.210915 1.5431549999999998 0.201815 -0.125144
13460 0.55070397 9.862542359999999 -0.5060979 1.3137370000000002 -0.535662 -0.382175
13480 0.42301701 10.61517537 -0.6026479200000002 1.396794 -0.6517430000000001 -0.46263
13500 0.0076321800000000006 11.240729640000001 -0.1907064 1.4613040000000002 -0.535874 -0.456987
13520 -0.82358874 12.065809500000002 -0.9083079000000001 1.545308 -0.6276619999999999 -0.486193
13540 -1.5905934000000002 14.714097480000001 -1.9577817000000002 1.416496 -0.606804 -0.52878
13560 3.67291305 16.166978099999998 1.02057354 1.322847 -0.467276 -0.442019
13580 2.09578878 16.97844168 1.90194318 1.160765 -0.38494 -0.379163
13600 0.63587439 13.520338200000001 1.58116599 1.026684 -0.482729 -0.316949
13620 -1.32175035 11.800713870000001 2.2656881700000002 0.973269 -0.466692 -0.285296
13640 -1.85614029 10.771899930000002 2.04924033 0.759107 -0.447658 -0.330614
13660 -2.2403881800000005 9.42934257 1.34794305 0.6900149999999999 -0.251965 -0.19141
13680 -2.4553449 9.53113113 0.70293555 0.383673 -0.156602 -0.064417
13700 -2.0417553 9.835143030000001 -0.5881291200000001 0.045089 -0.144095 0.031478
13720 -0.9108585 9.83006145 -1.41081534 -0.271407 -0.25608400000000003 0.07320800000000001
13740 0.03712104000000001 10.38989853 -1.6214262300000002 -0.687867 -0.397145 0.012796
13760 0.44966097000000005 10.4609916 -0.50789313 -1.010213 -0.503317 -0.063027
13780 0.5846858100000001 9.79413723 -0.34547877 -0.759649 -0.53085 -0.054832000000000006
13800 -0.46718163 8.49363534 -1.4648586300000002 -0.10559 -0.609246 0.334397
13820 -0.51148359 8.55920538 -1.4009366699999999 0.445978 -0.612452 -0.14031
13840 -1.62996093 8.840467890000001 -2.03800788 -0.385729 -0.370422 -0.005424
13860 -1.9309807800000003 8.612934749999999 -1.92229893 -0.699523 -0.305678 0.325586
13880 -1.85240268 8.04711357 -1.5337150200000003 -0.610925 -0.4311430000000001 0.189633
13900 -1.44120672 6.6066622200000005 -1.5944879699999999 -0.765975 -0.381051 0.317741
13920 -1.02521367 6.703065090000001 -1.5283195200000002 -0.822142 -0.395264 0.457304
13940 -1.35169047 6.71323806 -1.9711036800000001 -0.960041 -0.4830890000000001 0.428679
13960 -1.63160901 6.853648590000001 -2.15985789 -1.036047 -0.544592 0.423954
13980 -2.50489521 5.976467820000001 -1.5405918300000003 -0.984833 -0.5044489999999999 0.4637850000000001
14000 -2.74064913 5.706879209999999 -2.60159238 -0.8521920000000001 -0.396378 0.495551
14020 -2.5108793100000004 6.18783408 -3.2386635900000003 -0.7298979999999999 -0.186128 0.5580930000000001
14040 -1.81378071 6.72566733 -3.9740898600000003 -0.8193370000000001 -0.11350899999999997 0.59049
14060 -1.1859799500000001 7.80821064 -4.84107804 -0.890632 -0.15967 0.740671
14080 -0.27348318 8.337214890000002 -5.48040555 -0.905005 -0.17916700000000002 0.8335309999999999
14100 0.35236539 8.89450137 -4.91712516 -0.8245879999999999 -0.093147 0.8307770000000001
14120 0.004640130000000001 10.880123850000002 -4.53481965 -0.75188 -0.235323 0.891288
14140 -1.53745263 10.237961250000001 -6.9991407 -0.798541 -0.344084 0.957331
14160 -5.708232990000001 15.97807674 -3.6301022100000004 -0.74538 -0.417642 0.924682
14180 -4.13424792 13.07680848 -3.3265317600000004 -0.6583220000000001 -0.415251 0.784281
14200 -2.34397197 9.64638882 -5.0109774300000005 -0.5711729999999999 -0.376705 0.659859
14220 -3.4018235100000003 9.22322466 -2.18905245 -0.5845239999999999 -0.354976 0.565734
14240 -2.5938032399999997 9.934243649999999 0.12334113000000002 -0.506934 -0.28028400000000003 0.467904
14260 -2.51252739 10.213858080000001 -0.5049010799999999 -0.341765 -0.201568 0.353589
14280 -2.82777174 10.256973030000001 -0.47331288 -0.241559 -0.086449 0.249456
14300 -2.4559433100000008 9.827363700000001 -0.50535234 -0.260024 -0.044346 0.126427
14320 -1.71378738 9.36797121 -0.9969314400000001 -0.407911 -0.112431 -0.034752
14340 -1.08315153 9.239234580000002 -1.17251082 -0.516419 -0.155275 -0.14868599999999998
14360 -0.41373675 8.769659310000002 -0.60040143 -0.493708 -0.16781300000000002 -0.229697
14380 -0.6441147900000002 8.96634981 -0.6655202100000001 -0.4324939999999999 -0.07748200000000001 -0.228317
14400 -0.94004325 8.14755816 -0.36119439 -0.454637 0.47338 0.028264
14420 -1.35363285 7.8161469299999995 -1.0773145800000001 -0.417531 -0.093317 -0.011343
14440 -1.0597939200000002 8.23946805 -0.7758336600000001 -0.217115 -0.202376 -0.084579
14460 -0.28665801 8.87938416 -0.69336099 -0.1579 -0.106614 -0.107789
14480 0.1240965 9.22906161 -0.4601478600000001 -0.030918 -0.046666 -0.290713
14500 0.6647648400000001 8.497677060000001 -0.41613039 0.264442 -0.018243 -0.461738
14520 0.17109621 8.46624582 -0.11197134000000002 0.468448 -0.043149 -0.537193
14540 -0.31285071000000003 8.390502810000001 -0.03202965 0.8551790000000001 0.020691 -0.586916
14560 -0.34607718 8.203543830000001 0.18561501000000002 1.2931629999999998 0.165027 -0.564814
14580 -0.21869433000000002 8.24036076 0.19474812000000002 1.601827 0.265047 -0.537149
14600 -0.21704625 8.743613759999999 0.28425456 1.667093 0.387002 -0.455664
14620 0.21794877000000001 8.86651344 0.3010198500000001 1.605136 0.213252 -0.374689
14640 0.6996492000000001 8.82983385 0.16944813 1.565197 0.090961 -0.39404
14660 0.93016458 9.25614702 -0.03981879 1.449765 0.044492 -0.394786
14680 1.31665896 9.787250610000001 0.16944813 1.421194 0.080876 -0.411056
14700 0.72733302 11.053613700000001 -0.3210813 1.580883 -0.089746 -0.504794
14720 -1.05141618 12.668457420000001 -2.06330787 1.664772 -0.217711 -0.544636
14740 1.5795179099999999 14.766198390000001 -1.18972737 1.470632 -0.174566 -0.509728
14760 3.26141298 15.34967757 1.4907472200000003 1.31546 -0.0058590000000000005 -0.47364
14780 1.2271525200000002 15.220646640000002 1.19676114 1.187403 0.035937000000000004 -0.42545
14800 -0.22408002000000002 13.330083060000002 1.43760645 1.086037 0.007631999999999998 -0.451759
14820 -1.04661909 11.573631989999999 2.28319902 1.012193 -0.026268 -0.43514
14840 -1.8712575 10.64466423 2.55294459 0.8411790000000001 -0.057783 -0.397838
14860 -2.06181675 10.13063004 2.50294302 0.52165 -0.1155 -0.339107
14880 -2.35954044 10.365344100000002 2.1255817500000003 0.314511 -0.027924 -0.215685
14900 -2.17901682 9.665253450000002 1.53910071 0.004737 0.031172 -0.073714
14920 -1.63759311 9.85999176 0.78092505 -0.341497 -0.010567 0.00831
14940 -1.24435926 10.23346827 0.48603645 -0.464761 -0.094469 0.051354
14960 -1.12371588 11.321858340000002 0.19100070000000002 -0.523932 -0.08303200000000001 0.172703
14980 -1.0310604300000001 10.57790718 -0.20627487000000003 -0.585863 0.008384 0.275771
15000 -0.7349750100000001 9.412871580000001 -0.7899110100000001 -0.065198 0.32691 0.354844
15020 -0.8222447700000001 8.800649100000001 -0.67210272 0.5616180000000001 0.077903 -0.254687
15040 -1.7591390100000002 8.943747570000001 -1.0591955100000001 -0.332974 0.8039149999999999 0.114148
15060 -2.3285604600000003 9.83454462 -1.49150259 -1.111923 1.0463 0.380793
15080 -1.84267116 8.56593504 -1.30438665 -1.036727 0.561728 0.017676
15100 -1.4587175700000001 7.279510500000001 -0.94947066 -0.811022 0.456541 0.019387
15120 -1.37518542 7.055724780000001 -0.98390376 -0.836149 0.528251 0.22315
15140 -1.5994224000000004 7.62379245 -1.72875744 -1.055136 0.29015 0.282814
15160 -1.3503465000000001 6.263577090000001 -1.4507812800000002 -1.1076 0.343216 0.377452
15180 -1.68938991 6.603218910000001 -1.5991281 -0.966342 0.610481 0.551148
15200 -1.8134766 5.95161909 -2.01375756 -1.024401 0.670652 0.472685
15220 -2.1902492700000002 6.838080120000001 -2.49485958 -0.890142 0.912895 0.516041
15240 -1.6540640999999998 4.97071719 -3.09137625 -0.754382 1.111068 0.656673
15260 -1.37443986 6.12256815 -4.00133223 -0.771033 1.019303 0.709017
15280 -0.71910243 6.762337110000001 -4.704562080000001 -0.783674 0.816948 0.70812
15300 -0.36958194 7.88574888 -4.82746176 -0.758851 0.644281 0.7095819999999999
15320 -0.5049010799999999 8.836426170000001 -4.96892196 -0.793868 0.487653 0.747995
15340 -0.84992859 8.59273596 -5.07744018 -0.790715 0.458952 0.7298939999999999
15360 -6.148466550000001 12.92637213 -4.85680347 -0.710389 0.497146 0.699427
15380 -6.05625255 18.03375243 -3.5108028000000004 -0.659242 0.490545 0.707271
15400 -2.1086693100000007 13.758485760000001 -5.056181909999999 -0.544244 0.598058 0.6278189999999999
15420 -3.50600571 10.275680699999999 -3.87170289 -0.481536 0.719533 0.565077
15440 -3.67800444 9.93199716 -2.07454032 -0.482105 0.727407 0.461445
15460 -1.9420660800000002 9.787250610000001 -0.7438040100000001 -0.422842 0.723478 0.327268
15480 -2.02243941 9.922412790000001 -1.0093509 -0.395591 0.6814600000000001 0.155529
15500 -2.5671592800000003 9.46421712 -0.8604154800000001 -0.403953 0.5850920000000001 0.019929
15520 -1.61828703 9.449247060000001 -1.4801229900000001 -0.317511 0.699292 -0.108868
15540 -0.94812669 8.89540389 -1.04393115 -0.294743 0.723941 -0.165356
15560 -0.97342668 9.31588011 -0.9714843000000001 -0.29435900000000004 0.792186 -0.182533
15580 -1.0731159000000003 8.89330455 -0.76550373 -0.401695 0.866143 -0.202605
15600 -1.5441921 8.653204800000001 -0.9937824300000001 -0.496325 0.938908 -0.202291
15620 -1.6965708300000002 8.08872759 -1.20798378 -0.4829520000000001 1.068813 -0.199159
15640 -0.49906413000000005 7.958205540000001 -1.06249167 -0.268381 1.448972 -0.08277999999999999
15660 0.6679138500000001 8.33960853 -0.65473902 -0.475963 1.278439 0.118951
15680 1.24136721 8.73808092 -0.6707587500000001 -0.43553 1.056561 0.15904200000000002
15700 0.8852544000000001 8.91157077 -1.21517451 -0.313778 1.1400709999999998 0.215333
15720 0.44143038000000007 8.777448450000001 -1.05081777 -0.212352 1.179991 0.0012779999999999998
15740 -0.24428862 8.76487203 -1.0946782800000001 -0.104245 1.068525 -0.189036
15760 -0.43349409 8.61862455 -0.9313614 -0.027826 0.780482 -0.150746
15780 -0.24009975 8.19905085 -0.5402268900000001 0.198893 0.7166239999999999 -0.095669
15800 0.44681607 8.03558682 -0.37900935 0.438163 0.789258 -0.08554500000000001
15820 0.8497814400000001 8.56832868 -0.20866851000000003 0.6550239999999999 0.8863690000000001 -0.049972
15840 0.9229836600000001 8.54498088 0.38634723000000004 1.021147 1.179047 -0.032833999999999995
15860 0.75038652 8.63434017 0.15942230999999998 1.309331 1.386005 -0.089839
15880 0.41104881000000004 9.17621514 0.036826740000000004 1.265168 1.247853 -0.13483499999999998
15900 0.4366431 9.540411390000001 0.01571562 1.271392 1.110803 -0.232893
15920 0.6047472600000001 9.39581199 -0.6647648400000001 1.370581 0.953403 -0.383686
15940 1.04557923 9.3995496 -0.7807779 1.128293 0.722852 -0.593386
15960 1.2506474699999999 10.320885180000001 -1.1569423499999998 0.903379 0.432145 -0.692861
15980 -0.18695898 11.56330206 -1.9230543000000002 0.716484 0.5662020000000001 -0.7552270000000001
16000 -0.87762222 13.368400920000001 -0.6074352000000001 0.686832 0.6885180000000001 -0.681883
16020 3.3126113700000004 14.94282744 0.98255979 0.785559 0.865874 -0.631214
16040 0.41268708000000004 15.644419020000003 -1.4890991400000002 0.7713399999999999 0.767999 -0.6514850000000001
16060 -0.14849397 14.324758200000002 -0.18681183 0.614698 0.764469 -0.698508
16080 0.2168991 12.798086760000002 0.3013239600000001 0.498767 0.58387 -0.722587
16100 0.82163655 12.71411316 1.86736293 0.435384 0.757596 -0.6890689999999999
16120 0.33470739 11.587405230000002 2.92805937 0.370526 0.8779129999999999 -0.618106
16140 -0.6051887100000001 9.29312091 2.81474406 0.109768 1.106435 -0.530489
16160 -2.1871002600000002 8.65410732 2.26344168 -0.110797 0.952654 -0.510468
16180 -2.75666886 9.5555286 1.40333031 -0.269067 0.961362 -0.419718
16200 -2.03187663 10.40097402 1.4687433900000002 -0.418643 1.009437 -0.32468400000000003
16220 -1.0380942 9.53053272 1.70749917 -0.601474 0.99805 -0.249035
16240 -0.7445495700000001 8.86067649 1.0084483800000001 -0.805212 1.0730620000000002 -0.183256
16260 -1.18717677 8.42013882 0.018707670000000003 -0.993181 1.114919 -0.098097
16280 -1.4596102800000001 9.301959720000001 -0.61776513 -1.160417 1.050063 0.015118
16300 -1.3371716699999998 11.155098150000002 -0.24129657000000002 -1.017471 1.190664 0.161214
16320 -1.2310372800000002 10.4609916 -0.45460521000000004 -0.6268630000000001 1.1630049999999998 0.345576
16340 -1.2284964900000002 8.5404879 -0.55968993 -0.495684 0.969513 0.40122
16360 -0.9196875 8.07121674 -0.80457696 -0.513849 0.933476 0.371229
16380 -0.79005816 8.092023750000001 -0.6026479200000002 -0.455241 0.7030810000000001 0.394366
16400 -0.8445429000000001 7.9361919 -0.70293555 -0.087861 0.320392 0.405968
16420 -0.9379537200000001 7.45270605 -0.38051028000000003 0.29349000000000003 0.280341 0.50055
16440 -1.26652005 6.974144820000001 -1.06518942 0.5313479999999999 0.756696 0.5165569999999999
16460 -1.0449808200000001 7.4164777200000005 -0.81490689 0.905018 0.7238 0.427342
16480 -1.3247424000000003 7.44566247 -1.1195172 0.275753 0.48839 -0.095908
16500 -1.7130418200000002 7.81045713 -1.0891356300000001 -0.751992 -0.14483 -0.424878
16520 -2.33320059 6.97040721 -2.05433172 -0.742687 -0.687082 -0.426255
16540 -2.23230474 7.183264590000001 -2.37646269 -0.16287100000000002 0.383694 -0.17361300000000002
16560 -2.57584113 7.376963040000001 -2.56955292 0.058057 1.56357 0.279344
16580 -2.7671459400000002 7.57050453 -2.70322398 -0.658644 2.300276 0.483834
16600 -2.13875658 7.5425166 -2.86099821 -1.1360860000000002 2.264206 0.327789
16620 -1.4305726800000003 7.55509302 -2.5903599300000004 -0.8334450000000001 2.30623 0.212345
16640 -0.77599062 7.716153600000001 -3.15199224 -0.121107 2.691559 0.20294
16660 -0.38874087000000007 8.097115140000001 -3.09361293 0.200843 2.874723 0.206022
16680 -0.6093873900000002 8.6096484 -2.68422201 -0.097799 2.541731 0.088995
16700 -1.18074141 8.90633223 -4.040101350000001 -0.340109 2.278379 0.089776
16720 -0.42870681 10.57236453 -4.0086603 -0.478002 2.391088 0.261721
16740 -0.09714843000000001 11.442501720000001 -4.17796128 -0.570361 2.343122 0.348731
16760 -1.37518542 10.975477049999999 -4.963977720000001 -0.614887 2.475095 0.417686
16780 -2.7840583800000003 10.646910720000001 -5.07145608 -0.554071 2.482313 0.424511
16800 -2.4920146800000005 11.17216755 -3.9520860300000002 -0.461838 2.226828 0.29943200000000003
16820 -2.07094005 12.16654839 -1.67815746 -0.378601 1.844705 0.149884
16840 -4.60606968 14.36816745 1.4388032700000002 -0.36443 1.880999 0.118958
16860 -4.943916270000001 13.825851029999999 4.18679028 -0.382514 1.819571 0.045203
16880 -3.74386878 7.2211311899999995 2.2897913400000003 -0.370534 1.296891 -0.057661
16900 -1.2925655999999999 5.92123752 1.4949459 -0.352843 1.140464 -0.115021
16920 -0.55953297 6.804255240000001 1.0374957900000001 -0.5000220000000001 1.196193 -0.071255
16940 -2.07633555 7.468568820000001 2.9861443800000003 -0.622857 1.379936 -0.093713
16960 -4.14533322 9.76044969 4.1061128400000015 -0.6511140000000001 1.7188759999999998 -0.114641
16980 -5.39882559 11.36347236 2.71520199 -0.6112350000000001 1.5961299999999998 -0.08963600000000001
17000 -4.50143622 12.570857730000002 0.6060912300000001 -0.563538 1.559612 -0.056141
17020 -2.3872340700000003 11.51405586 -0.5215192200000001 -0.570327 1.557167 0.028204000000000007
17040 -0.30746502000000003 10.09081125 0.9806076 -0.480744 1.60563 0.085383
17060 1.06009803 9.21229632 1.7160338700000002 -0.387721 1.6489900000000002 0.083841
17080 1.78384059 9.4368276 0.6837766200000001 -0.178587 1.7140669999999998 0.145039
17100 0.63139122 9.528580530000001 -0.2832147 0.000353 1.745011 0.243457
17120 0.14684589 9.477843210000001 -0.45295713 0.229149 1.7564259999999998 0.387114
17140 0.69859953 10.02225897 -0.33440328 0.5443020000000001 1.702766 0.479115
17160 0.50100651 9.96103476 -0.70024761 1.076827 1.9799830000000005 0.488889
17180 0.3529638 9.28294794 -0.7459033500000001 1.285991 2.142591 0.402547
17200 0.36523611 8.88641793 -0.64950048 1.315583 1.938415 0.021661
17220 1.12326462 8.87369436 -0.47825712 1.588066 2.227177 -0.4980979999999999
17240 1.1439244800000001 9.10242432 0.18905832000000003 2.02433 2.891453 -0.76189
17260 0.94947066 9.397607220000001 -0.10942074000000002 2.050989 2.975059 -0.913498
17280 0.9939295800000001 9.763598700000001 -0.23186916000000002 1.913146 2.604104 -1.000512
17300 0.048353490000000006 9.71823726 -0.33320646000000004 1.790966 2.272048 -0.972097
17320 -0.45790137000000003 9.84412899 -0.89962605 1.626367 2.221425 -0.957159
17340 -0.8315250300000001 9.94756563 -1.1255111100000001 1.352539 1.856871 -0.928694
17360 -0.60833772 10.09231218 -1.59044625 1.048675 1.498642 -0.857719
17380 -0.16705449 9.89292393 -1.2955576500000001 0.761292 0.87564 -0.920885
17400 0.36449055 10.091713770000002 -1.04257737 0.881351 1.222677 -0.6983010000000001
17420 0.40071888000000006 10.46488617 -1.1570895 0.793346 1.408194 -0.395778
17440 0.36987624 10.813366799999999 -1.3692013200000002 0.6132350000000001 1.17462 -0.436261
17460 -0.24878160000000002 11.53486287 -0.35790804000000004 0.477334 0.821524 -0.462395
17480 -0.34188831000000003 11.63126574 1.16951877 0.168319 0.429524 -0.466188
17500 0.05149269000000001 11.73918555 2.6952975 0.319828 0.538291 -0.358447
17520 0.020355750000000002 11.22830037 4.733011080000001 0.213345 0.412695 -0.2928
17540 -1.1512525500000002 10.04216346 7.156463670000001 0.268945 0.2663 -0.22813000000000005
17560 -4.108055220000001 10.025251019999999 6.312676140000001 0.41831 0.412201 -0.080928
17580 -5.77244925 10.68597414 2.77941825 0.235345 0.344461 -0.031912
17600 -6.16867515 12.469069170000001 0.07349652000000001 -0.003285 0.157917 -0.061114
17620 -4.43901519 13.55401593 0.24729048000000003 -0.299865 -0.111487 -0.098092
17640 -1.77665967 12.871436130000001 1.18942326 -0.5571659999999999 -0.098022 -0.045427
17660 0.6259957199999999 11.83049703 0.53049537 -0.50931 -0.153499 -0.066386
17680 2.23619931 10.587933 -0.74081196 -0.2877 -0.415545 -0.26105500000000004
17700 1.5669414900000003 8.63194653 -2.19757734 -0.317789 -0.133624 -0.406905
17720 0.38395359 8.37044136 -1.92005244 -0.510675 0.15053 -0.171471
17740 -0.4573029600000001 8.01164061 -1.52577873 -0.6612319999999999 0.319641 0.02595
17760 -2.00807757 8.02630656 -3.57382224 -0.809334 0.402027 0.064334
17780 -0.9454387500000001 7.25197383 -3.67440417 -0.836742 0.4936640000000001 0.08218500000000001
17800 -0.22063671 6.98358204 -3.03314409 -0.800886 0.411469 0.093223
17820 -1.18807929 8.939862810000001 -3.9086767800000004 -0.839628 0.389024 0.145324
17840 -1.4754828599999998 9.003176550000001 -4.058210610000001 -0.907332 0.54468 0.172426
17860 -1.48775517 9.3730626 -4.306845060000001 -0.939849 0.763857 0.268058
17880 -0.51059088 6.28737615 -3.54163563 -0.946703 0.921457 0.289172
17900 -0.7434999 7.608528090000001 -3.85912647 -0.848116 1.139007 0.411359
17920 -0.5837832900000002 6.649021800000001 -3.77769366 -0.93683 0.867662 0.413224
17940 -0.7262931600000001 5.7968467200000005 -4.53317157 -0.867088 0.71934 0.414969
17960 -1.5079637700000004 6.421949730000001 -5.016372929999999 -0.799447 0.64002 0.4785680000000001
17980 -1.7721666900000002 6.737194080000001 -5.48713521 -0.835152 0.562247 0.511534
18000 -1.98547533 7.90760556 -6.28123509 -0.801449 0.49808 0.544966
18020 -1.3697997299999998 8.749303560000001 -5.95970253 -0.715109 0.495588 0.560527
18040 -2.1764760300000003 14.597790120000003 -5.77558845 -0.650829 0.55608 0.561967
18060 -3.27833523 15.36839505 -6.62087691 -0.6342369999999999 0.6562819999999999 0.530976
18080 -3.64641624 9.50418306 -7.095543570000001 -0.592274 0.67555 0.471424
18100 -3.65016366 10.692713610000002 -5.592367080000001 -0.547255 0.664971 0.4140680000000001
18120 -5.207216669999999 11.109000960000001 -2.66116851 -0.445232 0.734179 0.33457600000000004
18140 -4.659357600000002 11.72721735 -1.3897140300000002 -0.378837 0.7193149999999999 0.264556
18160 -2.4557961600000002 12.00952953 -0.85786488 -0.316691 0.709788 0.195568
18180 -1.91033073 10.6747515 0.14459940000000002 -0.268524 0.6185149999999999 0.06890299999999999
18200 -2.03800788 10.314449820000002 0.3008727 -0.445088 0.364016 -0.06980499999999999
18220 -2.33289648 10.0733004 -0.33095997000000005 -0.554563 0.347791 -0.179508
18240 -1.67951124 9.98348985 -0.66028167 -0.534511 0.490652 -0.225484
18260 -1.5188921100000001 10.2235896 -0.2980278 -0.519417 0.546974 -0.204087
18280 -1.3680045 9.42784164 0.18336852 -0.522687 0.698538 -0.274806
18300 -1.75150683 9.6420528 -0.48993102000000005 -0.535098 0.756333 -0.065596
18320 -1.4094713700000001 8.570575170000001 -0.19759302 -0.567605 0.5184439999999999 0.045577
18340 -0.71790561 8.14875498 -0.53408583 -0.396912 0.522087 0.052105999999999986
18360 -0.32931189000000005 8.400077370000002 -0.4784042700000001 -0.132678 0.561063 -0.066807
18380 0.13636880999999998 8.46010476 -0.42736284 0.094895 0.408839 -0.291486
18400 0.3589577100000001 8.46699138 -0.66088008 0.395892 0.008024 -0.484354
18420 -0.1300806 8.43241113 -0.55309761 0.668987 -0.306897 -0.554682
18440 -0.52315749 8.13722823 -0.49861287 1.168694 -0.439729 -0.537135
18460 -0.77014386 8.01747756 -0.34188831000000003 1.454172 -0.400802 -0.396322
18480 -0.41313834 7.968682620000001 -0.16031502 1.468335 0.002484 -0.295258
18500 -0.046705409999999996 8.06133807 -0.45235872000000005 1.509648 0.182338 -0.286654
18520 0.37482048 8.1818343 -0.45654759 1.567947 0.168003 -0.21572600000000006
18540 1.1479662000000002 8.152943850000002 -0.28546119000000003 1.404566 -0.215535 -0.330676
18560 1.44405162 8.19426357 0.16390548000000002 1.408616 -0.5519729999999999 -0.381491
18580 0.8273263500000001 8.21491362 -0.48050360999999997 1.484646 -0.5042409999999999 -0.395976
18600 0.5149269000000001 8.62461846 -1.20245094 1.438905 -0.562316 -0.484884
18620 -0.16660323000000002 10.032137640000002 -1.70271189 1.300632 -0.79477 -0.575282
18640 -0.22094082 10.825040700000002 -1.3953940200000001 1.17493 -0.761273 -0.584749
18660 -1.1192229 11.39729724 -1.5492736800000002 1.090547 -0.744092 -0.545836
18680 -2.3640334200000006 13.792016340000002 -0.54202212 0.967208 -0.574589 -0.470003
18700 1.30214016 15.52017537 1.34226306 0.935509 -0.438396 -0.402033
18720 -0.9425938500000001 16.83818811 0.3182364 0.917995 -0.269079 -0.371394
18740 -1.16892036 15.135476220000003 0.49052943 0.721266 -0.285749 -0.294766
18760 -0.07663572 13.73004657 1.37534238 0.426865 -0.167962 -0.191219
18780 0.7568218800000002 11.522139300000001 1.8223056000000002 0.01706 -0.151792 -0.150306
18800 0.68961357 9.772133400000001 2.21644197 -0.5994619999999999 -0.043426 -0.07570199999999999
18820 -0.4128440400000001 9.8043102 1.9743900300000001 -0.816102 0.104751 0.08603200000000001
18840 -1.5057172800000003 9.65028339 1.12625667 -0.641366 0.142131 0.17693599999999998
18860 -1.6021201500000002 9.69054363 0.017667810000000003 0.108823 0.206627 0.447012
18880 -1.62232875 10.79510058 -0.5086386900000001 0.952881 0.012739 -0.015793
18900 -1.53745263 12.095749620000003 -0.1562733 -0.07731299999999999 0.27865100000000004 -0.086355
18920 -1.31217579 11.01394206 -0.30342330000000006 -0.7036720000000001 0.572517 0.227224
18940 -0.7475416199999999 9.96373251 -0.5441214600000001 -0.902163 0.146748 0.04799
18960 -0.03922038 10.068513120000002 -0.90770949 -0.982887 0.054089 0.112706
18980 -0.48244599000000005 9.656267490000001 -1.5555618900000003 -0.8503350000000001 0.088982 0.329368
19000 -1.4724908100000003 9.29940912 -1.40647932 -1.017216 0.055211 0.394475
19020 -1.8179695800000002 8.340805350000002 -1.2461544900000001 -1.085982 0.19496 0.404498
19040 -1.60107048 7.77902589 -0.8948387700000001 -0.94412 0.42987 0.410529
19060 -1.5470370000000002 6.38916471 -0.6243476400000001 -0.900923 0.60419 0.4693600000000001
19080 -1.6564577400000002 6.15340098 -0.72943236 -0.8659399999999999 0.791557 0.4693640000000001
19100 -1.87634889 3.90911823 -0.8909442000000001 -0.742107 0.8686459999999999 0.5310189999999999
19120 -2.1791639700000003 4.15909665 -1.5444864 -0.690224 0.855382 0.606174
19140 -2.29727637 5.28416631 -1.57412241 -0.808706 0.6171260000000001 0.617402
19160 -2.22931269 5.958358560000001 -2.5036983900000003 -0.967637 0.39713 0.626188
19180 -2.0531349000000003 6.84481959 -3.36664485 -0.967864 0.133907 0.651093
19200 -1.19331783 6.63644538 -3.7721510100000004 -0.8955069999999999 -0.080728 0.7170350000000001
19220 -0.54262053 7.725581010000001 -4.55098653 -0.777166 -0.018615 0.798966
19240 -0.3876912 10.29215169 -5.620364820000001 -0.685095 0.077901 0.8251229999999999
19260 -1.1195172 10.297086120000001 -6.330481290000001 -0.6391140000000001 -0.044181 0.679254
19280 -5.97153339 16.08345576 -4.761303120000002 -0.583192 -0.07899099999999999 0.545094
19300 -3.7940076900000004 16.26667713 -2.22617349 -0.42773 -0.009885 0.4446100000000001
19320 -2.35205541 12.18615858 -4.38962184 -0.381562 -0.026762 0.362701
19340 -3.06397692 10.35187497 -2.68601724 -0.281119 -0.100181 0.254538
19360 -1.3332771 8.99674119 -0.7878116700000001 -0.058708 -0.066557 0.178068
19380 -1.30349394 9.27156834 -1.34525511 -0.083821 -0.261146 0.110844
19400 -1.5919373700000001 9.98662905 -0.6304887000000001 -0.200095 -0.337119 0.030013
19420 -1.8053931600000002 11.129503860000002 -0.90636552 -0.302838 -0.24272800000000005 -0.042397
19440 -1.71618102 11.10121182 -0.8899043400000001 -0.346864 -0.123045 -0.097337
19460 -1.3572233100000002 9.88035732 -0.75398679 -0.417007 0.082106 -0.191025
19480 -1.12910157 8.79720579 -0.7620604200000001 -0.470309 0.416436 -0.103163
19500 -0.78541803 7.7207937300000005 -0.6381208800000001 -0.635366 0.027056 -0.08779400000000001
19520 -0.7023371400000001 7.4062949399999995 -0.36135135 -0.372846 0.035751 -0.092381
19540 -0.28695231 7.47141372 -0.42796125 -0.312128 0.26134 -0.08263200000000001
19560 0.24788889 7.68052368 -0.23081949000000002 -0.257522 0.183872 -0.203928
19580 0.8176046400000001 8.12584863 -0.06945480000000001 0.060913 0.316792 -0.419792
19600 0.97836111 8.6327019 -0.49083354000000007 0.402683 0.232112 -0.5850069999999999
19620 1.1523022199999997 8.51204871 -0.65967345 0.678766 0.11741 -0.644888
19640 0.29024847 7.899070860000001 -0.34743096000000007 0.911126 0.080331 -0.631467
19660 -0.31778514 7.757316360000001 -0.24459273 1.37179 0.117781 -0.5396350000000001
19680 -0.23395869 8.307873180000001 -0.25896438000000005 1.715135 0.344423 -0.50548
19700 -0.10014048 8.474025150000001 -0.23007393000000004 1.898033 0.575498 -0.375244
19720 0.5701670100000001 9.03670713 0.16256151000000002 1.972834 0.763141 -0.212592
19740 0.81924291 9.383088420000002 -0.19175607 1.762727 0.242029 -0.5146310000000001
19760 1.2897207000000002 9.90834525 0.02080701 1.444598 -0.119795 -0.5975739999999999
19780 1.4319264600000001 9.55342926 -0.15672456 1.441839 0.012172 -0.5635789999999999
19800 1.29974652 8.79840261 -0.8728349400000001 1.635549 0.039625 -0.6701520000000001
19820 0.6611743800000001 9.61555599 -1.21232961 1.6665029999999998 -0.045351 -0.7584890000000001
19840 0.03922038 10.68807348 -1.6742727000000002 1.450968 -0.044623 -0.753586
19860 -1.4173978500000002 10.962302220000002 -1.5477825600000001 1.235217 -0.124724 -0.7816960000000001
19880 1.4949459 11.544143129999998 -0.67629159 1.06169 -0.242509 -0.746438
19900 2.4780942900000005 13.80818322 0.61432182 0.985598 -0.235124 -0.662589
19920 0.6749476200000001 15.744255390000001 -0.03458025 1.033382 -0.194113 -0.570441
19940 0.5418749700000001 15.045812820000002 0.85606965 0.786419 -0.193712 -0.456799
19960 -0.50475393 15.06557016 1.2347847 0.458302 -0.210067 -0.34477
19980 -0.12843252 14.40140373 1.89565497 0.106605 -0.199914 -0.181665
20000 -0.35715267000000006 12.426258330000001 2.64455037 -0.314123 -0.131943 -0.031935000000000005
20020 -0.9909375300000001 10.253980980000001 2.37646269 -0.540417 -0.028341 0.096674
20040 -2.0130120000000002 9.0349119 1.51185834 -0.722899 0.015755 0.149823
20060 -2.18006649 9.00243099 0.36269532000000004 -0.464435 0.05648300000000001 0.130211
20080 -1.73668392 10.207422720000002 -0.9618999300000001 -0.029064 -0.207868 0.325871
20100 -0.67748841 11.677519890000001 -1.26307674 0.169348 -0.178032 -0.113957
20120 0.040711500000000005 12.26968092 -1.13314329 -0.604561 0.114891 0.030881
20140 -0.73586772 11.11079619 -1.1148770700000001 -0.8576299999999999 0.179346 0.381544
20160 -0.44607051 9.425448000000001 -0.13053186 -0.8436170000000001 -0.184498 -0.016338
20180 -0.25042968 8.60515542 -0.6836294700000001 -0.8967799999999999 -0.295448 0.069958
20200 -1.16906751 8.800649100000001 -1.71572976 -0.943048 -0.18211 0.271384
20220 -1.87111035 9.102865770000001 -2.0857629600000003 -1.059916 -0.272405 0.309139
20240 -1.51499754 7.63457364 -1.60061922 -1.139444 -0.326755 0.383429
20260 -0.90247095 7.4541971700000005 -1.6128915300000002 -1.051899 -0.244248 0.453369
20280 -0.4016115900000001 7.28010891 -1.7238132000000002 -0.861475 -0.073625 0.5100279999999999
20300 -0.35955612 6.042783419999999 -1.9023944400000001 -0.744425 0.167494 0.583176
20320 -0.65937915 3.83801535 -1.9785887100000001 -0.732459 0.270575 0.63547
20340 -1.7269622100000002 4.79543211 -2.47794714 -0.7412 0.273604 0.684543
20360 -2.48976819 5.2575125400000005 -2.59844337 -0.7869079999999999 0.32272 0.695912
20380 -2.65742109 5.445079740000001 -3.15004986 -0.8004560000000001 0.385653 0.687191
20400 -1.93382568 6.0908328 -3.4290658800000005 -0.8771709999999999 0.195137 0.711468
20420 -1.59044625 6.160434749999999 -4.064194710000001 -0.942146 0.034293000000000004 0.7646310000000001
20440 -1.5443392500000002 7.4145353400000005 -5.206922370000001 -0.905003 -0.049831 0.724406
20460 -1.7299542600000002 8.51848407 -6.016885020000001 -0.820925 0.037647 0.620196
20480 -1.3228000200000003 10.15743096 -5.30332524 -0.6974060000000001 0.136629 0.535474
20500 -4.41776673 16.88368689 -6.63060843 -0.5367350000000001 0.197118 0.454266
20520 -4.730911740000001 13.84830612 -3.76212519 -0.367792 0.133205 0.307045
20540 -2.23350156 13.669126470000002 -6.774462270000001 -0.198743 0.135168 0.202469
20560 -2.57509557 10.62730053 -5.2973313300000004 -0.219941 0.078072 0.113732
20580 -2.3623853400000003 9.96193728 -1.5962832 -0.209632 -0.07506900000000001 0.040293
20600 -1.7434233900000002 9.656414640000001 -0.45295713 -0.243002 -0.2471 -0.06654199999999999
20620 -2.18515788 10.111019850000002 -0.56373165 -0.217004 -0.290342 -0.197697
20640 -2.63886057 9.953098469999999 -0.47930679000000004 -0.113924 -0.180828 -0.234505
20660 -2.21868846 9.70192323 -0.83915721 -0.215442 0.100436 -0.154389
20680 -1.47278511 9.09628326 -1.19271942 -0.459856 0.16708900000000002 0.171762
20700 -0.77958108 8.66787075 -0.42646032 -0.427344 -0.04042 0.088934
20720 -0.714168 8.49303693 -0.04101561 -0.240226 0.06752000000000001 0.106126
20740 -1.22474907 8.24619771 -0.41463927 -0.242732 0.149846 0.033364
20760 -1.4910513300000003 8.28527094 -1.11368025 0.0022370000000000003 0.080611 -0.180617
20780 -1.16232804 8.454267810000001 -0.9618999300000001 0.29580100000000004 -0.021052 -0.319442
20800 -0.60234381 8.2976904 -0.5312409300000001 0.633771 -0.184767 -0.430103
20820 -0.057329639999999994 7.9516132200000005 -0.15478218000000002 0.996135 -0.276549 -0.436
20840 -0.01287072 7.792799130000001 -0.5465151 1.323319 -0.106224 -0.42325
20860 0.16151184 8.07795621 -0.79709193 1.5148620000000002 0.141894 -0.300453
20880 -0.15358536 8.578962720000002 -1.0583028 1.52456 0.304279 -0.15852
20900 0.25866027 8.876990520000001 -0.94783239 1.479608 0.250197 -0.181197
20920 0.29578131 8.865169470000001 -1.07550954 1.360798 0.182362 -0.16378
20940 0.21420135 8.70335352 -0.87388461 1.232933 0.17234000000000002 -0.210594
20960 0.6412698900000001 8.626864950000002 -0.56043549 1.333312 -0.151425 -0.317369
20980 1.2458601900000001 8.647220700000002 -0.08502327 1.444558 -0.108051 -0.338012
21000 1.4233917600000001 9.03371508 -0.42391953000000004 1.4981209999999998 -0.183373 -0.462523
21020 1.12835601 10.06193061 -0.7417046700000001 1.432259 -0.137267 -0.480134
21040 0.7945511400000002 10.604698290000002 -0.91026009 1.224412 -0.081198 -0.468839
21060 0.32497587 10.942240770000002 -1.3847697899999998 1.15608 -0.083128 -0.459699
21080 -1.1972124 11.16423126 -0.91444896 1.102752 -0.07338 -0.453675
21100 1.7794947600000002 13.690983150000001 0.8048810700000001 1.140492 -0.18339 -0.414815
21120 -0.87448302 16.112640510000002 0.32751666 0.914732 -0.21289 -0.30098600000000003
21140 0.53678358 15.708184020000001 0.9247788900000001 0.596791 -0.399483 -0.249556
21160 -0.46493514 14.3648811 1.8188721 0.228685 -0.409902 -0.255319
21180 -0.76550373 13.021274069999999 2.02528431 0.127328 -0.288597 -0.13333699999999998
21200 -1.1304455400000002 11.386820160000001 2.37092004 -0.192697 -0.198325 -0.053435
21220 -2.0510355600000003 10.25592336 1.4256382500000002 -0.354191 -0.227823 0.004227000000000001
21240 -2.58932007 9.64729134 0.6390234 -0.59734 -0.103812 0.104919
21260 -2.00387889 9.679772250000001 0.01571562 -0.7129949999999999 0.05843 0.12526800000000002
21280 -0.9954305100000002 9.74862864 -0.6982954200000001 -0.5509390000000001 -0.011089 0.319837
21300 -0.7262931600000001 10.667717730000001 -1.0571059800000002 0.207503 -0.25064699999999995 -0.368902
21320 -1.162485 11.17351152 -1.1020063500000001 -0.301112 -0.171168 -0.356534
21340 -0.47226321000000004 10.25996508 -0.57959442 -0.603173 0.262653 0.10761400000000003
21360 -1.0553009400000002 8.959316040000001 -0.92238525 -0.645886 0.245792 0.098791
21380 -1.55316825 9.24207948 -1.3497480900000003 -0.73117 -0.197243 -0.123427
21400 -1.6801096500000001 10.142313750000001 -1.6170902100000002 -0.927607 0.048416 0.151555
21420 -2.1158502300000004 9.67333689 -2.01855465 -0.999976 0.319383 0.383575
21440 -1.6281657 8.45981046 -1.6229271600000001 -1.09741 0.209067 0.349921
21460 -1.2060414 7.48323477 -1.1817910800000002 -1.023377 0.06499500000000001 0.350623
21480 -0.71910243 6.762484260000001 -1.65794886 -0.792007 0.091648 0.410957
21500 -0.77374413 6.7617386999999995 -2.03262219 -0.742395 0.265959 0.466628
21520 -1.13149521 5.63877819 -2.0272365 -0.7427010000000001 0.28796700000000003 0.557396
21540 -1.2754962 5.44118517 -1.8040491900000002 -0.699893 0.407831 0.6483399999999999
21560 -1.5328125000000001 5.07459528 -2.77028514 -0.6784020000000001 0.498078 0.704991
21580 -1.16547705 6.2670204 -3.2331307500000004 -0.743567 0.435629 0.660818
21600 -1.2976471800000002 4.71504897 -3.43790469 -0.699749 0.384616 0.592824
21620 -1.36561086 6.58884726 -3.4895445300000003 -0.716867 0.375084 0.593785
21640 -1.7754530400000001 7.6451978700000005 -4.65306939 -0.866865 0.26045100000000004 0.6195890000000001
21660 -1.70914725 8.00295876 -5.48504568 -0.904176 0.212862 0.56491
21680 -1.54194561 8.58240603 -5.46797628 -0.810381 0.372558 0.507677
21700 -1.1546958600000001 8.308177290000001 -5.664068370000001 -0.687083 0.467099 0.467824
21720 -5.30900523 17.72045046 -5.688769949999999 -0.5290729999999999 0.425271 0.401684
21740 -3.9936902400000003 14.27716008 -4.16090169 -0.403384 0.327039 0.349277
21760 -1.49973318 12.48298956 -5.266645649999999 -0.332861 0.296122 0.294261
21780 -2.6429022900000003 9.919420740000001 -5.06531502 -0.20963 0.33967600000000003 0.218154
21800 -4.49514801 10.53225144 -2.39247261 -0.07464900000000001 0.392751 0.148526
21820 -3.38460696 10.238853960000002 -2.04295212 -0.190264 0.205006 0.046478
21840 -2.63003157 9.82901178 -2.1806649 -0.29570100000000005 0.11641300000000003 -0.084468
21860 -1.8356373900000003 10.43001162 -1.5385023 -0.280619 0.256434 -0.214865
21880 -1.00396521 9.75491685 -0.9993250800000001 -0.293688 0.431199 -0.218385
21900 -0.6045903 9.071287380000001 -1.49538735 -0.477833 0.58182 -0.163248
21920 -0.3094074 8.81831691 -1.3341796200000002 -0.466953 0.8843559999999999 0.093881
21940 -0.34667559 9.02488608 -1.0782072900000002 -0.497223 0.372922 0.1456
21960 -0.769104 8.35083117 -0.94214259 -0.285864 0.305447 0.053159000000000005
21980 -1.3798353600000002 8.204289390000001 -1.1801430000000002 -0.269902 0.34025900000000003 -0.14119
22000 -1.5393950100000002 8.126604 -1.05754743 -0.09184 0.358533 -0.336523
22020 -0.99887382 8.310718080000001 -0.7387126199999999 0.193319 0.26868600000000004 -0.492512
22040 -0.27961443 8.14172121 -0.3469797 0.4784810000000001 -0.004603 -0.594856
22060 0.034727400000000005 8.062387740000002 -0.1240965 1.002066 -0.06288400000000001 -0.5932609999999999
22080 -0.12020193000000001 8.068067730000001 -0.56402595 1.304161 0.06565700000000001 -0.499448
22100 0.02604555 8.539143930000002 -0.8421492600000001 1.386386 0.211856 -0.368738
22120 -0.08292393 9.06454791 -0.71910243 1.458537 0.511406 -0.21693
22140 -0.10253412 8.99764371 -0.80996265 1.605903 0.4558430000000001 -0.302356
22160 0.18546786 8.78807268 -0.64904922 1.553276 0.173487 -0.508528
22180 0.237402 8.97443325 -0.57330621 1.388958 -0.248128 -0.690734
22200 0.6454587600000001 9.39940245 -0.49562082 1.371917 -0.317008 -0.766608
22220 1.13718501 9.34207281 -0.2228832 1.495558 -0.321787 -0.744374
22240 1.0656308700000001 9.05945652 0.01616688 1.50416 -0.30372 -0.741132
22260 0.73167885 9.09987372 -0.80547948 1.287439 -0.258533 -0.664724
22280 0.08726976 9.402100200000001 -1.14347322 1.099517 -0.230427 -0.604116
22300 -0.69290973 10.15203546 -1.41021693 0.8882120000000001 -0.206406 -0.567166
22320 -1.5037749000000002 10.82578626 -1.949247 0.746084 -0.211424 -0.521151
22340 -1.33253154 12.43000575 -2.0161610100000003 0.771044 -0.029703 -0.432547
22360 2.9852418600000004 15.093862200000002 0.16346403 0.5345770000000001 -0.092092 -0.34332
22380 1.6769606400000001 16.90300278 -0.27273762 0.097077 -0.036529 -0.27274
22400 0.8587674 15.71911236 0.9129480300000001 -0.083611 0.098503 -0.051985
22420 -0.8295728400000001 14.68536399 1.01099898 -0.38507 0.10114 0.082638
22440 -0.57645522 13.168414259999999 2.22347574 -0.725562 0.127649 0.142183
22460 -0.77808015 10.94299614 2.37840507 -0.897452 0.188615 0.229567
22480 -1.4079704400000002 9.85939335 1.06907418 -0.479515 0.107336 0.213362
22500 -1.72785492 8.73598158 -0.12304683000000001 0.755224 -0.121356 0.388922
22520 -1.51454628 9.05736699 -0.63079281 1.223458 0.031482 -0.14211400000000002
22540 -0.07065161999999998 9.913436640000002 -1.2639694500000003 -0.126435 0.408115 -0.18514
22560 0.01047708 11.062442700000002 -0.93779676 -0.551638 0.309448 0.082276
22580 -0.6039918900000002 11.361520170000002 -0.8108651700000001 -0.581263 -0.096484 -0.142805
22600 -0.76311009 9.640100610000001 -0.61611705 -0.5756720000000001 -0.007041 0.128447
22620 -0.44726733 8.2162674 -0.80502822 -0.715011 0.009845 0.288754
22640 -0.72703872 8.542587240000001 -1.17325638 -1.048481 -0.12322 0.287663
22660 -1.6148437199999999 8.92713924 -1.8513530100000002 -1.0173020000000002 0.044524 0.403034
22680 -1.9375731 8.31176775 -1.5865516800000001 -0.893875 0.25164699999999995 0.447428
22700 -2.03052285 7.98439824 -1.56259566 -0.7249359999999999 0.351124 0.465572
22720 -1.55780838 7.9472772 -1.41964434 -0.637109 0.448738 0.487425
22740 -1.7768068200000002 6.743031030000001 -0.9304686900000001 -0.519423 0.565332 0.531895
22760 -1.7024077800000001 4.45414221 -1.2424168800000002 -0.476998 0.589364 0.6122770000000001
22780 -2.31763212 5.01037902 -1.50990615 -0.5787909999999999 0.517178 0.637296
22800 -2.42839683 5.6755951200000005 -1.32803856 -0.716015 0.374889 0.641861
22820 -2.42720001 5.84384643 -1.28417805 -0.744492 0.213057 0.6440060000000001
22840 -2.05642125 4.466561670000001 -2.8645886700000003 -0.783709 0.028918 0.639695
22860 -1.4807214000000002 5.9180885100000005 -3.51709101 -0.767023 -0.103047 0.592979
22880 -1.0936286100000001 7.462879020000001 -4.140693090000001 -0.70667 -0.024201 0.536683
22900 -0.33425613 9.69369264 -5.15048544 -0.601614 0.067128 0.517004
22920 -0.22857300000000003 11.208091770000001 -5.706879209999999 -0.568431 0.106367 0.532141
22940 -1.8835298100000002 11.896361370000001 -7.397465940000001 -0.533138 0.096772 0.5035569999999999
22960 -5.33729727 17.52660486 -4.17691161 -0.4304850000000001 0.094501 0.449798
22980 -3.8318841000000003 15.876288180000001 -4.29082533 -0.337265 0.15607200000000002 0.422597
23000 -2.3611885200000002 10.046362140000001 -5.7589703100000005 -0.254575 0.206134 0.352607
23020 -3.8016398700000003 9.45957699 -2.6807787000000003 -0.227755 0.145696 0.258869
23040 -2.49949971 9.59010885 -2.2240741500000003 -0.169852 0.06299600000000001 0.110896
23060 -2.2309607700000003 9.67602483 -1.77979887 -0.106634 0.024823 0.012042
23080 -1.63565073 9.88364367 -1.18403757 -0.25405700000000003 -0.092609 -0.063613
23100 -1.36530675 9.848621970000002 -1.3781872800000001 -0.443719 -0.192527 -0.219702
23120 -1.74671955 9.22980717 -1.5826571100000002 -0.452117 -0.016359000000000002 -0.31185300000000005
23140 -1.71708354 9.03027177 -1.4441987699999999 -0.6280560000000001 0.371497 -0.183256
23160 -1.16413308 8.90408574 -1.1472108300000001 -0.819557 0.282567 -0.155638
23180 -1.1743060500000002 8.366399640000001 -0.9662359500000001 -0.8244879999999999 0.029582 -0.022889
23200 -1.37728476 8.14336929 -1.15978725 -0.753085 0.220244 0.186737
23220 -1.31606055 7.954163820000001 -1.1876280300000004 -0.672387 0.563167 0.140928
23240 -0.73617183 7.684565399999999 -0.8720893800000001 -0.499798 0.634387 0.029879000000000006
23260 -0.10747836000000001 7.574399100000001 -0.6099857999999999 -0.177601 0.370136 -0.233519
23280 0.28665801 7.9558020900000015 -0.63079281 0.252884 0.04986 -0.4330640000000001
23300 0.22199049 8.500070700000002 -0.98255979 0.7467 0.13808399999999998 -0.546164
23320 0.22917141000000002 8.971892460000001 -0.91205532 1.107745 0.23165 -0.548035
23340 0.053886329999999996 9.186397920000001 -0.9225324 1.387191 0.195596 -0.565264
23360 0.019306080000000003 8.77085613 -0.90651267 1.65874 0.311862 -0.572062
23380 -0.23036823 8.38720665 -0.85322475 1.864394 0.8136180000000001 -0.486879
23400 0.05403348 8.701401330000001 -0.69724575 1.966611 1.1057 -0.62434
23420 0.42990363000000004 8.83911411 -0.5806440900000001 1.769901 0.974459 -0.667207
23440 0.50280174 8.80454367 -0.80787312 1.278521 0.796311 -0.712071
23460 0.7664062500000001 8.91949725 -0.8095212000000002 1.101329 0.475472 -0.776991
23480 1.0990143 9.27665973 -1.4299742700000002 1.523675 0.139771 -0.8419770000000001
23500 1.24017039 9.88020036 -1.44539559 1.641881 0.092481 -0.840023
23520 0.7011403200000002 9.47829447 -0.7279314299999999 1.534118 0.174547 -0.756491
23540 -0.20911977 9.48427857 -1.8073453500000003 1.282085 0.158225 -0.7187060000000001
23560 -1.0584499500000002 10.7641206 -3.02685588 1.016477 0.018185 -0.632788
23580 -0.33395202000000007 10.98296208 -3.0277584 0.799707 -0.000331 -0.6097090000000001
23600 1.47653253 12.09005982 -0.26748927000000006 0.746067 0.002774 -0.540654
23620 0.56507562 13.92838515 -0.00748503 0.520882 0.041689 -0.486729
23640 -0.36359784 13.1790483 -0.43903674000000004 0.271414 0.164735 -0.405308
23660 -0.83540979 13.82195646 -0.182466 -0.225988 0.145035 -0.375642
23680 -0.03891627 15.677949600000002 1.85913234 -0.396859 0.324787 -0.15808
23700 -0.30147111000000004 15.319590300000002 2.8714752900000002 -0.6468119999999999 0.421938 0.0056240000000000005
23720 -0.8454454200000001 13.690679040000001 3.6113945400000005 -0.8118029999999999 0.334893 0.071881
23740 -1.3723503300000002 11.46495681 2.9782080900000003 -0.803762 0.29835 0.145691
23760 -1.9911553200000003 9.29282661 1.8309972600000002 -0.781411 0.478595 0.338964
23780 -2.4818417100000003 8.454866220000001 1.1424235500000002 -0.602051 0.436812 0.50905
23800 -1.90897695 9.696537540000001 -0.7587740700000001 -0.194915 -0.094523 -0.168951
23820 -1.13957865 11.24760645 -2.1369515400000005 -0.317837 0.584633 0.326043
23840 -1.2567885300000001 11.020534379999999 -1.6807080600000002 -0.561415 1.252448 0.8308909999999999
23860 -0.70353396 11.75161482 -1.27085607 -0.780097 0.801247 0.369538
23880 0.07724394 10.106232570000001 -0.80367444 -0.960457 0.848398 0.189825
23900 -0.40296537000000004 7.879166370000001 -0.8890018199999999 -0.98494 1.168847 0.260814
23920 -1.03075632 8.198599589999999 -2.48393124 -1.009876 1.012612 0.192474
23940 -1.2620270700000003 9.528884640000001 -2.5119289800000004 -0.8844870000000001 1.164402 0.219861
23960 -1.74476736 8.61218919 -2.21314581 -0.994372 1.319585 0.135573
23980 -1.09033245 7.784411580000001 -1.95314157 -1.009539 1.751043 0.14346
24000 -1.65810582 6.81652755 -2.5186586400000004 -0.921332 1.957215 0.189746
24020 -1.1943675 5.2696377000000005 -1.99370592 -0.83442 1.987171 0.348411
24040 -1.0503665100000001 3.1557396600000005 -1.33103061 -0.800952 1.862318 0.373374
24060 -1.59777432 4.73674869 -2.45280411 -0.697535 1.616912 0.381889
24080 -2.3216738400000003 5.373221490000001 -2.8421433900000004 -0.6462319999999999 1.3240889999999998 0.30571
24100 -2.72927934 5.67889128 -3.13612947 -0.6618970000000001 1.096438 0.239663
24120 -1.9736444700000002 5.23550871 -3.42922284 -0.646225 0.977256 0.193991
24140 -1.2608302500000002 6.4174567499999995 -4.649027670000001 -0.574363 0.81406 0.18402
24160 -1.2328325100000002 7.1406009 -4.653667800000001 -0.589491 0.807575 0.220242
24180 -1.69687494 7.924370850000002 -5.68472823 -0.673697 0.896001 0.291112
24200 -1.74940749 8.424778950000002 -5.526954000000001 -0.6503260000000001 0.8714270000000001 0.28917
24220 -1.34330292 8.47297548 -4.52823714 -0.595919 0.953884 0.134552
24240 -4.9531965300000005 13.758642720000001 -5.958809820000001 -0.701709 1.0940450000000002 0.073813
24260 -5.039573580000001 14.6862567 -5.717807550000001 -0.6260939999999999 1.256948 0.029267
24280 -2.11001328 12.04949547 -5.73756489 -0.639594 1.302948 -0.007205
24300 -3.4608012300000004 8.398439100000001 -4.11209694 -0.5579609999999999 1.315887 -0.116679
24320 -5.79235374 11.73559509 -2.3128448400000003 -0.4784 1.363901 -0.204847
24340 -3.28102317 11.0914803 -0.05927202000000001 -0.415522 1.310571 -0.242795
24360 -2.35879488 10.70558433 0.16734879000000003 -0.461193 1.175214 -0.186325
24380 -2.45264715 10.228229729999999 0.60654249 -0.341251 1.236846 0.014191
24400 -2.16569484 10.0328832 0.46508229 -0.155818 1.309228 0.133966
24420 -1.5998736599999999 10.319237099999999 0.01482291 -0.209612 1.120155 0.044102
24440 -0.8803199700000001 10.04605803 0.10657584 -0.125798 1.0440040000000002 -0.165654
24460 -0.84813336 9.95250006 -0.33605136 0.110458 1.054217 -0.260157
24480 -0.6773412600000002 9.31153428 -0.43559343 0.615067 1.583892 0.042859
24500 -0.6366297600000002 8.72445483 -0.88630407 0.733835 1.752702 0.613903
24520 0.17662905 8.068067730000001 -1.2308901300000001 0.8286110000000001 1.52527 0.663995
24540 0.9125065800000001 7.750881000000001 -1.09437417 1.077616 1.216028 0.260206
24560 1.48476312 7.53532587 -0.73781991 1.184379 1.15715 -0.292312
24580 1.60466094 7.7227361100000005 -0.69845238 1.252681 1.3774030000000002 -0.552763
24600 0.99153594 7.986046320000001 -0.6860231099999999 1.201754 1.863554 -0.605017
24620 0.52420716 8.56758312 -0.60683679 1.034271 1.8821900000000005 -0.591255
24640 -0.17767872 8.967703590000001 -0.71042058 0.788651 1.633605 -0.550992
24660 -0.8464852800000001 8.952586380000001 -0.7849667699999999 0.539519 1.261679 -0.565074
24680 -0.88077123 8.43226398 -0.62075718 0.55667 0.819472 -0.550501
24700 -0.76221738 8.561147759999999 -0.89259228 0.467325 0.689631 -0.503957
24720 -0.29084688000000003 8.64033408 -0.62943903 0.224486 0.60607 -0.442521
24740 0.032785020000000005 8.856183510000001 -0.6271925400000001 0.098992 0.445699 -0.454942
24760 0.19609209 8.704697490000001 -1.14316911 0.07444400000000001 0.511558 -0.386832
24780 0.36568737 8.980280010000001 -0.8689403700000001 -0.046828 0.685238 -0.291762
24800 0.88316487 9.471555 -1.1482605000000001 -0.22749 0.900821 -0.234548
24820 1.2331366200000002 9.23698809 -2.96862372 -0.34833600000000003 1.084429 -0.224945
24840 1.86407658 9.11050776 -3.0759549300000004 -0.434392 1.178418 -0.211779
24860 2.123629560000001 9.063203940000001 -1.76348484 -0.4316350000000001 1.402837 -0.125522
24880 2.42360955 9.489968370000001 -0.23366439 -0.520367 1.407228 -0.08128200000000001
24900 2.30580126 10.499466420000001 0.6072880500000001 -0.644019 1.221125 -0.054133000000000014
24920 -0.00014715 11.11902678 1.23957198 -0.669133 1.122026 -0.02534
24940 -2.6556258600000002 12.03901839 1.9420660800000002 -0.598746 0.923458 0.020272
24960 -4.721327370000002 13.940059050000002 3.91107042 -0.28832 0.672058 0.016353
24980 -3.7200599100000002 14.03451954 4.0547673 0.15929300000000002 0.516229 -0.030527
25000 -3.94145199 11.97554769 2.0558228400000003 0.470623 0.196776 -0.066399
25020 -4.83509394 9.53921457 -0.11915226000000001 0.5572060000000001 0.32712600000000003 0.028042
25040 -4.854252870000001 9.50313339 -2.0082247200000003 0.136397 0.7799510000000001 0.105707
25060 -3.2448046500000003 10.57386546 -2.13859962 -0.369785 0.634865 0.063901
25080 -0.82253907 10.84120758 -1.2889653300000001 -0.516506 0.556363 0.108911
25100 2.10327381 10.27403262 -1.35767457 -0.286279 0.458815 0.061505999999999984
25120 1.9516406400000001 9.716294880000001 -2.0299244400000003 -0.131407 0.472225 0.036933
25140 0.5929164 8.912022030000001 -2.81908989 -0.250095 0.642054 0.027341000000000004
25160 0.08891784 7.9278141600000005 -2.58587676 -0.431656 0.949036 0.13890999999999998
25180 -0.55938582 6.780446370000001 -1.9685530800000002 -0.506881 1.203345 0.276928
25200 -1.87604478 6.9907629600000005 -2.0300814000000003 -0.454324 1.620276 0.395333
25220 -1.8606332700000001 7.320977370000001 -1.7438746500000002 -0.317388 2.134504 0.35183400000000004
25240 -1.7498587500000002 7.375462110000001 -1.5283195200000002 -0.352424 2.292759 0.233882
25260 -2.2043168100000003 7.58442492 -2.1903964200000003 -0.365135 2.239834 0.160154
25280 -2.70891378 8.45741682 -2.5408194300000004 -0.402816 2.132501 0.12798099999999998
25300 -2.67389208 8.753492430000001 -2.72927934 -0.6030909999999999 2.059303 0.224953
25320 -1.6717220999999998 8.58284748 -2.3947191 -0.672041 1.956027 0.270537
25340 -1.67023098 8.526116250000001 -2.42255988 -0.736422 1.882714 0.278727
25360 -1.6956781200000002 8.672962140000001 -3.02355972 -0.824255 1.777669 0.250474
25380 -0.67434921 9.16544376 -3.21740532 -0.897892 1.678171 0.155016
25400 0.27692649 10.05638796 -3.09451545 -0.91724 1.548668 0.056770000000000015
25420 0.29653668000000005 10.7265483 -4.63586265 -0.827177 1.609228 0.018866
25440 -0.0031392000000000004 11.42065485 -5.031931590000001 -0.759049 1.758347 -0.035329
25460 -0.92987028 11.04852231 -4.9892777100000005 -0.8274360000000001 1.386187 -0.147493
25480 -2.3074493400000002 11.05899939 -3.78831789 -0.7316630000000001 1.220118 -0.258775
25500 -3.8817287100000004 12.43703952 -2.37106719 -0.467161 1.397262 -0.298815
25520 -5.43489696 12.0484458 -0.62420049 -0.428818 1.30275 -0.140329
25540 -4.29995844 8.993003580000002 -0.43589754000000003 -0.368436 1.113407 0.004545
25560 -2.7662434200000003 8.29799451 -0.0375723 -0.142374 1.306571 -0.012283
25580 -0.8469365400000001 8.75319813 1.56918798 -0.049324 1.540826 -0.066412
25600 -0.30161826 9.14583357 2.18096901 0.12818 1.856637 -0.07625900000000001
25620 -0.7866148500000001 9.97046217 2.160162 0.411711 1.88831 0.015411
25640 -2.42301114 10.74585438 1.3991414400000002 0.729013 1.984257 0.25465
25660 -3.2355243900000006 10.878779880000002 0.10119015 1.0372 2.1041220000000003 0.647618
25680 -3.2672597400000005 9.36902088 -0.7550266499999999 1.270833 1.6451619999999998 0.667998
25700 -2.65847076 8.88372999 -0.38979054 1.600657 0.996943 -0.016802
25720 -1.33537644 9.72932256 0.19205037000000003 1.982925 1.604374 -0.6697310000000001
25740 -0.35745678 10.309662540000001 0.49352148 2.046485 2.143364 -0.98083
25760 0.659232 10.21206285 0.47526507 1.976665 1.956448 -1.063331
25780 1.00471077 9.77257485 0.03532581 1.890049 1.199451 -0.8258209999999999
25800 0.75038652 9.28249668 -0.38364948 1.996846 0.895948 -0.677271
25820 0.21240612000000003 8.904380040000001 -0.7924517999999999 1.6281450000000002 1.436504 -0.473304
25840 -0.18891117000000002 8.60530257 -0.75592917 1.468601 0.57109 -0.498947
25860 -0.35655426000000007 8.66188665 -1.0121958 1.466939 0.346694 -0.591607
25880 -0.01466595 8.91516123 -1.1334474 1.341258 0.219047 -0.529296
25900 0.31239945 9.158400180000001 -0.91519452 1.081035 0.266722 -0.504469
25920 0.30252078000000004 8.67805353 -0.13816404 1.114925 0.365054 -0.349466
25940 0.15522363 8.87594085 -0.54740781 0.98959 0.232409 -0.3694
25960 0.54936 9.948762450000002 -1.1249127 0.698646 0.05980700000000001 -0.376552
25980 2.23036236 10.787615549999998 -0.22423698 0.447813 0.077552 -0.33453
26000 1.66244184 11.50941573 -0.17035065000000002 0.511595 0.135479 -0.224131
26020 -0.16076628 10.95077547 -1.2265541100000001 0.307 0.041029 -0.136777
26040 -1.05426108 10.23975648 -1.15065414 0.047014 -0.100895 -0.117047
26060 -0.72225144 9.82556847 -1.07132067 -0.159255 -0.103683 -0.040504000000000005
26080 -0.9961760700000001 11.049120720000001 -0.20522520000000002 -0.328418 -0.13333399999999998 0.06197
26100 -0.8439444899999999 12.412485090000002 1.3997398499999998 -0.5193770000000001 -0.12098699999999997 0.070234
26120 0.42691158 12.97786482 4.72268115 -0.619041 -0.190002 0.099537
26140 -1.35513378 12.22088598 7.886347290000001 -0.628444 -0.32443 0.158396
26160 -4.24248165 11.80504989 5.5500075 0.008902 0.04815 0.205099
26180 -6.32420289 12.19693977 1.4293758600000002 0.360005 -0.112133 0.024023
26200 -5.8128664500000005 12.81200715 -0.7954438500000001 -0.67337 -0.094468 -0.30048
26220 -3.3783285600000004 12.529694970000003 -0.10432935000000002 -1.106279 0.27956 -0.220662
26240 0.6674625900000001 12.481047180000001 0.6650689500000001 -0.618653 0.045667 -0.227638
26260 3.25932345 10.60439418 -1.45497015 -0.552333 -0.07631399999999999 -0.150107
26280 3.7901229300000003 8.533905390000001 -3.21725817 -0.7604 0.114307 0.045817
26300 0.88017282 8.54288154 -1.83143871 -0.974604 0.15876600000000002 0.035718
26320 -1.38656502 8.81846406 -2.8509723900000004 -1.127487 0.139916 0.087017
26340 -2.5146169200000004 9.89772102 -2.94422625 -1.148092 0.185311 0.207524
26360 -2.47749588 8.41729392 -3.31815402 -1.065424 0.167559 0.31281
26380 -1.5003315900000003 7.7682447 -2.69783829 -0.941768 0.222209 0.391584
26400 -0.9383951700000001 6.65440749 -3.28746834 -0.862058 0.397676 0.398325
26420 -1.3475016 7.82752653 -3.19944321 -0.93637 0.586063 0.504387
26440 -1.76932179 8.2683585 -3.5473254300000003 -1.095361 0.693754 0.617438
26460 -1.5310172700000002 6.480927449999999 -3.10843584 -1.081683 0.650034 0.616521
26480 -1.9237998600000001 6.539748210000001 -3.9694497300000005 -1.004119 0.569905 0.6075520000000001
26500 -1.63534662 6.324350040000001 -3.8428124400000003 -0.972209 0.547427 0.606735
26520 -1.31725737 6.588700110000001 -4.13545455 -0.918918 0.485656 0.55698
26540 -1.2919671900000003 5.419181340000001 -4.25415555 -0.937707 0.371612 0.587974
26560 -1.31172453 6.33183507 -5.03149014 -0.86319 0.344681 0.598143
26580 -1.4693418 7.528449060000001 -5.15782332 -0.64853 0.329274 0.535568
26600 -1.51559595 8.37732798 -5.88636297 -0.5285569999999999 0.416289 0.515999
26620 -1.4331232800000002 9.353599560000001 -6.396345629999999 -0.448269 0.434289 0.473808
26640 -1.49224815 11.59279092 -3.36096486 -0.354702 0.279834 0.390269
26660 -4.45938075 18.52637139 -6.547978800000001 -0.255994 0.281047 0.268112
26680 -4.01315328 16.92949959 -4.99885227 -0.16275499999999998 0.259877 0.153422
26700 -1.29840255 9.533828880000002 -5.72543973 -0.106149 0.178038 0.057783
26720 -2.33993025 7.651486080000001 -3.4021276200000004 -0.100642 0.149525 -0.00944
26740 -3.46918878 9.51137379 -1.0716247800000003 -0.137427 0.230786 -0.052529999999999986
26760 -3.27039894 10.507844160000001 -0.9654903900000001 -0.216672 0.5456979999999999 -0.147491
26780 -3.52577286 11.284138890000001 -1.10290887 -0.296675 0.766567 -0.167561
26800 -3.24420624 10.967844870000002 -1.48969755 -0.39106 0.867136 -0.193986
26820 -1.8495577800000003 9.88110288 -1.2608302500000002 -0.31555 0.60258 -0.167482
26840 -1.10126079 9.09374247 -0.5825864700000001 -0.302637 0.712978 -0.08100800000000001
26860 -0.8809183800000001 8.76637296 -0.24653511000000003 -0.262653 0.8744569999999999 -0.271079
26880 -1.2290949000000002 8.686136970000002 -0.18291726 -0.120689 0.739278 -0.421602
26900 -1.99669797 8.50815414 -0.08427771 0.198967 0.512868 -0.5558109999999999
26920 -2.25999837 8.351586540000001 0.05163984 0.50352 0.320314 -0.618599
26940 -2.4658219800000003 8.19006489 -0.18306441 1.090303 0.29493 -0.640105
26960 -1.6537599900000002 7.746240870000001 -0.5070004200000001 1.489018 0.23386 -0.6319
26980 -0.6331864500000001 7.560027450000001 -0.42257556000000007 1.502038 0.681643 -0.468945
27000 -0.16989939 7.962992820000001 -0.34488036 1.698221 0.800744 -0.320313
27020 0.3873969 8.20010052 -0.42377238 1.814811 0.78363 -0.403866
27040 0.31180104000000003 8.345896740000002 -0.64650843 1.475561 0.431621 -0.525425
27060 -0.07484049000000001 8.803494 -1.19930193 1.2280799999999998 0.096285 -0.633547
27080 0.59501574 8.8293924 -1.00456362 1.338281 -0.202914 -0.764853
27100 1.0990143 8.612934749999999 -0.27557271000000005 1.634032 -0.15918 -0.769252
27120 1.27848825 8.78627745 0.08517042 1.559193 -0.136778 -0.71212
27140 1.00157157 9.09643041 -0.01990449 1.400742 -0.31603000000000003 -0.769613
27160 0.9535123800000002 9.612112680000001 0.17169462000000002 1.332072 -0.096621 -0.700939
27180 1.0901853000000001 9.38383398 -0.12319398000000001 1.192159 -0.09839 -0.669868
27200 1.13673375 9.960887610000002 -0.31344912 1.048716 -0.226703 -0.69207
27220 0.6918600600000001 10.388691900000001 -0.6481565100000001 0.967696 -0.008858 -0.487816
27240 -0.05598567000000001 10.851978960000002 -1.22864364 0.716418 -0.01379 -0.368856
27260 -1.82679858 11.484115740000002 -0.85412727 0.392636 -0.002515 -0.244013
27280 0.95501331 13.688285400000002 0.29982303 -0.079128 -0.038189 -0.237649
27300 -0.91519452 16.002327060000002 0.07155414 -0.291702 0.062048 -0.079029
27320 -0.11795544000000001 16.503931980000004 0.5794472700000001 -0.5291399999999999 0.007176 -0.003705
27340 -0.69515622 15.067071089999999 1.04034069 -0.737983 -0.076632 0.090015
27360 -1.11128661 13.78453131 1.5971759099999998 -0.78838 -0.010901 0.212424
27380 -1.4432962500000002 11.62527183 2.10611871 -0.30478 0.115008 0.274393
27400 -2.15866107 9.62632737 1.32698889 0.273165 -0.107855 0.360969
27420 -2.49186753 9.26094411 0.55953297 0.117765 -0.37341 -0.227298
27440 -2.21479389 9.87541308 0.19264878 -0.7306229999999999 0.17883800000000002 0.132468
27460 -0.53932437 10.792402830000002 -0.90995598 -0.607449 0.12600799999999998 0.44959
27480 0.05328792 10.36280331 -1.4573736000000002 -0.6530229999999999 -0.130326 0.123792
27500 -0.54517113 10.10997999 -1.15664805 -0.836393 0.091119 0.315576
27520 -1.09975986 10.18168128 -1.1418251400000001 -0.940797 0.155277 0.345743
27540 -1.1064993300000001 8.28841014 -0.98375661 -1.094063 -0.046407 0.298997
27560 -1.3594698 7.93290555 -1.45901187 -1.077506 -0.06602100000000001 0.39421
27580 -1.3814736300000001 9.5697531 -1.8947622600000003 -0.906574 0.01635 0.426276
27600 -1.4974866900000001 10.27942812 -1.7455227299999998 -0.799322 0.190484 0.475941
27620 -1.6712708400000003 7.4065990500000005 -1.8329396400000002 -0.8314450000000001 0.412132 0.486115
27640 -1.3205535300000002 7.37995509 -1.3760879400000001 -0.888998 0.554559 0.615853
27660 -1.43072964 6.883431750000001 -1.1334474 -0.971837 0.507548 0.7221569999999999
27680 -2.1516273 6.0079088700000005 -1.4691946500000002 -0.944439 0.510332 0.801393
27700 -1.83009474 4.84257897 -1.3308834600000001 -0.953266 0.466601 0.822752
27720 -2.43767709 5.709272850000001 -2.4977044800000003 -1.117723 0.28571 0.913702
27740 -2.1637524600000004 5.364098189999999 -2.85126669 -1.199581 0.139945 0.940023
27760 -1.9899585000000002 6.414307740000001 -3.3416489700000005 -1.131494 0.042985 0.886143
27780 -2.12647446 5.453310330000001 -2.90725236 -1.0399 0.158066 0.799041
27800 -2.16749007 6.59603799 -4.832396190000001 -0.925605 0.314712 0.687476
27820 -1.51514469 6.9292444500000006 -5.18970582 -0.923512 0.456734 0.6007819999999999
27840 -0.9023238000000001 7.89667722 -5.862554100000001 -0.8934770000000001 0.377199 0.484658
27860 -1.4169564000000001 8.60066244 -6.57702621 -0.775506 0.164184 0.372523
27880 -1.9637658 10.130188590000001 -5.8585123800000005 -0.621863 0.008753 0.214631
27900 -6.22914399 17.53962273 -5.75688078 -0.429257 -0.033851 0.046183
27920 -5.4564495299999995 14.19034158 -3.99055104 -0.262714 0.132136 -0.049006
27940 -2.11704705 11.690537760000002 -6.26686344 -0.23068200000000005 0.305943 -0.11844
27960 -3.5200830600000006 9.02173707 -4.94630991 -0.216432 0.56607 -0.18063
27980 -4.12436925 9.940973309999999 -1.18777518 -0.27306 0.393358 -0.097483
28000 -3.0416787900000006 10.189009350000001 -0.7973960400000001 -0.303238 -0.150886 -0.099133
28020 -3.03015204 11.012745240000003 -0.90875916 -0.193785 0.026484 -0.06120800000000001
28040 -2.6973870300000002 10.076890859999999 -0.33095997000000005 -0.226331 0.13529000000000002 -0.07012
28060 -1.97768619 9.40643622 -0.8825664599999999 -0.128247 0.016055 -0.173968
28080 -1.4250398400000002 8.804386710000001 -1.02506652 0.058006 0.040359 -0.28593
28100 -0.9256716 9.739946790000001 -0.7819747200000001 0.299342 0.02168 -0.352587
28120 -0.9580053600000001 9.31288806 -0.40640868 0.6718970000000001 -0.003829 -0.423659
28140 -1.3910580000000001 8.65110546 -0.70982217 1.142945 0.085211 -0.454666
28160 -1.6935787800000002 8.2976904 -1.11083535 1.599271 0.186166 -0.5221100000000001
28180 -0.78436836 8.11986453 -0.9294190200000001 2.035259 0.128088 -0.49549
28200 -0.29219085 8.002811610000002 -0.47122335000000004 2.374907 0.09128 -0.376634
28220 0.4249692 8.072560710000001 0.30147111000000004 2.357084 0.407693 -0.36755
28240 0.49921128000000003 7.97571639 0.06466752 1.995931 0.507025 -0.386223
28260 -0.17767872 8.29440405 -0.57825045 1.331468 -0.075937 -0.54501
28280 -0.9050215500000001 8.64662229 -0.92387637 1.179942 -0.424397 -0.651375
28300 -0.6222581100000001 9.35733717 -0.6071409 1.465221 -0.339072 -0.658038
28320 -0.02679111 8.98461603 -0.08083440000000001 1.6554490000000002 -0.230162 -0.6194609999999999
28340 0.9861502500000001 8.27374419 0.6366297600000002 1.438044 -0.0467 -0.489823
28360 1.35618345 7.9936785 0.50595075 1.370748 -0.435819 -0.624391
28380 1.15529427 8.422385310000001 0.37496763 1.1307040000000002 -0.394662 -0.5855279999999999
28400 0.76161897 9.192234870000002 -0.2342628 0.897969 -0.336695 -0.494292
28420 0.54936 10.007593020000002 -0.8273263500000001 0.693204 -0.225571 -0.400793
28440 -0.07663572 10.13242527 -1.25543475 0.6515479999999999 -0.168174 -0.33279200000000003
28460 -0.11496339000000001 10.65379734 -0.56282913 0.514587 -0.227471 -0.303762
28480 3.2352202800000005 12.915895050000001 1.4485347899999998 0.25633 -0.148123 -0.209528
28500 0.48559500000000005 16.05545802 1.10724489 -0.167191 -0.05961900000000001 -0.13034600000000002
28520 0.72718587 15.765513660000002 0.96908085 -0.156033 0.211334 0.032822000000000004
28540 -0.25791471 14.76978885 1.78144695 -0.166138 0.185456 0.119311
28560 -0.45190746000000004 13.229491320000001 2.07603144 -0.227268 0.042259 0.284642
28580 -0.7611677099999999 11.844417420000001 2.7568160100000005 -0.389165 0.021951 0.441634
28600 -1.1731092300000001 10.82863116 3.16861038 -0.175898 0.124029 0.5701109999999999
28620 -1.7007597 10.32013962 2.2878391500000004 0.473579 -0.13639 0.130601
28640 -2.2132929600000004 10.008338580000002 1.5706791 0.29381 -0.602021 -0.219366
28660 -2.19862701 9.84262806 1.3814736300000001 -0.186926 0.18825 0.237735
28680 -1.54269117 9.784405710000001 0.16750575 -0.42879 0.020785 0.235192
28700 -0.93195981 9.83843919 -1.23493185 -0.625929 -0.106702 0.053449
28720 -0.38784816000000005 10.617117750000002 -1.3742927100000002 -0.6729569999999999 0.125745 0.305991
28740 -0.22348161 9.82841337 -0.7925989500000001 -0.978799 -0.11892 0.217642
28760 -0.33574725 8.368950240000002 -0.31374342 -1.173423 -0.182306 0.253752
28780 -0.5559425100000002 7.80327621 -0.81115947 -1.058638 -0.169304 0.365632
28800 -0.7399094400000001 8.59662072 -1.92530079 -0.941566 -0.149806 0.449746
28820 -1.55407077 9.45883143 -2.4861777300000005 -0.976687 -0.125203 0.4548100000000001
28840 -1.78534152 8.73449046 -1.63160901 -0.961357 0.022573 0.515616
28860 -1.8256017600000003 6.1969671900000005 -2.21149773 -0.906483 0.183008 0.5734779999999999
28880 -0.9548661600000001 8.215668990000001 -1.86347817 -0.9031 0.27016100000000004 0.620392
28900 -0.90875916 7.592066910000001 -2.213449920000001 -0.8396610000000001 0.432714 0.674038
28920 -1.3212990900000001 6.40547874 -2.51611785 -0.7680140000000001 0.488846 0.6936939999999999
28940 -1.6860937500000002 5.300774639999999 -2.18126331 -0.8357870000000001 0.376116 0.705116
28960 -2.35415475 6.290073899999999 -2.9523096900000003 -0.954196 0.185669 0.74833
28980 -2.43348822 6.4116198 -3.3422473800000003 -1.022348 -0.016522 0.754522
29000 -2.6192503800000004 7.5496975200000005 -3.33595917 -0.938114 -0.08051900000000001 0.701782
29020 -2.2698770400000003 5.1683004 -3.5600490000000002 -0.851247 -0.047529 0.635048
29040 -2.0258827200000002 6.6345030000000005 -4.51311012 -0.721385 0.006817 0.5183810000000001
29060 -1.2740050800000002 6.981482700000001 -5.07160323 -0.608358 0.14949400000000002 0.437803
29080 -0.41164722000000004 7.16918724 -5.852979540000001 -0.560318 0.3667510000000001 0.411155
29100 0.025143030000000004 7.49970576 -5.139115649999999 -0.496369 0.237029 0.295331
29120 -2.1749751 8.98087842 -3.8321784 -0.515625 0.08002100000000001 0.149052
29140 -5.861514240000001 17.84005398 -4.34980305 -0.508908 0.086646 0.084997
29160 -1.9363762800000002 12.113711730000002 -5.54986035 -0.5812430000000001 0.057379 0.007617
29180 -1.9028457 10.294094070000002 -5.76585693 -0.509169 0.089488 -0.092334
29200 -4.540362300000001 10.130335740000003 -4.10281668 -0.355942 0.181854 -0.146929
29220 -3.69417132 11.38277844 -2.7081682199999997 -0.24412 0.278789 -0.242412
29240 -4.50697887 12.978463230000001 -2.55742776 -0.195119 0.437593 -0.30423
