time Ax Ay Az Gx Gy Gz
20 2.3147872200000004 14.190194430000002 -4.97804526 2.421488 -1.292426 -0.970603
40 5.70463272 12.967682040000001 4.6738764 3.610094 -2.63056 -0.8986290000000001
60 2.18126331 16.32145617 -4.174223670000001 4.207441 -3.62137 -1.38991
80 -0.00045126000000000004 14.984441460000001 -2.04833781 2.939902 0.27415100000000003 -1.042697
100 0.6673154400000001 14.696135370000002 -3.06412407 1.878071 1.836831 -0.369522
120 1.01893527 16.11803601 0.88001586 1.7345830000000002 -0.167673 -0.5976239999999999
140 0.64859796 16.48761795 4.0321650600000005 1.549288 -0.666347 -0.937974
160 -3.0849310800000005 12.99896613 4.168533870000001 1.256052 0.59251 -1.141392
180 -10.533448260000002 14.01101478 1.82815236 0.670084 0.7684380000000001 -0.673557
200 -12.6672606 14.459478930000001 4.3382763 0.060623 0.799181 -0.108491
220 -6.30907587 15.248045970000002 2.17767285 -0.74464 1.145003 0.42062
240 -1.49224815 15.035335740000003 4.900212720000001 -1.248928 1.844037 0.803967
260 0.85786488 15.22154916 3.14301609 -1.419355 2.009439 1.146532
280 0.057633750000000004 13.41585189 -0.9279180900000001 -1.842059 1.875232 1.774002
300 1.3389669 7.60822398 -4.28154507 -2.400245 1.761667 2.418659
320 -1.15859043 7.32965922 1.12865031 -2.113121 2.135946 1.812367
340 -0.6515998200000002 4.49844417 1.6093010700000001 1.532111 1.505899 -0.162143
360 0.96025185 3.12295464 -0.66760974 2.234932 1.527195 -1.034272
380 0.51628068 2.8506682800000003 -2.92970745 1.752214 -1.408688 0.177482
400 -0.42406668000000003 2.05253649 -3.1760954100000003 1.426226 -2.988212 0.389806
420 -0.33351057 0.5855785200000001 -2.88165807 0.524062 -2.4461470000000003 -0.119255
440 -0.3179421 0.49023513 -2.72283417 -0.811779 -0.369592 -0.641857
460 -0.77673618 0.41463927 -2.7791239500000002 0.081875 1.186813 -0.892914
480 -1.2840309 1.47997584 -3.73458852 0.260929 -0.988783 -0.174235
500 -0.78616359 2.25206208 -5.25317652 0.600467 -0.5145029999999999 0.005922
520 -0.33844500000000005 3.2876154900000003 -6.50382399 -1.701886 3.52897 0.481382
540 -1.6262135100000001 11.06289396 -11.411521740000001 -2.109482 3.5856260000000004 0.785042
560 -1.51485039 30.172607190000004 -20.083287060000004 -1.1197290000000002 3.342227 0.855292
580 -5.70988107 27.08333028 -7.30076877 -1.008693 4.835042 0.668284
600 -3.2337291600000007 5.716914840000001 -11.960283330000001 -1.7366119999999998 2.948526 0.7446649999999999
620 -5.878573830000001 4.6827152100000005 -1.68699627 -2.009441 1.671146 1.54129
640 -2.66401341 7.21335186 3.4664910300000007 -1.561226 2.200826 1.094021
660 0.96534324 14.340179520000001 11.511809370000002 -1.428627 3.0043330000000004 0.640991
680 -1.0795512600000001 18.91226736 2.6801802900000005 -1.398521 3.361777 0.470896
700 0.03398184 10.00504242 -3.50839935 -1.359373 3.296628 0.478731
720 -1.0584499500000002 6.699170520000001 0.86534991 -1.071155 3.380539 0.290493
740 0.04745097 9.306295740000001 0.35730963 -1.069635 3.336485 0.383495
760 0.9365999400000001 13.289960160000001 -3.3739827300000003 -1.088406 3.058111 0.484134
780 2.26135215 14.531180220000001 -0.27363033000000003 -1.222409 2.779069 0.585036
800 1.8037450800000001 12.379552920000002 0.5623778700000001 -1.008274 2.7906720000000003 0.42842
820 1.7877351600000002 8.109387450000002 1.4310239400000002 -0.505123 3.03024 0.288486
840 2.41073883 7.23041145 0.33739533 -0.118679 2.8222080000000003 0.029738
860 1.04138055 6.56774595 -1.02162321 0.158083 2.1238240000000004 -0.052892
880 -0.9681881400000001 5.82378498 -1.4754828599999998 0.538197 2.426002 -0.292042
900 0.39383226000000005 6.89825466 -0.54876159 0.8870450000000001 3.589096 -0.547469
920 1.9734973199999999 7.53068574 0.49292307 0.93958 3.3559410000000005 -0.362001
940 4.9075407900000005 7.69744593 1.1546958600000001 1.588163 3.127728 -0.330473
960 6.13828377 7.78216509 0.40296537000000004 2.369324 3.746613 -0.464678
980 5.12773605 8.514746460000001 -0.95396364 3.1208150000000003 3.495135 -0.564861
1000 2.71520199 9.10062909 -4.2270603300000005 4.399722 2.84439 -0.908675
1020 2.1487824000000004 9.56451456 -6.136037280000001 4.9528919999999985 3.09714 -1.723393
1040 3.2509359000000004 10.256070509999999 -3.4208352900000003 4.300475 1.61607 -2.138386
1060 3.3855094800000005 10.671612300000001 0.99468495 5.229916 -1.315119 -2.257393
1080 0.6141746700000001 12.97322469 -0.2718351 4.837612 -1.100435 -2.590488
1100 0.63467757 10.72504737 -1.27205289 3.418105 -0.185869 -2.033282
1120 1.7944648200000002 10.25068482 0.8753757300000001 4.039157 -1.7595610000000002 -1.969243
1140 0.6888680100000001 12.48389208 -0.65323809 4.19025 -0.17501 -1.955263
1160 -0.20656917 11.15345988 -2.70742266 3.320392 0.031199 -2.1528150000000004
1180 -0.47182176000000003 10.00714176 -1.46545704 3.243151 0.600629 -1.962872
1200 -2.66535738 10.434200490000002 1.6253208000000001 2.563777 1.289339 -2.042208
1220 -7.03790982 13.37079456 2.11480056 2.168715 0.526836 -2.024762
1240 -5.22354051 16.69687506 2.6292860100000004 1.679889 0.050178 -1.7476919999999998
1260 -1.06937829 22.828282020000003 5.79519864 1.045658 -0.487789 -1.464081
1280 -0.92552445 24.029379180000003 5.07609621 0.34027 -0.058971 -0.997403
1300 -1.7850374100000002 22.17937995 0.49966254000000004 -0.35009 0.484463 -0.435696
1320 -1.84401513 18.10874007 -0.74021355 -0.921535 0.990788 -0.020525
1340 -1.69058673 18.5004828 -3.7432703700000003 -1.312446 1.286612 0.132326
1360 -0.8698428900000001 16.873062660000002 -2.95470333 -1.692708 0.352162 0.246235
1380 -1.61873829 11.827504979999999 -0.9560629800000001 -1.555558 -0.511854 0.678793
1400 0.5709125700000002 5.1262351200000005 -0.00209934 -0.861072 -0.614161 0.353695
1420 3.1178632500000005 2.8726721100000003 -2.52420129 0.8806 0.210466 -0.115896
1440 2.62658826 2.8427418000000007 -2.6701446600000005 0.314189 2.299414 1.7190849999999998
1460 1.2434665500000002 1.217421 -2.50294302 -1.932183 0.121474 0.600576
1480 0.60803361 0.08772102000000001 -3.2799833100000004 -0.17061700000000002 1.1038940000000002 0.61269
1500 -1.1319464700000001 -1.24466337 -4.37899761 -0.8278530000000001 -0.277917 0.420794
1520 -3.3163489800000003 -0.21959685 -4.99002327 -1.048246 0.41576 0.299793
1540 -3.7917612 0.00538569 -4.57194069 -1.527265 0.992391 0.6354029999999999
1560 -4.02348321 -0.28934595 -4.48407252 -1.828245 1.013491 0.681343
1580 -5.61512628 -0.14864112000000002 -7.003486530000001 -2.049944 0.824641 0.6811050000000001
1600 -2.7454364100000004 1.62068067 -7.65867681 -2.33851 0.6862010000000001 0.653629
1620 -0.02170953 1.01922957 -3.13373583 -2.830939 0.345004 1.156964
1640 -9.22576545 11.180702250000001 -9.63845253 -2.982265 0.072162 1.320763
1660 -3.6185754600000006 13.908627810000002 -12.594362490000002 -2.859712 -0.261434 1.255817
1680 3.5833968 10.69166394 5.805224460000001 -2.43271 -0.555425 1.145945
1700 -4.6300257 4.424349240000001 -5.552401140000001 -1.88439 0.002282 0.5294909999999999
1720 -0.08337519 13.49144775 -4.68300951 -1.20954 0.400015 -0.151035
1740 -2.9810529900000002 12.456649709999999 -4.85156493 -0.4955310000000001 -0.066951 -0.675287
1760 -1.53415647 13.433362740000003 -8.30069226 0.182089 0.189492 -0.924051
1780 -0.42781410000000003 13.420796130000001 -7.132066200000001 0.960318 0.41203 -1.039609
1800 -0.45280998 13.60251657 -6.05655666 2.175354 0.824433 -1.062629
1820 0.34368354000000007 14.58836271 -6.92040564 3.160936 0.807127 -0.7865310000000001
1840 -0.30521853 15.208070220000002 -6.98956614 3.360164 2.368172 -1.062741
1860 0.48559500000000005 15.779885310000001 -5.322631320000001 1.220141 2.727668 -1.46271
1880 0.5462109900000001 15.178434210000002 -4.87505988 0.6392260000000001 0.351426 -1.588704
1900 -1.16906751 14.84462934 -5.241502620000001 4.0526870000000015 -3.647218 -3.313757
1920 -2.7134067600000003 12.195742950000001 -6.1171824599999995 4.249029 -1.976054 -2.356332
1940 -4.341719610000001 8.31041397 -6.596930700000001 2.749613 0.990946 -1.908068
1960 -3.4377477300000003 5.539383270000001 -6.63180525 2.905111 -1.358757 -1.584572
1980 -1.78189821 1.48296789 -4.874608620000002 2.350695 -0.475138 -1.496642
2000 0.0142245 -1.1784949200000001 -2.95455618 1.3506790000000002 0.58011 -1.319109
2020 1.8778498200000002 -0.59635971 -3.12489702 0.605763 0.829816 -0.781975
2040 2.42870094 -0.79364862 -3.87453798 -0.14948399999999998 0.913391 -0.248974
2060 0.7220944800000001 0.23800041000000002 -5.61287979 -0.856547 0.755155 0.240877
2080 -4.37510304 4.40339508 -0.6944106600000001 -1.483538 0.833075 0.478884
2100 -10.89030663 7.48294047 0.7530842700000001 -1.798572 1.047053 0.521274
2120 -9.226658160000001 18.068322870000003 1.01429514 -1.7668560000000002 0.977827 0.755525
2140 -0.64560591 32.34713103 -4.0718367 -2.046048 0.8435040000000001 1.021871
2160 -2.0977409700000003 20.005895970000005 -16.02447804 -2.556724 0.735475 1.3068620000000002
2180 -4.95619839 16.20246087 -12.832068600000001 -1.948552 0.386564 1.187644
2200 -2.87806761 16.27026759 -5.96434266 -0.103742 0.718324 0.5399430000000001
2220 -3.3319174499999997 10.926682110000002 -9.90340101 0.987888 0.547076 0.327734
2240 -5.10752745 7.28670123 -7.872132600000001 -2.290641 4.907067 1.349309
2260 -5.63503077 5.18102397 -6.539601060000001 -1.216918 -0.371963 -0.231282
2280 -4.105661580000001 3.8761860599999998 -5.92797699 -1.095841 -0.884683 0.808533
2300 -2.7178997400000005 3.02431509 -5.17623669 -0.51055 -1.231927 0.558829
2320 -1.76961609 1.04422545 -4.10700555 -1.0376610000000002 -1.645852 0.6325890000000001
2340 -2.28035412 -0.92702538 -1.6363962900000002 -1.432058 -1.162582 0.799063
2360 -1.8309972600000002 -3.40137225 0.62689824 -2.291856 -0.565441 1.130918
2380 -0.21106215 -5.37517368 1.6134899400000002 -2.734126 -0.521981 1.301893
2400 1.70809758 -5.628742560000001 1.9148139000000002 -2.98296 0.076849 1.480985
2420 2.0303757 -3.2358186900000003 -0.78706611 -2.818767 0.446146 1.161193
2440 -1.15050699 7.140905010000001 -6.783291270000001 -2.473154 0.310037 0.800586
2460 -2.49126912 10.495424700000001 -12.160417140000002 -2.373933 -0.205846 0.520997
2480 1.8187151400000001 9.612563940000001 -2.2549069800000003 -1.903251 -0.05793300000000001 0.153423
2500 -6.05700792 15.0733593 -5.72679351 -1.4261700000000002 0.208898 0.144663
2520 3.7592802900000004 17.47166886 -3.1448113200000005 -0.713649 -0.009104 -0.034883
2540 3.8842695000000003 18.809733240000003 -5.71347153 0.05263 0.114503 -0.440955
2560 0.17887554 14.604078330000002 -6.2568376200000015 0.7023699999999999 0.938227 -0.803872
2580 -1.6200822600000002 13.638735090000003 -8.1414171 1.7778200000000002 2.0382580000000003 -1.369268
2600 -1.70704791 14.0958909 -7.05797127 3.065584 2.70393 -1.654887
2620 -0.5577377400000001 13.87854054 -6.57837018 4.3316620000000015 0.792327 -1.828396
2640 0.12049623000000001 12.052781820000002 -5.1920994600000006 4.887363 -2.183589 -2.159328
2660 -0.2200383 11.041939800000002 -4.984480620000001 2.046137 -2.012323 -1.501072
2680 -0.4685256 9.95833701 -5.09450958 2.302518 -3.3757650000000003 -1.750703
2700 -1.0404878400000002 7.805071440000001 -4.73809266 4.120672 -1.524025 -2.067252
2720 -1.73564406 5.964793920000001 -5.68922121 2.787729 1.16551 -1.905889
2740 -2.5065334800000003 4.04773353 -7.09809417 2.662476 0.102874 -1.92463
2760 -1.5679911599999998 2.6343675900000005 -5.80223241 2.6411830000000003 -0.38676 -1.472293
2780 -1.0159334100000001 2.30490855 -2.21240025 2.099768 0.185165 -1.503514
2800 -0.38723994000000006 4.89122676 1.2120255 1.610869 0.149383 -1.721595
2820 -1.08898848 9.97136469 2.20761297 1.14998 -0.092823 -1.491632
2840 -2.53198062 13.19251743 1.00380825 0.635662 -0.190623 -1.097721
2860 -3.67006815 16.795671570000003 -3.39299451 0.089781 0.023909 -0.727931
2880 -6.199360830000001 24.05872089 -1.81512468 -0.469279 0.43645 -0.313622
2900 -1.91856132 18.4543758 0.47406825 -1.072622 0.7871239999999999 0.15921
2920 -2.4632811900000005 15.495032340000002 -4.02558255 -1.4886620000000002 1.393273 0.517654
2940 0.46029501 17.00703783 -4.4393193 -1.76004 0.751228 0.67361
2960 -2.71505484 15.0970014 -7.781713830000001 -1.397823 -0.410583 1.056848
2980 -5.28295968 8.305175430000002 -3.46094838 -0.525113 -0.176062 1.059439
3000 -1.6325017199999998 4.58197632 -1.25963343 0.26018800000000003 0.20598200000000005 0.476912
3020 0.93555027 1.9023944400000001 -1.6628931 -0.8404790000000001 2.3711740000000003 2.090147
3040 2.97326385 -1.7762084100000002 -2.1562674300000007 -2.426083 0.951895 1.417524
3060 -0.37077876000000004 -1.86332121 -2.03666391 -0.509313 -0.5770310000000001 1.417917
3080 -0.9951264000000001 -0.9577110600000001 -2.11539897 -1.508311 -0.987592 1.326007
3100 -1.37953125 -0.13352391000000002 -2.54366433 -1.518455 -0.498293 0.984547
3120 -3.21366771 -0.06002739000000001 -3.5850448800000003 -1.993574 0.30790700000000004 0.91717
3140 -4.525686540000001 0.9225324 -4.14488196 -2.258269 0.325599 0.718745
3160 -4.25444985 1.5660389700000001 -5.57800524 -2.413575 0.42416 0.71433
3180 -5.48698806 2.1194406900000002 -9.77871591 -2.416486 0.915564 0.904891
3200 -4.18829121 3.6504579600000002 -11.21767614 -2.411636 1.355432 1.455564
3220 -1.3004920800000002 2.562372 -5.69190915 -2.438837 1.279832 1.7364130000000002
3240 -9.824371650000002 16.96302036 -12.51517617 -2.310782 0.531733 1.6944689999999998
3260 1.1085986700000001 16.30319976 -11.692784249999999 -2.276889 -0.069025 1.384623
3280 -3.0356848800000003 6.267167550000001 1.6854953400000003 -2.420057 -0.19614 1.06332
3300 -3.92633478 8.434363320000001 -5.17982715 -2.897227 -0.466342 0.849893
3320 1.6242711300000001 11.94486201 -2.86563834 -2.222645 0.14972 0.448959
3340 -3.2359756500000003 11.319464700000003 -2.63257236 -1.634532 0.8689540000000001 0.162658
3360 -2.11016043 11.225004210000002 -2.8276245900000005 -1.425526 1.215817 -0.180294
3380 -0.7984359000000001 10.51578045 -2.48423535 -1.189296 0.757152 -0.501728
3400 -0.00030411 10.79165727 -2.80771029 -0.4201470000000001 -0.486418 -0.5374909999999999
3420 0.27901602 11.14971246 -3.93381981 0.18761 -0.913041 -0.403444
3440 -1.08883152 10.58838426 -4.84511976 0.141791 0.1297 -0.322847
3460 -0.7806307500000002 9.29956608 -4.59888876 0.06509 0.4482600000000001 -0.267175
3480 0.29548701 7.03192572 -4.03874757 -0.017272 0.185338 -0.246049
3500 0.03922038 3.6904239000000003 -3.3579630000000003 -0.002372 0.353844 -0.30705
3520 0.659232 2.2703283 -2.79843003 0.110907 0.769314 -0.408272
3540 0.5762982600000002 1.1508111 -0.70009065 0.30485500000000004 1.213843 -0.387191
3560 0.47032083 4.9118866200000015 -0.20163474 0.886086 0.818102 -0.493719
3580 -1.27848825 6.62417307 -0.55204794 2.344393 -1.319884 -0.697642
3600 -1.9318833 8.904978450000002 -2.4581898000000004 4.517373 -3.753534 -1.640745
3620 -0.84124674 10.75453623 -3.3521260500000007 6.021882 -4.843882 -2.5346900000000003
3640 1.45393029 13.28787063 -3.36979386 4.779764 -0.8334 -2.985409
3660 1.81856799 15.121850130000002 -3.0852351899999997 1.77354 1.35435 -1.09923
3680 0.8984292300000001 14.84029332 -1.34719749 0.786402 -2.423927 -0.308663
3700 0.90411903 14.049636750000001 -0.92238525 5.471982 -2.431151 -0.964928
3720 0.05403348 14.02223742 -1.48177107 4.8103989999999985 0.082195 -1.280417
3740 -0.33380487 13.576019760000001 -1.44015705 2.790181 0.512861 -1.201077
3760 -0.55968993 15.02290647 -0.8490358800000001 2.715624 -0.057262 -1.086568
3780 -0.8373619800000001 16.48821636 0.96967926 2.290682 -0.528 -1.013089
3800 -2.1519216 16.21742112 2.2697298900000002 1.82133 -0.458396 -0.963045
3820 -3.48310917 13.221407880000001 0.28769787 1.43948 -0.330725 -0.857986
3840 -3.6033111000000004 12.50574876 -2.6252442900000004 0.982832 -0.409684 -0.6965680000000001
3860 -2.47450383 12.67474563 -7.07368689 0.312816 -0.471978 -0.5217069999999999
3880 -1.7774052300000003 12.54660741 -8.408916180000002 -0.368478 0.036887 -0.113716
3900 -2.3999576400000002 12.258154170000001 -3.3203907 -1.074892 0.57704 0.217147
3920 2.42031339 15.411048930000002 6.84526104 -1.520857 0.707075 0.585607
3940 -1.0096550100000001 15.54741774 5.20542144 -1.74688 0.852405 0.934219
3960 0.67884219 15.975526140000001 0.8858626199999999 -1.357463 0.660183 0.980982
3980 -5.037327090000001 8.0369406 -14.236144470000001 -0.748664 0.8285389999999999 1.241392
4000 -2.83480551 3.1611253500000003 -0.5096883600000001 -1.091525 1.422265 1.44654
4020 -1.33866279 4.0080618900000005 -2.412534060000001 -0.257768 1.348961 1.738741
4040 -0.33844500000000005 1.8103374 -1.93562091 -1.6901959999999998 0.847463 1.853292
4060 -1.2907703700000002 -0.35820234 -1.44539559 -1.730621 -0.353974 1.5736059999999998
4080 -1.1514095100000001 -0.40940073 -1.14407163 -1.218141 -1.122416 0.958602
4100 -0.50100651 0.50564664 -2.13725565 -0.93584 -1.283144 0.415987
4120 -2.0678008500000002 -0.28410741 -2.53198062 -0.947293 -1.123919 0.035416
4140 -4.1011686 -0.07993188000000001 -3.8064369600000005 -1.194633 -0.333733 0.311481
4160 -4.38108714 0.70532919 -4.816680570000001 -1.539535 0.801086 0.801137
4180 -4.07123829 1.25798535 -4.41731547 -1.789679 1.052973 1.16333
4200 -4.47749001 2.42181432 -7.12682766 -1.855582 0.5741729999999999 1.342945
4220 -3.8556831600000003 4.1535638100000005 -9.68216589 -2.059822 0.059039 1.405203
4240 -1.5206873400000003 5.361400440000001 -4.86668214 -2.272861 -0.107449 1.399656
4260 -3.11142789 11.97509643 -5.34238866 -2.456395 -0.198084 1.3141
4280 -3.9712449600000004 20.48984289 -10.45964763 -2.586248 -0.021341 1.183712
4300 -1.8895237200000001 13.613140800000002 -2.69574876 -2.643878 0.250242 0.983204
4320 -0.38305107000000005 5.773793220000001 -1.87484796 -2.410267 0.7233390000000001 0.752425
4340 0.12498921000000002 8.113125060000002 -2.6212025700000003 -2.155304 0.7223229999999999 0.519199
4360 -0.7475416199999999 11.944410750000001 -3.28342662 -2.210134 0.613809 0.264718
4380 -2.90605554 12.979061640000001 -4.65861204 -2.087339 0.435226 0.062842
4400 -2.93090427 11.427384510000001 -6.11627994 -1.641298 0.533375 -0.093333
4420 -2.8150481700000003 10.42866765 -7.1798212800000005 -1.615494 0.265138 -0.168653
4440 -1.97079957 10.59781167 -6.897656250000001 -1.484682 0.354498 0.014813
4460 -0.52121511 10.727588160000002 -6.677313840000001 -0.303527 1.165969 -0.142483
4480 0.062116920000000006 9.787544910000001 -5.10274017 0.746626 1.381922 -0.711196
4500 0.61327215 8.82145611 -3.9833701200000005 1.3118040000000002 1.422999 -1.083315
4520 0.28889469 8.538545520000001 -3.03134886 2.2390790000000003 2.062662 -0.946266
4540 -0.36359784 9.02532753 -2.6011411200000003 2.840287 1.344371 -0.595043
4560 -0.71506071 8.617574880000001 -2.05417476 4.253643 -1.206098 -0.7047479999999999
4580 -1.14916302 8.391248370000001 -1.49674113 6.440434 -3.400061 -1.393824
4600 -1.25573886 7.91942661 -3.1434673500000003 4.317917 -0.987958 -1.498267
4620 0.25327458 7.723187370000001 -2.98299537 1.0181440000000002 -2.585693 -0.282268
4640 1.5640965900000001 7.675883550000001 -3.1421135700000002 4.192515 -3.97971 -1.275255
4660 1.2584366100000002 7.8538663799999995 -3.25812663 5.861883 1.319064 -0.881552
4680 0.2200383 8.28452538 -4.89437577 2.554493 1.0239969999999998 -0.948073
4700 -0.9487251000000001 9.83140542 -4.69872513 2.374623 0.577593 -0.77891
4720 -1.60107048 11.39415804 -3.35572632 2.32026 -0.7065060000000001 -0.8876719999999999
4740 -1.61409816 10.770850260000001 -2.3605901100000004 1.987214 -0.5836 -0.964931
4760 -1.3421060999999999 13.64068728 0.9276237900000001 1.372553 -0.479729 -0.833693
4780 -3.03823548 16.24811661 3.33476235 0.803333 -0.67974 -0.6718390000000001
4800 -5.81839929 17.8387002 2.7958892399999997 0.310112 -0.574334 -0.497026
4820 -4.43707281 15.491589030000002 0.6393177000000001 -0.14429 -0.21935900000000005 -0.163097
4840 -2.6794249200000007 16.30978227 -0.13591755 -0.754305 0.194648 0.195307
4860 -4.12242687 16.001130240000002 7.253612100000001 -1.24767 0.391173 0.493916
4880 -1.9237998600000001 13.242813300000002 1.2925655999999999 -1.04986 0.505464 0.512243
4900 -3.8544863400000002 15.06212685 -3.4801171200000005 -0.624631 1.094229 0.493094
4920 0.7687998900000002 17.411494320000003 -0.70637886 -1.478852 1.736019 0.577104
4940 -2.2646385 11.402987040000001 -13.538594609999999 -0.964812 3.011286 1.429365
4960 -2.7735813000000005 3.7908684900000003 -1.5983727300000001 -2.035719 1.459607 1.717634
4980 -1.4335647300000003 0.8764254 -0.6036975900000001 -1.419984 1.063852 1.052667
5000 1.70704791 -0.78541803 -1.79671131 -1.874218 0.974416 0.902194
5020 -0.08622009 1.79596575 -2.4929172000000004 -1.604966 0.309865 0.623984
5040 -0.40311252 2.09339514 -1.76752656 -1.620177 -0.08279 0.529309
5060 -0.5095412100000001 0.9211884300000001 -1.8814402799999999 -1.765264 0.034324 0.4053
5080 -2.2309607700000003 -0.40820391000000006 -2.42420796 -2.055343 0.305881 0.41254
5100 -4.08724821 -0.5234616000000001 -3.4326661500000006 -2.269705 0.592109 0.680936
5120 -4.66594992 0.5580418500000002 -4.221674640000001 -2.225252 0.36246 0.529853
5140 -5.07474243 2.38888215 -5.79265785 -2.061273 0.289563 0.768238
5160 -4.336628220000001 3.44224071 -7.57679274 -1.842514 0.453301 0.92338
5180 -4.50069066 2.43962928 -3.66064074 -1.956285 0.636534 1.020627
5200 -2.11195566 8.430321600000001 -8.16461775 -2.256327 0.668125 1.106085
5220 1.7961129 16.586110350000002 -7.9125498 -2.038304 0.642241 0.996546
5240 -1.22625 15.74350983 -5.0843267999999995 -1.657164 1.718584 0.82905
5260 -1.89925524 10.04411565 -4.31612532 -1.442889 3.109071 0.8341059999999999
5280 -1.4575207500000003 7.016808510000001 -3.2268425400000003 -1.383535 3.816831 0.678721
5300 -0.70458363 8.183933640000001 -3.7595844000000005 -1.2289 3.5487550000000003 0.185558
5320 0.27303192 11.22396435 -3.53355219 -1.081276 2.501709 -0.23829
5340 0.42960933 15.053297850000002 -3.78742518 -1.043712 1.358561 -0.24404
5360 -0.11525769000000001 15.58993428 -4.18979214 -1.318159 0.972237 -0.099116
5380 0.29997999 14.24153016 -3.17684097 -1.643072 1.079901 -0.101523
5400 1.1720595600000001 12.5835813 -1.84775274 -1.633084 0.8076409999999999 -0.222882
5420 0.7628157900000001 12.374314380000001 -1.31935671 -1.226501 0.13609000000000002 -0.20209
5440 1.0773145800000001 10.68567984 -2.3343974100000002 -0.997886 0.240604 -0.16323900000000002
5460 0.69949224 8.317899 -1.81019025 -0.495059 0.697282 -0.25111100000000003
5480 -0.12094749 6.555169530000001 -1.2376296 0.096407 0.993626 -0.280474
5500 -1.25708283 6.233636970000001 -2.5960497300000003 0.029007 1.636444 -0.070261
5520 -0.6053456700000002 5.32098324 -3.3624559800000005 -0.200754 1.376005 -0.009575
5540 -0.11465928000000002 4.84946559 -3.35451969 0.016493 0.39793 -0.425547
5560 -0.4801995 3.42502416 -2.73196728 0.808117 0.418407 -0.637961
5580 -0.39981636000000004 2.0013381 -1.13868594 1.883859 0.914469 -0.682357
5600 -0.43454376000000006 3.5125980300000004 0.01406754 2.4808630000000003 0.6362399999999999 -0.619078
5620 1.1632305600000001 5.3133510600000005 1.47772935 2.774693 -0.081195 -0.481511
5640 1.42084116 6.0335031599999995 1.5182937 3.499078 -0.778478 -0.694543
5660 0.55340172 7.5895163100000005 0.54202212 3.797945 -0.564336 -1.224704
5680 1.4456898900000001 10.42731387 -1.1770038 3.584639 0.298628 -1.328781
5700 1.56259566 11.338917930000001 -2.96682849 2.109865 1.067157 -0.96619
5720 2.30146524 13.81312746 -2.56985703 -0.047774 -0.160896 -0.21484
5740 3.5494149600000005 16.96152924 -3.0460148100000004 0.411553 -2.832177 0.078075
5760 5.64641037 19.88824464 -1.24301529 4.12763 -4.2027470000000005 -0.5885560000000001
5780 4.308944400000001 19.006423740000002 0.93719835 3.951587 -1.4109969999999998 -0.88392
5800 -1.90418967 18.209478960000002 1.7961129 2.691127 -0.137667 -0.938153
5820 -0.5855785200000001 17.05403754 0.08083440000000001 1.949439 0.094859 -0.901971
5840 -1.38207204 14.208754950000001 -0.2874035700000001 1.79578 0.234251 -0.99509
5860 -2.6446975200000002 12.80512053 0.31449879 1.675173 0.538808 -1.394769
5880 -1.49973318 12.076884990000002 0.8264336400000001 1.271218 0.458976 -1.326986
5900 -1.31711022 11.3977485 -0.23156505000000002 0.81517 0.152652 -1.050973
5920 -3.1415151600000004 11.785439700000001 -1.6576545599999999 0.704414 -0.054524 -0.827155
5940 -5.088819780000001 11.656114470000002 -1.32115194 0.338357 0.365633 -0.6198100000000001
5960 -4.523744160000001 12.41204364 0.034276140000000004 -0.469753 0.456187 -0.1876
5980 -3.21740532 11.021132790000001 3.8470013100000005 -1.1947020000000002 1.059711 0.295808
6000 -2.5616264400000004 10.08917298 5.113070100000001 -1.673855 1.734896 0.760546
6020 -0.7235954100000002 12.091550940000001 -0.37377081000000006 -1.850115 1.889263 1.203497
6040 -0.57315906 12.775935780000001 1.8751520700000002 -2.180916 2.089931 1.6570599999999998
6060 -2.5036983900000003 8.4997764 -0.6243476400000001 -2.5995790000000003 2.180223 2.083445
6080 -4.68451044 5.1980933700000005 -2.35385064 -2.2503990000000003 1.929949 1.7646700000000002
6100 -3.68698059 4.268223090000001 -0.89498592 0.763841 0.344984 -0.354029
6120 -2.9556058500000004 3.93561504 -0.3179421 2.42883 1.402872 -1.81256
6140 -2.02828617 3.0362832900000005 -0.7857123300000001 1.374333 2.8446700000000003 -0.753551
6160 -0.8063721899999999 3.45735792 -1.5208344900000001 0.085097 0.803391 0.149116
6180 0.41837688 4.56700626 -1.3458535200000001 -0.07359299999999999 -0.957375 -0.013174000000000002
6200 1.4052825 4.434227910000001 -0.7506906300000001 0.242617 -2.507579 -0.23010100000000006
6220 0.59202369 3.4480776600000005 -2.6605701 -0.5329520000000001 -2.121919 -0.098212
6240 -1.31606055 1.88622756 -2.6456000400000006 -1.2706620000000002 -1.217099 0.440269
6260 -1.44509148 2.37286242 -2.23574805 0.160728 -0.484272 0.551878
6280 -1.76901768 2.88075555 -1.25274681 1.152826 0.12852 0.958605
6300 -2.5144697700000003 3.3955353 -2.33903754 0.60068 -1.136251 1.242653
6320 -2.7961835400000004 3.4467336900000003 -4.17691161 -0.156081 2.967859 0.667018
6340 -3.1738489200000006 3.7395229500000005 -5.962400280000001 -2.083182 4.611601 0.467717
6360 -4.26628071 6.130504439999999 -6.91112538 -2.300319 2.713314 0.115051
6380 -5.7868208999999995 18.14901012 -13.046721210000001 -1.317781 -0.561936 -0.055486
6400 -5.75343747 33.623078490000005 -13.110790320000001 -0.6376970000000001 1.4312200000000002 0.413523
6420 -6.75829539 11.953995120000002 -11.068583760000001 -0.734186 3.128088 0.79203
6440 -3.3168002400000005 -6.37988445 -14.50768527 -1.052867 2.556021 1.337466
6460 -1.56080043 5.50540143 -8.18558172 -1.264176 2.87595 1.433857
6480 -3.8007471600000002 6.9581349 -0.08816247 -1.834661 3.978024 1.517122
6500 -4.39411482 5.789214540000001 0.02320065 -1.574086 4.457654 1.227771
6520 -6.24980385 10.217154240000001 1.00291554 -0.948973 3.185714 0.6868380000000001
6540 -4.71534327 17.358049440000002 -1.03510215 -0.492055 3.299817 0.26152600000000004
6560 -2.2638929400000003 20.928134070000002 -6.460120440000001 -0.4767050000000001 4.119962 0.277674
6580 2.39786811 5.75028846 -4.8937773600000005 -0.636008 4.643071 0.400873
6600 0.52092081 3.53489616 4.299360030000001 -1.037508 4.740705 0.575268
6620 -2.90995011 5.324132250000001 3.63115188 -1.41707 3.952234 0.679381
6640 -4.17496923 10.901980530000001 1.7284533300000002 -1.457739 2.713446 0.416834
6660 -3.01862529 16.27864533 -2.67239115 -1.592862 2.574195 0.19281
6680 0.4076055 15.669866160000002 2.30251491 -1.518997 2.785192 0.110803
6700 2.15671869 11.58949476 -0.33485454 -1.111058 3.095838 -0.138846
6720 2.1933884700000004 9.84487455 -2.2938330600000008 -0.743525 3.158689 -0.190839
6740 2.5608710699999997 8.40188241 -1.15035984 -0.230036 3.386255 -0.268729
6760 1.95642792 8.1644706 1.2732497100000002 0.358241 3.5416160000000003 -0.20393
6780 0.95396364 8.50321971 1.1758069800000002 1.080794 4.049472 -0.227307
6800 -0.67449636 9.155113830000001 -0.63139122 1.812332 4.710265 -0.674902
6820 0.34892208 8.631348120000002 -0.92059002 2.914403 4.060155 -1.5562
6840 2.6444032200000005 7.70493096 -0.5063922000000001 4.087706 3.247896 -1.112197
6860 4.36596993 7.1693442 -0.022307940000000002 4.3251610000000005 3.3551 -0.422741
6880 4.78539648 6.5310663600000005 0.7212017700000001 4.497725 2.179103 -0.588808
6900 4.190832 6.6961784699999995 0.97971489 5.0380699999999985 1.9705580000000005 -1.384865
6920 3.48669963 6.58944567 0.71940654 5.16348 2.0617810000000003 -1.661843
6940 3.0666746700000003 7.110209520000001 -0.68812245 4.714728 1.054173 -1.575024
6960 2.23665057 7.93379826 -1.7031631500000002 3.361987 -0.73541 -1.488176
6980 2.54605797 9.512864910000001 -2.7622017 3.280758 -1.599539 -1.370132
7000 2.4354306 11.43996093 -2.42166717 2.957561 -1.984341 -1.297121
7020 3.00454794 11.71119762 -1.42473573 2.973962 -1.556677 -1.433218
7040 2.98988199 13.635890190000001 -2.1338123400000004 2.589526 -0.7476109999999999 -1.496761
7060 2.4996566700000002 13.04821233 -3.1045412700000004 2.272222 -1.261487 -1.917062
7080 0.79350147 11.710000800000001 -0.99153594 1.941854 -1.551787 -2.292875
7100 0.54995841 11.565852660000001 -2.35594998 1.3709360000000002 -0.7184229999999999 -2.144107
7120 1.13689071 13.64741694 1.49478894 1.14068 -0.595436 -2.0646880000000003
7140 -2.97371511 15.163022700000003 7.44671214 1.117372 -0.279031 -1.783246
7160 -8.85797874 17.42570901 5.05753569 1.0138 0.108521 -1.375337
7180 -10.53823554 18.490594320000003 4.11868926 0.8621040000000001 0.7038760000000001 -1.210517
7200 -6.29171217 17.98989192 1.6997198400000002 0.5325300000000001 0.443255 -1.018068
7220 -3.73922865 17.903073420000002 1.4624551799999999 0.142178 -0.318653 -0.621372
7240 -2.05672536 18.924549480000007 2.2469805000000003 -0.083263 -0.236356 -0.22781
7260 -0.7963463700000001 15.51988107 -3.51454041 -0.298777 0.323431 0.095775
7280 -0.03577707 14.344515540000002 -2.7990284400000003 -0.585742 0.793307 0.321768
7300 -0.29474145 12.13765794 -0.71641449 -0.907546 1.099286 0.5391819999999999
7320 -0.49247181000000007 8.54378406 0.30895614000000005 -0.777506 0.8802700000000001 0.585236
7340 0.6761444400000001 5.2055784 -0.5577377400000001 -0.415428 -0.06968200000000001 0.735329
7360 2.9648861100000006 1.7920711800000002 -1.1982620700000002 0.036432 0.852 0.821694
7380 0.86909733 1.03374837 -2.57509557 -0.697721 0.987165 1.222317
7400 -0.36704115 1.44209943 -3.6309949200000005 -1.230183 1.504695 1.997736
7420 -2.4043034700000003 1.82590587 -3.3434442000000004 -1.906406 1.893195 1.866465
7440 -3.86421786 2.07887634 -4.42704699 -1.791636 1.900661 1.49872
7460 -3.16487277 1.7896775400000002 -4.68226395 -1.6125969999999998 1.280346 1.158935
7480 -4.480482060000001 0.83076966 -5.18761629 -2.1256 1.772245 1.135493
7500 -5.84219835 -0.036071370000000005 -3.8692994400000003 -2.583396 2.4035450000000003 0.8355889999999999
7520 -6.07810923 1.81423197 -3.81646278 -2.980909 2.815705 0.6731189999999999
7540 -6.39365769 3.2400075600000005 -5.6993941800000005 -2.98961 2.960836 0.617325
7560 -6.49334691 3.00769695 -7.1115633 -2.452566 3.100441 0.671104
7580 -6.69213675 2.8936360800000003 -7.69340421 -2.1056470000000003 2.3942650000000003 0.877394
7600 -7.181018100000001 3.17130813 -9.60597162 -2.201666 1.325653 0.995597
7620 -7.74818325 4.48482789 -12.068350290000001 -2.1558 0.95329 1.1010799999999998
7640 -7.0224983100000005 4.53451554 -7.834854600000001 -2.030623 1.0770879999999998 0.670234
7660 -9.59369931 14.3708652 -7.6987899 -1.892751 1.311199 0.613213
7680 -5.18551695 16.00771275 -11.79487692 -2.238101 1.962754 0.478575
7700 -4.10252238 13.336969680000001 -2.25970407 -1.826385 2.737233 -0.149793
7720 -3.9431000700000003 7.58083446 -0.35147268 -1.34764 3.050105 -0.484408
7740 -3.5109499500000005 8.879982570000001 -0.7683486300000001 -0.802762 3.113507 -0.8278549999999999
7760 -2.42705286 11.71613205 -2.79633069 -0.485966 2.357129 -1.093865
7780 -2.21524515 14.07059091 -3.23626995 -0.34278200000000003 1.3228950000000002 -0.98899
7800 -2.57584113 12.54990357 -3.1296941100000004 -0.384345 1.025373 -0.343693
7820 -0.12544047 11.300305770000001 -2.8864453500000002 -0.467138 1.062332 0.07549199999999999
7840 1.08329868 11.551029750000001 -2.27437002 -0.257472 0.700516 0.06567
7860 1.49898762 10.545867720000002 -3.336410430000001 0.235013 0.7969970000000001 0.019848
7880 1.06309008 8.59991688 -4.41925785 0.901188 1.472727 -0.11096
7900 0.7881157799999999 4.856205060000001 -4.83179778 1.413978 1.949742 -0.497891
7920 1.7336918700000001 3.93427107 -4.35399192 1.991063 2.777759 -1.071761
7940 1.1304455400000002 2.9416854600000004 -4.12317243 2.558173 3.022362 -1.194163
7960 1.4400099000000002 1.4537733300000002 -2.7634083300000003 3.146048 0.269294 -1.338216
7980 1.7884807200000001 3.28431933 -1.09377576 5.495164 -3.215789 -2.166578
8000 0.15043635 6.740333280000001 -1.7289045900000002 5.7536559999999985 -3.211546 -3.183862
8020 -1.1027519099999998 9.33458778 -2.6457471900000002 2.782377 -0.405179 -2.049192
8040 0.36568737 11.223356129999999 -2.52719334 2.3244700000000003 -1.326198 -1.497871
8060 1.6049650500000001 13.12380819 -2.84243769 4.860659 1.443581 -1.8469
8080 2.03262219 15.43111038 -2.7892969200000004 3.3021 -0.020756 -1.931754
8100 3.10379571 16.455127230000002 -1.6696325699999999 2.967482 0.083776 -1.675716
8120 1.28747421 14.040797940000001 -2.42331525 2.553159 -0.334946 -1.299923
8140 0.09325386000000001 11.64443076 -4.27810176 2.007046 -0.343322 -0.863619
8160 -0.6286934700000001 11.43397683 -4.744832130000001 1.510324 -0.62745 -0.774858
8180 -1.52817237 11.33757396 -2.86399026 1.022143 -0.914786 -0.6903050000000001
8200 -1.81691991 12.576841830000001 0.12484206 0.403469 -1.071462 -0.400665
8220 -1.85704281 13.24640376 1.3566249000000001 -0.150544 -0.88625 -0.150535
8240 -3.30138873 13.64576886 1.8308403 -0.738618 -0.41767 0.127835
8260 -2.65787235 15.07125996 -0.50310585 -1.271678 0.124466 0.345607
8280 -0.7520346000000001 13.436953200000001 -2.9195246700000004 -1.641189 0.5550189999999999 0.620212
8300 -0.39502908 15.49128492 -1.0659349800000002 -1.835105 0.305852 1.027238
8320 0.43903674000000004 13.69591758 0.7969447800000001 -1.093057 -0.71106 1.076453
8340 -0.36958194 12.74614281 -1.9435572 0.222136 -0.127566 0.539031
8360 0.17722746 15.286658130000001 -4.4656591500000005 -0.457464 0.8758440000000001 0.349264
8380 -2.5036983900000003 13.567789170000001 -10.579104000000001 -1.156251 1.304925 1.0104030000000002
8400 -4.70172699 7.88919219 -3.44314323 -1.723038 0.636318 0.872705
8420 -1.32205446 6.505923330000001 -4.64993019 -0.9001290000000001 -0.057686 0.819522
8440 0.16016787000000002 6.76802691 -3.36515373 -0.943043 0.318688 0.773875
8460 -0.60130395 3.166668 -1.7438746500000002 -1.302698 0.066365 0.7823680000000001
8480 -0.91818657 0.8044298100000001 -1.5920845200000002 -1.499001 0.061746 0.775662
8500 -1.67441985 1.3564777500000003 -1.87305273 -1.5904969999999998 0.129136 0.785618
8520 -1.69178355 0.79319736 -1.82859381 -1.7686240000000002 0.13934100000000002 0.785429
8540 -1.6396924500000003 -0.63079281 -2.8883975400000006 -1.922922 0.243153 0.7991739999999999
8560 -2.0299244400000003 -1.8282995100000001 -4.3963613100000005 -2.043777 0.526487 0.911198
8580 -3.3183011700000002 -1.57816413 -5.4824950800000005 -2.1746220000000003 0.352435 1.127356
8600 -3.59462925 0.5334874200000002 -7.19314326 -2.406866 -0.188194 1.461848
8620 -2.19188754 3.2584209300000007 -6.34590261 -2.511936 -0.596557 1.6432349999999998
8640 -2.2309607700000003 6.5108577599999995 -4.03096824 -2.702197 -0.234629 1.608328
8660 -6.30698634 13.227696089999998 -6.9030419400000005 -2.559467 0.368895 1.07444
8680 -2.06914482 11.34206694 -9.90011466 -2.282901 0.802725 0.503249
8700 -0.64261386 7.8600074399999995 0.90322632 -1.86316 1.168562 0.294204
8720 -3.3633585 9.75057102 -2.80845585 -1.725415 1.063148 0.162842
8740 -0.18561501000000002 13.29325632 -5.2635064499999995 -1.443041 0.784932 -0.036723
8760 -2.2129986600000002 13.1244066 -5.369032620000001 -1.269869 0.303153 -0.118217
8780 -1.4406083100000002 12.03017958 -5.469330060000001 -1.298451 0.092421 -0.141648
8800 -0.36823797 11.61959184 -4.812344550000001 -1.28795 -0.011743 -0.208739
8820 -0.8196941700000001 11.007065250000002 -4.87536399 -1.0682459999999998 0.184664 -0.232025
8840 -0.90022446 10.581193529999998 -5.0388182100000005 -0.865294 0.786609 -0.157671
8860 -0.54816318 10.078695900000001 -4.62163815 -0.237617 0.8705700000000001 -0.386267
8880 0.42377238 9.765246780000002 -3.62321559 0.784763 0.774981 -0.544578
8900 0.51028677 9.269773110000001 -2.89063422 1.692818 1.590714 -0.465573
8920 0.011673900000000001 7.86733551 -2.7232854300000007 1.804711 1.474451 -0.791518
8940 -0.6717986100000001 5.50270368 -2.6719398900000004 2.50441 -0.8974409999999999 -0.984417
8960 -1.27370097 4.59214929 -3.2262441300000004 3.095986 -2.993642 -1.295929
8980 -0.61941321 5.336257409999999 -2.67643287 3.875137 -4.179704 -1.601956
9000 -0.21061089 6.086339820000001 -2.11735116 4.788226 -3.626433 -1.958414
9020 -0.25162650000000003 6.44484627 -1.8886212 4.779885 -1.4214950000000002 -2.171737
9040 0.22812174000000002 7.3982115 -1.7422265700000001 2.1264990000000004 0.734615 -1.202792
9060 0.64246671 8.80259148 -1.09138212 1.078637 -1.219427 -0.746136
9080 0.54606384 10.25816985 -1.2639694500000003 3.986526 -2.985451 -1.452089
9100 0.49816161000000003 11.236236660000001 -1.4406083100000002 5.207269 0.550503 -1.520732
9120 0.35221824000000007 12.33494685 -2.3084990100000002 3.135964 0.8404520000000001 -1.372134
9140 0.6956074800000001 12.86694315 -2.01884895 2.426072 0.204154 -1.207498
9160 0.17528508000000004 12.821287410000002 -1.56619593 2.385755 -0.005476 -1.229943
9180 -0.8002311300000001 15.91326207 -1.27070892 2.051323 0.058904 -1.0561049999999998
9200 -1.81751832 18.324589500000002 0.21884148000000003 1.695625 -0.027133 -0.810652
9220 -4.30309764 16.62232887 2.38214268 1.294415 -0.070246 -0.604028
9240 -5.101239240000001 14.046791850000002 2.92207527 0.79462 0.021237 -0.404674
9260 -4.16404089 13.672422630000002 1.2710032199999999 0.014749000000000003 0.456856 0.024087
9280 -2.16584199 13.98107466 -2.38409487 -0.947135 1.048394 0.513333
9300 -1.78384059 14.68326465 -5.56662564 -1.620864 1.129952 0.947562
9320 -1.35977391 14.54884803 -6.1198704 -1.897547 0.5028050000000001 1.112007
9340 -3.11921703 15.871343940000001 -3.20468175 -1.384157 -0.425557 1.326154
9360 -0.97043463 13.880188620000002 4.01001408 -1.259718 0.06491 1.90644
9380 -2.9057612400000004 10.756184310000002 3.1645686600000005 -1.934645 1.313648 1.634138
9400 -0.28530423000000005 13.19685345 1.53535329 -0.7113649999999999 1.586662 1.297297
9420 -2.63677104 9.05048037 -1.7801029800000001 -1.994339 1.551675 2.100229
9440 -3.18762216 2.8401912 -5.89788972 -1.879469 0.313096 1.6507599999999998
9460 0.13157172 -0.12813822000000002 -1.07102637 -1.940333 -0.165251 1.180931
9480 1.0856923200000002 -0.8511254100000001 -1.3355235900000002 -1.7120650000000002 -0.796212 0.796637
9500 -0.67643874 -0.18172044 -1.51425198 -1.574255 -1.186869 0.602616
9520 -0.9517171500000001 -0.060174540000000006 -1.61723736 -1.851961 -0.748209 0.635365
9540 -1.56739275 0.026192700000000003 -2.6409599100000003 -2.11137 0.03843 0.74364
9560 -2.56222485 -0.5022033300000001 -3.5693292600000004 -2.05277 0.7191029999999999 0.968572
9580 -4.17078036 0.21824307 -5.94802863 -1.912512 0.997041 1.137975
9600 -4.90110543 1.7745603300000001 -6.81712596 -1.973446 0.8285540000000001 1.233905
9620 -4.497992910000001 2.17093338 -7.524848790000001 -2.167382 0.67252 1.261592
9640 -4.96801944 3.83562171 -10.62999828 -2.332354 0.314935 1.051527
9660 -2.53228473 4.23784152 -9.44311581 -2.529827 -0.113003 0.880849
9680 -1.41784911 2.6485920899999997 -3.3063231600000003 -2.201986 0.005915999999999999 0.694979
9700 -6.869962620000002 13.157044469999999 -5.42157498 -2.028657 0.8838290000000001 0.513467
9720 -5.8109142600000006 22.257516600000002 -13.99948803 -1.652207 1.788991 0.268177
9740 1.2009500100000001 13.19550948 -3.68204616 -1.065477 2.2819540000000003 -0.174873
9760 -2.16165312 6.38362206 -1.8103374 -0.878915 2.056245 -0.368765
9780 -0.09295956000000001 6.8912208900000005 -1.94879574 -1.038833 0.745096 -0.28167600000000004
9800 -0.44472654 8.85348576 -2.64545289 -1.371246 -0.764401 0.0063560000000000005
9820 -1.93592502 11.83977729 -3.24390213 -1.444756 -0.496788 0.012978
9840 -2.56686498 13.88691828 -3.48310917 -1.124685 0.984734 0.070999
9860 -1.3721933700000002 12.53927934 -4.656963960000001 -0.6088680000000001 1.09162 0.066987
9880 0.14385383999999998 10.402317990000002 -4.43377665 0.556607 -0.076588 -0.243841
9900 0.06331374000000001 9.807459210000001 -3.6419232600000004 1.138195 0.863247 -0.280508
9920 -0.51059088 8.746458660000002 -3.4127518500000003 1.390997 1.553662 -0.528522
9940 -0.37736127 5.96778597 -2.25550539 2.014699 0.7258720000000001 -0.7848189999999999
9960 0.09968922 5.07639051 -1.7311510800000003 2.805134 -1.624008 -0.96643
9980 0.28725642 5.535341550000001 -0.76026519 3.778855 -3.4912300000000003 -1.328977
10000 -0.44966097000000005 5.87931939 -1.48431186 4.474304 -4.5226370000000005 -1.61015
10020 -1.21113279 5.74086105 -1.74597399 4.8013059999999985 -2.427734 -1.769715
10040 -0.9939295800000001 5.6835314100000005 -1.58430519 4.651275 -1.130745 -1.510711
10060 -0.61896195 5.96180187 -1.57277844 3.026394 1.292262 -0.512491
10080 0.07304525999999999 7.544311830000001 -1.0811993400000002 2.269423 -0.9898 -0.06299600000000001
10100 2.3763057300000003 9.08819982 -1.03570056 4.512883 -2.344814 -0.413058
10120 3.3311718900000002 11.241475200000002 -1.8479097000000002 4.243636 -1.030407 -0.676201
10140 3.35078208 12.81695139 -2.6553315600000005 3.224341 -0.458759 -0.490705
10160 2.90605554 15.05823228 -2.4234624 2.938458 -0.572207 -0.377188
10180 1.0180327500000002 14.91199461 -2.38693977 2.466063 -0.812264 -0.673941
10200 1.0529073 15.70713435 -1.9752925500000003 2.045451 -0.80679 -0.612793
10220 -0.5890218299999999 16.860034980000002 1.17251082 1.716088 -0.5719529999999999 -0.446616
10240 -2.41762545 17.480046599999998 2.7385596000000003 1.169217 -0.440107 -0.17714000000000002
10260 -4.59499419 15.70624164 2.51642196 0.654363 -0.145077 0.015438999999999996
10280 -4.416717060000001 13.21452126 1.4114137500000001 -0.110424 0.118739 0.238358
10300 -1.8088364700000001 12.51831537 -0.6331864500000001 -1.006253 0.428799 0.465644
10320 -2.4581898000000004 13.23233622 -4.3683635700000005 -1.80965 0.8823790000000001 0.685914
10340 -2.08890216 13.008246390000002 -4.2311020500000005 -1.986989 0.928408 0.783961
10360 -2.8910854800000005 15.51448557 -6.95797794 -1.699528 0.117657 0.8201229999999999
10380 0.7674559200000002 16.83518625 -1.3208576400000003 -1.4140629999999998 1.486526 1.107714
10400 -0.3793134600000001 13.05674703 1.41456276 -1.050599 1.903834 1.128946
10420 -1.73893041 13.31421048 1.3959924300000002 -1.370721 0.977063 1.401363
10440 -1.3867121699999998 11.44550358 -3.60944235 -2.027882 1.085374 1.258833
10460 -2.6918541900000004 6.066435330000001 -4.92116688 -1.968895 0.645237 0.986344
10480 -0.84499416 4.2454737 -1.60541631 -1.452409 -0.01406 0.778221
10500 0.52615935 0.61761798 -1.28238282 -1.38527 -0.448203 0.597648
10520 -0.7661021400000001 -2.2097025 -0.68707278 -1.788087 -0.279918 0.421567
10540 -1.31471658 -1.2814803000000001 -0.49607208 -1.962724 0.06464099999999999 0.454089
10560 -1.4256382500000002 0.17468667000000002 -1.3084283700000001 -2.0478650000000003 0.373768 0.478735
10580 -1.4921010000000001 0.09879651 -1.91796291 -2.167713 0.535138 0.720178
10600 -3.1903199100000004 -0.65055015 -3.01503483 -2.304684 0.615885 0.8921690000000001
10620 -3.70988694 0.25267617 -4.218074370000001 -2.390963 0.475304 0.957977
10640 -3.9248338500000006 1.8657246600000001 -5.83382061 -2.6500220000000003 -0.243608 1.145095
10660 -4.593797370000002 3.2192103600000004 -9.159155550000001 -2.660644 -0.923306 1.167257
10680 -3.9510363600000002 3.8233494 -10.83686175 -2.530071 -0.660479 0.8623200000000001
10700 -0.02080701 4.15236699 -5.71302027 -2.448696 0.35115100000000005 0.621243
10720 -4.25071224 15.4872432 -10.97009136 -2.02685 1.6088209999999998 0.360863
10740 -3.8260471500000004 22.342392720000003 -12.415928400000002 -1.595897 2.164915 -0.017126
10760 -0.9274668300000001 10.62385722 -2.9114412300000003 -1.12261 1.995156 -0.331933
10780 -2.55758472 6.439009320000001 -4.08425616 -0.713575 1.885885 -0.5329659999999999
10800 0.40565331 8.34963435 -4.091437080000001 -0.607332 1.6316469999999998 -0.449645
10820 -0.5827336200000001 9.69593913 -5.1841729800000005 -0.821876 1.133007 0.024854
10840 -1.40931441 11.14477803 -4.371061320000001 -1.049201 0.686311 0.30798600000000004
10860 -1.09078371 10.913203170000001 -4.0978822500000005 -0.765296 0.5135430000000001 0.110433
10880 0.44862111000000005 10.225836090000001 -3.5631882 -0.352876 0.731105 -0.041858
10900 0.53498835 9.878405129999999 -3.95881569 0.14695 0.826277 -0.299135
10920 0.29967588 10.117308060000001 -3.6507620700000003 0.769731 1.213985 -0.559132
10940 -0.15418377 8.792869770000001 -3.39254325 1.28834 1.598262 -0.6703020000000001
10960 0.02245509 6.655908419999999 -2.57509557 1.781524 1.054845 -0.7996880000000001
10980 0.45580203 5.60688588 -1.10724489 2.046867 -0.08862 -0.923488
11000 1.44673956 5.98455126 -1.37668635 1.971301 -1.165629 -0.8542690000000001
11020 0.15492933000000003 5.0865732900000005 -1.70495838 2.311136 -1.909741 -1.011175
11040 -1.11577959 5.07968667 -1.39045959 3.682987 -1.472435 -1.00429
11060 -1.92260304 5.30392365 -1.27145448 4.810678 -0.195104 -0.6669010000000001
11080 -0.70787979 5.983511399999999 -1.35857709 4.4219 -0.809084 -0.235132
11100 0.37601730000000005 7.77259053 -0.25028253 2.983014 -1.082277 0.599063
11120 1.4582663100000002 9.57963177 -0.56148516 1.974062 -1.650037 0.66645
11140 2.26643373 12.374765640000001 -1.5491265300000001 2.771199 -2.909397 0.559333
11160 2.07454032 14.606324820000001 -1.69747335 4.2708949999999986 -2.622516 -0.021286000000000003
11180 -0.09864936 13.621528350000002 -1.98771201 3.306613 -2.186548 -0.584056
11200 0.25566822 13.06513458 -2.5412608800000003 2.765274 -1.3155709999999998 -0.8090069999999999
11220 0.34219242000000005 13.417647120000002 -2.73211443 2.600545 -0.580541 -0.929672
11240 -0.20731473 14.728469129999999 -1.26771687 2.061961 -0.140521 -1.01091
11260 -1.59702876 16.71289479 1.08629073 1.58924 -0.106067 -0.958709
11280 -1.85913234 15.636933990000001 3.77170956 1.092469 -0.162233 -0.8681030000000001
11300 -2.406393 14.74298793 3.14166231 0.541673 0.14382799999999998 -0.738815
11320 -1.59867684 12.47490612 1.3540841099999998 0.023587 0.7230810000000001 -0.492144
11340 -0.99124164 11.718682650000002 -2.55682935 -0.9006790000000001 0.498088 -0.169299
11360 -0.19938825000000002 13.16707029 -7.0193493 -1.668666 0.320757 0.087278
11380 1.37862873 15.125744700000002 -8.860823640000001 -2.137128 1.041331 0.115129
11400 0.0058369500000000005 16.98967413 -6.21118188 -2.358493 1.19325 0.144367
11420 0.66088008 16.594193790000002 -0.9485779500000001 -1.87385 1.145347 0.514213
11440 1.12969998 13.726004849999999 2.59470576 -1.447332 2.185967 0.183642
11460 0.19025514000000002 10.0530918 3.81706119 -1.053354 2.18625 0.835873
11480 -0.7960422600000001 9.17367435 1.0030626900000001 -1.824713 2.674761 1.084095
11500 -1.6058577600000001 8.27883558 -1.6807080600000002 -1.513569 1.568096 0.775766
11520 -3.95747172 2.6186519699999997 -5.3706807 -1.310443 0.725763 0.791083
11540 -2.30431014 1.4319264600000001 -0.92403333 -1.41691 -0.045754 0.681301
11560 -1.58939658 1.5338621700000001 -2.1603091500000002 -1.6837689999999998 -0.332481 0.422363
11580 0.32048288999999996 1.34869842 -2.27422287 -1.739513 0.07987899999999999 0.180027
11600 -1.16337771 0.6855718500000001 -2.6456000400000006 -1.801883 0.318275 0.290381
11620 -1.59612624 0.70293555 -2.97476478 -1.984783 0.193408 0.506112
11640 -1.5838539300000003 1.0204263900000001 -4.364773110000001 -2.238681 -0.188496 0.593491
11660 -4.708162350000001 1.28881818 -5.1937475399999995 -2.472281 -0.149445 0.6206510000000001
11680 -6.26597073 1.95942978 -4.442164200000001 -2.5979810000000003 -0.26756 0.696836
11700 -4.650077340000001 3.2380651800000004 -3.9345653700000005 -2.395534 -0.111577 0.67455
11720 -3.9022316100000003 3.78353061 -7.0076754 -2.166615 0.223336 0.638332
11740 -3.06038646 3.6268060500000003 -9.636657300000001 -2.144063 0.8640180000000001 0.7722640000000001
11760 -0.32437746000000006 4.1695835400000005 -6.625075590000001 -1.7878900000000002 1.6473380000000002 0.644494
11780 -5.78831202 15.99812838 -10.269990900000002 -1.364356 2.265038 0.317648
11800 -5.992938810000001 16.76529 -11.763141570000002 -1.063087 2.442495 0.167837
11820 1.2091806 11.51166222 -4.10955615 -0.6996319999999999 2.5277 -0.14272200000000002
11840 -0.6273495000000001 8.93058255 -3.83353218 -0.706335 2.008842 -0.119671
11860 -0.50774598 6.6740176799999995 -4.0026762 -0.926282 0.963851 0.059592999999999986
11880 -0.030832830000000002 7.075187820000001 -5.58982629 -1.32804 0.385614 0.089574
11900 0.6619199400000001 10.873541340000001 -5.26619439 -1.604102 1.043241 -0.02536
11920 -0.27827046 12.74674122 -4.193382600000001 -1.499303 1.255187 -0.105016
11940 0.37436922000000006 11.90473911 -4.41282249 -1.157913 0.000427 -0.168322
11960 1.0497681 11.33367939 -4.71160566 -0.981791 -0.7647649999999999 -0.239818
11980 -0.08607293999999999 9.27920052 -3.71182932 -0.536189 -0.141075 -0.485333
12000 -0.31390038 8.59437423 -3.0017030400000007 -0.17466800000000002 1.395333 -0.336293
12020 0.11735703 8.199198 -1.6229271600000001 -0.35311 1.781807 -0.126527
12040 0.7084782000000001 7.362287280000001 -1.26920799 -0.082794 0.742931 -0.302769
12060 0.76475817 7.104225420000001 -0.87238368 0.690005 0.26960300000000004 -0.619367
12080 -0.29429019 7.196586570000001 -0.78736041 1.7430599999999998 0.139719 -0.752851
12100 -0.6753988800000001 6.5476845 -1.67875587 2.307891 -0.11945 -0.633205
12120 -0.40490775 5.79055851 -2.04025437 2.507083 -0.288905 -0.254514
12140 -0.45790137000000003 4.97684844 -1.96151931 3.338778 -0.639059 -0.256802
12160 0.8116107300000001 4.386325680000001 -1.2406216500000002 4.033924 -0.313305 -0.537579
12180 0.99288972 5.23327203 -1.10829456 3.385193 1.057994 -0.580187
12200 1.7371351800000001 5.777236530000001 -0.5185173599999999 1.965894 1.645004 -0.16036
12220 1.51290801 6.97968747 0.40057173 0.179271 0.193571 0.187943
12240 0.9919872000000001 7.73201637 0.96848244 2.409121 -4.1220690000000015 -0.094326
12260 1.27160163 9.986030640000001 0.8789760000000001 3.6707 -3.153594 -0.423245
12280 -0.19130481000000002 14.207999580000001 -0.44532495 2.299079 -0.936203 -0.437804
12300 0.15133887000000001 15.18412401 -2.07827793 1.5244540000000002 0.255161 -0.66159
12320 1.49538735 17.11974492 -4.437975330000001 1.099948 0.021196 -0.924902
12340 4.1516214300000005 18.651664710000002 -3.4371493200000005 1.058082 -0.190028 -1.079816
12360 2.43603882 18.249896160000002 0.03907323000000001 0.839353 0.111933 -1.012296
12380 -0.6500988900000001 18.56439495 1.16158248 0.5683010000000001 0.104439 -0.768489
12400 -1.62950967 15.49039221 0.5177718 0.28174 0.090013 -0.642285
12420 -2.2162948200000003 12.81425364 -0.30955455000000004 0.04697 0.010253 -0.472907
12440 -1.4456898900000001 11.63455209 -0.8732862 -0.505864 0.440544 -0.240175
12460 0.57435588 11.1546567 -0.65459187 -0.871534 0.8378110000000001 0.096456
12480 0.45130905 11.523336120000002 -0.55175364 -0.928996 1.123555 0.349926
12500 -2.26613943 12.08123082 -0.9168426000000001 -1.200544 1.415775 0.767466
12520 -3.8179637100000003 12.58537653 -0.15747012000000002 -1.928933 1.551412 1.3112700000000002
12540 -2.71625166 10.378813229999999 2.35444905 -2.742259 2.317514 1.44134
12560 -2.7274743000000004 9.65552193 3.33970659 -1.931505 2.575088 0.5290699999999999
12580 -2.0082247200000003 12.25456371 -1.2461544900000001 2.059868 2.855768 -0.394127
12600 0.3013239600000001 15.67151424 -0.8678907000000001 2.4717130000000003 2.309114 -0.7088800000000001
12620 -2.74992939 11.07083025 -3.01846833 1.060784 0.277638 -0.02072
12640 -4.45742856 5.0766946200000005 -2.54890287 0.392135 0.265365 -0.101218
12660 -3.11097663 4.176018900000001 -0.047902230000000004 0.331306 -1.288155 -0.227839
12680 -1.6088498100000002 4.07198385 0.5688132300000002 -0.118652 -1.832442 -0.121326
12700 -0.8813696400000001 3.9960936900000004 -0.16959528 -0.978551 -0.6828270000000001 0.311302
12720 -0.3614985 3.4974808200000003 -0.8640059400000001 -1.172063 -0.880814 0.4405270000000001
12740 0.25536411 2.6888621400000003 -0.6298902900000001 -0.539483 -1.09624 0.484746
12760 0.41523768 1.91392119 -1.0193767200000001 0.039504 -0.469482 0.953732
12780 0.10612458 1.7732163600000002 -2.07737541 0.511907 0.5794739999999999 0.629879
12800 -0.58648104 1.5464385900000002 -2.0127177 -0.986938 3.739758 0.428421
12820 -1.14601401 1.83607884 -0.42017211000000004 -2.496146 3.004294 0.776676
12840 -2.1136037400000003 2.6473952700000005 -0.7201521000000001 -2.057171 1.30519 0.394155
12860 -2.4987541500000003 3.7847274300000002 -1.9999941300000001 -0.12928199999999998 -0.202153 0.31555
12880 -2.0130120000000002 4.557569040000001 -4.121975610000001 -0.945389 3.418622 1.312543
12900 -2.51671626 9.22157658 -5.44043961 -2.534322 4.98414 1.999123
12920 -4.52553939 22.31499339 -11.49699627 -1.777364 3.797283 1.644872
12940 -4.1561046 31.12986699 -14.24303109 -1.504676 3.370375 1.075825
12960 -5.3929886400000004 8.71772517 -13.90159404 -1.323488 3.349206 0.618851
12980 -3.3988314600000002 -0.20417553000000002 -9.883202220000001 -1.214176 3.140354 0.538697
13000 -2.05717662 7.622595629999999 -5.604796350000001 -1.403174 3.592638 0.5506840000000001
13020 -3.98381157 9.85460607 -1.21383054 -1.222055 3.730667 0.507976
13040 -3.77365194 9.2170836 0.0663156 -1.087148 3.3127 0.219965
13060 -4.68405918 7.5654131399999995 -0.66596166 -0.906655 2.02802 0.319012
13080 -2.95994187 9.89427771 -0.23216346000000002 -0.600549 1.773405 0.323613
13100 -0.39517623 13.35821814 -1.22220828 -0.6707989999999999 3.443053 0.294277
13120 1.37758887 14.05457118 -2.23141203 -0.526049 3.89284 0.108842
13140 -0.0290376 7.973018639999999 0.7933543200000001 -0.099573 2.414737 -0.119158
13160 -2.03127822 6.26896278 4.631065560000001 0.141995 2.713395 -0.157377
13180 -2.5445570400000004 8.73808092 1.61065485 0.345 3.324936 -0.085172
13200 -1.44824049 13.046269950000001 -4.704866190000001 0.686404 2.699146 0.003472
13220 1.88068491 12.295883430000002 -3.02685588 0.697634 2.317864 -0.028007
13240 4.63346901 7.9457762700000005 1.656909 1.022486 2.037202 -0.185612
13260 2.24248752 9.64983213 -0.25686504 1.740836 2.1951080000000003 -0.33675700000000003
13280 0.76446387 7.19718498 -0.69006483 2.645798 2.684268 -0.371655
13300 -0.29219085 6.89915718 0.39517623 3.5263760000000004 3.054817 -0.560395
13320 -0.19683765 7.21813914 0.5116405499999999 3.773108 2.294859 -0.6698609999999999
13340 1.40153508 7.7724335700000005 1.13464422 3.192307 0.8211959999999999 -0.868583
13360 3.4760754 9.031468590000001 2.45115603 3.01726 -0.06929 -1.270316
13380 4.42913652 9.14538231 1.71962433 3.855407 -1.0813780000000002 -1.710749
13400 3.78936756 9.86194395 1.08538821 4.823429 -2.240373 -1.756982
13420 3.4344613800000006 10.84914387 -1.14586686 3.938633 0.470886 -1.822184
13440 3.95776602 9.70117767 -3.3362632800000003 2.120198 2.977769 -1.118117
13460 3.3184483200000003 9.596838510000001 -1.97020116 1.926147 0.96904 -0.7793399999999999
13480 1.5338621700000001 10.19065743 -0.29429019 1.7342529999999998 -0.526367 -0.407023
13500 1.27744839 10.901676420000001 -1.7458170300000002 1.534994 -0.51166 -0.449026
13520 2.80337427 10.9872981 -1.56933513 1.283842 -0.08922200000000001 -0.64467
13540 2.58676947 11.253600359999998 -1.0282155300000004 0.786207 -0.062553 -0.7550020000000001
13560 2.72208861 10.885509540000001 -0.8565209100000001 0.15423199999999998 0.173786 -0.436048
13580 0.9247788900000001 11.419448220000001 -0.31285071000000003 -0.563995 0.666167 -0.136184
13600 -0.66102723 11.3257431 -1.64478384 -1.215483 1.011473 0.122673
13620 0.6825798 11.336975550000002 -1.4172507000000003 -1.6537 1.276369 0.32544
13640 0.028439190000000003 13.084293509999998 1.13852898 -2.041141 1.343463 0.665547
13660 -0.8717852700000001 13.314514590000002 2.58932007 -2.36826 1.518131 1.223854
13680 -3.7576322100000006 15.222745980000001 1.8208144800000001 -2.47292 1.618244 1.58619
13700 -5.835910139999999 16.45408737 5.751043830000001 -1.571223 1.690274 0.907666
13720 -4.17781413 16.339869540000002 5.34912813 1.167613 1.7388009999999998 -0.014369
13740 -1.02910824 14.25934512 1.9227501900000001 1.844593 1.3465120000000002 -0.533634
13760 1.53670707 15.69321396 0.1329255 1.491026 -0.727826 0.10001
13780 1.8672157800000002 13.60086849 -3.42562257 0.280053 -0.393806 0.203287
13800 -1.45092843 8.51309838 -2.42705286 -0.16258699999999998 -0.554606 -0.22582
13820 -1.3930003800000001 9.707917140000001 -1.63429695 -0.25045700000000004 0.4113850000000001 -0.362267
13840 0.26210358 8.75544462 -0.75832281 -0.061377 0.384636 0.035398
13860 0.8210381400000001 6.86008395 -0.8583161400000001 -0.015918 -0.71678 -0.023762
13880 1.5967344600000002 3.80254239 -1.08389709 -0.768353 0.667309 -0.244436
13900 1.9008935100000002 0.8508311099999999 -1.0041123600000001 -1.837996 2.528367 -0.38782
13920 0.11077452 1.01743434 -1.61663895 -0.983018 1.000795 -0.338229
13940 -0.5126804100000001 0.9276237900000001 -1.8263473200000002 -0.452379 2.555252 -0.054504
13960 -0.79439418 0.8184973500000001 -2.10327381 -1.586464 4.119506 0.55407
13980 -0.92193399 0.95366934 -2.51836434 -1.985936 3.010379 1.209658
14000 -1.3578217199999998 2.4632811900000005 -3.2233992300000005 -1.530411 1.461306 0.855902
14020 -1.53685422 3.4091613900000004 -4.738995180000001 -1.097328 1.812614 0.273091
14040 -1.5447905100000001 5.01157584 -5.64550785 -1.295785 2.484469 -0.003689
14060 -2.63272932 10.99762803 -7.8374052 -1.398212 2.927992 -0.273097
14080 -2.73017205 24.11155755 -12.73686255 -1.231494 3.329568 -0.409179
14100 -2.61940734 24.93125172 -8.68807935 -0.8358040000000001 3.705581 -0.478468
14120 -1.5197848200000001 12.56815998 -12.72264786 -0.43222 3.609066 -0.401818
14140 -3.7254554100000004 8.108641890000001 -6.72042879 -0.074291 3.0250630000000003 -0.387887
14160 -2.24547957 10.900038150000002 -4.25654919 0.073201 2.207186 -0.31317
14180 -0.99138879 13.63080861 0.59710527 0.110908 1.717526 -0.171273
14200 -0.44427528000000005 12.54346821 5.770055610000001 -0.10238 1.6441849999999998 -0.027391
14220 0.2630061000000001 8.49932514 2.7024784200000003 -0.213238 1.555534 -0.139147
14240 -0.42960933 4.940924219999999 1.7871367500000002 -0.04019 1.549816 -0.191342
14260 -2.4718060800000003 7.710316649999999 4.5289827 0.477808 1.604748 -0.258297
14280 -2.4556392 12.895980750000001 -3.98471409 1.265826 1.836968 -0.405846
14300 2.38663566 15.545769660000001 -4.21029504 2.131386 2.522397 -0.737168
14320 4.6608585300000005 11.566892520000001 1.1030560200000001 2.885697 3.3436510000000004 -1.105761
14340 2.0311310700000003 8.55620352 2.34502164 3.716679 3.00633 -1.651795
14360 -0.29922462000000005 9.552536550000001 0.41239278 4.9811440000000005 0.162902 -2.162748
14380 -0.08172711 6.6741746399999995 -1.1425707 4.408266 -2.935077 -2.425562
14400 0.8196941700000001 6.0011694 -1.55032335 3.665566000000001 -1.5962 -2.005177
14420 2.53228473 6.850205280000001 -1.08434835 2.929061 -0.268138 -1.549483
14440 3.1786362 8.70170544 -1.3678573500000002 3.34576 -1.798024 -1.074594
14460 3.3934457700000005 10.496327220000001 -0.96444072 4.439031 -0.321463 -0.713132
14480 2.5282430099999997 10.35172782 -1.2620270700000003 3.4472690000000004 -0.869236 -1.129555
14500 2.0917470600000008 10.78132734 -1.7863813800000001 3.263051 -0.410144 -1.225433
14520 1.63206027 11.32649847 -2.82552525 2.79152 -0.201691 -1.264245
14540 1.4632105499999999 12.633582870000001 -3.26321802 2.423721 -0.24472800000000006 -1.371445
14560 1.04063499 13.60909908 -3.0199692600000003 1.932811 -0.668393 -1.29101
14580 0.8644572 13.34833947 -2.9117453400000004 1.457537 -0.8389700000000001 -1.112513
14600 0.57256065 13.572125190000001 -3.6664776900000002 0.927568 -0.868605 -0.967694
14620 0.36269532000000004 13.13069481 -4.61879325 0.303149 -0.48166 -0.755703
14640 -0.027242370000000002 11.941869960000002 -2.9822498100000003 -0.332171 0.211637 -0.422403
14660 -0.24204213000000002 12.37356882 -0.26734212 -0.845002 1.053821 -0.132235
14680 -1.7735106600000001 14.52849228 1.2391207199999998 -1.422364 1.468291 0.082187
14700 -3.4497257400000003 13.64442489 2.02648113 -1.985736 1.057795 0.394971
14720 -4.68405918 13.705344990000002 1.3397124600000003 -2.362852 0.14461400000000002 0.7812720000000001
14740 -0.56596833 14.75795799 -0.13741848 -1.855768 -0.11861 1.165438
14760 -0.5855785200000001 15.029793090000002 -3.34015785 -0.926391 0.84982 1.401425
14780 -1.0612948500000001 15.541433640000001 -4.4638639200000005 -1.597508 1.252844 1.097119
14800 -2.61520866 14.17147695 -1.2359815200000002 -1.1432129999999998 1.086959 1.693368
14820 0.95575887 15.429913560000001 -2.227370310000001 -1.75142 0.253147 1.3472879999999998
14840 1.4919440400000001 14.40633816 -7.3784541599999995 -1.832542 -0.121249 0.740451
14860 -2.9401845300000002 6.890769629999999 -2.2987674900000004 -1.587783 -0.592681 0.407344
14880 -2.27511558 4.00776759 -1.75689252 -1.686979 -0.7377819999999999 0.016936
14900 -1.0687798800000001 3.61752579 -2.86683516 -1.971329 -0.188019 -0.023143
14920 -1.0942270200000002 2.0809756800000003 -2.45864106 -2.283918 0.796298 0.246877
14940 -1.5989711400000002 0.33934752000000007 -1.85733711 -2.3846830000000003 1.51006 0.593499
14960 -1.5530210999999998 -0.29069973 -1.8785953800000001 -2.305157 1.258106 0.927663
14980 -1.04587353 -0.38364948 -1.9580760000000001 -2.266101 0.372203 1.324313
15000 -2.2561038 0.24069816 -2.66206122 -2.3074630000000003 -0.327259 1.520405
15020 -3.2052801600000005 0.69245847 -3.1368750300000006 -2.392869 -0.354598 1.504888
15040 -4.19278419 0.83047536 -4.55323302 -2.572884 -0.341092 1.214125
15060 -4.47060339 1.81019025 -5.407350480000001 -2.396539 0.00201 0.77481
15080 -5.6046492 2.7196949700000004 -7.2889379100000005 -2.202628 0.940606 0.5848180000000001
15100 -4.42180845 4.38588423 -10.623111660000001 -2.0752740000000003 1.400773 0.482569
15120 0.3381507 3.4483817700000006 -9.51840756 -1.728261 1.611795 0.157846
15140 -4.99376088 9.18460269 -5.1623163 -1.3937190000000002 1.020413 -0.093296
15160 -6.09757227 16.127316269999994 -10.6804413 -1.234887 -0.174403 -0.070359
15180 -1.3377700800000003 16.69882725 -8.95108545 -1.369834 -0.770464 -0.076947
15200 -2.30101398 7.678130040000001 -4.10312079 -0.978998 -0.552938 0.064373
15220 -0.8511254100000001 6.640938360000001 -2.7390010500000006 -0.322062 -0.31790300000000005 0.125276
15240 -1.42219494 8.494086600000001 -3.80928186 0.800036 -0.3891 -0.358177
15260 -2.11675275 11.737390320000001 -4.15057176 1.589367 0.117808 -1.000655
15280 -1.5627526200000001 12.644501400000001 -4.6131034500000005 1.498028 1.063412 -1.097577
15300 -1.28567898 11.63021607 -5.279967630000001 1.656079 1.48623 -0.944259
15320 0.02365191 11.217823290000002 -5.284460610000001 1.997711 0.985732 -1.019211
15340 1.5489793800000002 11.06738694 -4.34531007 2.925712 -0.6054390000000001 -1.378159
15360 1.48700961 9.46361871 -3.69162072 4.244574 -3.087375 -1.761008
15380 1.19975319 7.3543608 -3.0102377400000004 4.698159 -4.0318239999999985 -2.266171
15400 0.36044883 4.84961274 -2.54874591 3.986945 -1.626804 -2.089419
15420 -0.39428352 3.4376005800000002 -2.3593932900000008 4.192821 -0.522202 -1.447395
15440 -0.27662238 3.87185004 -2.55473982 3.200539 -0.558706 -0.5174479999999999
15460 0.39383226000000005 4.968166590000001 -1.59313419 4.133114 -0.807886 -0.550139
15480 -0.23246757 4.20235875 -1.3016889 4.01776 -0.879858 -0.8328629999999999
15500 -0.17738442000000001 5.75283906 -1.27070892 3.503427 -0.881338 -0.8161579999999999
15520 0.06660990000000001 6.8196667500000006 -1.72501002 2.897989 -0.465059 -0.7632359999999999
15540 1.82815236 8.82295704 -2.5993458900000004 2.388364 -0.381281 -0.759426
15560 2.35789236 12.92546961 -1.7699202 1.892191 -0.312777 -0.6775220000000001
15580 1.38776184 16.53072309 -2.0013381 1.385827 0.00966 -0.6857449999999999
15600 -0.92717253 16.27744851 -3.09870432 0.904435 0.294309 -0.5901270000000001
15620 -3.1759482599999997 16.215478740000002 -4.1574583800000005 0.349633 0.46704 -0.414763
15640 -2.3882837400000003 15.52751325 -2.59769781 -0.203055 0.67582 -0.198837
15660 -0.29474145 17.28261054 -0.10987200000000001 -0.684775 0.747025 -0.00574
15680 -0.40131729000000005 19.32061842 1.24915635 -1.126269 0.916373 0.118077
15700 -1.24316244 16.749721530000002 2.66041314 -1.906968 0.790095 0.405479
15720 -2.6520354000000004 12.32117361 1.22670126 -2.418627 0.557056 0.7846270000000001
15740 -2.67030162 11.10959937 -2.22287733 -2.292924 0.8301879999999999 1.102417
15760 -1.3843185300000003 11.49010965 -5.762413620000001 -1.576217 1.605715 0.746438
15780 -0.9273196800000001 13.15583784 -7.23461013 -1.765972 1.988361 0.8578540000000001
15800 -0.33380487 17.158219740000003 -6.1430710500000005 -1.378614 1.4105530000000002 1.693445
15820 1.3742927100000002 14.42984292 -0.35461188 -1.98472 0.808003 1.587434
15840 1.37728476 10.527307200000001 1.33237458 -2.13591 0.291142 1.236664
15860 -1.31845419 9.49430439 -5.31200709 -1.803339 -0.416798 0.831833
15880 -3.1561909200000002 6.634807110000001 -3.41439993 -1.796974 -0.516696 0.500857
15900 -2.5228573200000004 3.31904673 -2.9500632 -2.1557060000000003 -0.131924 0.227598
15920 -1.9532887200000002 1.0310604300000001 -2.3019165 -2.127475 0.4814600000000001 0.256919
15940 -2.11510467 0.6965001900000001 -2.04250086 -2.176133 0.954148 0.638397
15960 -1.84356387 -0.2576106 -1.5780169800000001 -2.317891 0.5573239999999999 1.162412
15980 -1.87844823 -0.05747679000000001 -1.619631 -2.395178 -0.06944600000000001 1.592101
16000 -1.1576879100000002 0.82043973 -2.23784739 -2.381345 -0.300716 1.606381
16020 -1.92858714 0.00942741 -3.0868832700000004 -2.418474 -0.330106 1.529247
16040 -3.00963933 0.27018702 -3.8290392 -2.696101 -0.475879 1.195278
16060 -3.46619673 0.9834525000000001 -4.8002193900000005 -2.484449 0.290311 0.681959
16080 -4.38797376 2.3396359500000004 -6.896459429999999 -2.187628 1.286171 0.202057
16100 -4.46311836 4.04458452 -9.433982700000001 -1.790401 1.943546 -0.166684
16120 -2.3267652300000004 4.312976310000001 -9.58262382 -1.442959 2.034104 -0.4698850000000001
16140 -1.37833443 2.9791008000000003 -3.40167636 -1.3018379999999998 1.261791 -0.595028
16160 -7.10781588 14.25919797 -10.71247095 -1.09728 0.408107 -0.672622
16180 -3.10109796 23.370598440000002 -17.34173541 -1.026356 0.474424 -0.003504
16200 -0.13277835000000002 12.534629400000002 -3.4796658600000003 -1.218904 1.112084 0.27314
16220 -1.79522019 6.74257977 -2.1814104600000004 -0.977085 0.040802 0.233473
16240 0.09789399 8.50126752 -3.0943683000000006 -0.20439 -1.312816 0.009869
16260 -1.4266879200000002 9.69398694 -4.19697306 0.705321 -0.161504 -0.182873
16280 -2.0941407 10.675349910000001 -3.6383328 0.83862 2.140218 -0.479721
16300 -1.73758644 11.29012299 -3.2855161500000003 1.0003 3.08297 -0.615464
16320 0.2576106 10.77115437 -4.014654210000001 1.329155 2.936806 -0.578797
16340 1.77156828 11.123215649999999 -4.36881483 1.661723 1.67121 -0.588739
16360 0.567018 10.01627487 -4.76159742 2.366343 -0.398899 -0.863175
16380 -0.30266793 7.23011715 -4.604872860000001 4.278868 -3.338597 -1.570303
16400 -0.23096664 4.52059515 -4.30130241 5.953256 -5.657196 -2.0822700000000003
16420 0.26913735 2.8050125400000003 -3.7193143500000003 5.412821 -4.830929 -2.315703
16440 0.38993769 3.79775511 -2.7315160200000004 4.139387 1.270237 -1.296241
16460 -0.59681097 5.18791059 -1.9808352 1.588063 1.0363209999999998 -0.26263200000000003
16480 -1.54104309 5.25377493 -1.52472906 3.781147 -1.999544 -0.341699
16500 -1.4147099099999998 6.15789396 -0.79170624 4.550544 -0.818638 -0.620917
16520 -1.06398279 6.940015830000001 -0.6792836400000001 3.205377 -0.7407060000000001 -0.828034
16540 1.55421792 10.25921952 -0.8616123 2.980224 -0.976454 -0.8186220000000001
16560 3.5313057000000003 14.190488730000002 -0.52960266 2.537759 -0.961924 -0.8719379999999999
16580 3.51408915 15.096707100000001 1.0285098300000002 1.980729 -0.811659 -0.93691
16600 0.3752717400000001 14.12792055 -0.5891787900000001 1.462112 -0.545875 -0.886394
16620 -1.32115194 14.54585598 -3.71362455 0.977044 -0.319992 -0.743725
16640 0.26539974000000005 14.60692323 -5.88127158 0.393585 -0.054721000000000006 -0.5088590000000001
16660 -0.11960352 13.89305934 -3.51977895 -0.241308 0.198857 -0.235881
16680 -0.9090632700000001 15.39533331 0.80847153 -0.899016 0.626045 0.064489
16700 -1.42174368 13.91536728 3.4097598000000002 -1.6557830000000002 1.025073 0.30011
16720 -2.6381150100000004 13.4309691 3.2525839800000003 -2.305447 1.465477 0.485151
16740 -3.12266034 13.026512610000001 2.36582865 -2.224557 1.013254 0.551457
16760 -3.4636461300000003 11.575731330000002 1.1000639700000001 -1.207047 0.18761 0.748698
16780 -1.7235189000000002 13.417195860000001 -0.50564664 -1.470457 0.556574 0.616062
16800 -0.4564004400000001 13.544882820000002 -2.4191165700000004 -0.988764 1.465604 1.175874
16820 -1.5025780800000001 14.63162481 -4.94152263 -2.211277 1.316347 1.465559
16840 0.5204695500000001 14.546454390000001 -4.7051703 -2.124781 0.513264 1.357166
16860 -1.49359212 12.545116290000001 -0.38948643000000005 -2.103386 -0.029775 1.275758
16880 -0.6710530499999999 13.7087883 1.3415076900000003 -1.947391 -0.511699 0.979431
16900 -0.020355750000000002 10.33510968 -6.73030746 -1.951271 -0.297235 0.630889
16920 -2.5524933300000003 4.74153597 -3.53833947 -2.198676 0.416393 0.6058140000000001
16940 -0.6908103900000001 2.8196883 -2.15911233 -2.170511 0.918311 0.5380689999999999
16960 -0.41583609000000005 1.9333842300000001 -2.37586428 -2.086448 1.63155 0.589017
16980 -1.45257651 0.30326634 -1.9028457 -2.324965 1.607549 0.93669
17000 -2.35071144 -0.42901092 -1.6039153800000001 -2.232513 0.426548 1.025376
17020 -1.8094348800000002 0.10478061 -1.9609209000000003 -2.079807 -0.525141 0.99241
17040 -2.20776012 0.60489441 -2.64155832 -2.177821 -0.765415 0.957851
17060 -3.53998755 0.88615692 -3.30677442 -2.629627 -0.45683 0.903025
17080 -4.4248005 0.9963232200000001 -4.490664840000002 -2.515646 0.053585 0.5015149999999999
17100 -4.57463844 1.3632172200000001 -6.129749070000001 -2.048002 0.881539 0.303963
17120 -4.85740188 1.9925091000000001 -9.051677190000001 -1.569649 1.49634 0.12171400000000003
17140 -4.55173209 3.9619647000000002 -10.85661909 -1.247495 1.600001 -0.239364
17160 -1.9550839500000001 4.532720310000001 -6.070928310000001 -1.111799 0.922055 -0.249297
17180 -5.2019781300000005 14.92680771 -9.05017626 -1.016423 -0.064087 -0.14161400000000002
17200 -3.2358186900000003 19.34936172 -10.945242630000001 -0.830189 -0.405628 -0.139875
17220 -1.3374659700000002 10.87698465 -3.45077541 -0.485912 0.181414 -0.190565
17240 -2.46043629 7.12398276 -5.306611590000001 -0.609877 1.031197 -0.00665
17260 0.93210696 8.53629903 -3.08987532 -0.862175 1.412299 0.012464
17280 -0.72658746 10.373280390000001 -2.4815376000000002 -0.424316 1.313554 -0.181972
17300 -1.66528674 12.422363760000001 -3.85463349 0.317288 1.098882 -0.420071
17320 -1.9549368000000003 11.886031440000002 -3.63459519 0.612166 1.219075 -0.629674
17340 -0.9484308 10.60125498 -4.104317610000002 1.517551 0.685178 -0.8331049999999999
17360 0.0663156 10.0499526 -4.59664227 2.668402 -0.800783 -1.056034
17380 1.5308701200000001 10.19814246 -4.42135719 4.223699 -2.578778 -1.591958
17400 1.3558793400000002 8.74781244 -3.6471618 5.757832 -4.332142 -2.1419490000000003
17420 1.2766930200000002 6.76937088 -3.04751574 5.425603 -3.595577 -2.500931
17440 0.89813493 4.89272769 -2.59800192 3.656291 -0.103588 -1.771077
17460 0.30641535000000003 2.7578656800000005 -1.58564916 2.281407 1.83866 -0.37739
17480 -0.18456534000000002 4.48931106 -1.42817904 0.767843 -1.832417 -0.096974
17500 -1.03914387 5.65598493 -1.5715816200000001 3.475331 -1.7010610000000002 -0.128437
17520 -1.0180327500000002 6.38497584 -2.6280891900000003 5.479481 -0.17738900000000002 -0.61525
