time Ax Ay Az Gx Gy Gz
20 -1.5176952900000003 9.480531150000001 0.4197306600000001 2.505594 0.08291799999999999 -0.263547
40 1.54493766 13.45761306 0.67329954 3.589869 -0.577218 -0.753987
60 0.4197306600000001 13.96940076 -1.8094348800000002 5.203461 -1.04406 -1.556103
80 0.06242103000000001 12.618014400000002 -4.106407140000001 6.536905 0.40079 -1.7302380000000002
100 0.6417113400000001 12.794192190000002 -1.50841503 4.549721 3.135667 -1.950585
120 -0.94752828 13.30298784 3.6064503 1.744358 1.372044 -1.236189
140 -3.50600571 12.21010479 5.69775591 2.32806 0.561336 -0.403201
160 -4.74378246 12.85572051 2.89632402 4.191196 0.198054 0.117684
180 -4.86937008 14.223872159999999 0.7246450799999999 6.418181 -0.455375 -0.376533
200 -1.83967911 16.02537075 0.18606627000000003 6.045464 -2.504897 -1.400935
220 0.48184758000000005 17.971174440000002 1.41904593 5.094774 -1.517503 -1.346884
240 -2.32256655 14.9780061 -0.0782838 4.088458 -0.944681 -1.199755
260 -3.9541755600000013 12.91439412 -1.9543383900000002 3.558808 -1.027193 -1.418061
280 -4.778362710000001 13.061092860000002 -4.416265800000001 2.909432 -1.185781 -1.4223940000000002
300 -5.610633300000001 13.089826350000001 -3.2546833200000003 2.362091 -1.393874 -1.3896309999999998
320 -7.57454625 14.343318720000001 -1.2461544900000001 1.292148 -1.206474 -1.239248
340 -4.08336345 13.823898840000002 -2.1454862400000003 0.361801 -1.055782 -1.087843
360 1.08988119 16.296607440000006 7.48698219 -0.485022 -0.473386 -0.809289
380 2.1444365700000003 12.34542393 6.711589980000001 -1.259565 0.331221 -0.48565
400 -2.4234624 9.83320065 -0.44233290000000003 -1.913849 0.89005 -0.341385
420 -4.55787315 6.86517534 -2.516265 -2.265473 1.073104 -0.25968600000000003
440 -3.4923894300000002 2.9343475800000003 0.56253483 -2.282639 1.2523879999999998 -0.058142
460 -2.41103313 0.33919056000000003 -2.84542974 -2.285304 1.419561 0.228977
480 -1.3070844000000001 1.5590052 -0.9963232200000001 -2.430615 1.199295 0.293406
500 -1.35678186 1.66753323 -1.7784549 -2.218712 0.679583 0.340418
520 -1.39719906 2.18860119 -1.06518942 -1.420974 0.154863 0.598763
540 -2.10776679 -0.38380644 -2.12722983 -0.648511 -0.736255 1.130865
560 -3.8847207600000004 0.1417545 -2.31493437 -1.541377 0.102696 1.227171
580 -3.78907326 0.7801794900000001 -1.6058577600000001 -2.190865 0.626859 0.979476
600 -4.155810300000001 0.74485368 -2.2233285900000004 -2.058626 1.770629 0.949024
620 -4.887783450000001 0.89079705 -4.69932354 -2.690065 2.321284 0.986637
640 -4.92461019 1.12355892 -6.01090092 -2.809377 2.477609 0.625612
660 -4.44740274 1.7817412500000003 -7.050790350000001 -3.116298 2.768416 0.36245
680 -3.56468913 3.27324384 -9.19073394 -3.269993 2.778442 0.385932
700 -4.667146740000001 3.2512400100000005 -12.840750450000002 -3.33675 2.907464 0.413074
720 -6.372095310000001 3.56528754 -14.33763873 -3.5192870000000003 3.171029 0.4606
740 -7.91703297 9.30764952 -13.40043057 -3.917352 4.007943 0.371289
760 -4.77596907 17.1068742 -14.751071370000002 -4.531186 3.731977 0.651502
780 -2.97701127 10.436898240000001 -5.65748586 -4.850398 3.613003 0.577854
800 -6.1870885200000005 -2.5990417800000003 -0.60923043 -4.836426 3.3404769999999995 0.5195489999999999
820 -7.3565974800000005 0.9026181 -4.13485614 -3.950503 3.306993 0.39973
840 -5.966746110000001 9.28728396 -0.00164808 -2.615264 2.804185 -0.224823
860 -8.7861303 10.36175364 -2.05192827 -1.549496 1.560559 -0.503137
880 -6.78644028 10.671906600000002 -1.99370592 -0.665291 0.433259 -0.14513900000000002
900 -4.60278333 9.46452123 -1.03060917 -0.307212 -0.558661 0.379925
920 -3.0005062200000006 8.71337934 -1.6423803900000002 -0.685543 -0.29904400000000003 0.785011
940 -2.87163225 8.634948390000002 -2.1595635900000003 -1.7535189999999998 0.720543 0.616011
960 -2.43259551 9.50762637 -1.91811006 -1.637311 1.961955 0.6900069999999999
980 -1.68489693 8.99464185 -2.1734839800000003 -1.261471 1.792323 0.693918
1000 -0.6890151600000001 8.351733690000001 -0.44352972000000007 -1.093851 1.568084 0.6814899999999999
1020 0.14369688 8.03558682 0.28231218 -1.114254 1.784373 0.689616
1040 0.05927202000000001 9.55103562 1.0389869100000002 -1.249345 2.119309 0.696789
1060 0.1155618 11.078315279999998 2.37182256 -1.143568 1.9281 0.470241
1080 1.24122006 10.417739310000002 2.26404009 -1.070443 1.525288 0.175371
1100 0.7232913 10.035129690000002 1.9652667300000002 -0.848123 0.363517 -0.128167
1120 0.80861868 9.290884230000001 0.54816318 -0.482305 -0.690054 -0.441524
1140 1.11532833 8.03034828 -1.55811249 -0.003069 0.01169 -0.25641
1160 1.47637557 8.40771936 -4.44410658 -0.204394 2.029938 0.030154000000000007
1180 0.42182019000000004 9.68470668 -0.30746502000000003 -0.302006 2.420258 0.539582
1200 0.52121511 10.11581694 -0.48079791 -0.229763 1.706006 0.606164
1220 0.12020193000000001 9.78859458 -1.18224234 -0.021585 0.993688 0.33827
1240 -0.40715424 9.69743025 -0.60384474 0.327367 1.006231 0.096069
1260 -0.67030749 9.07682022 -0.13771278 0.973821 1.243592 0.117372
1280 -1.85179446 9.353746710000001 -0.07634141999999998 1.771693 0.607586 0.233787
1300 -2.2799126700000008 9.1940301 0.5912683200000002 2.692505 -1.312005 -0.0404
1320 -2.0013381 8.93910744 0.19683765 3.3214 -1.4890290000000002 -0.803832
1340 -1.58415804 10.567420290000001 -0.43574058 2.908019 0.30525 -0.800473
1360 0.19878984000000002 11.723322779999998 -0.8385588 2.675221 1.479961 -0.526935
1380 0.9282222 12.195291690000001 -0.9035206200000001 2.984126 1.581148 -0.790894
1400 0.67719411 12.42865197 -0.16690734 2.891316 1.470807 -1.620341
1420 2.3462184600000002 13.10510052 0.48723327000000005 2.932131 -0.055221000000000006 -1.783675
1440 1.29735288 12.409041779999999 -0.34308513000000007 3.270209 -1.817962 -1.616685
1460 -1.8799393500000001 11.895164549999999 -0.31584275999999994 3.709073000000001 -1.989975 -1.870841
1480 -0.8379603900000001 13.26811329 1.3148637300000001 3.723777 -0.173388 -1.424412
1500 0.40311252 13.84156665 3.16337184 2.590516 0.006690000000000001 -0.721123
1520 -1.1126403900000001 11.85953463 2.105971560000001 1.7077349999999998 -0.414732 -0.329371
1540 -5.4646899300000005 9.330251760000001 -1.8509017500000002 2.118389 -1.545888 -0.726704
1560 -4.69109295 9.584419050000001 1.4141115 1.946907 -1.600208 -0.846405
1580 -3.5494149600000005 11.270512799999999 2.5056407700000003 0.951179 -0.993544 -0.646903
1600 -3.9585213900000005 13.415106330000002 3.1540915800000002 0.165877 -0.186859 -0.30090900000000004
1620 -4.942866600000001 14.96198637 3.43341171 -0.536834 0.496967 0.061843
1640 -6.8801454 14.839096500000002 3.64746591 -1.38357 0.841992 0.5596869999999999
1660 -6.96636549 11.06887806 3.1105351800000003 -2.167323 1.155002 1.01742
1680 -3.4726320900000003 9.05945652 0.13517199 -2.624805 1.427337 1.241407
1700 -0.84813336 10.09994436 0.24354306000000003 -1.930218 1.2529709999999998 0.8213299999999999
1720 0.45670455000000004 9.76898439 -0.30565998000000005 -0.673133 0.205055 0.186247
1740 1.03614201 8.11492029 -1.40992263 0.416477 -0.806072 -0.179792
1760 1.2910646700000001 5.9662948500000015 0.27138384000000004 0.6331720000000001 -0.304975 0.060361
1780 0.69859953 3.8592736199999997 2.40235128 0.13331400000000002 -0.908179 0.291583
1800 -1.12640382 2.15806266 1.2265541100000001 -0.3295 -1.607376 0.253995
1820 -1.62996093 2.31299199 0.51088518 -1.259165 0.117907 0.6426689999999999
1840 -2.2781174400000004 2.75951376 -0.18202455 -1.532866 2.620785 -0.054658000000000005
1860 -2.94033168 3.26081457 -1.81302534 1.228533 0.23132600000000006 -0.8377469999999999
1880 -2.8864453500000002 3.2546833200000003 -3.9663007200000004 -0.677557 0.535419 -0.639943
1900 -3.99309183 3.2576753700000003 -6.0378489900000005 -1.989203 0.473908 -0.371288
1920 -5.28416631 4.40339508 -6.7717645200000005 -3.181731 2.803341 0.476248
1940 -6.54858702 8.152796700000001 -9.616154400000001 -3.747154 3.849139 1.041388
1960 -7.302868110000001 15.40551609 -11.873455020000002 -3.607974 4.907534 1.043141
1980 -6.75814824 20.69461683 -11.761640640000001 -2.0278240000000003 3.826595 0.660321
2000 -3.32847414 12.89672631 -8.35742349 -0.7463 0.286564 0.644967
2020 -3.72679938 5.307965370000001 -7.31363949 -1.012758 -2.07064 1.078756
2040 -7.1995786200000005 5.70164067 -6.983425080000001 -1.5269549999999998 -1.835503 1.064181
2060 -6.224955120000001 9.39521358 1.58041062 -1.62621 -0.683485 1.036374
2080 -7.74085518 18.62980803 11.452978800000002 -1.746862 -0.074351 1.1917799999999998
2100 -7.96194315 15.29818488 -6.471637380000001 -1.617327 0.355082 1.047924
2120 -2.32990443 0.52929855 8.148607830000001 -1.361097 -0.017002 0.635721
2140 -0.8854113600000001 1.79641701 1.4266879200000002 -0.906645 -0.128011 0.297206
2160 1.93322727 6.67087848 2.22048369 -0.799312 -0.263617 0.017187
2180 1.1343401100000001 9.39850974 6.522090210000001 -1.002062 -0.196215 -0.145617
2200 2.0989377900000004 14.97081537 5.1105195000000005 -1.0902969999999998 -0.381193 -0.164156
2220 4.104317610000002 19.13829957 2.1582098100000007 -1.193843 -0.202745 -0.211041
2240 2.41732134 14.793587910000001 -3.78248094 -1.234785 0.22960300000000006 -0.403093
2260 0.5653699200000001 10.266547590000002 -4.4779412700000005 -0.8896440000000001 0.21732 -0.29491300000000004
2280 0.73617183 8.057443500000002 -0.09999333 -0.491939 0.21466 -0.240857
2300 -0.6792836400000001 6.92999001 1.3620204000000002 -0.275439 0.633778 -0.278337
2320 -1.7973097200000003 6.63210936 -0.3634408800000001 -0.119873 0.629876 -0.23665300000000006
2340 -1.39509972 7.66870263 -1.4135130900000004 0.18247 -0.390946 -0.160594
2360 -2.0284333200000004 9.327406860000002 -2.6270395200000003 0.787293 -1.167343 -0.199172
2380 -1.81512468 9.26482887 -1.4049783900000001 1.414433 -1.200351 0.05201
2400 -0.8692444800000001 8.737629660000001 -1.3362691500000001 1.851747 -1.228276 0.528323
2420 -0.46268865000000003 9.05466924 -1.07251749 2.506357 -2.71922 -0.148856
2440 -0.15612615000000002 9.639649350000001 -1.76528007 2.986396 -2.689547 -1.057802
2460 0.10403505 8.9654571 -1.0880859600000001 2.346796 -2.020976 -1.462642
2480 0.06316659000000001 9.47813751 0.08262963000000001 2.4039040000000003 -1.172305 -1.689793
2500 0.5644772100000001 9.66300696 -0.4864877100000001 2.778635 0.473704 -1.521574
2520 0.90277506 10.1888622 -0.78841008 3.268118 1.013764 -1.404547
2540 1.0904796 12.220287569999998 0.42301701 3.096687 -0.26224200000000003 -1.570752
2560 1.1247655500000002 14.200220250000001 1.0496209500000002 2.867196 -3.297671 -1.257613
2580 -0.13472073 13.50596655 -0.6011469899999999 3.650811 -3.616734 -0.735779
2600 -0.02544714 13.09087602 -0.73766295 4.130934 -1.787634 -0.092768
2620 1.9347282000000001 13.17769452 -0.15507648000000004 3.272513 -1.718055 0.832636
2640 4.5375174000000005 15.750102150000002 1.4106681900000002 2.144964 -2.972652 1.202382
2660 5.323680990000001 16.55931924 1.5375997800000003 1.726692 -3.563068 1.095531
2680 1.55512044 12.10517703 0.8108651700000001 1.7090869999999998 -3.365403 0.6977760000000001
2700 -0.9638423100000001 8.23213017 2.23440408 1.463638 -2.911886 0.450858
2720 -1.7351927999999999 9.09149598 1.9535830200000002 0.6340359999999999 -2.182046 0.605429
2740 -1.65330873 13.408366860000001 4.73360949 -0.026077 -1.1867219999999998 0.821733
2760 -2.5770379500000002 15.133975290000002 5.188656149999999 -0.415974 -0.569682 0.8321059999999999
2780 -2.49516369 13.378878 2.24114355 -0.76673 -0.339173 0.767403
2800 -2.5481475 12.20366943 0.35116857000000007 -1.248839 -0.644969 0.668288
2820 -0.46418958 9.6941439 0.66461769 -1.815114 -1.218584 0.750525
2840 1.27355382 10.446178500000002 1.9507479300000001 -1.722055 -1.466859 0.6863319999999999
2860 2.58736788 10.102494960000001 0.35176698 -0.6389819999999999 -1.096251 0.307794
2880 2.25251334 8.808428430000001 -1.69073388 0.3753260000000001 -0.69602 0.30582
2900 0.85920885 7.2706815 0.21001248 0.086647 -0.12592 0.777364
2920 1.35138636 4.941973889999999 2.5563879 0.113804 -1.143491 1.07796
2940 -1.0773145800000001 3.7335388500000004 2.88524853 0.217026 -1.426314 0.853648
2960 -4.40324793 4.02258069 0.77688333 -1.601544 1.621967 0.700307
2980 -5.44971987 4.39964766 0.27168795 -1.7878 3.392413 -0.7239979999999999
3000 -4.771024830000001 4.830600960000001 -0.16765290000000002 1.587911 -1.750118 -3.269312
3020 -4.140693090000001 5.17518702 -1.3564777500000003 -0.912526 0.7248680000000001 -0.393999
3040 -3.8886153300000004 4.44156579 -2.3893334100000003 -1.872248 0.531825 0.493646
3060 -3.25901934 4.806203490000001 -3.6730602 -1.972103 0.542215 0.645691
3080 -2.32825635 6.474040830000001 -4.942866600000001 -1.649314 0.318918 0.529659
3100 -3.459751560000001 11.179946880000001 -7.74594657 -0.47988 -0.477057 0.900975
3120 -5.89593753 17.66431764 -10.59003234 -0.241068 -1.903999 1.892577
3140 -6.06658248 18.37863279 -11.020828680000001 -0.766401 -1.95242 1.935971
3160 -4.32870174 10.177188300000001 -6.4417070700000005 -1.699631 -0.638058 1.99293
3180 -2.2267719 2.9168367300000004 -4.183945379999999 -1.976996 0.982318 1.944051
3200 -1.3135197600000001 4.53227886 1.24690986 -2.067264 0.878916 1.507718
3220 -2.1713846400000003 8.159379209999999 9.27247086 -1.753237 -0.6516 0.366739
3240 -6.558308730000001 20.43400437 -3.3260805 -1.305114 -1.3119040000000002 -0.062983
3260 -7.10288145 20.010987360000005 -4.75171875 -1.054806 -1.406399 0.173896
3280 -2.59155675 2.3126878800000004 9.938883780000001 -0.94655 -1.429671 0.039017
3300 1.5705319500000001 3.42622098 5.00289399 -1.314805 -0.979964 0.051892
3320 3.60944235 8.69572134 5.29314246 -1.403211 -0.986954 0.011759
3340 5.49985878 18.34270857 5.67245592 -0.843894 -1.260166 -0.081192
3360 4.26552534 17.23725891 2.27332035 -0.803623 -0.100464 -0.286427
3380 2.94362784 9.98528508 -0.03532581 -0.913696 1.161804 -0.170241
3400 0.90411903 8.503670970000002 -1.8226097100000003 -0.94046 0.495832 -0.103344
3420 -0.9955776600000001 8.45696556 -0.20627487000000003 -0.467714 -0.796514 -0.471196
3440 -1.50197967 7.663611240000001 0.9455859000000001 -0.266197 -1.27668 -0.447808
3460 -3.0505077900000006 8.26236459 -1.7232147899999999 -0.217852 -1.019787 -0.264066
3480 -4.46161743 8.192164230000001 -0.92717253 -0.043777 -0.484648 -0.241103
3500 -4.34531007 7.172189100000001 -0.08412075 0.377042 -0.950197 -0.33370700000000003
3520 -0.9190890899999999 9.04134726 -0.04146687000000001 1.120771 -1.905029 -0.359335
3540 0.70039476 9.70207038 -0.24399432 1.929999 -2.025983 -0.11745
3560 0.004492980000000001 10.01462679 -0.5516064900000001 2.303787 -1.887002 -0.298752
3580 0.00194238 10.10788065 -1.4705386200000001 2.233529 -1.337345 -0.497568
3600 0.23980545000000003 9.61869519 -1.43341758 2.226957 -1.317643 -1.155664
3620 0.5553441 9.4282929 1.27190574 2.649738 -1.035888 -1.651931
3640 0.70323966 10.830132090000001 1.5399934199999998 3.08748 0.438078 -1.671059
3660 0.03742515 12.115801260000001 -1.15320474 3.205741 0.960268 -1.824726
3680 -0.11840670000000002 12.33090513 0.5290042500000001 3.025575 0.8039890000000001 -2.013791
3700 0.34263387 13.05300942 -0.17064495 2.47492 -1.860061 -1.322016
3720 1.97768619 12.74344506 0.11511054 3.063854 -3.205516 -0.764975
3740 2.5454595600000007 12.98130813 -0.31449879 3.897341 -2.467827 -0.551796
3760 2.34697383 12.62459691 -1.25184429 3.963098000000001 -1.573135 -0.041873
3780 2.9822498100000003 12.147693570000001 -1.6780103100000001 3.23435 -1.7051900000000002 0.313197
3800 3.98426283 13.495783770000001 0.36867942 2.07628 -2.221394 0.138059
3820 3.46768785 13.99125744 1.8176654700000001 1.444929 -2.154368 -0.091832
3840 0.47062494000000005 10.497072779999998 3.4377477300000003 1.189415 -1.946104 -0.004153
3860 -2.2439884500000002 9.6796251 2.6177592600000006 0.6723600000000001 -1.207846 0.171819
3880 -2.94033168 11.224258650000001 4.03755075 0.015944 -0.251239 0.4768600000000001
3900 -3.2971900500000006 13.33592001 5.01786405 -0.598787 0.300205 0.8350549999999999
3920 -4.02558255 15.574208850000002 3.92678604 -1.109992 0.560718 1.131321
3940 -4.27465845 12.504100680000002 2.553543 -1.518806 0.606525 1.219206
3960 -4.88703789 10.15862778 1.82665143 -1.448554 0.130916 1.016275
3980 -1.38027681 8.816668830000001 1.6001679600000003 -0.6793859999999999 -0.599548 0.537611
4000 0.8952900300000001 9.80071974 1.29495924 0.479363 -0.8242729999999999 0.054611
4020 2.25430857 10.5011145 1.0090467900000002 0.701761 -0.26239 0.273362
4040 2.5921551600000003 8.62311753 -0.38185425 -0.017961 -0.114042 0.561905
4060 1.2713073300000002 5.332509990000001 0.27647523 -0.00685 -1.350162 0.652229
4080 -1.06518942 3.13373583 1.3371716699999998 -0.07761 -1.302589 0.538443
4100 -3.46739355 2.05986456 1.1407754700000001 -0.8745649999999999 1.621946 0.6081770000000001
4120 -3.5856432899999997 3.29314833 0.35251254000000004 1.028167 0.667329 -0.208386
4140 -3.55390794 3.8555360100000002 -0.42421383 -0.124112 0.816653 -0.055325
4160 -2.95500744 3.9564220500000005 -1.0181799 -2.006228 -0.264858 0.307861
4180 -2.9268625500000005 3.69626085 -2.0381648400000003 -2.7085790000000003 2.617548 0.175347
4200 -3.25901934 3.9972905100000005 -2.9446775100000004 -2.986702 4.4131589999999985 -0.0051530000000000005
4220 -3.4142527800000004 7.01575884 -5.63457951 -3.375886 4.448668 -0.022872
4240 -4.50892125 12.977266410000002 -9.921372930000002 -2.163168 4.170529 0.016934
4260 -7.24552866 19.964281950000004 -12.47670135 -0.996038 0.921398 0.346512
4280 -6.33557268 17.14968504 -11.48007402 -1.162278 -1.315261 0.917579
4300 -5.00334525 10.293495660000001 -8.26940817 -1.677275 -1.38937 1.24843
4320 -6.61249917 5.86689993 -5.495375610000001 -1.7209450000000002 -0.8281 1.318977
4340 -4.659514560000001 8.780440500000001 -3.62651175 -1.550089 -0.28341900000000003 1.355792
4360 0.5285529900000001 15.275131380000001 0.17109621 -1.367448 0.125349 1.006167
4380 -4.225559400000001 20.283872130000002 6.01508979 -1.435602 -0.686812 0.638195
4400 -6.7538024100000005 2.77522938 10.174196250000001 -1.009632 -0.4240680000000001 0.364164
4420 -7.27023024 -2.9401845300000002 2.0073222 -0.8594620000000001 0.539084 0.198404
4440 -0.01542132 6.07182102 -6.12795384 -1.228303 1.39866 0.27698
4460 0.29249496 9.37170882 9.22157658 -1.711224 1.2724030000000002 0.30154200000000003
4480 1.4925424500000002 8.652312089999999 7.017112620000001 -1.848235 0.144959 -0.0163
4500 3.50212095 15.341751090000002 4.41731547 -1.465648 -0.181418 -0.24715
4520 5.478610320000001 19.47210444 -0.69575463 -1.187569 -0.16161 -0.379829
4540 3.3916505400000005 13.937812560000001 -3.58654581 -1.008527 -0.708605 -0.407788
4560 0.9330094800000001 10.88895285 -1.5766730100000002 -0.7447560000000001 -0.484475 -0.475667
4580 0.22617936000000002 8.24380407 0.06960195000000002 -0.59355 0.668675 -0.20476
4600 -0.15582204 7.1756324099999995 0.7731457200000001 -0.259321 1.650047 0.240697
4620 -1.4147099099999998 7.309744920000001 0.02080701 -0.144262 1.441761 0.546211
4640 -2.86549119 6.915167100000001 -1.90404252 -0.269782 0.763706 0.257783
4660 -3.5375939100000005 7.8439877099999995 -1.60630902 0.013671 0.086886 0.370657
4680 -1.36456119 8.75858382 0.0022464900000000003 1.001097 -1.404091 -0.054233
4700 -0.1360647 8.885368260000002 0.74904255 1.7103580000000005 -2.370876 -0.257412
4720 -0.02634966 8.79870672 0.6649218 2.2339330000000004 -2.562852 -0.388104
4740 -0.20477394000000002 8.86606218 -0.74978811 2.751697 -2.571789 -0.466729
4760 -0.5545985400000001 8.742122640000002 0.10164141000000002 2.518721 -1.0326879999999998 -0.741657
4780 -0.81206199 9.2256183 1.17669969 2.527839 0.113031 -1.152191
4800 -0.7553307600000001 10.34244756 -0.8051753700000001 2.829975 1.5033299999999998 -1.708406
4820 0.14594337000000002 11.28593412 -1.3178557800000001 3.184136 1.673616 -2.241329
4840 2.21240025 13.755346560000001 -1.3108220099999999 3.29224 1.151973 -1.888461
4860 3.2635123200000002 13.49069238 0.5438173500000001 3.033131 0.5201279999999999 -1.363896
4880 3.7351869300000002 13.58215101 0.9204330600000001 2.882207 -1.974178 -1.37564
4900 4.815787860000001 13.611345570000001 -0.42901092 3.557858 -4.36549 -1.220442
4920 3.84685416 12.7310256 0.54321894 4.147597 -1.690769 -0.620478
4940 -0.3469797 11.320955820000002 -1.80524601 3.3380650000000003 -0.903665 0.114205
4960 1.10231046 12.02089932 0.43185582000000006 2.106518 -2.01863 0.021574
4980 2.1791639700000003 12.641058090000001 1.2819315599999999 1.826768 -2.552496 -0.227524
5000 -0.41523768 11.657154330000001 2.3944248 1.282918 -2.299976 -0.035093
5020 -2.7081682199999997 11.50447149 3.2784823800000003 0.442671 -1.417293 0.267691
5040 -2.8358551800000003 11.097170100000001 3.4236801900000002 -0.173406 -0.551192 0.527197
5060 -3.2873113800000002 12.85062912 3.98067237 -0.681554 0.139731 0.811182
5080 -4.51131489 15.25028265 4.67777097 -1.210375 0.7985369999999999 1.152748
5100 -5.009780610000001 14.178069270000002 2.7442395900000003 -1.6845279999999998 1.432979 1.412474
5120 -7.279510500000001 10.434200490000002 2.5246525500000003 -1.621372 1.302443 1.234689
5140 -5.4890874 8.76666726 2.2469805000000003 -0.704752 0.055175 0.664782
5160 -1.1728149300000001 9.23549697 -0.7735871700000001 -0.193561 -1.288198 0.237444
5180 2.1612018600000003 10.540629180000002 1.40572395 0.25757 -0.631354 0.220525
5200 3.95447967 10.45036737 3.30079032 0.085977 0.047162 0.3851
5220 2.6102742300000004 7.19209359 -1.2549933 0.212398 -0.712158 0.220313
5240 0.060321690000000004 4.16523771 -0.71101899 -0.55862 -0.640318 -0.026582
5260 -2.6200057500000002 2.07019449 1.9248495300000001 -0.734119 1.870859 -0.487157
5280 -3.9365175600000004 2.36298375 0.54352305 1.821784 0.982197 -1.04821
5300 -2.8538172900000003 3.2729397300000005 0.13921371000000002 -0.07281 1.151507 -0.45491
5320 -2.5536901500000004 3.7402685100000004 0.02410317 -2.4289110000000003 0.661087 0.086873
5340 -2.9553017400000003 3.7053939600000003 -0.76715181 -3.547075 4.761933 0.638897
5360 -2.9556058500000004 3.5814544200000005 -2.27407572 -3.728037 5.223294 0.771637
5380 -3.40841583 4.519849590000001 -4.39351641 -3.194653 5.272315 0.8372569999999999
5400 -5.4067520700000005 6.98791806 -8.41116267 -1.202872 2.773884 0.266849
5420 -7.5368268 12.885356520000002 -13.7460663 -0.8280299999999999 -0.812602 0.400114
5440 -6.702309720000001 19.051029810000003 -13.7782431 -1.311101 -1.737383 0.848714
5460 -5.0213073600000016 17.21764872 -11.124265320000001 -1.5129709999999998 -1.036732 1.364494
5480 -4.466561670000001 9.04149441 -7.83320652 -1.604221 -0.296556 1.757082
5500 -7.899070860000001 6.139627740000001 -6.237080280000001 -1.801773 0.5873510000000001 1.73
5520 -9.242226630000001 11.374096590000002 1.3787856900000002 -1.650739 0.014531 1.258567
5540 -5.53758804 24.59370924 9.796530870000002 -0.934228 0.854605 1.011463
5560 -1.53551025 11.849204700000001 2.24428275 -1.678905 2.679133 0.930216
5580 -3.74176944 -3.9959367300000004 10.661733630000002 -1.886761 2.155886 0.361141
5600 -1.6902826200000003 -0.5652227700000001 -5.01187995 -1.138957 1.350252 0.051203
5620 0.93331359 9.876609900000002 6.927890669999999 -0.88961 0.041442 -0.001994
5640 0.02664396 10.9554156 8.76472488 -1.252813 -1.6895639999999998 0.029734
5660 1.28372679 15.939601920000001 5.49057852 -0.966366 -0.489583 -0.072352
5680 4.97280672 19.4147748 0.2137599 -0.8991889999999999 1.187786 -0.286609
5700 4.5523305 15.115120469999999 -2.99422782 -0.804713 1.159447 -0.207932
5720 1.42982712 11.541749490000003 -1.344951 -0.5693630000000001 0.855857 -0.415271
5740 0.8535288600000001 8.669371680000001 -0.28126251 -0.5410010000000001 0.561574 -0.373035
5760 -0.7202992500000001 8.62565832 -1.11652515 -0.405425 0.420171 -0.293927
5780 -2.23215759 9.103473990000001 -1.20993597 -0.013541999999999998 0.506111 -0.280617
5800 -1.2094847100000001 8.26102062 -3.1623221700000004 0.498615 0.705968 -0.08822100000000001
5820 -0.51223896 7.14898845 -1.4094713700000001 0.986907 -1.918696 -0.022694
5840 -0.3469797 6.408774899999999 -0.36374499000000005 2.123955 -2.619843 -0.426187
5860 -2.07394191 9.11799279 -2.42959365 3.0065 -0.667195 -0.6575340000000001
5880 -2.46192741 8.9828208 0.8376562800000001 3.351287 -0.065798 -0.5693699999999999
5900 -0.038170710000000004 9.517505040000001 0.41045040000000005 3.4239370000000005 0.263903 -0.498782
5920 2.6791306200000005 9.16020522 -1.84341672 3.1246720000000003 0.8654 -1.207738
5940 2.34502164 9.56211111 -0.98225568 2.861212 1.397061 -2.59788
5960 -1.22430762 10.798543890000001 -0.43693740000000003 3.057943 0.46563 -2.673293
5980 -0.9777627 11.351043090000001 0.31883481 3.785141 -0.868692 -1.291702
6000 0.7455992400000001 12.609774000000002 2.04340338 4.350975 -1.728123 -1.04523
6020 0.4980144600000001 13.90907907 0.89514288 5.427034 -1.178292 -0.151794
6040 2.11525182 14.037953040000001 0.16690734 4.892727 -0.303266 0.202275
6060 4.82551938 16.151262480000003 0.60668964 3.703205 -1.110532 -0.151103
6080 5.7925008899999995 16.04528505 2.2936761 4.151652 -2.1417900000000003 -0.787582
6100 -1.05156333 14.267732670000001 1.7504571599999998 4.055639 -2.223148 -0.8714700000000001
6120 -2.6318268000000002 11.52572976 -0.18935262 3.119459 -1.889545 -0.901938
6140 -0.19339434 11.19701628 -1.894311 2.807748 -1.98093 -0.955272
6160 -0.40416219000000003 12.626696250000002 -1.4846159700000001 2.51877 -2.140957 -0.912221
6180 -0.2633004 14.632223220000002 1.28582613 2.142635 -2.142299 -0.783455
6200 -0.32811507000000006 15.78122928 2.8455867 1.559233 -1.381707 -0.5406770000000001
6220 -2.4677643600000003 17.84783331 4.18903677 0.8210120000000001 -0.546415 -0.196527
6240 -5.592524040000001 16.11967428 4.38797376 -0.112347 0.000102 0.071854
6260 -8.920399770000001 12.83850396 4.43707281 -0.992266 0.5337850000000001 0.306442
6280 -5.48743932 12.44840931 2.18006649 -1.476864 0.818442 0.403105
6300 -1.28792547 13.995897570000002 0.38469915000000005 -1.724755 0.883691 0.550841
6320 1.99400022 15.27618105 -1.72336194 -1.901451 0.8265309999999999 0.8786930000000001
6340 0.7670046600000001 10.138115070000001 -3.5093018700000003 -2.277849 0.556739 1.273788
6360 -0.24324876 4.76458947 -0.048353490000000006 -2.945733 0.8296030000000001 1.547579
6380 -2.4667245 3.0680186400000005 2.17572066 -3.937909 2.211836 1.732225
6400 -1.4861070900000002 0.85936581 -0.05972328000000001 -2.952658 4.429632 1.704219
6420 1.0336012199999998 2.28619107 0.6026479200000002 -1.223223 -2.695314 0.03657
6440 -1.4311710900000003 2.7677443500000005 -0.23696055000000005 -2.028482 0.8777280000000001 0.706824
6460 -3.0353905800000005 2.2119489900000002 -0.44891541000000007 -1.863187 0.526224 1.08658
6480 -3.56199138 1.31770863 -1.35393696 -3.518935 2.434816 1.551132
6500 -4.4501004900000005 2.09055024 -2.7635554800000004 -4.227572 2.481204 0.689409
6520 -4.35699378 2.2676305500000007 -3.99893859 -3.072589 3.406414 -0.181788
6540 -5.22742527 1.54807686 -4.4279397000000005 -2.61612 1.845448 -0.75878
6560 -5.636531700000001 1.02013209 -5.20542144 -2.914042 0.7389979999999999 -0.859856
6580 -6.233941080000001 2.4498022500000003 -5.441783580000001 -2.563295 0.632836 -0.190699
6600 -4.716687240000001 4.20895107 -6.514752330000001 -1.979956 1.280983 0.519708
6620 -3.67470828 5.310359010000001 -9.414823770000002 -2.090855 0.464039 1.117116
6640 -2.77343415 5.35915395 -9.6887484 -1.94535 -0.825519 1.400727
6660 -2.3297572800000004 4.61849895 -4.32555273 -1.599766 -0.784467 1.224695
6680 -3.61183599 4.91832198 -1.6118516699999998 -1.4711040000000002 0.1384 1.294914
6700 -11.423489940000001 18.98816733 -23.8683186 -2.17926 2.0692310000000003 1.504342
6720 -5.67334863 35.63714016 -0.7461976499999999 -2.112184 1.381235 0.605182
6740 -4.39591005 2.09354229 10.04440995 -1.324399 0.321274 -0.07375599999999999
6760 -1.6049650500000001 -3.1880734200000003 -12.91709187 -0.774674 -0.613744 -0.357138
6780 -2.3596974 5.972426100000001 3.33551772 -0.66757 -0.887267 -0.247081
6800 -2.52779175 9.10556352 2.6617669200000003 -0.6990460000000001 -0.476185 -0.191212
6820 -3.6922191300000002 11.433672720000002 -0.5891787900000001 -0.559743 -0.478139 -0.089823
6840 -2.4628299300000003 10.52625753 -0.16495515000000002 -0.361059 -0.599458 -0.026323000000000003
6860 -0.49067658000000003 11.75370435 0.9952833600000001 -0.34683400000000003 0.207907 -0.010167
6880 1.32070068 14.36083938 0.79185339 -0.355522 0.5227 -0.136681
6900 3.31455375 13.87808928 -2.0657015100000002 -0.264954 0.376923 -0.256571
6920 2.13246837 10.325682270000001 -3.4376005800000002 -0.20613 0.025765 -0.403124
6940 2.5975506600000005 8.5026213 -2.3870869200000002 0.136599 -0.833219 -0.606865
6960 2.485883430000001 6.94061424 -1.3843185300000003 0.795976 -1.4040629999999998 -0.947631
6980 0.31718673000000003 5.9242295700000005 -1.19735955 1.750822 -1.117742 -0.650772
7000 -3.93142617 5.50001574 -2.30730219 2.233955 -1.219195 -0.474216
7020 -6.151605750000001 6.702613830000001 -2.6698503600000003 2.72551 -1.489586 -0.680875
7040 -2.61356058 8.51579613 -1.1308968 3.633059 -1.565655 -1.624088
7060 0.33036156 10.72190817 -0.8006823900000002 4.748627 -1.011389 -2.404285
7080 2.24383149 11.25150102 -0.5989005000000001 4.50185 1.872847 -2.05826
7100 2.26059678 11.992607280000001 -0.64290816 3.117476 2.050154 -1.509477
7120 1.2433194000000003 11.746072170000001 -0.7634142 1.374397 -1.531121 -1.1100709999999998
7140 1.17356049 11.98482795 -0.8918467200000001 2.644592 0.938499 -0.424974
7160 0.06780672000000001 12.290193630000001 0.47780586 3.658885 -0.580719 -0.205503
7180 -1.42982712 12.3925806 1.2195105300000002 4.838697 -1.946858 -0.5811390000000001
7200 -2.0838205800000003 12.662914770000002 2.7463389300000003 5.808961 -2.2332110000000003 -1.206382
7220 -2.8150481700000003 12.384948420000002 2.47330701 4.817376 -2.485867 -1.36574
7240 -2.87955873 12.86948394 0.73617183 3.4588970000000003 -1.0835860000000002 -1.082197
7260 -0.07499745000000001 14.936539230000001 0.74021355 2.752958 -1.159235 -0.999437
7280 1.9782846 17.01586683 1.3421060999999999 2.304157 -1.356716 -1.041843
7300 0.0 15.65235531 0.18157329000000003 1.526733 -0.918812 -0.919648
7320 -3.13418709 12.92501835 -2.25550539 0.564008 -0.493648 -0.648111
7340 -3.69701622 13.01259222 -3.15887886 -0.317211 -0.145734 -0.309677
7360 -4.74438087 14.356346400000001 -3.04452369 -1.02139 0.390258 -0.005497999999999999
7380 -8.78792553 12.31054938 0.83107377 -1.614027 1.067499 0.309961
7400 -5.492677860000001 10.614881070000001 -1.13852898 -1.91189 1.0907440000000002 0.615499
7420 -0.60758235 10.39737375 -0.25671789 -2.161824 0.246285 1.021827
7440 2.83241187 11.191473629999999 5.65628904 -2.497916 -0.020674 1.472748
7460 0.34428195 9.62363943 3.5419299300000002 -2.487526 1.791316 1.208784
7480 -1.53190998 8.1559359 2.9526138000000004 -2.726337 1.274637 0.88838
7500 -2.7351162900000006 5.82767955 -0.6942537000000001 -1.577828 1.290226 0.78956
7520 -2.7913962600000004 4.68764964 -2.5828749 -1.975908 0.977544 0.741247
7540 -1.39479561 1.4455427399999998 -2.5801869600000003 -2.43221 1.808907 1.024346
7560 -2.6297274600000002 0.6101329500000001 -1.9956483 -3.196652 2.703048 1.326576
7580 -2.92791222 3.4311652200000005 -2.38888215 -3.358643 3.255053 0.886767
7600 -3.64132485 2.8428889500000003 -3.3262374599999998 -3.446599 2.554568 0.048496
7620 -5.18087682 2.06914482 -3.97258893 -3.505669 1.975334 0.030666
7640 -5.924680830000001 2.4927700500000003 -4.15595745 -3.361623 2.259196 0.313319
7660 -5.84683848 1.9835231400000002 -3.7985006700000006 -3.205089 2.590371 0.475289
7680 -5.57994762 1.42473573 -4.124222100000002 -2.922402 2.265858 0.397563
7700 -5.28416631 1.7163281700000002 -5.72260464 -2.034107 1.178486 0.358159
7720 -4.88269206 2.23036236 -8.73418635 -1.136878 -0.8967629999999999 0.668324
7740 -3.3082655400000003 3.60061335 -10.03962267 -0.991636 -2.701985 0.969686
7760 -2.4532455600000005 5.366040570000001 -5.84369928 -1.222517 -2.998541 1.005841
7780 -8.50052196 9.59369931 -7.304064930000001 -1.250578 -0.912609 1.265755
7800 -10.38794634 17.65982466 -12.19454613 -1.912141 1.175729 1.47317
7820 -5.8586693400000005 15.227082000000001 0.24713352 -2.34816 1.616473 1.122388
7840 -2.5700041800000006 6.29096661 -2.4900723 -1.544633 1.028042 0.26029
7860 -1.5874443900000004 4.815787860000001 -2.14668306 -0.972485 0.444998 -0.150505
7880 -2.5215035400000003 8.220152160000001 -0.95561172 -0.94259 -1.194634 -0.13324
7900 -2.56371597 11.72466675 -1.0389869100000002 -0.903664 -1.631223 -0.210389
7920 -1.42473573 11.20899429 -0.67434921 -0.5755600000000001 -1.221355 -0.162689
7940 -0.5843817000000001 11.5016364 0.18965673000000005 -0.205357 -0.946895 -0.121998
7960 -0.30701375999999997 12.028237200000001 0.7396151400000001 -0.134962 -0.120962 -0.002924
7980 1.10410569 12.166695540000001 0.8818209 -0.150282 0.22760100000000005 -0.04407
8000 2.8331574300000004 13.02995592 0.0 -0.040156 0.557184 -0.242413
8020 2.2526703000000006 11.622426930000001 -0.6560829899999999 -0.136514 0.318491 -0.407286
8040 2.24174196 9.02204118 -2.31942735 -0.099514 0.138749 -0.511483
8060 2.5921551600000003 6.3914112 -2.241585 0.245129 -0.724683 -0.670339
8080 1.8815874300000002 4.5613164600000005 -0.10044459 0.7327859999999999 -1.1791280000000002 -0.667419
8100 0.15747012000000002 4.82791302 0.0577809 1.052646 -1.1039219999999998 -0.30529
8120 -3.2319339300000003 7.90880238 -2.032170930000001 1.6129790000000002 -1.154481 -0.401724
8140 -4.67238528 8.554261140000001 -2.35490031 2.453518 -1.372092 -1.055735
8160 -3.46005567 8.86740615 0.03128409 3.322125 -1.875977 -2.071311
8180 -0.35715267000000006 9.06634314 -0.9154986300000001 4.235284 -2.199985 -3.086805
8200 2.2113505800000004 10.528209720000001 -0.6800390100000001 5.022149 -0.04288 -2.950545
8220 2.28424869 11.68335684 -0.14983794 4.453419 1.864152 -1.973129
8240 1.4651529300000001 12.127926420000001 -1.6510622400000001 2.514278 0.8830969999999999 -1.640382
8260 1.04557923 12.01745601 -0.9770171400000001 1.212748 0.201977 -0.677586
8280 0.8327218500000001 11.77751322 -0.45235872000000005 2.853822 0.558258 -0.355727
8300 0.38290392 11.424990870000002 1.28508057 4.160486 -1.4191200000000002 -0.366499
8320 -0.47316573 12.11385888 1.54194561 5.1845690000000015 -1.607407 -0.521474
8340 -1.6510622400000001 12.64270617 2.33918469 5.169775 -2.593635 -0.8290299999999999
8360 -2.3155327800000003 14.018646960000002 2.45804265 3.765668 -1.7012080000000005 -0.875232
8380 -0.5902186500000001 14.83580034 1.8845794800000002 2.836379 -0.922739 -0.8068770000000001
8400 1.5070612500000002 16.246017269999996 2.7442395900000003 2.551173 -0.8244459999999999 -0.631671
8420 1.6640899200000001 16.17670962 2.04998589 2.182189 -1.160312 -0.768414
8440 -1.22460192 12.54945231 0.77239035 1.477295 -0.960233 -0.642202
8460 -2.5653640500000003 11.57961609 -1.04752161 0.610612 -0.584188 -0.424411
8480 -2.9084491800000003 13.55476149 -1.9461078 -0.218769 -0.235895 -0.225552
8500 -4.4062399800000005 15.098051069999999 -2.04833781 -0.72521 0.257295 -0.04492
8520 -8.0719623 13.070520270000001 -0.84244356 -1.212155 0.832375 0.152836
8540 -5.16860451 11.211387929999999 -4.15445652 -1.814693 1.165727 0.428074
8560 -0.69231132 9.95923953 -2.07213687 -2.242931 0.94319 0.77254
8580 2.90605554 12.156816870000002 2.6051828400000003 -2.475161 0.482149 1.183843
8600 1.75375332 10.47552021 4.50846999 -2.536821 0.999158 1.415622
8620 -1.2331366200000002 8.16761961 4.66639137 -2.204638 2.151953 0.8203969999999999
8640 -2.9057612400000004 5.55794379 0.90576711 -1.104091 -0.039107 0.8789620000000001
8660 -3.4684334100000003 3.2415084899999997 -3.4465865400000006 -1.691257 0.651921 0.939137
8680 -2.53243188 2.32301781 -2.76116184 -2.502302 0.744735 1.075426
8700 -0.95202126 2.31014709 -1.56978639 -2.743251 1.760884 1.580915
8720 -3.1711511700000004 3.2458543200000003 -1.8119854800000001 -3.446261 2.472763 1.322992
8740 -3.08119347 3.10963266 -2.5210620900000005 -3.01777 2.669843 0.418812
8760 -4.22032086 2.51372421 -3.57980634 -3.20043 1.516235 0.023772
8780 -5.383404270000001 1.8805377600000002 -3.6482114700000006 -3.556239 1.2964129999999998 0.159369
8800 -5.30706285 2.8747714500000003 -3.5956691100000002 -3.711506 2.285708 -0.1517
8820 -5.0488538400000005 2.95635141 -3.06308421 -3.651138 1.560763 -0.06489099999999999
8840 -4.94630991 2.2240741500000003 -3.74057262 -2.6021080000000003 0.398563 0.619042
8860 -5.28775677 2.06316072 -5.65314003 -1.54247 1.812142 1.042307
8880 -4.42779255 2.9591963100000003 -7.898629410000001 -1.200603 0.450754 1.003711
8900 -3.30887376 4.29981129 -10.119701700000002 -1.311741 -1.726172 1.241801
8920 -2.7598080600000006 5.90925951 -7.26409899 -1.123789 -1.57505 1.115802
8940 -7.82722242 11.8258569 -10.338700140000002 -1.080952 0.64995 1.168797
8960 -10.235567609999999 18.32968089 -13.4395038 -2.054549 1.378091 1.074538
8980 -5.25317652 16.96571811 -0.89678115 -1.661186 0.344193 0.346878
9000 -3.24614862 4.454740620000002 -2.9326995 -0.97621 0.195316 -0.045525
9020 -1.80359793 5.9899467600000005 -2.99736702 -0.920981 0.309382 -0.113652
9040 -2.40086016 8.855879400000001 0.66536325 -1.025998 0.335859 0.015903999999999998
9060 -2.1023811 10.249635150000001 0.10283823 -0.769159 -0.5381630000000001 -0.082663
9080 -2.01705372 9.723927060000001 -0.15313410000000002 -0.254916 -1.593086 -0.186678
9100 -0.44891541000000007 8.590636620000001 -0.03697389 0.047941 -1.814842 -0.138345
9120 0.24863445 8.03574378 0.46149183000000005 0.08254500000000001 -1.161188 -0.062029
9140 -0.13472073 9.88559586 -0.69336099 -0.125721 -0.512718 -0.07713300000000001
9160 -0.11855385 11.93094162 0.94767543 -0.324643 0.367741 -0.040127
9180 1.3154621400000002 10.50021198 1.4736876300000001 -0.358666 3.516776 0.235475
9200 2.0689976700000003 11.02412484 -2.8598013900000003 -0.085767 2.666091 0.147672
9220 2.2384458 8.26820154 -3.81706119 0.602726 -1.482877 -0.518387
9240 2.0719897200000004 7.45869015 -0.27677934 0.7469279999999999 -2.747395 -0.634332
9260 -0.06316659000000001 6.61340169 0.46478799 0.708511 -2.188339 -0.547722
9280 -3.5369955 8.06942151 -2.7981357300000003 1.353682 -1.507886 -0.509905
9300 -5.1421077 9.25645113 -3.54761973 2.237333 -1.2755 -1.047755
9320 -2.9861443800000003 9.72198468 -0.61761798 3.368467 -1.117214 -1.65108
9340 0.94078881 10.23107463 0.07873506000000001 4.4515449999999985 -1.111587 -2.397686
9360 2.30580126 10.315950749999999 1.2481066800000002 5.090099 -0.960743 -2.844209
9380 1.3777360200000002 10.314449820000002 1.60032492 4.419504 0.687083 -2.491014
9400 -0.13202298 11.355840180000001 0.52556094 2.685197 2.475561 -1.757664
9420 0.01616688 11.703114180000002 -1.61319564 1.103321 0.955864 -0.5009239999999999
9440 0.73048203 10.441391220000002 -3.1469106600000005 2.71383 1.067712 -0.03155
9460 1.53266535 10.657839059999999 -4.024532880000001 4.401592 -1.428455 -0.37228
9480 1.8895237200000001 10.76157 -3.5390948399999997 5.70883 -2.387413 -0.919532
9500 1.9369746900000002 10.820547720000002 3.65420538 5.3814199999999985 -2.379907 -1.180339
9520 -1.00261143 11.91791394 7.10797284 3.361676 -1.376096 -1.108139
9540 -5.15557683 13.0407273 4.87701207 2.941399 -0.957811 -1.184249
9560 -2.5144697700000003 15.49996677 3.4376005800000002 2.838566 -1.497763 -1.396852
9580 0.46882971 19.78630893 2.67748254 2.313593 -1.495997 -1.38343
9600 -1.74057849 16.512613830000003 0.9090632700000001 1.508184 -1.193915 -1.104227
9620 -4.159695060000001 12.267591390000002 -0.14041053 0.737398 -0.80452 -0.845191
9640 -4.5955926 11.415112200000001 -1.0681814699999999 -0.041085 -0.48533 -0.6053470000000001
9660 -4.35235365 13.87659816 -2.58976152 -0.69817 0.051695000000000005 -0.333955
9680 -3.962259 16.332982920000003 -4.60367604 -1.3727129999999998 0.933042 -0.106924
9700 -3.1591829700000003 15.38081451 -4.54904415 -1.707314 1.153129 0.022916
9720 -3.28895946 12.178820700000001 -1.58789565 -2.010401 1.190284 0.317717
9740 -1.71842751 12.018652830000002 0.10343664 -2.266603 0.963252 0.837511
9760 -0.016461180000000002 10.750945770000001 6.16851819 -2.352411 0.328037 1.2554
9780 -2.3932279800000003 7.72887717 5.90057766 -2.355383 1.331525 1.258367
9800 -3.7922124600000005 5.6079355500000005 2.4872274 -1.869507 1.076761 1.144582
9820 -3.0478100400000003 4.5870579000000005 -2.4266016 -0.859202 -0.266612 0.284896
9840 -1.6266647700000003 4.23454536 -4.826264940000001 -1.720702 0.312883 0.502463
9860 0.31689243 2.9503673100000007 -1.1599344 -2.650806 1.844782 1.033455
9880 -1.74297213 1.9730460600000002 -0.16750575 -3.075692 2.666803 0.962136
9900 -3.29075469 2.0121192900000002 -1.7911784700000002 -3.600345 3.256214 0.540041
9920 -4.06943325 1.33836849 -3.1741530300000003 -3.509578 3.259046 0.286435
9940 -4.69424196 2.55623094 -3.3901496100000004 -3.143314 2.127575 0.272283
9960 -5.03972073 2.5866223200000005 -3.5301088800000002 -2.916551 1.805089 0.534927
9980 -5.2474867199999995 2.04235371 -3.60450792 -3.115997 1.588332 0.302007
10000 -5.79041136 0.41822973 -4.098029400000001 -3.169159 1.888726 0.08547
10020 -6.1312500000000005 0.7544282400000001 -4.773722580000001 -2.73437 1.617382 0.165767
10040 -5.798190689999999 1.52188416 -4.764746430000001 -2.195598 0.855201 0.358514
10060 -4.9223637 2.32961013 -7.417076130000001 -1.875486 0.030166 0.475038
10080 -4.2858909 3.1135272300000003 -12.03242607 -1.516394 -1.853783 0.831406
10100 -3.77874333 4.00716918 -7.928559720000001 -1.018089 -2.794957 1.06576
10120 -5.8685480100000005 6.9250457700000005 -6.5912409 -0.706926 -1.491768 1.505303
10140 -11.44115775 17.943637770000002 -14.220576000000001 -1.73384 1.08738 1.833451
10160 -8.4653433 23.527028700000002 1.03225725 -2.309071 1.017914 1.323185
10180 -5.639219639999999 1.44824049 0.50879565 -1.5189 0.655981 0.5739350000000001
10200 -3.91375836 1.24122006 -4.06165392 -1.09146 0.436541 0.202256
10220 -1.2789395099999998 9.31048461 -1.14407163 -1.115995 -0.306807 0.169923
10240 -1.9576247400000002 11.88722826 -1.09961271 -0.827261 -0.7027439999999999 0.099808
10260 -2.7503806500000003 13.71956949 -1.2970487700000002 -0.6210289999999999 -0.044616 -0.025645
10280 -1.3001977800000002 11.02951053 -0.4858893000000001 -0.418229 -0.072826 -0.073331
10300 1.58415804 9.099275310000001 -1.55646441 -0.265231 -0.4334939999999999 -0.054708000000000014
10320 1.9507479300000001 8.03110365 -2.5960497300000003 -0.27455 -0.969858 -0.180136
10340 0.09939492000000001 8.09247501 -0.7006890600000001 -0.306424 -0.7564770000000001 -0.234043
10360 -0.56177946 10.172999429999999 -0.58753071 -0.325281 0.4115180000000001 -0.330744
10380 0.6243476400000001 11.897705339999998 -1.9293425100000001 -0.134392 0.4860020000000001 -0.474784
10400 1.5946351200000002 11.84472153 -2.6707430700000003 0.628888 -1.000041 -0.8734719999999999
10420 2.062111050000001 10.70842923 -2.97237114 1.423828 -1.548795 -0.729416
10440 2.95081857 9.63621585 -1.48282074 1.86648 -1.346715 -0.50012
10460 0.61118262 6.6366023400000005 1.0930302 2.360427 -0.8152020000000001 -0.912889
10480 -3.9302293500000003 6.7259616300000005 -4.357140930000001 3.3721400000000004 -0.88986 -1.7667130000000002
10500 -5.273983530000001 7.63682013 -4.05670968 4.713542 -0.9614 -2.620375
10520 -3.5533095300000004 8.59662072 -1.4162010300000003 5.056343 0.7832439999999999 -2.847748
10540 -0.60668964 9.61376076 -0.89079705 3.867214 1.547673 -1.708695
10560 0.6054928200000002 9.86089428 -0.7520346000000001 2.038465 0.517986 -1.298202
10580 2.0558228400000003 9.015752970000001 0.21749751 2.523752 0.644878 -0.419032
10600 1.9699068600000003 10.17090009 0.84095244 3.969298 0.385356 -0.17573
10620 0.4972689 11.83064418 0.69380244 4.9929120000000005 -1.463164 -0.4631770000000001
10640 -0.19578798 11.68560333 0.5953100400000001 5.20711 -2.01468 -0.722689
10660 0.004188870000000001 12.20067738 -0.19324719 4.224433 -1.633833 -0.8058850000000001
10680 0.08921214 12.67863039 0.41373675 3.531336 -1.242977 -0.978938
10700 -1.0093509 13.467942990000003 1.11728052 3.179604 -1.056945 -1.108751
10720 -2.47315986 13.54817898 0.96728562 2.789092 -1.153338 -1.4393
10740 -1.34869842 15.641426970000001 0.5174775 2.4148110000000003 -1.604693 -1.461632
10760 1.6088498100000002 17.48304846 1.65750741 1.842198 -1.408267 -1.33556
10780 0.5730119100000002 15.72869673 0.9755260200000001 1.216297 -1.0313450000000002 -1.279526
10800 -2.16599895 11.916569970000003 -0.66282246 0.561126 -0.6048680000000001 -1.069937
10820 -3.5375939100000005 11.701613250000001 -2.18575629 -0.081799 -0.256383 -0.814228
10840 -3.9380086800000003 13.548473280000001 -2.17677033 -0.667964 0.062388 -0.636065
10860 -6.69153834 14.64179778 0.33186249000000007 -1.1359290000000002 0.359329 -0.429274
10880 -7.706422080000001 14.133159090000001 -2.744838 -1.642538 0.920273 -0.142976
10900 -2.0181033900000003 13.25972574 0.45625329000000003 -2.089573 1.560324 0.022929
10920 2.05837344 13.53874176 4.35355047 -2.287038 1.711591 0.194408
10940 0.71955369 11.29206537 3.3949368900000003 -2.147751 1.504958 0.332378
10960 -2.88704376 8.45981046 0.34772526 -2.000423 1.129156 0.410801
10980 -4.08246093 5.826031469999999 -1.7788963500000001 -2.228634 0.404749 0.613097
11000 -3.0400307100000004 3.9175057800000004 -2.71744848 -3.046687 0.573548 1.20003
11020 -1.4937392700000003 4.58092665 -1.33881975 -2.4208830000000003 1.68257 1.7050439999999998
11040 -1.26187992 2.3713713000000007 -1.61199882 0.141652 -0.641011 0.604288
11060 -2.24473401 2.22632064 -1.9775390400000001 -1.1678309999999998 0.532803 0.437677
11080 -2.87103384 2.4757006500000003 -2.11869513 -2.364442 0.934382 1.215015
11100 -3.2921084700000005 2.1806649 -2.4757006500000003 -1.509439 1.963386 0.487937
11120 -4.030664129999999 2.35475316 -2.06330787 -2.340608 2.836865 0.421191
11140 -4.06734372 2.24069229 -2.35071144 -2.419146 2.845884 0.099096
11160 -4.38213681 1.67023098 -3.03180012 -2.485339 2.518441 0.25715
11180 -4.6419939 1.5962832 -3.37144194 -2.436507 2.750412 0.545614
11200 -4.7720745 1.72516698 -4.088150730000001 -2.679369 3.371011 0.604011
11220 -4.25026098 1.8818817300000001 -4.643946090000002 -3.159438 3.944368 0.6939270000000001
11240 -5.32038483 1.6031698200000002 -6.68180682 -3.441196 3.815816 0.5853010000000001
11260 -5.129080020000001 2.06720244 -7.913295360000001 -3.637848 3.4461190000000004 0.767067
11280 -5.17279338 3.38476392 -8.32434417 -3.653727 3.820602 0.6382899999999999
11300 -4.89706371 4.54828878 -10.60694478 -3.365303 4.0169440000000005 0.039712
11320 -5.05978218 4.22765874 -11.61943488 -3.352338 3.760282 -0.254698
11340 -3.43430442 2.91279501 -5.901627330000001 -3.031636 3.171314 -0.032717
11360 -3.75179526 4.9293974700000005 -6.2035497 -2.072617 3.19993 0.503783
11380 -10.9178433 17.76400686 -25.60231458 -1.34385 2.1242810000000003 0.60105
11400 -6.9467553 26.24866605 3.2415084899999997 -1.183533 0.005072999999999999 0.5557479999999999
11420 -5.69670624 -4.04278929 5.52515877 -1.12678 -0.779754 0.436441
11440 -6.60531825 1.9257422400000002 -6.75695142 -0.739107 -0.298211 0.357347
11460 -2.5608710699999997 9.548190720000001 1.35303444 -0.7620439999999999 0.460636 0.284643
11480 -5.18970582 10.615028220000001 -2.4340866300000004 -0.847706 1.313267 0.256247
11500 -5.125793669999999 10.19888802 -3.02895522 -0.868748 1.164111 0.278724
11520 -3.10185333 10.12299786 -3.63878406 -0.796458 0.724484 0.133445
11540 -2.6176023 10.033785720000001 -3.78053856 -0.732544 0.309429 -0.022605
11560 -2.1263273100000006 8.821152 -3.61632897 -0.753672 -0.018051 -0.160133
11580 -2.8319606100000003 8.0807913 -2.34202959 -0.650228 0.229716 -0.139432
11600 -1.4635048499999999 7.015013280000001 -1.50961185 -0.490334 1.1972969999999998 -0.089349
11620 -0.032785020000000005 7.23296205 0.07409493 -0.301888 2.400094 0.254394
11640 0.6704546400000001 7.6811319000000005 0.30686661000000004 -0.088406 3.42734 0.787611
11660 0.86056263 7.46378154 0.6707587500000001 -0.054427 3.460078 1.0954549999999998
11680 0.45130905 10.37282913 -0.08427771 -0.097685 1.946093 0.658053
11700 0.19010799 12.609626850000001 0.7289811 0.526137 1.824819 0.608087
11720 1.6628931 13.22021106 0.30895614000000005 1.089991 2.1106540000000003 0.300806
11740 2.1983327100000003 10.88536239 -2.030228550000001 2.057704 2.377781 0.325383
11760 1.68489693 8.77415229 -3.54507894 2.837206 0.512363 0.21251
11780 0.43319979 8.70230385 -1.54359369 2.921434 -1.126903 -0.706677
11800 0.2604555 8.215816140000001 -0.74739447 2.939725 -0.257569 -1.537672
11820 -0.16645608 7.66960515 0.7791298200000001 2.709391 0.995724 -1.736371
11840 -0.6650689500000001 8.50351401 -0.08712261 2.41406 1.3017610000000002 -0.758199
11860 -1.3359748500000002 8.6939163 0.22153923 2.117934 1.673171 -1.20726
11880 -1.0463247900000001 8.82579213 0.26839179 2.299786 0.576108 -1.93952
11900 -0.54831033 9.277856550000001 -0.29578131 2.086825 -1.2342110000000002 -2.183311
11920 -0.12020193000000001 9.96163317 -1.31980797 2.510248 0.789221 -1.071995
11940 0.61941321 10.679842890000002 -1.3503465000000001 1.980907 2.008726 -0.288908
11960 1.3349251800000002 12.23255988 -0.78302439 1.460512 0.90255 -0.265488
11980 3.1124775600000003 12.980856870000002 -0.44547210000000004 1.526367 0.239043 -0.628441
12000 4.86413154 12.15966177 -0.01257642 1.6555419999999998 -0.231249 -0.8801049999999999
12020 4.43437506 11.26242936 -2.2956282900000002 1.101006 -0.391328 -0.8602719999999999
12040 0.9060614100000001 11.156903190000001 -0.8815167900000002 0.297822 -0.137979 -0.6504260000000001
12060 -2.80950552 12.28345416 -0.5846858100000001 -0.105752 0.22804 -0.45823
12080 -1.53326376 14.01371253 2.3905302300000004 -0.5103810000000001 0.777518 -0.322892
12100 -1.74731796 14.556627359999998 2.67313671 -0.938402 1.491494 -0.27872600000000003
12120 -5.64969672 11.95234704 -0.52001829 -1.135822 1.833673 -0.164107
12140 -5.4777078 11.298500729999999 1.27250415 -1.393465 1.7652450000000002 0.121532
12160 -5.5362342600000005 12.024793890000002 3.2545361700000006 -1.59637 1.496498 0.371492
12180 -7.880510340000002 13.146410430000001 2.4313986900000004 -1.484932 1.333364 0.5775779999999999
12200 -12.826074690000002 12.56831694 3.17040561 -1.284412 1.326362 0.822542
12220 -8.32793463 10.70438751 3.36948975 -1.160464 1.385516 0.8404229999999999
12240 -3.82499748 8.68448889 2.22287733 -0.03002 1.282182 0.12847
12260 0.45745011 9.14447979 2.1838041 0.25409 0.630131 -0.357955
12280 3.74401593 11.431131930000001 1.13852898 -0.017686 -0.650774 -0.278096
12300 3.81032172 11.86957026 -1.6673860800000002 -0.181152 -1.337617 -0.201445
12320 0.9529139700000001 7.80207939 -0.73167885 -1.269682 1.038376 0.101964
12340 -1.66154913 4.866230879999999 1.5462816300000002 -1.380811 5.404689 -0.0048200000000000005
12360 -3.7649700900000003 3.62515797 0.6948521099999999 1.005855 2.231162 -1.521254
12380 -4.51415979 3.3471916200000003 -1.89131895 -0.461492 1.799007 -1.401695
12400 -3.76871751 4.1516214300000005 -2.8294198200000005 -0.5576399999999999 2.92049 -0.723346
12420 -2.4441222600000003 5.795797050000001 -3.44463435 -2.29794 2.2458400000000003 0.067597
12440 -1.60420968 6.29395866 -4.947810840000001 -4.57595 3.178547 0.562168
12460 -1.8194705100000002 5.6339811 -5.03044047 -3.85186 8.070419000000001 1.499924
12480 -2.5536901500000004 5.44627656 -3.85164144 -2.792074 6.702941 0.764529
12500 -2.7084723299999998 5.24659401 -3.92334273 -0.963898 3.447735 0.708831
12520 -2.2499725500000007 5.565723120000001 -4.538861370000001 -0.814753 1.698408 1.147949
12540 -2.31313914 6.76547631 -6.093677700000001 -1.607295 1.774399 0.946831
12560 -2.23634646 9.48547539 -7.74818325 -1.6199709999999998 1.886914 0.792774
12580 -2.22811587 14.0987358 -10.289905200000002 -1.051523 1.816745 0.5319159999999999
12600 -5.164562790000001 14.7554172 -14.03885556 -0.5297689999999999 1.04172 0.222496
12620 -7.43025096 9.014409 -10.97009136 -0.360223 0.035656 0.186513
12640 -6.445591830000001 4.92042132 -4.225559400000001 -0.472345 0.837858 0.537216
12660 -4.61235789 5.8962416399999995 -0.14923953 -0.608753 2.756218 1.237763
12680 -4.01061249 7.532490780000001 5.725292580000001 -1.253128 4.505189 1.316478
12700 -7.6092736499999996 18.09632061 8.268956910000002 -0.404461 3.191606 0.606244
12720 -9.5757372 30.053454930000004 -14.493607920000002 -0.283766 1.789098 0.120707
12740 -2.3915799 2.4941140200000005 14.94536823 -0.223562 0.744754 0.16199000000000002
12760 -1.21082868 0.21824307 6.025566870000001 -0.329033 0.6879609999999999 0.07052699999999999
12780 -0.6824326500000001 4.68480474 2.9645820000000005 -0.414586 0.736775 -0.07434299999999999
12800 0.38275677 9.677525760000002 3.89370672 -0.418547 0.604437 -0.276095
12820 1.7121393 16.15156659 5.46184503 -0.347774 0.580108 -0.380255
12840 3.2705460900000003 17.58917304 3.90882393 -0.536528 1.0347309999999998 -0.420612
12860 3.239262 14.7036204 0.04041720000000001 -0.567392 0.823875 -0.410943
12880 1.18523439 10.12464594 -1.0629429300000002 -0.282451 0.607684 -0.40654
12900 0.8747773200000001 8.8385157 -0.34383069000000005 -0.237667 1.133545 -0.349217
12920 1.11982131 8.61488694 0.42765714000000005 0.097903 1.279304 -0.327831
12940 0.93435345 8.904684150000001 -0.73916388 0.860225 1.219975 -0.271156
12960 1.78353648 10.429864470000002 -1.1485646100000002 1.403593 -0.039212 0.064334
12980 1.6048080900000001 11.156304780000001 -3.18642534 2.28559 -1.532726 -0.167942
13000 2.28843756 10.480307490000001 -1.12401018 3.121203 -1.394627 -0.794669
13020 2.45159748 8.403520680000002 0.21046374 3.755466 0.423345 -1.230539
13040 0.34623414 9.7203366 -1.4733835200000003 3.808188 2.776726 -1.588905
13060 -3.67336431 8.873095950000002 -2.8497755700000003 3.252284 3.672598 -1.63346
13080 -2.7366074100000004 8.352184950000002 -0.35640711 2.853485 1.085684 -1.182141
13100 2.00777346 9.4049451 0.96130152 1.916075 -3.070963 -0.917375
13120 3.8161684800000004 9.386227620000001 0.82059669 3.950604 -1.019299 -0.270201
13140 2.32586271 8.78418792 0.01542132 4.593333 0.656734 -0.11724
13160 1.1713140000000002 9.58651839 -0.26105391000000006 3.977742 -1.574508 0.022325
13180 0.7324244100000001 10.238853960000002 -0.5342427900000001 3.901994 -1.220087 -0.099368
13200 0.49876002 11.76343587 0.41793543000000005 4.441335 -2.1453740000000003 -0.675527
13220 0.02170953 13.19400855 0.02215098 4.017402 -2.142117 -0.58983
13240 -0.33365772000000005 13.87120266 -0.35655426000000007 3.002422 -1.42318 -0.744188
13260 0.11406087000000001 14.588215560000002 -0.79005816 2.670954 -1.574515 -0.972772
13280 1.5304188600000002 15.19086348 -0.73662309 2.494399 -1.774894 -1.059206
13300 3.14226072 16.20724815 1.41815322 2.129916 -1.606701 -0.979715
13320 1.84356387 16.82216838 3.14630244 1.344765 -1.194465 -0.8254940000000001
13340 -3.7949102100000003 13.48575795 -0.16780005000000003 0.571021 -0.988288 -0.566244
13360 -3.63399678 11.649227849999999 -2.12677857 -0.075267 -0.7502810000000001 -0.385192
13380 -1.20798378 11.5799202 -1.57876254 -0.579182 -0.257811 -0.29320300000000005
13400 -0.61192818 12.44916468 0.7994855700000001 -0.972324 0.13331500000000002 -0.261199
13420 -1.9935587700000001 15.617019690000001 2.8458810000000003 -1.326775 0.497083 -0.081475
13440 -3.8733411600000003 14.32850562 2.1195878400000003 -1.544968 0.47518 0.256723
13460 -3.9282771600000004 12.12613119 2.0713913100000005 -1.586453 0.217938 0.686188
13480 -0.51133644 11.770028190000001 -0.06331374000000001 -1.8787 0.14390999999999998 1.06987
13500 0.73077633 13.314661740000002 -0.21330864 -2.479433 0.953027 1.181073
13520 0.11406087000000001 11.772873090000001 -3.7314395100000004 -2.200542 1.436045 1.09374
13540 -0.72569475 9.09762723 0.61446897 -1.11352 -0.261513 1.093894
13560 -0.83915721 6.2026471800000005 1.18478313 -1.451186 0.550419 1.072335
13580 -3.42382734 3.09705624 1.22684841 -2.467863 0.812895 1.315929
13600 -1.4461411500000003 2.8877991300000003 -0.9918400500000001 -3.046952 2.006293 1.745122
13620 -1.2880726200000001 2.8134000900000005 -2.0209482900000006 -3.996814 3.245664 1.389726
13640 -1.75090842 4.4279397000000005 -1.92005244 -3.793292 3.895424 0.429984
13660 -1.9553880600000002 4.4499435300000005 -2.186649 -3.146219 2.858226 -0.491384
13680 -2.80426698 2.61281502 -3.0329969400000003 -2.876134 1.170031 -0.7917770000000001
13700 -3.2498960400000003 1.67576382 -3.10065651 -2.60183 0.870195 -0.639926
13720 -3.5235263700000004 2.71190583 -3.32518779 -2.334804 0.676762 -0.184887
13740 -4.25819727 2.2820022 -3.43865025 -2.183851 0.6536890000000001 0.391969
13760 -4.4480011500000005 1.9809823500000001 -3.59626752 -1.914826 0.509997 0.927075
13780 -4.50442827 2.05821648 -5.04316404 -1.85099 -0.6165149999999999 1.266522
13800 -4.70247255 3.3958394100000002 -6.55397271 -1.639359 -1.427185 1.082101
13820 -4.86338598 5.22682686 -8.75185416 -1.319517 -1.154975 0.930162
13840 -4.53871422 6.28797456 -10.973230560000001 -1.243196 0.13819800000000002 1.148023
13860 -4.24801449 5.616921510000001 -8.58869424 -2.012897 1.850023 1.300687
13880 -5.47576542 6.048924480000001 -5.29314246 -1.837735 1.15569 0.5603859999999999
13900 -8.68748094 13.258980180000002 -11.19043377 -1.163032 0.75161 0.061416
13920 -5.126990490000001 22.49791065 -13.289361750000001 -0.973624 0.543611 -0.035271
13940 -3.28491774 11.62512468 1.11728052 -0.841726 -0.032046 -0.047499
13960 -5.08387554 0.67449636 -1.36590516 -0.6163390000000001 -1.157873 -0.28483200000000003
13980 -2.241585 3.63039651 -1.53730548 -0.362398 -1.781219 -0.198938
14000 -1.5660389700000001 9.00511893 0.173637 -0.128526 -0.736118 -0.151642
14020 -3.1948030800000002 12.329855460000001 1.14302196 -0.201101 0.548441 -0.048041
14040 -3.39449544 11.34999342 -0.16675038 -0.3579 0.130137 0.000538
14060 -1.07356716 9.41123331 -0.38604312 -0.287841 -0.526967 -0.102816
14080 0.5851370700000001 9.804015900000001 0.6828839100000001 -0.126827 -0.649618 -0.20622
14100 1.0115973900000002 12.936397950000002 -0.55235205 0.037501 -0.552661 -0.352611
14120 1.97903016 12.84104475 -0.86205375 0.14143 -0.24823 -0.383254
14140 1.8835298100000002 10.643761710000001 -1.9170603900000003 0.207683 -0.115849 -0.512216
14160 1.22579874 9.01245681 -2.9129421600000005 0.478554 -0.380977 -0.51212
14180 1.6591456800000002 8.15368941 -2.1225897000000002 0.954766 -1.365297 -0.391096
14200 1.3892627700000002 6.780897629999999 -1.0030626900000001 1.7830580000000005 -2.572584 -0.493791
14220 0.63453042 6.023918790000001 -0.33560010000000007 2.872314 -2.677413 -1.0628879999999998
14240 -2.59679529 7.202276370000001 -1.90164888 3.699832 -1.235574 -1.90926
14260 -4.460273460000001 8.203239720000001 -2.2656881700000002 4.549362 0.019319 -2.378156
14280 -1.64657907 9.361535850000001 0.1158561 4.507285 1.7975869999999998 -2.156402
14300 0.9276237900000001 9.96402681 0.8123562900000001 3.247635 2.40715 -1.388316
14320 1.2189121200000002 10.682834940000001 0.8735805000000001 1.51752 0.477303 -0.796519
14340 0.33395202000000007 11.25045135 -0.47510811000000003 1.7498919999999998 -0.624141 0.053615
14360 1.1192229 11.66868108 -1.64761893 3.616285 0.361558 0.486268
14380 1.56080043 11.23219494 -1.7134832700000002 4.664406 -1.992004 -0.06314299999999999
14400 1.31441247 10.5939171 -0.85487283 5.351444 -2.585294 -0.409029
14420 1.56380229 10.24080615 -0.15118191 4.446442 -2.261135 -0.5022909999999999
14440 1.4027319 10.76890788 1.28508057 3.224668 -1.446888 -0.602668
14460 -0.09370512 11.05555608 1.12835601 2.837411 -1.126378 -0.764949
14480 -1.4852143800000002 11.9388681 1.08494676 2.614195 -1.412176 -0.7618689999999999
14500 -1.9350225 13.12590753 1.25887806 2.158227 -1.595569 -0.8577540000000001
14520 0.11166723 15.77434266 1.60257141 1.586799 -1.226208 -0.822694
14540 1.97918712 17.55414153 2.55024684 0.756204 -0.723244 -0.674248
14560 1.0060547400000002 18.0350964 1.51050456 -0.084826 -0.265549 -0.384812
14580 -1.7455227299999998 14.04739026 -1.6115475600000002 -0.762994 0.29724 -0.144579
14600 -2.20042224 12.234355110000001 -2.9512600200000003 -1.27646 0.724116 0.108729
14620 -2.77986951 12.34752327 -2.6077236299999997 -1.7339369999999998 0.990089 0.325246
14640 -2.8345014000000006 13.41554778 -2.97416637 -2.092484 0.8949360000000001 0.72131
14660 -3.9987816300000003 14.994614430000002 -0.69515622 -2.359321 0.040076 1.079464
14680 -4.63226238 14.65736625 -1.10155509 -2.403221 1.081557 1.207078
14700 -2.82777174 12.88311003 0.90726804 -2.884698 1.623628 0.864394
14720 0.04685256 12.21579459 4.808597130000001 -1.926381 0.580333 1.1960959999999998
14740 1.76767371 11.647726920000002 3.5536136400000005 -2.392987 1.375765 0.8841690000000001
14760 -1.16337771 8.92114533 1.9097323200000003 -2.148574 1.0049290000000002 0.968605
14780 -2.55055095 3.9182513400000003 1.06054929 -2.7668060000000003 1.753355 1.353229
14800 -2.94453036 2.37765951 -1.55092176 -3.196573 2.731656 1.099009
14820 -1.8453591 3.30318396 -2.2796085600000007 -3.527984 2.590764 0.39078
14840 -0.38410074000000005 3.07909413 -0.65967345 -3.13324 1.854113 -0.34686500000000003
14860 -1.1831350500000002 2.6746376400000003 -0.6026479200000002 -2.985192 1.7894990000000002 -0.832857
14880 -2.0228906700000007 3.3465932100000004 -2.1574642500000003 -2.861868 2.198012 -0.801541
14900 -3.2558801400000004 2.4556392 -2.3564012400000003 -2.354965 1.310132 -0.050175
14920 -4.50159318 1.78518456 -3.41530245 -1.850215 0.645896 0.453061
14940 -4.84257897 2.5394656500000004 -3.9772290600000004 -1.587477 -0.489166 1.159241
14960 -4.9280535 3.0539511 -4.41296964 -1.612098 -1.396827 1.458266
14980 -4.51879992 3.12804603 -5.4149924700000005 -1.484156 -1.050618 1.348689
15000 -4.94152263 2.36073726 -6.25145193 -1.369157 0.340165 1.36587
15020 -4.30235208 2.79513387 -7.844438970000001 -1.914423 1.50748 1.362702
15040 -3.8761860599999998 4.50503649 -10.9497258 -1.909879 1.374868 0.689924
15060 -2.0417553 5.63952375 -8.35891461 -1.176251 0.729003 0.131855
15080 -5.04929529 7.377708600000001 -4.072278150000001 -0.7014630000000001 -0.017233000000000002 -0.143747
15100 -8.728800660000001 12.5659233 -9.29447469 -0.740213 -0.291033 -0.104142
15120 -3.32698302 21.661451190000005 -6.57282753 -0.8242389999999999 -0.019003 -0.12750999999999998
15140 -3.57830541 16.04573631 1.4154554700000002 -0.714905 -0.39006 -0.136953
15160 -2.4947124300000003 6.08365188 -0.60070554 -0.34296 -1.1956209999999998 -0.139732
15180 -2.23260885 5.503753350000001 -2.20221747 -0.22585300000000005 -0.941719 -0.066601
15200 -2.54410578 9.30884634 0.58737375 -0.394154 0.117549 -0.016791
15220 -2.66116851 10.70514288 0.5041555199999999 -0.362765 0.616294 -0.093054
15240 -1.25229555 10.15353639 -0.40176855 -0.054812 0.832176 -0.267437
15260 -0.3671883 9.61525188 0.49651353 0.011541 0.242429 -0.428587
15280 -0.49771035 11.286532529999999 0.67210272 0.13659200000000002 -1.097307 -0.6321640000000001
15300 1.64567655 13.349094840000001 -0.7997896800000001 0.559512 -1.42284 -0.576449
15320 3.3025855500000003 11.93872095 -2.30610537 0.929226 -0.7912560000000001 -0.067271
15340 3.0338896500000003 9.241932330000001 -3.03763707 1.249927 -1.148082 -0.089143
15360 2.410591680000001 7.01725977 -1.5223354199999999 2.1478040000000003 -1.920824 -0.762338
15380 1.1407754700000001 6.16327965 -0.58962024 3.202709 -1.874216 -1.609607
15400 -0.50999247 5.682933 -1.79087436 4.05761 -1.4592969999999998 -2.21519
15420 -3.0181740300000004 6.962176620000001 -2.5553382300000003 4.8639519999999985 0.009611 -2.354582
15440 -4.68151839 7.93484793 -1.7263638000000001 4.204957 2.643574 -1.934203
15460 -2.48363694 9.60627573 -0.98510058 2.23663 1.194706 -1.270979
15480 0.27333603 9.75491685 -0.42286986 1.00899 -0.06752899999999999 -0.237488
15500 1.8853250400000001 10.047402 -0.42437079 2.951284 0.8461120000000001 0.5664600000000001
15520 2.37496176 11.22275772 0.20043792 4.4550269999999985 -2.058359 -0.07092999999999999
15540 1.1154754800000002 11.5654014 -0.31449879 5.271985 -2.529348 -0.478021
15560 1.0642869000000001 11.771823420000002 -1.14751494 4.8216470000000005 -2.396428 -0.5603859999999999
15580 1.50497172 10.70289639 -1.56544056 3.968696 -2.093872 -0.6244149999999999
15600 1.2889653300000001 10.925779590000001 -0.47825712 3.006272 -1.107605 -0.8107949999999999
15620 -0.40640868 11.581715430000001 1.47577716 2.634539 -1.209638 -0.813261
15640 -1.8383253300000002 12.3142968 2.94243102 2.230817 -1.103697 -0.849331
15660 -2.8333045800000005 13.6071567 2.08262376 1.633093 -0.992684 -0.919878
15680 -0.32527017 15.90143121 1.3657580100000002 0.839606 -0.8114319999999999 -0.803876
15700 3.2102244000000004 17.697396960000003 3.69491688 0.019069 -0.555091 -0.527925
15720 2.2492269900000004 17.44427934 2.45070477 -0.564001 -0.2099 -0.299568
15740 -2.38005315 11.94755976 -0.9038247300000001 -0.956729 0.302658 0.000407
15760 -3.5254687500000004 11.63695554 -1.72201797 -1.432022 0.684628 0.261517
15780 -3.26889801 12.553494030000001 -1.8952135200000002 -1.831671 0.872188 0.589633
15800 -3.4687375200000004 13.751903250000002 -2.9226736800000004 -2.246768 0.563014 1.010146
15820 -4.8270105 14.06684349 -1.27160163 -2.505092 0.281779 1.234097
15840 -4.39845084 12.46069143 -2.7849609000000006 -2.120606 1.479087 0.916918
15860 -1.71408168 12.206965590000001 -1.2813331500000003 -1.456796 0.184256 1.004399
15880 2.06151264 13.424985000000001 3.7721510100000004 -1.610991 1.1185969999999998 1.114288
15900 2.6304828300000005 13.008246390000002 2.0071750500000003 -2.133532 0.870441 1.287213
15920 -0.24264054000000002 9.558069390000002 2.88105966 -2.770095 1.804325 1.662925
15940 -2.4587882100000003 4.84332453 1.3793841 -3.315723 2.7515810000000003 1.280817
15960 -3.7491073200000002 2.70292968 -0.81206199 -3.22886 2.7142150000000003 0.427963
15980 -2.66670135 3.1338829800000005 -1.9044937800000001 -3.146407 1.541056 -0.103001
16000 -1.5380510399999998 2.04340338 -2.12767128 -2.982826 0.790886 -0.456615
16020 -2.00942154 2.09788812 -0.6390234 -2.676798 1.23815 -0.68365
16040 -2.27766618 3.0795453900000003 -1.9546326900000002 -2.500379 1.059957 -0.2314
16060 -2.6812201500000006 3.1036485600000008 -3.02355972 -2.20589 0.8620479999999999 0.5197350000000001
16080 -3.85283826 2.60862615 -3.8378682000000004 -2.023044 0.570437 1.090748
16100 -4.871920680000001 2.8036685700000006 -3.93381981 -1.894043 -0.551981 1.41569
16120 -5.482200780000001 3.1738489200000006 -3.5387907300000006 -1.568791 -1.049684 1.188932
16140 -4.942866600000001 3.55076874 -4.3325865 -1.238709 -0.485165 1.1883780000000002
16160 -4.50114192 2.93389632 -5.60718999 -1.554821 0.7533 1.308497
16180 -4.26717342 2.9562042600000003 -7.99322724 -2.046041 1.174434 1.114382
16200 -3.46723659 3.73383315 -10.850340690000001 -1.7635040000000002 0.73615 0.7174020000000001
16220 -2.7271800000000006 4.70501334 -8.81846406 -1.33075 0.910088 0.268344
16240 -5.388191550000001 9.43548363 -7.33714425 -1.069965 0.816228 0.07159700000000001
16260 -7.09255152 17.340842700000003 -9.887842350000001 -1.085321 0.489227 0.075113
16280 -4.13290395 17.47915389 -3.5687308500000006 -0.773267 0.074928 -0.218073
16300 -5.22818064 5.93156745 -3.4766738100000003 -0.697504 -0.820375 -0.166191
16320 -2.21060502 4.66175124 -3.3205476600000003 -0.502877 -1.380528 -0.113907
16340 -0.49292307 9.098676900000001 -0.6191091000000001 -0.415164 -0.699684 0.042862
16360 -1.10080953 12.07673784 -0.74485368 -0.690388 1.391668 0.227335
16380 -1.6426844999999999 11.67826545 -0.34428195 -0.367475 1.6923990000000002 0.13306500000000002
16400 -0.63273519 9.68890536 0.23022108 0.509795 -0.469941 -0.668817
16420 -0.60085269 9.24686676 0.72060336 1.457589 -1.345757 -0.917447
16440 -1.2998936700000001 11.377991160000002 0.45654759 2.0161130000000003 -2.021467 -0.5217109999999999
16460 -0.5070004200000001 13.4079156 -0.9083079000000001 2.560723 -1.7036619999999998 -0.549292
16480 1.1154754800000002 12.48838506 -1.8642237300000002 3.215034 -0.71958 -1.057661
16500 1.18494009 9.76149936 -2.15088174 3.849842 -0.6372220000000001 -1.689993
16520 1.49674113 8.4047175 -1.22355225 4.528076 -0.626167 -1.845503
16540 0.7661021400000001 6.52822146 -0.24653511000000003 4.322675 1.270032 -2.201881
16560 -0.7051820400000001 5.75822475 -0.8565209100000001 3.364632 2.075281 -1.879524
16580 -1.89086769 6.088135050000001 -2.11675275 1.554937 -1.103953 -0.732275
16600 -3.0770046 6.050415600000001 -1.8990982800000002 2.77663 0.091785 0.213694
16620 -2.2897913400000003 8.45187417 -0.14639463000000003 3.735647 -0.939216 0.401175
16640 -1.20304935 9.29701548 -0.13861530000000005 4.541626 -2.378704 0.044386
16660 1.14646527 9.536369670000001 0.17438256000000002 4.3356900000000005 -2.251862 -0.061901
16680 3.0946626000000004 10.959163020000002 0.77943393 3.559067 -2.108206 -0.414682
16700 1.9746941400000002 11.96940663 -0.03891627 3.034301 -1.561226 -0.6156010000000001
16720 2.06390628 13.07081457 -1.8086893200000003 2.673364 -1.424567 -0.645003
16740 2.28350313 13.680947520000002 -2.6924525999999998 2.443188 -1.706704 -0.752003
16760 1.13508567 13.92749244 0.18067077 1.987433 -1.601424 -0.8439840000000001
16780 -1.8449176500000002 13.592637900000001 1.8886212 1.388127 -1.257554 -0.803746
16800 -5.5932696 12.30097482 0.57974157 0.673883 -0.78677 -0.700379
16820 -1.78144695 14.437180800000002 2.0389104000000002 -0.0024 -0.238003 -0.418455
16840 2.24638209 18.106493580000002 1.45542141 -0.613027 0.236889 -0.100726
16860 2.0730393900000004 16.86184002 0.3526695 -1.150481 0.565775 0.169632
16880 -2.24937414 12.22971498 -1.18494009 -1.634047 0.785783 0.447983
16900 -3.6323487 11.87555436 -2.11046454 -2.094426 0.906785 0.690303
16920 -2.96054028 13.645621710000002 -2.306850930000001 -2.515992 0.452215 0.979566
16940 -3.0109931100000003 14.893424280000001 0.47077209 -2.454088 1.166811 0.976946
16960 -3.7836777600000002 14.63028084 0.80547948 -2.433552 1.166868 0.679055
16980 -1.8952135200000002 12.33494685 -0.03652263 -1.457135 0.8785850000000001 1.062259
17000 1.6079571000000001 12.62220327 3.3940441800000003 -2.103718 1.132135 1.08626
17020 1.4419522800000002 12.155021640000001 1.08719325 -2.301975 1.501048 1.176269
17040 -0.09580446000000001 9.04973481 0.59066991 -2.859578 2.422886 1.29938
17060 -1.88637471 4.613858820000001 1.27220004 -3.44551 3.036388 0.766799
17080 -2.2080544200000003 2.87312337 -0.85277349 -3.3289230000000005 3.153691 0.103029
17100 -1.7926695900000003 2.1519216 -0.9879454800000002 -3.373431 2.096622 -0.311465
17120 -1.58760135 2.5607239200000005 -1.16951877 -3.36153 1.434771 -0.775211
17140 -1.18793214 3.72949713 -0.63887625 -2.994002 1.952569 -0.8459459999999999
17160 -2.28843756 3.61752579 -1.6079571000000001 -2.369078 1.238876 -0.067274
17180 -3.89684592 2.7988812900000006 -2.27826459 -1.911968 0.484108 0.739121
17200 -4.71369519 2.38154427 -2.7761319 -1.827959 -0.8894479999999999 1.568272
17220 -5.23970739 3.4658926200000004 -3.22144704 -1.708381 -1.485743 1.666011
17240 -4.854556980000001 4.20835266 -4.072131000000001 -1.372944 -0.8428190000000001 1.500888
17260 -4.905 4.701275730000001 -5.2200972 -1.761614 1.002456 1.517173
17280 -5.007386970000001 4.02183513 -6.222257370000001 -2.135406 1.366903 1.01203
17300 -5.1825249 3.3632015400000004 -7.47006975 -1.504717 0.298763 0.383281
17320 -4.13545455 3.99893859 -9.696233430000001 -0.981505 -0.822758 -0.123306
17340 -4.00342176 4.1529654 -10.219999140000002 -0.757378 -0.915771 -0.233785
17360 -4.32540558 7.24957038 -6.068534670000001 -0.823932 0.008856000000000001 -0.16813599999999998
17380 -7.44551532 12.99358044 -9.48817314 -0.817682 0.271719 -0.108609
17400 -2.9710173600000003 19.04354478 -8.722659600000002 -0.539215 -1.110012 -0.066437
17420 -4.21089345 11.45777589 0.8521750800000001 -0.181288 -1.453278 -0.048542
17440 -3.94669053 4.80036654 -2.6801802900000005 -0.159422 -1.020102 0.030104
17460 -2.5270461900000005 6.4116198 -2.18874834 -0.177313 0.183874 -0.007883
17480 -2.2649426100000003 10.623710070000001 0.08172711 -0.06842100000000001 0.513311 -0.168847
17500 -2.4062458500000004 12.22971498 0.13113027000000002 0.014586000000000003 0.010028 -0.388744
17520 -0.85412727 10.721309760000002 -0.2555210700000001 0.027769 -0.303625 -0.550619
17540 0.55624662 9.07697718 0.7632670500000001 0.500394 -0.405007 -0.6486689999999999
17560 0.14654178 10.438840620000002 0.9394448400000001 1.073218 -0.202308 -0.420601
17580 1.7910215100000002 13.318703460000002 -0.5848329600000001 1.6832650000000002 -0.780415 -0.23507
17600 3.23717247 12.820689 -2.91698388 2.657587 -1.750881 -0.546419
17620 3.8610688500000006 9.75461274 -2.34202959 3.655769 -1.967255 -1.37986
17640 3.2921084700000005 5.84728974 -1.70405586 4.844418 -1.858062 -2.010494
17660 1.408716 4.25520522 0.5869323000000001 5.134983 -0.214104 -2.587411
17680 -1.3373188200000001 6.220167840000001 -3.43520694 3.856618 1.7806509999999998 -2.684354
17700 -4.17437082 7.70103639 -3.28806675 2.319746 1.91336 -1.241409
17720 -5.1304338000000005 8.47297548 -1.5173911800000002 1.300821 -0.18167 -0.717072
17740 -2.5885647 9.942621390000001 -1.73698803 3.10249 0.6902020000000001 -0.001646
17760 0.71087184 9.7894971 -0.65263968 4.264344 -1.186682 0.02383
17780 2.36418057 11.005113060000001 -0.21075804 5.116925 -2.135717 -0.479609
17800 2.35669554 12.09783915 0.5966638200000001 4.6107510000000005 -2.268174 -0.748962
17820 1.65256317 11.27380896 -0.0031392000000000004 3.570868 -1.791384 -1.065553
17840 1.5789195000000003 11.675567700000002 -0.98854389 3.306734 -1.152725 -1.242336
17860 1.42473573 10.99958022 -1.4000341500000002 2.977378 -1.360211 -1.283895
17880 1.19406339 11.57348484 0.64560591 2.722177 -1.555802 -1.43391
17900 -0.49203036 11.77256898 1.05350571 2.210268 -1.227168 -1.388769
17920 -1.93592502 12.501108630000001 1.5123096 1.466079 -0.80515 -1.3186639999999998
17940 -2.28350313 13.412114279999999 1.5657446700000002 0.751868 -0.236725 -1.124624
17960 0.11197134000000002 14.28000498 2.36642706 0.036359 0.080149 -0.892882
17980 1.74597399 16.80270534 3.12489702 -0.529963 0.28176 -0.736863
18000 -1.1124834300000002 15.03787653 0.7511418900000002 -0.996228 0.604723 -0.645462
18020 -3.0496052700000003 11.85055848 -1.79686827 -1.536178 0.972443 -0.493744
18040 -3.26052027 11.91702123 -2.45280411 -2.1292 1.701221 -0.278767
18060 -2.6292860100000004 12.98220084 -3.8407131000000003 -2.390536 2.162541 -0.066471
18080 -3.6639270900000005 14.12342757 -2.8738689300000004 -2.398177 1.741414 0.025882
18100 -5.2994306700000005 14.383892880000001 -2.04445305 -2.363633 0.951642 0.09657
18120 -3.79206531 14.52893373 -0.42047622 -2.624757 0.12999000000000002 0.403447
18140 -0.35625996000000004 14.928907050000001 2.70427365 -3.229375 0.83581 1.041389
18160 1.1868824699999998 13.079202120000001 3.5265184200000004 -2.012534 1.570349 1.177134
18180 -1.60571061 10.889256959999999 1.05125922 -0.8926639999999999 0.392884 0.5572819999999999
18200 -3.46799196 6.71323806 0.32153256 -1.893352 0.744416 0.89381
18220 -2.96982054 2.8797156900000003 -2.6695462500000002 -2.02532 1.391208 1.231754
18240 -2.14743843 2.8445370300000006 -2.18695311 -1.908122 2.317431 1.00599
18260 -1.3611178800000001 3.1407696 -1.80359793 -2.542062 2.936405 0.478409
18280 -2.11510467 3.7619780400000002 -1.91017377 -2.812382 3.477665 0.15536
18300 -2.5861710600000003 3.55675284 -1.76782086 -2.927763 2.69311 0.117104
18320 -3.95792298 1.9094282100000002 -2.5285373100000004 -2.90953 2.247948 0.602774
18340 -4.943916270000001 1.31606055 -2.84542974 -2.90066 3.392602 0.7242149999999999
18360 -4.9106898 1.9676603700000002 -3.2322282300000005 -3.428427 3.665079 0.441373
18380 -4.8036627 2.6101270800000003 -4.0639004100000005 -3.935215 3.628628 0.405834
18400 -4.396508460000001 2.3703216300000003 -3.45840759 -4.0620400000000005 3.927222 0.436612
18420 -4.202662860000001 1.98442566 -3.6751595400000006 -3.855088 3.870248 0.385787
18440 -4.45443651 1.5167927700000001 -4.4300390400000005 -2.947703 3.038301 0.389987
18460 -4.5955926 1.09811178 -6.25982967 -1.807445 2.71593 0.36525
18480 -4.00731633 1.6673860800000002 -7.98753744 -1.060355 1.856829 0.638625
18500 -4.773722580000001 2.58198219 -9.43188336 -1.204711 -0.510983 0.955776
18520 -4.928651909999999 3.4208352900000003 -12.601249110000001 -1.4709 -0.77165 0.5728949999999999
18540 -4.75695729 3.14136801 -11.164084110000001 -1.222042 0.41763 0.515426
18560 -3.6797996700000004 2.105971560000001 -3.68833437 -1.152356 1.085904 0.6346970000000001
18580 -6.53436252 9.3446136 -8.013131730000001 -1.136965 1.5857709999999998 0.5583199999999999
18600 -5.329665090000001 26.945764650000005 -22.57185843 -1.106482 1.821643 0.42043
18620 -6.389311860000001 14.99147523 3.28491774 -0.772918 0.978995 0.13542
18640 -6.70141701 -4.798571310000001 0.06122421 -0.479506 0.749875 -0.097246
18660 -4.12242687 4.858893 -3.9920519700000003 -0.613969 0.731213 -0.108843
18680 -2.7381083399999997 11.18743191 -0.6664129200000001 -0.8346899999999999 0.26865100000000003 -0.125815
18700 -3.8375739 11.223513089999999 -1.8646749900000001 -0.866244 -0.150775 -0.171432
18720 -3.98500839 10.59811578 -2.1454862400000003 -0.668014 -0.113456 -0.08570599999999999
18740 -2.71819404 9.982293030000001 -1.4825166300000001 -0.259881 0.762768 -0.048726
18760 -0.37616445 10.45067148 -1.45886472 -0.212185 1.378548 0.163394
18780 -0.17872839 9.7610481 -2.55309174 0.033402 2.1459330000000003 0.652303
18800 -0.57884886 8.521780230000001 -1.96840593 0.27105300000000004 2.325242 0.893015
18820 -0.63453042 7.96987944 -0.30746502000000003 0.313766 2.098072 0.65646
18840 -0.30161826 8.92982718 1.05665472 0.549552 2.245797 0.8053319999999999
18860 0.15777423000000002 9.78605379 1.5756233400000001 1.191215 2.69363 0.6778489999999999
18880 1.5359517 10.655141310000001 1.8223056000000002 2.290171 1.696143 0.621642
18900 1.77051861 10.937002230000001 0.96758973 2.56428 -0.404797 0.438242
18920 1.8067469400000002 9.31572315 -4.2570004500000005 2.793804 -1.998032 -1.19463
18940 2.507436 9.54205947 -3.0517046100000003 2.780882 -1.239178 -2.075907
18960 1.98143361 7.34972067 -0.3005784 2.723565 0.142166 -1.946686
18980 1.46410326 6.371202600000001 0.32497587 2.999597 1.437384 -0.816239
19000 0.8577177300000002 8.78957361 0.09400923 2.302709 2.302401 -1.812457
19020 -0.84528846 9.799375770000001 -0.19534653000000002 2.156477 1.72354 -2.379963
19040 -1.4456898900000001 9.520948350000001 -2.7372058200000002 2.600438 -0.702245 -2.460279
19060 -0.69200721 9.16154919 -1.15409745 3.700105 0.75307 -2.119041
19080 0.12080034 9.67123755 0.18905832000000003 3.185718 1.032816 -1.568585
19100 0.42451794000000004 10.0442628 0.05044302 1.774892 0.736362 -1.068518
19120 0.56792052 10.4060556 0.39457782 1.218156 0.5051439999999999 -1.105226
19140 0.6086320199999999 11.344156470000001 -0.24488703 1.221882 -0.035404000000000005 -1.527523
19160 0.01946304 10.76456205 -0.84379734 1.042898 -0.152327 -1.702743
19180 0.8948387700000001 11.341164420000002 -1.24855794 0.37265 0.080022 -1.418235
19200 2.8615966200000003 11.633208119999999 0.75787155 -0.322986 0.551271 -1.181211
19220 4.03755075 10.44393201 1.55407077 -0.8772190000000001 0.942121 -0.6749729999999999
19240 3.5097531300000004 10.55814003 0.28441152000000003 -1.227323 1.3930559999999998 -0.186615
19260 -0.29324052 10.917244890000001 -0.46328706 -1.403542 1.7606130000000002 0.222949
19280 -0.8641530900000001 13.010345730000001 1.1374891200000001 -1.587095 2.115582 0.589749
19300 0.8867553300000001 13.8735963 3.7296442800000005 -1.690943 2.464583 0.781924
19320 -1.8905733900000001 14.835201930000002 3.4498728900000004 -1.810791 2.455132 0.8516020000000001
19340 -5.63263713 11.34580455 0.15402681000000001 -1.7573419999999995 2.01388 0.8621540000000001
19360 -6.102065250000001 11.602218330000001 1.40318316 -1.381302 1.046878 0.735697
19380 -5.623209719999999 12.421471050000001 2.9960230500000007 -0.081872 -0.002542 0.173552
19400 -9.32425785 12.923380080000001 4.71189996 0.300965 0.35638600000000004 -0.140428
19420 -11.22231627 12.97786482 4.17482208 -0.265031 0.46704 -0.148796
19440 -6.5629488600000006 10.86605631 3.92274432 -0.6675270000000001 -0.182941 -0.025793
19460 -2.41583022 10.48150431 4.85410572 -0.593236 0.17060999999999998 -0.05991000000000001
19480 0.8991846000000001 10.75169133 4.22151768 0.105486 2.642008 -0.6542640000000001
19500 1.43341758 11.28233385 2.07842508 1.147666 1.120485 -0.947342
19520 1.17221652 10.598861340000001 -1.6402908600000001 -0.461296 2.446394 -0.794705
19540 1.02027924 7.508240460000001 -0.9113097600000001 -1.780618 2.203401 -0.423322
19560 0.06900354 5.50226223 0.30761217 -2.05812 3.4253720000000003 0.590121
19580 -1.4596102800000001 4.84303023 1.0159334100000001 -2.935377 5.067722 0.627822
19600 -2.55055095 4.627779210000001 -0.25536411 -3.150583 4.06536 0.266545
19620 -2.18231298 4.305196980000001 -1.75121253 -1.74593 4.2596669999999985 0.805945
19640 -2.34128403 4.82282163 -2.89243926 -1.554047 3.0041290000000003 0.534361
19660 -2.10791394 4.99062168 -3.74131818 -1.98479 2.380319 0.797071
19680 -2.09055024 5.194797210000001 -4.22287146 -1.805148 3.4555870000000004 1.072549
19700 -1.949247 5.41439406 -4.428538110000001 -1.784166 3.869831 1.091393
19720 -2.03202378 4.77432099 -5.142706110000001 -1.813246 2.997869 0.991894
19740 -2.6095188600000006 4.2209192700000004 -6.118075170000001 -1.433412 2.471482 0.698256
19760 -3.7073363400000003 5.2796733300000005 -7.09614198 -0.947992 1.820559 0.288011
19780 -4.6011352500000005 8.740474560000001 -8.68389048 -0.768826 1.602367 0.085512
19800 -5.796101159999999 14.657071950000002 -11.05825383 -0.740269 1.063492 0.554283
19820 -6.82925112 17.66850651 -11.554924320000001 -0.561472 1.380779 0.9728
19840 -6.27974397 11.0277153 -7.463330280000001 -1.150145 3.913619 1.312615
19860 -7.071440399999999 6.9292444500000006 -3.44882322 -1.0007700000000002 3.1547110000000003 1.025142
19880 -10.298881350000002 7.828723350000001 -1.81138707 -0.025835000000000004 2.363881 0.279869
19900 -6.680011590000001 11.704311 2.3234690700000002 -0.080714 1.679525 0.173541
19920 -5.26245678 23.212677060000004 2.5854255000000004 -0.30950700000000003 1.597134 0.196617
19940 -2.24218341 8.92174374 -1.2901719600000003 -0.296501 1.7287259999999998 0.044852
19960 -0.64321227 -1.16577135 6.99854229 -0.232513 1.132415 -0.07144099999999999
19980 -1.59433101 1.8173711700000001 1.44509148 -0.34247 0.077473 -0.162725
20000 2.5503939900000003 9.33698142 -5.34583197 -0.375738 0.6871659999999999 -0.222491
20020 0.9669913200000001 11.43501669 4.690945800000001 -0.469771 1.491166 -0.336341
20040 -0.8596601100000001 12.60797877 6.0336503100000005 -0.32100700000000004 1.124176 -0.331627
20060 0.22184334 15.210767970000001 1.8375797700000003 -0.188934 0.824426 -0.34420700000000004
20080 0.44427528000000005 13.083842250000002 -1.09183338 0.061066 0.8631260000000001 -0.382035
20100 0.40445649000000006 11.439058410000001 1.0524658500000001 0.375431 1.362282 -0.273656
20120 -0.18157329000000003 10.356662250000001 2.9621883600000003 0.844807 1.657684 0.03796
20140 0.034874550000000004 9.72722322 1.9717020900000002 1.682363 -0.442974 -0.171415
20160 0.6737508 9.16709184 -0.08951625 2.683596 -1.606424 -0.730156
20180 1.14153084 9.23848902 -0.15043635 3.381104 -0.42574 -1.157291
20200 1.13553693 10.140067259999999 -0.6846791400000001 3.766402 1.81705 -1.3209110000000002
20220 1.7681249700000001 10.36309761 -0.58633389 3.5014160000000003 3.0233220000000003 -1.452495
20240 2.59365609 10.87653339 -1.92829284 2.990207 2.024857 -1.466536
20260 3.27803112 9.772133400000001 -0.65713266 2.402248 -1.448468 -1.358302
20280 2.96727975 9.222174990000001 2.12123592 2.88011 -2.445957 -1.142178
20300 -0.9467827200000001 9.53127828 -3.8944522800000003 4.311391 0.815441 -0.13436800000000002
20320 -3.18582693 8.67131406 -1.8143791200000001 3.889144 -0.4487350000000001 0.6868340000000001
20340 -0.46673037000000006 8.74226979 -0.99468495 3.425234 -1.303921 0.498819
20360 2.7244822500000003 9.584419050000001 0.12783411 3.991098000000001 -2.13076 0.055178
20380 2.95350651 9.15121926 0.9560629800000001 4.374212 -2.289029 -0.12460999999999997
20400 1.3223487600000001 9.39805848 0.93555027 3.695704 -2.00983 -0.093387
20420 0.71761131 9.8564013 -0.18950957999999998 3.041293 -1.935883 -0.169624
20440 1.4257854 10.63284318 -0.44023356 2.752091 -1.546836 -0.24050900000000006
20460 0.9767228400000001 12.319682490000002 -0.42451794000000004 2.528645 -1.533853 -0.362795
20480 -0.5472606600000001 13.296101220000002 0.07199559 2.229458 -1.504576 -0.232463
20500 -0.38664153 14.339433960000001 0.63962181 1.558773 -1.01607 -0.070063
20520 0.17184176999999998 14.496599970000002 -0.79170624 0.7946529999999999 -0.650866 0.105729
20540 2.1399534 16.235687340000002 -0.99124164 0.070344 -0.546397 0.182789
20560 3.7341372600000002 16.66379574 2.23964262 -0.585832 -0.290682 0.20672
20580 -1.19481876 14.96138796 1.4780236500000004 -1.207685 0.025552 0.251109
20600 -4.1713787700000005 11.769576930000001 -1.21082868 -1.887138 0.5933470000000001 0.306525
20620 -1.63445391 12.144397410000002 -1.9989444600000001 -2.352199 0.685239 0.373661
20640 0.12513636 12.554994960000002 -0.5343899400000001 -2.618104 0.018896 0.474139
20660 -0.7608636000000001 14.27506074 1.5630469200000001 -3.113557 0.443475 0.753213
20680 -2.9213297099999997 16.155304200000003 2.28125664 -3.162658 2.069489 0.961226
20700 -4.40923203 14.52070314 2.4610347 -2.085551 1.912889 1.625906
20720 -2.6508385800000003 11.156451930000001 2.16060345 -2.832971 2.219132 1.347897
20740 0.89333784 12.124934370000002 1.4711370300000002 -1.84329 0.712557 1.357808
20760 2.461329 14.50498752 -4.1529654 -2.695137 1.902985 1.70071
20780 1.95642792 12.150832770000001 -3.3479371800000006 -3.708087 3.193157 0.950635
20800 0.53917722 7.82123832 1.13988276 -3.362404 3.120335 -0.316973
20820 -1.48850073 4.1118026400000005 2.74229721 -3.092269 2.0968880000000003 -1.153397
20840 -3.90687174 1.93442409 0.24129657000000002 -3.209838 2.429936 -1.48793
20860 -1.2338821800000002 3.1998944700000003 -1.57682016 -3.34426 2.304476 -0.900118
20880 -0.36823797 4.530925080000001 -1.3090267800000002 -2.341216 1.996228 0.189392
20900 -2.1718359 5.2398545400000005 -2.0070279 -1.314227 1.674308 0.681951
20920 -3.0918177 4.46326551 -1.99579545 -1.328913 -0.426067 1.139602
20940 -3.3668018100000006 2.9931781500000003 -2.2320104400000003 -1.567472 -1.411157 1.007807
20960 -3.4471849500000005 2.72672874 -2.4810863400000005 -1.322124 -0.747228 0.7298640000000001
20980 -3.9282771600000004 2.5551910799999997 -3.20333778 -1.093668 0.571558 1.070532
21000 -4.1128425 2.9653373700000003 -3.7154197800000004 -2.0671310000000003 3.196129 1.1821469999999998
21020 -4.28933421 3.85073892 -4.64424039 -2.104598 2.28061 0.528238
21040 -4.42030752 2.8743201899999997 -5.06322549 -0.5599689999999999 0.062336 -0.450508
21060 -4.488418350000001 2.2489228800000003 -6.88807188 -0.163184 -1.273327 -0.576348
21080 -3.8706532200000003 3.5152859700000003 -11.15884557 -0.435199 -1.423851 -0.260793
21100 -2.26613943 5.129080020000001 -8.868455820000001 -0.598658 -0.041542 -0.014811
21120 -2.43932517 4.66145694 -4.33394028 -0.3137 1.136849 -0.04424
21140 -6.3336303 11.01589425 -8.215668990000001 -0.093805 0.109573 -0.147142
21160 -1.10245761 27.48704121 -13.234425750000002 0.011096 -0.572381 -0.193605
21180 -4.15236699 20.78981307 5.045410530000001 0.008099 -0.314475 -0.21852600000000005
21200 -3.88517202 3.8556831600000003 -4.13709282 0.214278 -0.133627 -0.33482199999999995
21220 -2.9322482400000003 3.5811503100000004 -1.8166256100000002 0.828822 -0.268481 -0.709575
21240 -3.1596342300000004 8.693622 2.08081872 1.548676 -0.202498 -1.050736
21260 -2.95500744 10.627604640000001 0.56777337 2.066776 -0.490805 -0.530796
21280 -1.95089508 8.720717220000001 0.58318488 2.235115 -0.842568 -0.355049
21300 -0.7114702500000001 7.58877075 1.46440737 2.81707 -0.841068 -0.701363
21320 -1.1937690900000002 11.300904180000002 2.33829198 4.445138 -1.292457 -1.384825
21340 1.7986635000000002 15.89693823 2.03845914 5.00099 0.28436 -2.184129
21360 4.367019600000002 14.002332930000001 -1.58430519 3.485888 1.919514 -2.191467
21380 4.922510850000001 9.0001845 -4.6071193500000005 1.351368 0.177025 -0.685132
21400 3.9932487900000004 6.43661568 -1.98382725 1.772388 1.494984 0.4933010000000001
21420 2.4598378800000003 5.87782827 -0.38005902 3.199037 -0.4355770000000001 0.658496
21440 1.24167132 6.32360448 0.10269108 4.448544999999998 -2.642804 -0.163161
21460 -0.8134059600000001 7.44342579 -1.4060280600000001 5.361259 -2.658456 -0.768857
21480 -4.68315666 9.111106170000001 -3.57322383 4.917604 -2.643079 -1.032622
21500 -3.74146533 9.930496230000001 -0.54292464 3.363185 -2.058557 -0.938475
21520 0.84798621 10.938356009999998 -1.53250839 3.09828 -1.887208 -0.935203
21540 3.8088306000000003 11.88722826 -2.20895694 2.789669 -2.038109 -1.025828
21560 3.9240882900000003 11.7188298 -1.14316911 2.111415 -1.593168 -0.8847889999999999
21580 1.74776922 12.339135720000002 0.8572664700000001 1.3054370000000002 -1.21743 -0.643073
21600 -0.26121087000000004 12.58807428 1.0027683900000002 0.383989 -0.896683 -0.402093
21620 -0.2080701 12.41907741 1.2660687899999998 -0.364675 -0.546875 -0.119351
21640 -1.49988033 12.94357887 0.78556518 -0.97661 0.117616 0.204536
21660 -3.4181375400000005 12.2710347 0.19459116000000004 -1.391352 0.930755 0.480471
21680 -3.46619673 13.4224344 -0.33844500000000005 -1.6762400000000002 0.91379 0.707102
21700 1.3727917800000002 15.247594710000001 0.10432935000000002 -2.072253 0.059304 1.083581
21720 2.2290183900000002 15.828680250000001 -0.03367773 -2.376357 0.14838800000000002 1.180688
21740 -1.17146115 13.433666850000002 -0.6617727900000001 -2.528532 1.684725 0.727935
21760 -3.3296807700000004 12.617857440000002 -1.6603425000000003 -1.7447130000000002 0.840756 0.915021
21780 -2.76384978 14.197081050000001 -3.9508794000000003 -2.026132 0.62221 0.401657
21800 -3.1714552800000004 16.171176780000003 -2.6515841399999998 -2.1282650000000003 0.783361 1.214722
21820 -5.27113863 14.07642786 -3.14091675 -2.949878 2.126681 1.392064
21840 -3.9748354200000002 13.222006290000001 -2.1582098100000007 -3.810773 3.226061 0.803529
21860 1.65675204 13.504916880000001 2.1630069 -3.732624 3.73275 0.299225
21880 1.93308012 11.86373331 1.5229338300000004 -3.835877 3.177462 -0.073594
21900 0.8978308200000001 7.72454115 4.18245426 -3.731493 1.692305 0.142682
21920 -0.4628358 3.6694697400000003 2.65368348 -2.893478 1.903327 0.722969
21940 -2.6309242800000003 2.51073216 -2.8337558400000002 -2.349492 2.491976 0.6298739999999999
21960 -2.3912757900000003 2.8551612600000005 -3.60824553 -2.2357080000000003 1.74675 0.680762
21980 -1.3727917800000002 3.38027094 -0.57705363 -1.809681 1.014025 1.063896
22000 -1.7143857900000001 3.65136048 -1.336122 -1.504569 -0.144061 1.09849
22020 -2.77972236 2.78091918 -2.12034321 -1.51703 -1.282794 0.8317379999999999
22040 -3.6754538400000003 0.9984225600000001 -2.5538373 -1.412657 -1.609999 0.78268
22060 -4.40728965 1.36830861 -3.4462824300000006 -1.018382 -0.380511 0.933409
22080 -4.810843620000002 1.9842785100000002 -3.58354395 -1.722309 1.2022620000000002 0.8014819999999999
22100 -4.703070960000001 2.1399534 -3.87154593 -1.271008 1.18669 0.309
22120 -4.959788850000001 1.62981378 -5.68517949 -0.721625 1.046686 -0.053384
22140 -5.16784914 2.4318401400000003 -7.684722360000001 -0.7082350000000001 0.947538 -0.045685
22160 -4.68436329 3.3436011600000004 -10.08632808 -0.463176 -0.14388 -0.114146
22180 -2.55997836 4.19637465 -11.2070421 -0.15120799999999998 -1.303705 -0.18312
22200 -5.012478360000001 6.29171217 -4.36971735 -0.32031 -0.73087 0.033951
22220 -11.88019449 12.471168509999998 -9.9602892 -0.304665 0.458657 0.116925
22240 -3.73847328 23.925196980000003 -10.8569232 -0.319874 0.30037600000000003 0.018745
22260 -3.2310314100000004 10.30397274 5.267999430000001 -0.40028 0.17924500000000002 -0.255126
22280 -3.58953786 2.22916554 -4.81564071 -0.312735 0.014538999999999996 -0.433765
22300 -2.4638796000000003 7.72962273 -0.26539974000000005 -0.045492000000000005 -0.522573 -0.611739
22320 -3.0804479100000006 10.54077633 1.71768195 0.411153 -2.005822 -0.911092
22340 -3.31590753 12.24528345 -0.56492847 1.388317 -1.4238540000000002 -0.7746890000000001
22360 -2.39651433 12.04829865 1.41710355 1.852693 -1.434439 -0.129431
22380 -0.04565574000000001 12.14933184 2.1977343 2.129514 -1.6949029999999998 -0.501041
22400 2.6084790000000004 13.41540063 0.6319896300000001 3.017914 -1.407041 -1.3294860000000002
22420 4.10132556 13.050910080000001 -1.50856218 4.378491 -1.169922 -1.866147
22440 2.2429387800000002 9.89772102 -2.3215266900000002 4.6081970000000005 0.44662 -2.460546
22460 0.86265216 8.29514961 -1.92858714 3.3225480000000003 1.893461 -2.194711
22480 1.09347165 6.970554360000001 -1.87575048 1.801234 0.285267 -0.970548
22500 1.09975986 5.5733553 -1.96242183 2.369863 0.292196 -0.000912
22520 0.52226478 5.90880825 -1.2789395099999998 3.3831050000000005 -0.442188 0.288049
22540 -1.43446725 6.69467754 -2.4201662400000004 4.226895 -2.63002 0.028622
22560 -2.4737582700000003 8.466098670000001 -3.6119929500000003 5.024241 -2.77155 -0.433508
22580 -1.0204263900000001 9.87466752 -2.3918742 4.531005 -3.107533 -0.6993050000000001
22600 1.2159200700000001 9.891727110000001 -1.4076761400000002 3.698766 -2.500148 -0.5552779999999999
22620 1.78353648 10.44632565 -0.8439444899999999 2.966368 -1.941362 -0.5984970000000001
22640 1.3859666099999999 11.00257227 -1.28852388 2.519762 -1.7761509999999998 -0.767403
22660 2.30012127 11.403291150000001 -1.30558347 2.1323060000000003 -1.559687 -0.751159
22680 2.95605711 11.376195930000002 -0.28186092 1.547241 -1.3225870000000002 -0.662614
22700 1.34166465 11.19940992 -0.39756987000000005 0.7864220000000001 -0.923353 -0.475092
22720 0.15074046 11.41735869 0.72374256 -0.025734 -0.182518 -0.154838
22740 -1.2310372800000002 12.44586852 1.5792138 -0.698126 0.5260020000000001 0.13331800000000002
22760 -2.23260885 12.65647941 1.75404762 -1.320182 1.026672 0.408206
22780 -2.90306349 14.328358470000001 -0.43424946000000003 -1.904995 1.242884 0.658081
22800 0.8044298100000001 16.35079788 0.00703377 -2.3996060000000003 0.792369 1.062196
22820 3.46634388 17.434547820000002 0.9955776600000001 -2.767363 0.010395 1.396051
22840 1.60331697 14.8595994 -0.8587674 -2.530401 1.5432290000000002 1.481199
22860 -2.2312648800000003 11.24252487 -2.3096958300000003 -1.510784 0.011035 1.212547
22880 -3.3751795500000004 12.27297708 -3.2335722000000002 -1.858638 1.031061 0.5764229999999999
22900 -3.02670873 15.17304852 -2.3164353 -2.072222 0.091271 1.347391
22920 -3.1025988900000003 16.56305685 -2.49141627 -2.987626 2.531534 1.4126459999999998
22940 -3.6896783400000004 13.92000741 -1.41215931 -4.060491000000002 4.030673 0.671499
22960 -1.90703457 13.974639300000002 0.91459611 -3.3843730000000005 2.605698 0.261441
22980 2.410591680000001 13.01723235 1.5387966000000002 -3.102078 1.845824 -0.166107
23000 1.72605969 11.468547270000002 0.63991611 -3.385936 2.136188 -0.338309
23020 -0.10328949000000001 6.685102980000001 3.6181242 -3.388895 2.821495 -0.419325
23040 -2.1139078500000004 3.14271198 1.58610042 -3.066783 2.112201 0.320907
23060 -2.87163225 1.4748844500000002 -1.78279092 -2.356031 1.854649 0.974613
23080 -1.94984541 1.71139374 -1.17789651 -1.973224 0.48202 1.313399
23100 -0.4784042700000001 1.2391207199999998 -1.5039220500000001 -1.840023 -1.452983 1.313604
23120 -1.6835529600000003 2.9906275500000006 -1.01982798 -1.373917 -1.5269700000000002 1.030672
23140 -2.92641129 2.97117432 -2.01989862 -1.276943 0.754892 1.202545
23160 -4.293974340000001 1.90478808 -2.74050198 -1.8009849999999998 1.970729 1.034957
23180 -5.01052617 2.3084990100000002 -3.38835438 -1.3807969999999998 1.52339 0.385782
23200 -5.60060748 2.98284822 -3.82664556 -0.996663 0.194164 -0.006142
23220 -5.5528524 3.0377842200000003 -4.62208941 -0.61925 -0.441755 -0.34559
23240 -5.6276928900000005 2.7258360300000004 -5.87768112 -0.369151 -0.495165 -0.259385
23260 -5.7113721900000005 2.6087733 -7.437735990000001 -0.5187039999999999 0.189315 -0.00707
23280 -5.23266381 3.3721875000000003 -11.07860958 -0.6414890000000001 0.260746 0.08491599999999999
23300 -2.53917135 4.74798114 -9.04074885 -0.490992 -0.131119 -0.08444600000000001
23320 -3.3233925600000003 7.13880567 -6.29127072 -0.398064 -0.822901 -0.326465
23340 -9.89891784 20.6754579 -19.69349652 -0.323368 -1.361921 -0.393619
23360 -2.7503806500000003 24.34327956 8.004901140000001 0.096314 -1.626046 -0.506785
23380 -5.71990689 1.1156324400000002 -3.66497676 1.0428110000000002 -1.048189 -0.913248
23400 -2.8996201800000003 4.48108047 -2.7258360300000004 2.0184580000000003 -0.469801 -0.679643
23420 -2.8256724 9.18220905 1.65390714 2.463384 -1.144618 -0.408615
23440 -2.6927469000000004 11.41271856 0.26150517 2.916397 -1.018398 -0.664122
23460 -1.02057354 11.93603301 0.15342840000000002 3.950896 -1.091406 -0.885402
23480 0.8689403700000001 9.249711660000001 0.27363033000000003 4.490401 -0.289997 -1.432795
23500 0.50100651 9.21947724 0.92987028 3.837388 0.73626 -2.296454
23520 0.14938668000000002 10.63643364 0.07184844 2.483235 -0.572991 -1.649415
23540 2.22257322 12.32776593 -0.24339591000000002 2.471397 0.040546 -0.293642
23560 3.0148778700000003 10.86680187 -3.00739284 3.097377 -0.13991199999999998 0.068816
23580 2.34008721 8.55306432 -4.07617272 3.730911 -2.450051 -0.058394000000000015
23600 1.8808418700000002 6.682101120000001 -1.29809844 4.902595 -2.609874 -0.266854
23620 0.43649595 5.00169717 -0.16375833 5.06301 -2.935709 -0.440504
23640 -1.3397124600000003 6.796770210000001 -2.8777635000000004 3.365049 -2.243092 -0.34749800000000003
23660 -3.51798372 7.76869596 -3.3400008900000002 2.754781 -1.46253 -0.280122
23680 -2.3763057300000003 9.17606799 -2.10926772 2.547664 -1.915937 -0.466859
23700 0.8909442000000001 10.454409090000002 -1.19676114 1.920372 -1.554261 -0.592413
23720 3.02401098 11.295361530000001 -1.66109787 1.418408 -1.351507 -0.511789
23740 2.72358954 11.77122501 -0.91818657 0.750935 -1.076154 -0.327729
23760 2.12094162 12.17403342 0.28470582000000005 -0.039044 -0.488276 0.12854000000000002
23780 1.4253341400000001 12.79045458 1.55481633 -0.820371 0.389222 0.6112029999999999
23800 0.35446473 13.70055771 1.11443562 -1.603278 0.968126 0.908368
23820 -0.7220944800000001 13.517787600000002 0.41822973 -2.3608860000000003 0.405464 1.081122
23840 -2.7634083300000003 13.77630072 -1.23987609 -2.893303 0.104049 1.261523
23860 -2.4840882 14.841637290000001 -1.5985296900000001 -3.078067 1.863744 0.924692
23880 1.05440823 17.156277360000004 -0.10807677000000002 -1.818145 1.889228 1.45048
23900 1.98517122 17.03113119 -0.89993016 -3.13511 2.532554 0.75359
23920 -1.4892561 12.64719915 -1.327293 -1.824255 1.155622 1.363783
23940 -2.78271441 11.77436421 -2.6351229600000003 -2.659834 1.6631599999999995 1.438481
23960 -2.1457903500000004 14.502446729999999 -1.86391962 -3.766572 3.9253 0.926855
23980 -3.1949600400000007 15.639778890000002 -1.07086941 -3.548436 3.468639 0.12032
24000 -3.23028585 13.62945483 -1.29450798 -3.395062 2.72093 -0.573063
24020 -0.36523611 13.106748600000001 2.61236376 -3.567388 3.065421 -1.057544
24040 2.22661494 12.3957198 1.96646355 -3.148029 2.727066 -0.457045
24060 -0.24997842000000003 9.50822478 3.0490068600000004 -2.2250650000000003 2.426358 0.415047
24080 -2.33889039 6.392902320000001 4.14697149 -1.50746 1.335672 1.084823
24100 -2.8788131700000004 4.561914870000001 -0.8577177300000002 -1.6451759999999995 -0.918422 1.4627629999999998
24120 -2.45115603 3.1612725 -3.9161520000000003 -1.605524 -1.319462 1.020242
24140 -0.84664224 2.5815309300000004 -0.74530494 -1.161009 -0.214308 0.7858539999999999
24160 -0.8403540300000001 1.32205446 0.64306512 -0.8601709999999999 0.744506 1.040963
24180 -1.5667943400000004 1.46709531 -1.02417381 -1.358076 2.075315 0.8702059999999999
24200 -2.70307683 3.14406576 -1.59074055 -0.963339 1.191288 0.224617
24220 -3.9049293600000006 3.7898188200000003 -2.28619107 -0.7211270000000001 -0.041978 -0.065872
24240 -5.19225642 3.05065494 -2.7476829 -0.667438 -0.5350060000000001 -0.161005
24260 -5.851184310000001 2.7015857100000003 -3.8357688600000004 -0.617622 -0.543959 -0.096552
24280 -5.52396195 2.98688994 -6.10295796 -0.424204 0.575631 0.005913
24300 -5.942338830000001 2.89557846 -9.3383352 -0.338803 0.530817 -0.050049
24320 -5.6675116800000005 3.1877693100000006 -9.62154009 -0.328946 -0.5391060000000001 -0.22807
24340 -4.30025274 5.47127244 -2.05777503 -0.352418 -1.338695 -0.315872
24360 -8.3289843 11.14717167 -5.12833446 -0.258757 -1.6170950000000002 -0.306315
24380 -1.3099292999999999 27.53838675 -17.286201000000002 -0.027704000000000003 -1.37768 -0.438536
24400 -3.44927448 16.8091407 7.4613879 0.8578100000000001 -0.31298200000000004 -0.794774
24420 -3.6468675000000004 3.4857971100000005 -4.91906754 1.6941669999999998 0.5294409999999999 -0.402247
24440 -2.6099701200000003 4.9539519 -2.80965267 2.143826 -0.66359 -0.279004
24460 -2.56866021 8.51054778 1.52922204 2.878647 -1.518255 -0.8367969999999999
24480 -1.78623423 9.65028339 1.26547038 4.187932 -2.578092 -1.466159
24500 -0.58049694 9.108261270000002 1.14153084 4.807578 -1.598711 -2.100814
24520 -0.37077876000000004 10.22703291 1.7215667100000003 3.836881 0.8606809999999999 -2.774112
24540 0.5363323200000001 13.198648680000002 1.53266535 2.214785 0.354232 -1.52536
24560 4.1586552 15.2296326 -0.51837021 2.058039 0.959001 0.017419
24580 5.1597656999999995 10.934010180000001 -4.49126325 2.900993 0.183247 0.40993
24600 3.5422340400000003 7.37142039 -3.71228058 3.754761 -2.224864 0.083557
24620 1.5994224000000004 6.37673544 -0.62374923 4.693528 -2.579401 -0.246989
24640 0.90756234 6.05909745 -1.78279092 4.409361 -2.68814 -0.5126850000000001
24660 -0.21570228000000002 6.35773347 -1.7064495 3.5421 -2.485662 -0.578823
24680 -3.0169772100000003 7.90071894 -2.59470576 2.941842 -1.593366 -0.490156
24700 -2.67927777 8.68748094 -2.8309109400000003 2.49762 -1.698278 -0.5091479999999999
24720 0.48753738 9.8822997 -1.57308255 2.028689 -1.6378469999999998 -0.562707
24740 2.47644621 11.043283770000002 -1.70840169 1.445659 -1.139945 -0.428549
24760 3.1934591100000005 11.533361940000002 -0.80247762 0.652853 -0.724666 -0.22952
24780 2.2559566500000003 12.123590400000001 1.06937829 -0.181287 -0.10847 0.109968
24800 0.4281084 12.895088040000001 1.0373388300000002 -1.097406 0.395808 0.536621
24820 0.30266793 13.114979190000001 0.55414728 -2.125264 0.688634 0.925376
24840 0.55280331 13.241312370000001 -0.5742087300000001 -3.021064 0.912779 1.059837
24860 -0.37676286000000003 12.92217345 -1.52922204 -2.749101 1.455609 0.673276
24880 -1.19226816 13.4309691 -1.9682587800000002 -2.747656 -0.397711 0.873282
24900 1.3030426800000001 15.208227180000002 0.71012628 -1.651499 2.5231 1.564063
24920 1.1124834300000002 16.56874665 1.09437417 -2.539585 1.416532 1.737671
24940 -1.2969016199999999 12.79344663 -0.3005784 -2.171976 1.439132 1.628046
24960 -3.5387907300000006 11.94290982 -2.1454862400000003 -3.03684 2.669513 1.581973
24980 -2.38438917 12.53927934 -3.33791136 -3.288888 3.649759 0.954046
25000 -2.52001242 16.286434470000003 -2.37211686 -3.167721 2.762991 0.165544
25020 -3.1841788500000003 14.778313740000003 -1.5182937 -3.0118400000000003 2.525731 -0.575477
25040 -3.9912966 13.30777512 -1.46605545 -3.064964 3.358346 -1.219985
25060 1.23627582 13.82929434 1.3780303200000001 -3.2926010000000003 2.971632 -1.284104
25080 1.7082447299999999 13.558351950000002 -0.98524773 -2.707345 2.228305 -0.25357
25100 0.03412899 8.736579990000001 2.9639835900000002 -1.725071 1.056353 0.795241
25120 -1.5081109199999998 4.6825582500000005 1.7887848300000002 -1.469417 -0.8916940000000001 1.552619
25140 -2.4251104800000003 2.35190826 -0.34772526 -1.557074 -1.560928 1.156554
25160 -1.74177531 2.1654005400000003 -1.52188416 -1.295515 -0.120542 0.896957
25180 -1.02297699 1.73279916 -1.3534857000000002 -1.271537 1.76988 1.252557
25200 -1.6039153800000001 1.8282995100000001 -1.0877916599999997 -1.99578 2.595454 1.085139
25220 -2.6101270800000003 2.81444976 -1.3497480900000003 -1.318123 1.171847 0.33219
25240 -3.36455532 3.01263138 -2.14519194 -0.763584 0.144993 -0.16575299999999998
25260 -4.41656991 2.66445486 -3.1750457400000003 -0.697299 -0.443753 -0.310882
25280 -5.12130069 2.8672864200000006 -3.93741027 -0.600988 -1.128801 -0.109574
25300 -5.789508840000001 3.01772277 -5.15138796 -0.339552 -0.367131 -0.069199
25320 -5.550753060000001 2.4120828 -6.93613107 -0.150836 0.25140300000000004 -0.134903
25340 -5.849084970000001 2.8009708200000003 -7.95281004 -0.030525 0.1192 -0.211874
25360 -5.9823145800000015 5.35032495 -6.203098440000001 -0.184158 0.073048 -0.258821
25380 -7.99667055 13.74142617 -6.320759580000001 -0.10373 -0.439111 -0.3879260000000001
25400 3.3136610400000004 23.965908480000003 -12.71844918 0.302956 -1.514704 -0.557828
25420 -3.36425121 15.359713200000002 -1.4422465800000002 1.418508 -1.103361 -0.76207
25440 -4.31627247 6.41655423 -1.87844823 1.923273 -0.552218 -0.233686
25460 -2.66026599 5.0707007100000006 -3.31021773 2.129091 -1.04298 -0.228415
25480 -1.4633577 8.29364868 -1.19945889 3.2458970000000003 -2.197079 -1.094008
25500 -1.7548029900000002 10.148297850000002 0.36449055 4.749823 -2.742916 -2.026044
25520 -1.23119424 9.90550035 0.44786574 5.022344 -0.309971 -3.023909
25540 -0.23905008000000003 7.625587680000001 -0.05134554 3.4869790000000003 1.57068 -2.070303
25560 -0.42691158 8.91755487 0.13785993 1.493643 -0.225986 -0.4582270000000001
25580 -1.7384889600000002 12.823828200000001 1.4365665900000002 2.347092 0.8340120000000001 0.387067
25600 2.6212025700000003 15.991840170000001 0.06122421 3.719451 -1.281928 0.338476
25620 4.9472124299999996 10.90183338 -4.01734215 4.9061379999999986 -2.888515 -0.385045
25640 4.4041406400000005 7.838602020000001 -3.1257995400000005 4.783574 -3.200972 -0.7284
25660 2.68841088 6.1804962 0.13561344 3.989876 -2.738959 -0.760173
25680 1.79910495 5.265900090000001 -0.55713933 3.379205 -2.185809 -0.831377
25700 -0.40400523 6.35997015 -2.4062458500000004 3.030739 -1.810981 -1.024435
25720 -3.9938472 7.4121318899999995 -3.2121667800000004 2.4728630000000003 -1.550173 -1.027598
25740 -2.5951570200000003 8.434059210000001 -0.70907661 1.932181 -1.227775 -0.996537
25760 0.34967745000000006 9.943072650000001 -0.04715667 1.229829 -0.780127 -0.7125279999999999
25780 3.1641174000000003 11.978088480000002 -1.07715762 0.342038 -0.264812 -0.406401
25800 2.59784496 12.162055409999999 -0.90411903 -0.50472 0.186186 -0.035811
25820 1.34570637 13.77959688 -0.8184973500000001 -1.298034 0.666795 0.342592
25840 0.44757144 13.914160650000001 -0.77838426 -2.0873150000000003 1.114289 0.740293
25860 0.9017253900000001 13.552220700000001 -0.14893542 -2.830345 0.8482299999999999 1.052706
25880 0.42930522000000004 12.516971400000001 0.28441152000000003 -3.135033 0.289799 1.106841
25900 -1.33822134 12.54750993 -0.75158334 -2.187207 0.724758 0.7368899999999999
25920 0.61462593 14.88803859 0.57854475 -0.720913 1.08829 1.261549
25940 1.4162010300000003 16.87935087 2.3682222900000003 -2.105832 0.7472340000000001 1.172196
25960 -0.6135762600000001 14.08675779 -0.06107706 -2.096374 1.026117 1.4848940000000002
25980 -3.0380785200000004 11.86612695 -2.87103384 -2.857598 2.604174 1.51601
26000 -2.7596609100000005 12.407697810000002 -3.56079456 -3.892239 4.407524 1.121913
26020 -3.3295238100000004 16.20964179 -2.1990782700000002 -3.4089089999999995 3.431979 0.375579
26040 -4.561914870000001 14.47339932 -3.0582871199999997 -3.121404 2.1310830000000003 -0.090764
26060 -3.8896650000000004 14.453190720000002 -2.54605797 -3.14983 1.567285 -0.265428
26080 1.76273928 14.5012401 2.2927833900000003 -2.975673 1.88499 -0.4793310000000001
26100 3.18088269 13.258980180000002 0.9154986300000001 -2.800653 2.077421 -0.534971
26120 1.6428316500000002 9.39835278 1.72441161 -2.3018490000000003 1.49531 -0.05111
26140 -0.9535123800000002 4.59349326 1.44015705 -1.604434 0.761046 0.481336
26160 -2.6927469000000004 1.6994157300000001 0.78407406 -1.561984 -1.277353 1.108086
26180 -3.37233465 1.6251736500000002 -0.7545852000000001 -1.629224 -2.158401 1.182453
26200 -1.85494347 1.7341431300000003 -1.23657993 -1.292489 -0.701811 1.0675709999999998
26220 -2.16420372 2.59874748 -1.54343673 -1.320866 0.7835300000000001 1.271636
26240 -2.3474152800000003 3.80763378 -1.9158635700000002 -1.7367009999999998 1.403436 1.120522
26260 -3.2052801600000005 2.05192827 -2.1318699600000004 -1.4181979999999998 0.615683 0.441163
26280 -4.683313620000002 1.88787564 -3.80763378 -0.8355040000000001 0.135301 -0.07758
26300 -5.28326379 2.6598147300000003 -4.2650838900000005 -0.5880810000000001 -0.229457 -0.183275
26320 -5.2676953200000005 2.77762302 -4.52284164 -0.636288 -0.420338 -0.092568
26340 -5.3235338400000005 1.9553880600000002 -4.99975479 -0.530496 -0.397212 -0.106814
26360 -5.68472823 1.3733901900000003 -6.809189669999999 -0.558383 -0.345258 -0.021618
26380 -5.38639632 2.51851149 -8.568181529999999 -0.455049 -0.047721 0.073795
26400 -4.67043309 4.739142330000001 -6.95424033 -0.436328 0.029128 0.020416
26420 -7.892488350000001 15.650403120000002 -10.157274000000001 -0.666408 -0.209422 -0.064207
26440 -0.23890293 27.78372504 -15.350580090000001 -0.482198 -0.345242 -0.357575
26460 -4.5491913 8.60874588 5.328321120000001 0.212872 -0.998425 -0.650985
26480 -5.1421077 0.38709279 -4.856352210000001 1.137218 -1.325817 -0.831048
26500 -1.20618855 5.944585320000001 -3.4148511900000003 1.615858 -0.693459 -0.343542
26520 -2.45429523 11.650424670000001 0.51837021 2.023328 -1.062897 -0.217377
26540 -2.05417476 13.631250060000001 -0.67584033 2.975518 -1.461599 -0.969721
26560 -0.34503732000000004 11.1691755 0.31629402 4.138616000000002 -1.870881 -1.6564849999999998
26580 1.35887139 8.37134388 -0.49906413000000005 4.828277 -0.809341 -2.118773
26600 0.8797215600000001 8.3526264 -0.39562748999999997 4.155207 1.088151 -2.392961
26620 -0.08487612 10.57071645 -0.17992521 2.529772 1.297223 -1.587393
26640 0.86340753 12.56652171 -0.5300441100000001 1.898525 0.18029 -0.643926
26660 1.7437275 11.31826788 -1.9802367900000002 3.101481 0.635085 -0.069949
26680 3.08179188 9.768385980000001 -4.0516281 4.090431 -1.331445 -0.120341
26700 3.24136134 7.3784541599999995 -0.9632439 4.799535 -2.16373 -0.392059
26720 1.0352493 5.88426363 -0.8502327000000002 4.73431 -2.273025 -0.708569
26740 -0.43574058 6.72775686 -1.96316739 4.1084830000000006 -1.765642 -0.7766149999999999
26760 -2.56656087 7.41752739 -2.61401184 3.394003 -1.219955 -1.022655
26780 -3.63698883 8.22404673 -1.97335017 3.083762 -1.454221 -1.3097370000000002
26800 -1.5929870400000001 9.63500922 -0.7226928900000001 2.779428 -1.556323 -1.353393
26820 1.0124901 10.24349409 -0.4864877100000001 2.396851 -1.45381 -1.349787
26840 2.21314581 10.837764270000001 -0.26629245 1.61913 -1.102111 -1.24778
26860 1.8791937900000002 11.43726318 -0.60698394 0.8353430000000001 -0.635504 -1.10537
26880 1.63310013 11.06693568 -0.6267510900000001 0.077782 -0.24684 -0.941312
26900 2.31538563 11.450742120000001 -0.29833191000000003 -0.610544 0.215754 -0.677521
26920 1.98143361 11.90250243 -0.1588239 -1.26307 0.580188 -0.405876
26940 -0.09834525 12.644805510000001 0.17963091 -1.99718 1.10244 -0.102957
26960 -2.00193651 13.06677285 0.8963397000000001 -2.652282 1.820645 0.145783
26980 -2.33454456 14.008473990000002 -0.18965673000000005 -3.092136 1.937558 0.327363
27000 1.13149521 16.49255238 1.14452289 -3.361864 1.653476 0.474326
27020 0.6902119800000001 18.56723985 1.4919440400000001 -2.815465 1.240154 0.266096
27040 -1.81646865 13.11033906 -1.4299742700000002 -1.608456 0.943445 -0.106448
27060 -3.11561676 10.957662090000001 -1.9579288500000003 -0.399748 -0.816863 0.29522
27080 -2.89602972 12.469216320000001 -3.7516481100000005 -1.868883 0.267145 1.145624
27100 -3.0487125600000002 16.665895080000002 -2.85935013 -2.518175 1.997407 1.112166
27120 -3.24734544 15.923582190000001 -3.1493043000000007 -1.314628 2.407839 0.793171
27140 -2.8099567800000003 13.25374164 0.12888378 -2.530665 3.241742 1.099802
27160 -0.39577464 14.39092665 2.6661029400000005 -2.377082 2.821116 0.927294
27180 1.00186587 13.46299875 2.5286942700000004 -2.680361 3.114427 0.568013
27200 -1.01384388 11.74817151 0.0068866199999999995 -2.672527 3.805112 0.464634
27220 -2.45190159 7.65463509 1.344951 -2.797223 3.545825 0.41282
27240 -2.8837574100000003 4.19352975 0.60159825 -2.72611 2.990453 0.175815
27260 -3.0668218200000004 2.57958855 -1.4852143800000002 -3.130531 4.762065 0.77747
27280 -1.09227483 3.0627801 -1.99475559 -3.363875 5.178734 0.4110430000000001
27300 -0.38275677 3.2250473100000003 -2.22168051 -3.663754 4.611221 0.3349
27320 -1.4130618300000002 3.9158577000000006 -1.70869599 -3.772475 4.109943 0.046363
27340 -2.56416723 2.98509471 -1.54403514 -3.292838 3.729087 -0.230741
27360 -4.396655610000002 0.8388531 -2.4691181400000004 -2.408889 2.814711 0.16009600000000002
27380 -4.721327370000002 1.84850811 -2.4161245200000003 -1.257606 2.8797770000000003 0.206511
27400 -4.551889050000001 2.8333045800000005 -2.88046125 -0.6298060000000001 2.528103 0.228438
27420 -4.30744347 2.48857137 -2.9033577900000003 -0.913402 0.969398 0.52542
27440 -4.223018610000001 2.07918045 -3.91810419 -1.294892 -0.147793 0.252859
27460 -4.5144639 1.6302552300000002 -5.01816816 -0.638008 0.299289 0.299603
27480 -4.79692323 1.3178557800000001 -6.7457189699999995 -0.6778850000000001 0.830414 0.446059
27500 -4.47569478 2.0239403400000002 -7.02369513 -0.800841 1.448843 0.410224
27520 -3.8838280500000004 2.6002386000000004 -9.03460779 -0.774632 1.468389 0.295014
27540 -4.748422590000001 4.30849314 -12.47236533 -0.6723520000000001 0.723301 0.055265
27560 -7.43982552 11.423048490000003 -13.09386807 -0.602478 0.052131 -0.25958000000000003
27580 -6.64812909 22.61227563 -17.24594076 -0.719332 -0.101811 -0.289041
27600 -1.62981378 11.47768038 -1.33162902 -0.80621 0.15579400000000002 -0.16606400000000002
27620 -6.696619920000001 -3.5841423600000004 5.870637540000001 -0.747475 0.257497 -0.076054
27640 -8.227490040000001 5.91195726 -9.756260820000001 -0.440907 0.315119 -0.099624
27660 -2.1582098100000007 14.13810333 1.02611619 -0.02714 1.01239 -0.070921
27680 -5.6077884 11.770322490000002 -2.98718424 0.037189 2.256679 0.393678
27700 -4.18215015 11.228006070000001 -2.3366439000000003 -0.084798 3.03746 0.7817270000000001
27720 -2.13875658 9.58307508 -1.10904012 -0.105748 2.238209 0.607416
27740 -1.90928106 8.46938502 -1.32115194 0.129484 1.964333 0.694868
27760 1.95883137 7.96194315 -2.6102742300000004 0.5378149999999999 1.675126 0.47056
27780 -1.51454628 7.351957350000001 -1.05111207 1.301875 1.591986 0.353158
27800 -1.2543948900000002 9.31707693 -2.6005427100000005 1.916075 1.023311 0.5739569999999999
27820 -1.4735404799999998 8.063878859999999 -0.16645608 2.73727 -0.589875 0.218565
27840 -0.87118686 7.51976721 1.7019565200000002 3.121136 -0.667057 -0.525342
27860 -0.25581537 8.940157110000001 1.3515433200000002 2.949573 0.458685 -1.111232
27880 1.6235255700000002 9.90655002 0.7758336600000001 2.739793 1.1298860000000002 -1.481026
27900 3.5013655800000003 11.552824980000002 2.2492269900000004 2.41309 1.378759 -1.89596
27920 4.147726860000001 13.310021610000002 1.74776922 2.162316 1.059594 -1.2510290000000002
27940 3.51408915 11.29700961 -1.3492968300000001 1.983489 0.340486 -1.350701
27960 4.757702850000001 9.33189003 -4.94122833 1.928357 -1.227693 -1.811617
27980 2.72538477 8.065232640000001 -1.40019111 2.958175 -0.5606909999999999 -1.673887
28000 1.5832555200000002 8.09531991 -0.59066991 2.956748 0.822105 -1.157581
28020 1.14496434 8.522378640000001 0.37900935 1.907978 0.788922 -0.475861
28040 -0.3468325500000001 8.438248080000001 0.023946210000000002 1.456858 0.373888 -0.457116
28060 -1.37758887 8.99688834 -0.14025357000000002 1.690832 -0.548428 -0.978797
28080 -1.32639048 9.031321440000001 -0.38005902 1.550014 -0.518331 -1.190259
28100 0.22213764000000003 8.92294056 0.15402681000000001 0.7171960000000001 0.104346 -1.140258
28120 1.35678186 9.707308920000001 -0.06735546 -0.069732 0.757645 -1.062202
28140 1.14122673 10.404260370000001 -0.48319155 -0.5407810000000001 1.080164 -0.855466
28160 0.51972399 10.5677244 -0.07380063 -0.904673 1.412387 -0.5048520000000001
28180 0.75158334 11.23039971 0.40505490000000005 -1.264188 1.555942 -0.129397
28200 2.27437002 11.432024640000002 -0.30611124000000006 -1.576069 1.628971 0.2593
28220 4.18140459 12.231068760000001 1.25514045 -1.78981 1.802332 0.513958
28240 3.67889715 11.18608794 -0.74409831 -1.797381 1.758875 0.731878
28260 0.37467332999999997 11.12935671 -1.9637658 -1.3679629999999998 1.286036 0.856193
28280 -1.7956616400000003 12.009676680000002 -1.5043733099999999 -0.922469 0.770766 0.921922
28300 -0.20731473 12.51652014 1.32684174 -0.018856 0.201015 0.362806
28320 1.5513730200000002 14.10007977 3.1900158000000003 0.212585 0.721723 -0.050715
28340 -0.50250744 13.360317479999999 1.1493101700000001 -0.040309 0.226233 -0.063597
28360 -4.34007153 10.798543890000001 -0.2718351 -0.623276 -0.153041 -0.348125
28380 -4.3444173600000004 11.30269941 1.4534790300000002 -1.080054 2.227996 -0.7869970000000001
28400 -4.335137100000001 12.63986127 2.40385221 1.747915 1.904864 -1.0189290000000002
28420 -4.8415293 13.08848238 1.66349151 0.241204 1.318039 -1.079977
28440 -7.629482250000001 12.73492017 2.3504171400000002 -1.96609 1.132065 -0.345264
28460 -11.339967600000001 10.639719990000001 4.19008644 -2.107135 5.22865 0.957073
28480 -4.47165306 9.16004826 3.0323985300000005 -3.114443 5.71443 0.761407
28500 -0.75607632 9.32306103 1.55780838 -3.225765 4.399282 0.474963
28520 1.12850316 11.31033159 1.2081407400000002 -1.306366 3.802024 0.585275
28540 1.9859167800000002 12.373715970000003 -0.92222829 -0.92215 2.044443 0.221675
28560 1.2190690800000001 10.336453650000001 -1.9622648700000003 -1.459258 1.453121 0.444076
28580 -1.09662066 6.295459590000001 0.18590931 -1.304671 1.993487 0.774544
28600 -2.3140416600000004 4.57837605 1.2960089099999998 -1.275047 3.233991 0.8842559999999999
28620 -3.27608874 3.37668048 0.19399275000000002 -1.420559 2.781186 0.7599060000000001
28640 -2.9931781500000003 3.0726587700000003 -1.7051055300000002 -1.083654 2.370372 0.638872
28660 -2.71206279 4.0995205200000004 -2.9564985600000004 -1.131957 1.871715 0.441553
28680 -2.31433596 5.09016375 -3.2741365500000006 -0.808649 1.197109 0.233167
28700 -1.4275806300000002 5.62275846 -3.86197137 -0.421328 0.922171 0.188155
28720 -1.0945213200000001 5.457352050000001 -4.22227305 -0.475742 1.230048 0.498233
28740 -1.3733901900000003 5.07130893 -4.51640628 -0.5189779999999999 1.45357 0.8480219999999999
28760 -1.7571966300000001 4.85080956 -4.91518278 -1.006705 3.156426 1.400045
28780 -2.3436776700000004 5.707477620000001 -6.4990367099999995 -1.397434 2.886898 0.943666
28800 -3.31739865 9.54774927 -9.99336852 -0.422467 1.94342 0.276569
28820 -4.04294625 15.42137886 -12.437932230000001 -0.443931 1.493625 0.091125
28840 -5.43683934 16.755705629999998 -13.44503664 -0.391594 0.6938270000000001 -0.010034
28860 -5.72439987 9.53187669 -7.79624244 -0.20847 0.349195 -0.031814
28880 -7.31154996 6.947206560000001 -3.26111868 -0.281854 0.4154390000000001 -0.017456
28900 -10.45261386 12.554543700000002 0.32811507000000006 -0.410772 0.937839 -0.009412
28920 -10.21461345 20.432954700000003 9.990974880000001 -0.5392899999999999 1.203941 -0.109995
28940 -4.392319590000001 16.902845820000003 -2.94197976 -0.413455 0.835393 -0.228285
28960 -0.7595196300000001 0.62824221 5.323680990000001 -0.372902 0.48524 -0.343989
28980 -0.59501574 -0.9967744800000001 1.9734973199999999 -0.22958 0.400291 -0.27024000000000004
29000 5.51782089 6.939123120000001 -3.64148181 -0.161189 1.153138 -0.25363600000000003
29020 0.9137034 10.11701376 4.52883555 0.03472 1.728009 -0.06286
29040 -0.79859286 12.12373755 5.81375916 0.5135890000000001 0.97014 0.168987
29060 0.66596166 16.133006070000004 1.1593359900000002 1.485185 -0.435748 -0.209121
29080 1.4322207599999999 13.72091346 -1.8809890200000001 2.247289 -0.308862 -0.632318
29100 0.29728224000000003 11.102408640000002 0.030087270000000003 2.891461 0.665227 -1.030718
29120 -0.8372050200000001 10.10862621 1.7691746400000001 3.751996 2.010785 -1.006135
29140 -0.36613863 9.22426452 1.81722402 3.733396 2.62443 -1.00171
29160 -0.15567489 8.81681598 -0.55968993 3.185448 2.011447 -1.479042
29180 0.55400013 9.80865603 -0.41493357000000003 2.752486 -0.00085 -1.638653
29200 1.2434665500000002 10.015676460000002 -0.58423455 2.951912 -1.340057 -1.7722759999999995
29220 1.79027595 10.48554603 -0.7461976499999999 4.33014 -0.783744 -1.163022
29240 1.80015462 10.961556660000001 -1.40198634 4.577349 1.03855 -0.215049
29260 2.6587748700000002 10.587933 -0.98405091 3.719437 0.06371 0.023762
29280 2.96473896 9.48308175 -0.67764537 3.992521 -0.807078 -0.364184
29300 2.4658219800000003 7.457346180000001 1.25887806 4.690748 -1.7255619999999998 -0.914673
29320 -1.47967173 9.68905251 -2.93060997 4.021612 -1.894126 -0.8048310000000001
