time Ax Ay Az Gx Gy Gz
20 4.6707372000000005 0.43200297000000004 -6.8594855400000005 -1.616701 1.163033 -0.666535
40 4.88464425 1.19302353 -1.2705617700000003 -1.676005 1.186976 -0.741755
60 3.8898121500000005 3.88322964 -4.21299279 -1.877385 1.355438 -0.8704959999999999
80 -2.1266314200000007 24.81644529 -17.200579320000003 -1.845286 0.931117 -1.0791
100 13.267063620000002 43.95744261 -9.492960420000001 -1.608284 0.267521 -1.3019889999999998
120 2.4004089 6.53900265 3.1064934600000003 -1.3690950000000002 -0.331314 -1.471534
140 -4.913985960000001 -0.7186511700000001 -4.21433676 -1.307034 -0.974961 -1.204289
160 -3.9311220600000003 0.45774441000000005 -2.45893536 -1.29888 -1.036758 -0.942438
180 -3.5482181400000004 6.2439669 -1.02446811 -1.34736 -1.173771 -0.7364350000000001
200 -1.7548029900000002 16.91123337 0.5343899400000001 -1.284159 -0.7855449999999999 -0.641419
220 7.30390797 22.69191321 1.2428681400000001 -0.991173 -0.17823699999999998 -0.654037
240 3.91660326 11.64443076 -1.15005573 -0.773021 0.374022 -0.688473
260 0.49861287 7.982151750000001 -1.3769904600000002 -0.576613 0.7732100000000001 -0.7858890000000001
280 0.5150740500000001 6.730905870000001 -0.8361651600000001 -0.651057 1.187364 -0.661957
300 1.08583947 7.78411728 -0.26944146 -0.652756 1.165585 -0.542301
320 1.5058644300000001 8.77025772 -0.38469915000000005 -0.336559 0.129848 -0.477876
340 2.03172948 8.979828750000001 -0.9050215500000001 -0.142291 -0.513383 -0.4286930000000001
360 1.2507946200000002 7.83081288 -0.41837688 0.076953 -0.52322 -0.556404
380 0.34038738 7.32531339 -0.44771859 0.118534 -0.170183 -0.43372
400 -0.57854475 7.713759960000001 -0.27333603 0.314827 0.041323 -0.216839
420 -1.6578017100000002 7.88350239 -0.78826293 1.184088 0.012722 0.054188
440 -1.6127443799999999 7.993531350000001 -0.60654249 1.582818 0.8767530000000001 0.75021
460 -2.18650185 8.26132473 -1.12266621 1.899042 0.60273 1.33602
480 -2.5105752 9.04165137 -1.76662404 2.994218 1.052465 1.671037
500 -0.11511054 11.344607730000002 -0.81999828 3.802561 2.263859 2.257312
520 2.72163735 12.631483529999999 -0.81280755 2.838196 0.07507799999999999 1.938255
540 5.44672782 13.558057650000002 -0.81206199 2.729475 -0.510862 2.041864
560 3.7664710200000004 13.390856009999998 -1.90628901 2.206093 -1.709254 1.686163
580 0.329616 13.93572303 -2.94512877 2.229494 -1.397572 1.7767259999999998
600 -3.5054073000000003 16.30769274 -4.02078546 3.40636 -1.273308 1.649123
620 -3.33476235 17.47152171 -3.7595844000000005 3.008298 -1.007945 1.700481
640 -1.3674060900000002 15.94244682 -2.7407962800000005 2.541546 -0.076726 1.796441
660 -4.39395786 13.129350840000003 -5.5036062 2.881911 0.097073 1.728093
680 -5.24239533 14.641052220000002 -8.104443210000001 2.606941 -0.145637 1.6570490000000002
700 1.82455209 14.397813270000002 -7.71914565 2.468111 -1.130511 1.650932
720 7.78605966 15.025604220000002 1.11967416 2.27577 -1.667823 1.65455
740 6.27255324 14.34197475 5.407350480000001 1.565869 -1.739159 1.195688
760 -0.13397517 13.488445890000001 4.81518945 0.806239 -1.57335 0.8825219999999999
780 -7.18924869 13.3353216 -0.8803199700000001 0.063429 -0.994249 0.563602
800 -7.88110875 10.00205037 1.9775390400000001 -0.838765 0.121575 0.160628
820 -3.3253349400000003 11.207493359999999 -7.56062586 -1.69455 0.7225010000000001 0.0759
840 -2.8475290800000006 8.51668884 -0.8240400000000001 -3.017131 1.029693 0.058791
860 1.0033668 7.5320395200000005 -1.23747264 -3.52464 2.111088 -0.60096
880 -0.41014629 7.237896480000001 -2.17033497 -2.951349 1.255649 -0.825527
900 1.32684174 6.4972414800000005 -1.5988239899999999 -2.561983 1.375833 -1.6465610000000002
920 3.1380718499999998 5.75253495 -1.08538821 -1.344007 -0.730364 -0.802141
940 1.12386303 3.6558436500000004 -0.35131572000000005 -0.723304 -0.626622 -0.6441140000000001
960 -2.0847132900000003 3.35871837 0.34997175 -1.391846 -0.206237 -1.02961
980 -1.9576247400000002 0.8496342900000001 0.22872015 -1.607409 0.566113 -1.913388
1000 -0.01002582 -0.67704696 -0.65204127 -1.931979 1.7367720000000002 -1.8787
1020 0.01601973 -1.27085607 -3.4247298600000002 -2.29265 1.818823 -1.3066209999999998
1040 0.8123562900000001 -2.24473401 -6.733446659999999 -1.882271 0.992258 -0.620101
1060 3.797451 0.09220419 -6.4551761999999995 -1.628283 0.802687 -0.586037
1080 2.9410870500000006 1.95448554 -1.0145894400000002 -1.817245 0.8827 -0.717783
1100 -0.34967745000000006 8.78253984 -7.67648196 -1.824746 0.620629 -0.973873
1120 -0.54216927 33.64703451 -10.1310813 -1.655743 -0.21213 -1.1916790000000002
1140 12.47970321 27.28511217 -2.9373396300000003 -1.362211 -0.838801 -1.373628
1160 1.5688838700000003 5.599852110000001 -5.06561913 -1.325832 -1.130392 -1.212767
1180 -4.943769120000001 2.14983207 -2.46252582 -1.519744 -1.066777 -0.96958
1200 -3.8052401400000004 3.06188739 0.0925083 -1.50705 -0.690371 -0.805467
1220 -2.3763057300000003 9.159155550000001 -0.053140770000000004 -1.445853 -0.30096100000000003 -0.738241
1240 0.96399927 19.57749327 0.8394515100000001 -1.315171 0.04695 -0.743115
1260 7.2362484 17.2716822 0.21704625 -1.06694 0.248315 -0.69891
1280 3.00410649 10.13063004 -1.28448216 -0.66779 0.787942 -0.661563
1300 0.40894947000000004 8.487651240000002 -1.61065485 -0.579469 1.095012 -0.539562
1320 0.19205037000000003 7.359746490000001 -1.47907332 -0.384477 0.6816 -0.421234
1340 0.41509053000000007 7.671841830000001 -1.2816372600000001 -0.115941 -0.07896900000000001 -0.397019
1360 0.5445629100000001 8.22239865 -0.7212017700000001 -0.07484099999999999 -0.282218 -0.48727
1380 0.18291726 7.64280423 -0.83780343 0.045978 -0.39381 -0.657199
1400 -0.10313253 6.62701797 -0.86625243 -0.005915 -0.226709 -0.575522
1420 -0.7099693200000001 6.5207364299999995 -1.01623752 -0.055714 -0.112593 -0.299347
1440 -1.4633577 7.108414290000001 -0.78871419 0.649834 -0.07325599999999999 -0.092575
1460 -0.9577110600000001 8.00310591 -0.94319226 1.363807 0.528067 0.226767
1480 0.04027005 8.757239850000001 -0.57959442 1.460335 0.5845279999999999 0.408966
1500 0.10612458 8.45127576 -0.89797797 1.948312 0.317212 0.767367
1520 0.8027817300000001 10.03962267 -2.24338023 3.363477 0.84439 1.437806
1540 0.7417046700000001 12.21340095 -3.0409234200000004 4.419944 1.807516 2.356213
1560 1.8905733900000001 13.313612070000001 -1.12565826 3.4703160000000004 0.6823640000000001 2.435411
1580 3.04721163 12.40784496 0.22378572 2.1535900000000003 -0.042872 2.457053
1600 2.70173286 11.774815470000002 -0.47256732 1.7474759999999998 -1.532466 1.829079
1620 -0.24968412 13.71806856 -1.88816994 1.730404 -1.881369 1.7172439999999998
1640 -4.452494130000001 17.30281914 -3.4531690500000005 2.80727 -0.274825 1.822051
1660 -2.6508385800000003 17.200285019999995 -2.11225977 3.615173 -1.570319 1.418089
1680 -2.01795624 17.04849489 -1.1054496600000001 2.407489 -0.839525 1.661886
1700 -4.62732795 14.617851570000001 -4.307296320000001 2.4166220000000003 0.768804 1.7133
1720 -3.2476495500000007 12.076884990000002 -8.578962720000002 2.690427 0.09399 1.599641
1740 0.30880899 13.43411811 -8.56743597 2.8530830000000003 -0.908242 1.676837
1760 5.44073391 13.996947240000003 -4.83105222 2.564544 -1.391376 1.535503
1780 5.89938084 13.500129600000001 2.76549786 2.073571 -1.387949 1.104781
1800 2.73796119 13.81417713 4.402649520000001 1.498824 -1.10261 0.842959
1820 -3.61977228 12.388391730000002 2.72208861 0.8806709999999999 -0.76377 0.559401
1840 -7.898325300000001 11.34835515 -0.5526463500000001 0.191724 -0.210808 0.337031
1860 -5.208423300000001 8.661592350000001 0.56357469 -0.488748 0.341961 -0.110674
1880 -1.82755395 12.0370662 -8.13558015 -0.946986 0.189113 -0.383939
1900 -3.95148762 9.00272529 -2.31777927 -1.4214639999999998 0.547405 -0.328961
1920 2.01944736 7.72438419 -0.86205375 -1.899604 0.678245 -0.399766
1940 -0.4176313200000001 7.741002330000001 -3.0918177 -2.560061 0.789665 -0.517754
1960 -0.59426037 6.4551761999999995 -2.1860505900000002 -1.998556 2.381411 0.536327
1980 1.64761893 5.99083947 -1.7914727700000002 -2.44747 1.7404400000000002 0.311823
2000 0.40730139000000004 5.29344657 -0.55144953 -1.534358 -1.949818 -0.97496
2020 -1.7661727800000002 3.4373062800000005 -1.2698064 -1.885942 -0.215026 -0.535258
2040 -2.3662799100000003 2.47929111 -1.5615558 -1.774765 1.268475 -0.524632
2060 -1.9923521400000002 1.50766947 -1.4582663100000002 -2.083021 1.0383129999999998 -0.7743180000000001
2080 -1.17176526 0.39233133000000003 -2.50713189 -2.095913 1.6904689999999998 -0.814768
2100 -0.22483539 0.04281084 -3.62231307 -2.123554 2.144435 -1.096485
2120 1.1816439300000001 0.45355554 -3.37727889 -1.975277 2.348566 -1.124553
2140 4.20924537 2.20192317 -5.33296125 -2.000114 2.715384 -0.927576
2160 4.91233788 3.19540149 -9.239234580000002 -1.933736 2.6772720000000003 -0.77858
2180 4.91263218 4.91248503 -11.61868932 -1.904475 2.178062 -0.904855
2200 9.28384065 14.39571393 -16.25709276 -1.803943 1.803506 -1.0970209999999998
2220 9.298957860000002 23.81039055 2.7872073900000003 -1.531032 1.50847 -1.3447
2240 -8.09456454 12.907811610000001 -9.0636552 -1.512286 1.191927 -1.321731
2260 4.74348816 -1.6805511 2.4866289900000003 -1.310483 0.711062 -1.12422
2280 -4.3581906 0.80187921 -9.39805848 -1.363675 0.446241 -1.18621
2300 -4.06913895 5.03627742 -1.8871300800000002 -1.341383 0.309302 -1.059828
2320 -2.0411568900000003 10.67295627 -2.01480723 -1.254135 0.28969 -1.0260790000000002
2340 -0.6694049700000001 17.78196897 -2.4544423799999997 -1.266132 0.616178 -0.8780979999999999
2360 2.64978891 16.15934592 -0.37841094 -1.270114 0.706741 -0.612255
2380 3.1452625800000003 10.20323385 -0.7105677300000001 -1.258842 0.8748790000000001 -0.5782079999999999
2400 1.5138007199999999 8.76202713 -1.69432434 -1.233599 0.599777 -0.53495
2420 1.1472108300000001 8.97892623 -1.3991414400000002 -1.247036 0.692517 -0.5383680000000001
2440 1.62367272 10.09979721 -0.4864877100000001 -1.238983 0.7407560000000001 -0.620627
2460 1.1570895 10.82308851 -0.12439080000000001 -1.131669 0.447261 -0.5778399999999999
2480 1.50347079 10.167152670000002 -0.6932040300000001 -1.09149 0.6376689999999999 -0.54362
2500 0.9741722400000001 8.81097903 -0.79799445 -1.03703 0.8644700000000001 -0.564895
2520 -0.33305931000000005 7.81360614 -0.044007660000000004 -0.7424109999999999 1.08735 -0.613329
2540 0.81175788 8.19470502 0.16466085 -0.545691 1.216477 -0.5747329999999999
2560 0.9165483000000001 8.66623248 0.7520346000000001 -0.4355890000000001 1.508061 -0.328646
2580 -0.16270866 8.57626497 0.9963232200000001 -0.16538 1.6654669999999998 -0.23295700000000005
2600 0.8509782600000001 8.18228556 -0.35730963 0.138748 1.2806030000000002 -0.155564
2620 -0.12080034 9.437573160000001 -0.7608636000000001 0.363722 0.961615 0.033355
2640 -0.3589577100000001 8.382419370000001 0.26509562999999997 0.6295109999999999 0.545333 0.541014
2660 -0.30431601 8.36924454 0.5334874200000002 1.220765 0.388986 1.297373
2680 0.33470739 8.68658823 0.71491356 2.249566 0.5959949999999999 1.916385
2700 0.71476641 8.6008194 0.24219909 3.058255 0.6102609999999999 2.176252
2720 0.7342196400000001 9.52424451 -0.55923867 3.849324 1.555113 2.301276
2740 0.28126251 9.9460647 0.1414602 4.252098 2.082264 1.992561
2760 0.5695686 9.82257642 0.52645365 3.0368880000000003 0.689448 1.3075370000000002
2780 0.6664129200000001 10.149494670000001 0.91190817 2.519977 3.236926 1.122269
2800 0.13053186 10.07195643 1.08599643 2.299998 3.078579 1.48413
2820 0.5762982600000002 10.46294379 0.56687085 2.806967 1.86269 1.413386
2840 3.0846367800000003 11.60431767 1.29780414 2.555238 1.69905 0.996299
2860 5.55734538 12.365485379999999 1.12116528 2.315079 0.892581 0.685871
2880 4.3872282 14.009965110000001 -0.40864536 2.10041 0.6915359999999999 0.532941
2900 0.5724135 15.179032620000001 -1.57308255 1.823757 0.502283 0.414815
2920 -1.8884740500000001 14.94282744 -3.67889715 1.364632 0.352892 0.343433
2940 -3.27773682 12.97487277 -3.80104146 0.907262 0.074775 0.227363
2960 -5.0871717 12.81110463 -3.00799125 0.446754 0.13708800000000002 -0.037648
2980 -9.0665001 15.54007986 -4.02123672 -0.120676 0.255798 -0.194519
3000 -13.51629648 15.031294020000002 3.31455375 -0.627371 0.168393 -0.540845
3020 -11.649973410000001 12.436137 3.99055104 -1.193 0.33868000000000004 -0.809934
3040 -0.15418377 12.195585990000001 -4.3742005200000005 -1.672394 0.6516310000000001 -1.133082
3060 1.6440284700000003 12.44871342 -2.2113505800000004 -1.717958 0.6847409999999999 -1.647257
3080 -0.38020617 11.414209679999999 0.90247095 -1.989443 1.520986 -1.41308
3100 1.4144058000000002 8.12225817 0.20192904000000003 -1.59014 3.3528330000000004 -0.587971
3120 1.3239968400000002 7.768843110000001 0.50399856 -0.766678 2.03186 0.036906
3140 1.65675204 6.340212810000001 -0.8599642200000001 -0.451682 0.973727 0.108829
3160 1.02881394 4.362075360000001 -0.71401104 -0.634279 -0.479654 0.35297
3180 0.11331531000000002 4.13125587 -0.07978473 -0.302727 -0.977687 -0.328806
3200 0.10537902 3.81706119 0.37137717000000003 0.493329 1.050013 0.724218
3220 -0.49307022000000006 4.39560594 -0.03322647 -0.470032 1.6705709999999998 0.618418
3240 0.18052362000000002 3.00200715 -1.42203798 -1.824927 2.102363 -0.159651
3260 0.0865242 2.1607604100000004 -2.3951703600000003 -1.650141 3.097003 -1.027101
3280 -0.31674527999999996 0.88077123 -2.9574010800000003 -1.024751 2.434107 -1.495106
3300 -0.6765957 3.3762292200000004 -6.82685748 -0.726018 1.679354 -0.8212079999999999
3320 2.3532522300000003 7.79952879 -9.00257814 -0.773861 1.502808 -0.32032
3340 4.54275594 16.01235288 -11.66059764 -1.409172 2.672286 0.01237
3360 7.90506477 18.57053601 -13.11093747 -1.774771 3.214757 0.001643
3380 6.55980966 12.59960103 -8.679103200000002 -1.395944 3.09256 -0.137627
3400 4.08710106 16.141079700000002 -3.31710435 -0.821831 3.07996 -0.4145430000000001
3420 0.69096735 18.49254651 2.6069780700000003 -0.864557 2.395934 -0.6137229999999999
3440 -3.43625661 10.42686261 0.44068482 -1.064914 2.3237240000000003 -0.497525
3460 -4.96981467 6.705154620000001 -2.6803274400000006 -0.839132 1.990709 -0.264786
3480 -6.78568491 1.4865583500000001 -0.12948219000000002 -0.569946 1.734584 -0.117299
3500 -6.22361115 3.2885082000000003 3.76482294 -0.910789 2.6218790000000003 -0.06847400000000001
3520 -4.39456608 11.32021026 4.6158012 -0.987202 3.669279 -0.060736
3540 -1.09826874 18.1825407 3.62575638 -0.728421 3.278679 -0.107566
3560 3.97468827 13.593834720000002 1.23148854 -0.302704 2.671611 -0.24482
3580 2.3067037800000003 9.895170420000001 1.44209943 -0.202869 2.05994 -0.28072600000000003
3600 -1.7064495 9.353295450000001 1.5024211200000002 -0.388549 1.822993 -0.272106
3620 -3.4937334000000004 9.452994480000001 2.01675942 -0.5585180000000001 1.598462 -0.185411
3640 -2.9292561900000003 9.505232730000001 2.87731224 -0.530933 1.48364 -0.266256
3660 -0.38933928 9.700579260000001 2.05132986 -0.5717270000000001 1.208756 -0.486242
3680 1.44644526 9.70476813 1.79821224 -0.5051140000000001 1.041411 -0.519746
3700 2.62180098 9.31033746 2.46866688 -0.471946 1.055174 -0.5270090000000001
3720 3.2967486000000004 9.52020279 2.88495423 -0.39645 1.294363 -0.468036
3740 3.3699410100000002 9.45074799 3.8124210600000006 -0.156929 1.258046 -0.385132
3760 3.6351936 8.89450137 3.0431699100000005 0.112735 1.389396 -0.432555
3780 2.5267420800000004 9.772133400000001 0.40925358 0.402378 1.631819 -0.302655
3800 2.60623251 9.7519248 -0.6273495000000001 0.965192 1.806604 -0.011596
3820 2.21658912 9.42290721 -0.3381507 1.782158 1.626664 0.588272
3840 2.9731167000000003 9.26797788 0.73258137 2.67154 1.835744 1.609027
3860 3.85717428 9.29731959 0.69590178 3.813274 1.418678 2.352474
3880 3.5124410700000004 9.449247060000001 0.71820972 4.329989 0.6739689999999999 2.723437
3900 2.02049703 8.82160326 -0.0489519 4.1429540000000005 1.496275 2.906948
3920 1.1707155900000001 9.24731802 -0.00643536 3.367751 2.347496 2.231735
3940 0.8035272900000001 10.04591088 0.77239035 2.960499 3.138237 2.241764
3960 0.8577177300000002 11.157197490000001 0.7511418900000002 3.272431 2.346438 2.312256
3980 0.32467176000000003 11.406734460000001 0.28695231 2.663414 2.004211 2.641725
4000 0.26808768000000005 12.32461692 -0.27692649 2.941573 1.975611 3.158588
4020 1.5820587000000002 12.65842179 -1.49509305 3.655354 -0.348504 2.727513
4040 3.07580778 12.422815020000002 -1.7717154300000002 3.990484 -1.586249 2.410973
4060 2.72627748 11.46136635 -1.8708062400000003 3.031938 -1.249568 1.897509
4080 2.26074393 13.157642880000001 -3.45421872 2.086862 -2.30987 1.739511
4100 0.34862778 12.182715270000001 -3.3531757200000003 1.750943 -2.2907490000000004 1.245758
4120 -0.9909375300000001 11.386673009999999 -1.91811006 1.119082 -2.10355 0.5350090000000001
4140 -3.6368416800000003 17.83017531 -3.1901629500000004 0.452167 -1.796198 -0.089612
4160 -8.58105225 22.657185809999998 -3.50690823 -0.336755 -0.467453 -0.557229
4180 -10.545573420000002 21.325556790000004 0.40416219000000003 -1.081805 1.338706 -0.573293
4200 -5.1082730100000004 15.91879491 -0.25387299 -1.541719 1.849291 -0.520544
4220 -1.43506566 14.540313330000002 -3.9917478600000003 -1.554392 1.486588 -0.914342
4240 2.074089060000001 14.077173420000001 -0.24938001 -0.744638 1.962792 -1.6218
4260 4.991671350000001 13.97808261 0.24473988000000002 -2.243145 2.372986 -0.6062310000000001
4280 4.50069066 10.52924958 -1.30873248 -2.349759 1.654062 -1.346333
4300 4.37539734 8.38526427 -0.38649438 -1.415273 0.625384 -0.919744
4320 1.27848825 6.8374817100000005 -0.96204708 -1.396224 -0.059902 -0.857844
4340 -0.41463927 3.83921217 -1.03374837 -1.49864 1.142765 -1.559786
4360 -1.07686332 1.92454542 -0.18142614 -1.7998029999999998 1.763793 -1.8244
4380 0.2555210700000001 -0.0085347 0.47780586 -2.071251 1.588201 -1.899778
4400 -1.31531499 -3.38969835 1.39359879 -1.674984 1.140981 -1.493718
4420 -1.7860870800000002 -3.97558098 -1.68145362 -1.255505 1.004104 -1.194715
4440 1.58041062 0.57225654 -4.09712688 -1.352127 0.914779 -1.15041
4460 2.73167298 2.4704621100000006 -6.751261620000001 -1.370216 0.811967 -1.264704
4480 0.84604383 2.6206041600000005 -9.668843910000001 -1.205843 1.044664 -1.523432
4500 2.27796048 6.31970991 -10.48270113 -1.1864370000000002 0.7415470000000001 -1.39579
4520 6.321505139999999 21.61040976 -7.99382565 -1.085809 0.31106100000000003 -1.188368
4540 8.60066244 23.092926390000002 0.8026345800000001 -0.945647 0.490241 -1.09682
4560 2.93719248 14.502593880000001 -9.8734707 -1.097518 0.784224 -0.957252
4580 -0.31898196000000006 1.33447392 2.04280497 -0.945621 0.937898 -0.891227
4600 -3.0397266000000003 0.07693983000000001 -1.6534656900000002 -0.8233590000000001 1.226526 -0.981541
4620 -3.1645686600000005 7.90760556 -0.35431757999999997 -0.762376 1.6814189999999998 -1.039382
4640 -2.33604549 18.61708446 0.16675038 -0.804815 1.825012 -0.947996
4660 6.34111533 20.204234550000002 -0.21644784 -0.7756649999999999 1.814608 -1.035373
4680 4.745136240000001 12.197381220000002 -0.34338924000000004 -0.7655420000000001 1.282741 -0.970527
4700 0.5565409200000001 9.90100737 -1.53655011 -0.6926680000000001 0.595684 -0.778994
4720 -0.25506981 8.62850322 -0.65713266 -0.363609 -0.06796 -1.069606
4740 0.31030011 8.59976973 0.3381507 -0.31587600000000005 0.171305 -1.005486
4760 1.7901288000000002 8.81920962 0.19863287999999998 -0.13864300000000002 0.524119 -0.6788930000000001
4780 2.89648098 9.29522025 -0.27198225000000004 0.402014 0.741751 -0.16158
4800 1.7759043 9.378301140000001 -0.7845155100000001 1.070666 0.926018 0.329963
4820 0.15762708 8.69302359 -0.9904862700000001 1.382135 1.540153 0.724458
4840 -0.65263968 8.1587808 -1.4226462000000002 2.028903 2.158802 1.2975450000000002
4860 -0.9695321100000001 7.944275340000001 -0.7682014800000001 3.163337 2.468373 2.017576
4880 0.22423698 7.4682745200000005 -0.1591182 3.5691870000000003 2.167521 2.5752040000000003
4900 1.3274401500000002 9.07413228 0.28845324000000006 2.963031 0.271047 2.372574
4920 2.8089071100000003 9.56316078 -0.21659499000000002 2.042719 -0.738212 2.215752
4940 4.54544388 11.63679858 -0.44921952000000004 1.138347 -0.910994 1.7204099999999998
4960 5.55060591 13.53889872 -1.2954105 2.115136 -1.279474 2.1784950000000003
4980 5.19883893 12.03841998 -2.90665395 3.291536 -1.0748799999999998 2.47487
5000 1.17490446 12.85646607 -3.3570702900000007 2.631296 -1.378008 2.129884
5020 -1.6991214300000002 14.482836540000001 -4.619391660000001 2.267267 0.28170500000000004 2.175421
5040 -1.87769286 17.356254210000003 -2.65637142 2.4621310000000003 0.083237 1.822386
5060 -2.0357712 17.306860860000004 -2.44142451 2.252746 -0.27373000000000003 1.762629
5080 -4.74198723 14.41037988 -5.65014798 2.070016 -1.378486 1.6709009999999995
5100 -3.3488397 13.11512634 -7.488326160000001 1.59866 -1.810395 1.6649580000000002
5120 1.95044382 14.29347411 -6.20400096 0.88465 -2.0799830000000004 0.971313
5140 5.95716174 13.74411411 -1.6566048900000003 0.12132 -1.919068 0.287454
5160 5.45196636 13.41001494 2.14369101 -0.93384 -0.34822800000000004 -0.284883
5180 2.08561581 9.64294551 3.3200964 -1.835635 0.973784 -0.569545
5200 -1.8658718100000002 12.748242150000001 1.5967344600000002 -2.831844 2.050671 -0.744526
5220 -3.73338189 10.26640044 1.38686913 -3.012368 2.446312 -1.4919129999999998
5240 -1.8034507800000001 13.76192907 -8.27838432 -2.811419 1.023061 -0.857367
5260 -5.16201219 10.2178998 -2.3275107900000007 -2.454734 2.719082 -0.6594270000000001
5280 -0.24892875000000003 6.94855053 0.70458363 -0.938631 -0.02529 -0.320581
5300 0.05912487 7.128622890000001 -3.2241447900000004 -1.068473 -0.8910680000000001 -0.546842
5320 0.06541308000000001 7.01590599 -1.17296208 -1.339908 0.022347 -0.962242
5340 2.9521625400000007 6.194867850000001 -2.17932093 -1.721379 0.486149 -1.797646
5360 3.53774106 5.863005360000001 -1.56904083 -1.930936 1.590328 -2.020578
5380 0.08248248000000001 5.33116602 -0.44008641 -1.931492 1.483952 -1.525859
5400 -0.8646043500000001 1.58760135 -0.25626663 -1.558098 1.126578 -0.924589
5420 -1.6170902100000002 -1.85344254 -0.92447478 -1.421144 1.015157 -0.885033
5440 0.019011780000000002 -2.06450469 -4.3743574800000005 -1.522808 1.121116 -1.187118
5460 2.80980963 -1.2657646800000002 -5.75208369 -1.58412 0.622321 -1.338594
5480 2.70173286 0.29818476 -1.1047041 -1.305338 0.053162 -1.504697
5500 -0.7667103599999999 2.11030758 -4.530326670000001 -1.164538 -0.245386 -1.558878
5520 3.6465633900000003 13.068577890000002 -3.27039894 -1.183369 -0.649965 -1.3330959999999998
5540 9.44386137 40.785536070000006 -10.005493680000002 -1.166143 -0.693278 -1.172687
5560 8.20847826 12.85751574 -2.47944807 -1.110434 -0.703766 -0.996028
5580 -0.56851893 0.79484544 -1.4422465800000002 -0.921811 -0.23799 -0.955783
5600 -4.49889543 2.2722706800000005 -3.77575128 -0.868152 0.483369 -0.77794
5620 -3.51319644 6.53720742 1.4455427399999998 -0.766162 0.706392 -0.69526
5640 -2.05447887 15.41809251 0.22527684 -0.61187 1.037369 -0.7480180000000001
5660 6.38077716 20.371740300000003 0.89498592 -0.416519 1.055887 -0.7530859999999999
5680 4.19233293 11.67123168 -0.87013719 -0.14071199999999998 0.27708 -0.70316
5700 0.16600482 9.21588678 -0.9128008800000001 0.152436 -0.200331 -0.649226
5720 -0.20881566000000004 8.486748720000001 -0.5809383900000001 0.289107 -0.324736 -0.559449
5740 1.13120091 7.944432300000001 -0.57974157 0.215916 -0.075829 -0.404319
5760 1.82620017 8.70859206 -0.51148359 0.112181 0.128023 -0.14465899999999998
5780 1.9505909700000001 8.279433990000001 -0.7381142100000001 0.443925 0.194833 0.175903
5800 1.27011051 7.2852003000000005 -0.40416219000000003 0.978216 0.771871 0.330583
5820 0.3793134600000001 7.2274194 -0.49143195 1.108693 0.85775 0.5856210000000001
5840 -0.15552774 7.93080621 -0.49861287 2.04677 0.8285459999999999 1.213916
5860 -0.18322137000000002 8.244255330000001 -0.21675195 3.231097 1.403813 1.780132
5880 0.18980388 8.16477471 -1.04333274 3.695377 1.94889 2.528295
5900 -0.24084531 8.73987615 -1.4688905399999999 2.6343490000000003 0.3083 2.66506
5920 0.43993926 10.21311252 -1.7805444300000002 1.848002 -1.362624 2.424563
5940 1.4804172899999999 11.254493069999999 -1.58430519 2.092894 -2.069373 2.063984
5960 3.9218418000000006 12.961246680000002 -0.38096154000000004 1.894953 -1.043636 2.266386
5980 6.27166053 11.940074730000001 -0.20866851000000003 3.267072 -1.06741 2.226862
6000 3.0805950600000003 12.513675240000003 -1.1111394600000002 2.604038 -1.695568 2.180307
6020 -1.09571814 14.161451130000001 -2.28843756 2.164942 0.279073 2.389422
6040 -3.0638297700000003 17.17991946 -2.77972236 2.422606 0.577649 2.091737
6060 -1.9902626100000003 18.52772517 -2.66834943 2.331401 -0.15012899999999998 1.953164
6080 -3.90119175 15.26166225 -5.21081694 2.323407 -1.063659 2.107034
6100 -2.3932279800000003 13.11662727 -7.741453590000001 1.780609 -1.714912 1.871205
6120 0.92358207 13.64293377 -7.271427060000001 1.119938 -1.9953 1.168332
6140 5.51722248 14.015654910000002 -4.40519031 0.500567 -1.831765 0.503635
6160 6.4494864 13.555811160000001 1.31337261 -0.335546 -0.8277450000000001 -0.235224
6180 3.4473321 13.401185940000001 3.3718833900000003 -1.19902 0.359309 -0.635882
6200 -1.2470570100000002 12.8696409 2.16210438 -2.288122 1.145956 -0.609246
6220 -6.2465076900000005 12.35231055 1.08030663 -3.397902 1.839786 -1.062267
6240 -3.39538815 10.92293469 -0.6650689500000001 -2.770878 2.456416 -1.563947
6260 -3.77814492 12.769049160000002 -9.33653016 -3.371664 1.249717 -0.842342
6280 -2.8243284300000004 8.768462490000001 0.30206952000000004 -2.328816 2.392939 -0.992483
6300 1.68699627 7.866442800000001 -0.77135049 -1.212439 -0.735496 -0.166692
6320 -1.19121849 7.880510340000002 -3.3970362300000003 -0.957285 -0.286694 -0.467791
6340 1.36530675 6.512211540000001 -2.9286577800000004 -1.5822040000000002 0.037834 -1.161575
6360 2.58707358 5.887854090000001 -2.34592416 -1.817712 1.340828 -2.062196
6380 0.9756731700000001 5.842051199999999 -0.79319736 -1.903923 2.379599 -2.019264
6400 -1.2219041700000002 3.41155503 -0.52570809 -1.816978 1.982326 -1.581245
6420 -0.50385141 1.0382413499999998 -0.63139122 -1.372333 1.298881 -1.017515
6440 -0.78915564 -1.8741024 -1.6064561700000002 -1.392735 1.298726 -1.227029
6460 0.07079877000000001 -2.01930021 -4.39411482 -1.470974 1.199898 -1.485959
6480 2.3833395 -1.63729881 -4.4942553 -1.486376 0.287399 -1.583173
6500 3.1895645400000006 0.50535234 -2.41537896 -1.270469 -0.276063 -1.521123
6520 0.35760393 1.87844823 -0.96878655 -1.1918030000000002 -0.744275 -1.450539
6540 -0.31314501 11.180702250000001 -4.187839950000001 -1.1955049999999998 -0.981203 -1.338098
6560 7.4720121299999995 38.83628907 -10.181082870000001 -1.176073 -1.04568 -1.215034
6580 16.01459937 21.75246837 -3.4142527800000004 -1.130853 -0.739901 -0.999329
6600 0.42556761000000004 2.98748835 -2.18096901 -0.86419 -0.29335500000000003 -1.012994
6620 -4.84511976 1.52023608 -4.08470742 -0.738038 0.399056 -0.851698
6640 -3.2856633000000004 3.8327768100000004 0.62075718 -0.581815 0.790431 -0.559484
6660 -3.4091613900000004 11.91731553 0.5441214600000001 -0.434771 0.921319 -0.385573
6680 1.9399667400000002 19.8081558 0.013469130000000001 -0.098404 0.964025 -0.16856500000000002
6700 6.88822884 13.634546220000002 0.6059440800000001 -0.02345 0.068957 -0.174372
6720 2.7556191899999996 9.893973599999999 -0.83212344 0.110333 -0.310862 -0.411165
6740 0.9845021700000001 8.088874740000001 -0.60159825 0.074009 -0.31195 -0.640016
6760 1.31411817 7.55209116 -0.67509477 0.05975800000000001 -0.170175 -0.65098
6780 2.9518584300000006 7.39971243 -0.36015453000000003 0.071249 -0.011283 -0.436391
6800 2.49904845 7.44806592 -0.6623712000000002 0.519626 0.084074 -0.16312100000000002
6820 1.6039153800000001 6.59633229 -0.23201631 1.290814 0.51307 0.310666
6840 0.6560829899999999 6.81293709 -0.03891627 1.500982 0.974929 0.778355
6860 -0.040711500000000005 7.488630270000001 0.24833034 1.800905 0.993317 1.247239
6880 -0.35386632 8.39784069 -0.060321690000000004 2.9054450000000003 1.269973 1.700049
6900 0.26704782000000005 8.92698228 -1.19900763 3.790502 2.270088 2.574482
6920 1.0827002700000001 9.30809097 -2.4556392 2.663325 0.659433 2.741724
6940 1.0267146 10.708282080000002 -3.0039495300000003 2.325019 -1.71515 2.523419
6960 2.18784582 12.75857208 -1.5275739600000002 0.889546 -0.829578 2.088173
6980 2.7695395800000004 11.78558685 0.2573163 1.4110790000000002 -1.127348 2.307978
7000 4.28409567 10.315352339999999 1.2696592500000001 3.006571 -2.091159 2.191103
7020 2.507436 12.38134815 -0.37916631 2.936881 -0.99469 2.176393
7040 -0.44128323 14.186751120000002 -1.9775390400000001 2.030417 -0.922227 2.157149
7060 -4.01913738 16.09018542 -3.75778917 2.353961 0.184038 2.015918
7080 -1.5402975300000001 16.367416019999997 -3.02939667 2.193495 -0.074675 1.851691
7100 -0.30565998000000005 17.38784241 -1.5645478499999999 2.167067 -1.167715 1.891363
7120 -3.7571907600000003 14.392123470000001 -3.98576376 1.905156 -1.723129 1.687283
7140 -4.217780070000001 12.287044620000001 -7.6908536100000005 1.29854 -1.874581 1.193994
7160 0.19054944000000001 13.439356650000002 -7.5627252 0.54743 -1.5848950000000002 0.53142
7180 5.956416180000001 12.93250338 -3.2808760200000004 -0.15366300000000002 -0.783249 -0.065231
7200 6.84511389 13.709092410000002 2.88495423 -0.924374 0.311126 -0.546308
7220 3.8257430400000003 14.106367980000002 3.88876248 -1.709501 0.927939 -0.669018
7240 -2.2598512200000003 14.11490268 1.96436421 -2.704597 1.7651849999999998 -0.856503
7260 -4.26463263 10.827885600000002 0.11061756 -2.800024 2.43075 -1.513911
7280 -4.72342671 10.451868300000001 -2.40474492 -3.056357 1.7201110000000002 -0.734989
7300 -1.4768268300000003 12.127484970000001 -6.72895368 -2.257117 2.220049 -0.975738
7320 -2.40774678 8.26656327 -0.43365105000000004 -0.861583 -1.355304 -0.5159600000000001
7340 2.15806266 7.22667384 -0.01332198 -0.727857 0.077318 -0.588432
7360 0.20956122 7.104823830000001 -3.42622098 -1.310324 0.2032 -1.193003
7380 -0.36599148000000004 5.81196393 -2.75741442 -1.584728 0.815399 -2.201969
7400 2.48557932 4.82237037 -1.53670707 -1.637866 1.863603 -2.149204
7420 1.7841447000000001 4.24217754 -1.0265674500000002 -1.619256 1.794261 -1.608465
7440 -0.48215169 2.8862982 -0.89244513 -1.221529 1.187394 -0.97359
7460 -1.5813131400000002 1.15859043 -1.22070735 -1.062724 1.13683 -0.987371
7480 -1.62022941 -0.43724151 -2.416271670000001 -1.2016440000000002 1.1465530000000002 -1.166747
7500 -0.49966254000000004 -1.5209914500000001 -4.02752493 -1.315048 0.984333 -1.260267
7520 1.79821224 -1.2380710499999998 -2.96593578 -1.327226 0.093065 -1.3414629999999998
7540 2.5222589100000006 0.52719921 -1.65675204 -1.212652 -0.51565 -1.330268
7560 3.0060488700000003 3.64911399 -5.80253652 -1.102297 -0.973644 -1.178291
7580 1.2952535399999998 18.24974901 -5.07639051 -1.2177360000000002 -1.0040950000000002 -0.922685
7600 12.982652100000001 43.098979320000005 -15.98271687 -1.192345 -0.733928 -0.841669
7620 7.94203866 10.892249009999999 2.8213363800000004 -1.037671 -0.5298229999999999 -0.868624
7640 -1.3042395000000002 1.95314157 -2.7193908600000003 -0.98389 0.201084 -0.947165
7660 -4.54754322 2.49126912 -3.71018124 -0.873337 0.469726 -0.82496
7680 -2.7538239600000005 5.5124352 0.19114785 -0.775019 0.936155 -0.8697360000000001
7700 -1.2713073300000002 13.356570060000001 0.26121087000000004 -0.713225 1.135224 -0.8887879999999999
7720 5.69895273 19.66101561 -0.0925083 -0.6024 0.65961 -0.8596309999999999
7740 6.38153253 12.00398688 -0.07993188000000001 -0.335147 -0.129794 -0.81616
7760 2.39846652 8.726250060000002 -1.1362824900000001 -0.147102 -0.605208 -0.63798
7780 0.97312257 7.2733792500000005 -0.8765725499999999 0.0050100000000000006 -0.490599 -0.659497
7800 1.5667943400000004 7.96837851 -0.81939987 -0.015162 -0.058722 -0.486072
7820 2.7401978700000003 8.76891375 -0.39352815 0.304997 0.34130900000000003 -0.102993
7840 2.80426698 8.53615188 -0.46658322 0.8337319999999999 0.282954 0.178513
7860 1.81856799 7.66301283 -0.31629402 1.021181 0.654317 0.386582
7880 0.5312409300000001 7.29957195 -0.47122335000000004 1.379956 1.218745 0.650079
7900 -0.9982754100000001 7.86314664 -0.75592917 2.269461 1.41297 1.389911
7920 -1.3178557800000001 8.49318408 -0.6243476400000001 3.16845 1.37799 2.164287
7940 -0.8440916400000001 8.640029970000002 -1.26755991 2.899413 0.667374 2.682475
7960 -0.5641731000000002 9.080116380000002 -1.2325382100000002 2.153653 -0.307849 2.653946
7980 -0.55100808 9.77797035 -1.24555608 2.17442 -1.043488 2.51937
8000 1.4263838100000001 10.980862740000003 -0.9907903800000001 1.439881 -0.551653 2.171778
8020 4.63691232 12.641058090000001 -0.99138879 1.912782 -1.080047 2.298603
8040 7.87766544 12.369831210000001 -0.97612443 2.676529 -1.721444 1.928746
8060 5.010231870000001 11.44505232 -1.19107134 2.6544 -0.573442 2.305271
8080 -0.03577707 12.45619845 -2.29921875 1.981406 -0.25813800000000003 2.093999
8100 -4.418365140000001 16.462916370000002 -3.2918043600000004 2.359695 -0.107291 1.872122
8120 -3.62231307 16.6121559 -0.8178989400000001 2.422152 -0.772977 1.7900900000000002
8140 -3.1439088000000006 15.89349492 -1.6820520300000001 2.227329 -1.259771 1.683599
8160 -5.132827440000001 14.88894111 -4.51071648 2.050525 -1.690609 1.421201
8180 -3.2992893899999998 11.42558928 -6.62821479 1.537292 -1.63817 1.007352
8200 0.88600977 13.34998755 -6.16687992 0.910795 -0.878129 0.6270560000000001
8220 4.84467831 12.944932650000002 -2.97969921 0.350265 -0.349669 0.293451
8240 6.86517534 13.40342262 1.37458701 -0.258747 0.207077 -0.145214
8260 4.371061320000001 12.775631670000001 2.04579702 -0.790086 0.660557 -0.401607
8280 -0.5872266 11.528280360000002 0.99872667 -1.576419 1.350459 -0.419734
8300 -4.742732790000001 15.565232700000001 -2.1749751 -2.238956 1.5689879999999998 -0.681016
8320 -7.11694899 10.451564190000001 -1.20439332 -2.031135 2.659186 -0.966176
8340 -4.367019600000002 8.842115970000002 -2.8876421700000003 -2.153503 2.308409 0.278965
8360 1.45003572 9.97241436 -3.84625575 -2.3595770000000003 -0.032111 -0.8453809999999999
8380 1.07401842 7.64430516 -1.2513930300000002 -0.865411 -2.364647 -0.91314
8400 1.9505909700000001 7.319780550000001 -2.69783829 -1.480082 -0.185381 -0.8411780000000001
8420 0.7580285100000002 6.40832364 -1.47907332 -1.456183 1.276217 -1.137713
8440 1.3816305900000003 5.54926194 -1.5199417800000004 -1.745884 1.288165 -1.476242
8460 0.8671451400000001 4.62238371 -1.9717020900000002 -1.709918 1.579323 -1.591731
8480 -0.5966638200000001 3.441348 -1.4419522800000002 -1.543336 1.510019 -1.454815
8500 -3.0889728 2.6363197800000004 -1.16353467 -1.3380530000000002 1.697497 -1.363891
8520 -1.5003315900000003 2.1086693100000007 -1.14153084 -1.450334 1.461162 -1.30562
8540 -0.28515708 1.3787856900000002 -1.99071387 -1.541952 1.226166 -1.333732
8560 -0.01182105 -0.18157329000000003 -2.9588922 -1.542415 1.237317 -1.4576639999999998
8580 2.7590625 0.19250163000000003 -3.65240034 -1.446556 1.137106 -1.522027
8600 5.2200972 1.8405718200000003 -5.895339120000001 -1.5861379999999998 0.100635 -1.411647
8620 5.35032495 2.86518708 -7.02668718 -1.405763 -0.408883 -1.222795
8640 12.352908959999999 11.245369770000002 -13.054049280000001 -1.244377 -0.618097 -1.2577200000000002
8660 11.67228135 32.81701041 -5.14600227 -1.252857 -0.35712 -1.246363
8680 3.1889661300000003 18.93951954 -13.51883727 -1.196596 -0.333166 -1.158406
8700 1.3319331300000001 0.17198892 5.868695160000001 -1.071155 -0.038094 -0.998743
8720 -2.8196883 -2.27511558 -7.18865028 -0.896437 0.349293 -0.790784
8740 -3.8708003700000004 5.08672044 -1.9848769200000003 -0.716422 0.28167600000000004 -0.554431
8760 -0.36075294 11.01125412 -1.7425306800000002 -0.559149 0.352718 -0.341916
8780 2.6158070700000002 17.8497855 -0.76236453 -0.356786 0.315633 -0.300931
8800 5.63877819 15.9728382 0.46493514 -0.13058699999999998 0.315925 -0.303624
8820 3.02460939 9.990376470000003 -1.66483548 0.0358 0.277109 -0.331254
8840 1.47533571 8.12106135 -1.27879236 0.02932 0.331063 -0.498011
8860 1.5935854500000002 8.410858560000001 -0.02769363 -0.098406 0.293578 -0.603541
8880 2.30340762 9.62648433 0.043860510000000005 -0.241356 0.244219 -0.6568189999999999
8900 3.4645486500000002 9.88334937 -0.6209043299999999 -0.377726 0.26915900000000004 -0.914177
8920 4.885841070000001 8.97308928 -0.32198382000000003 -0.500844 0.2935 -1.03364
8940 1.31711022 7.73980551 -0.5665765500000001 -0.487845 0.301057 -1.069879
8960 -0.33679692000000006 7.028629560000001 -1.1461709699999998 -0.26673800000000003 0.346254 -0.8429979999999999
8980 -0.24863445 7.453147500000001 -1.40722488 0.053146000000000006 -0.017556 -0.450396
9000 0.35760393 7.866589950000001 -1.3127742 0.358844 0.4487310000000001 -0.107027
9020 1.2901719600000003 8.61113952 -1.2464585999999998 0.645425 0.131298 -0.093936
9040 1.54792971 8.4360114 -1.2175681500000002 1.1175700000000002 0.591604 0.002775
9060 1.2458601900000001 8.36939169 -0.84724065 1.799204 1.115398 0.557
9080 1.12056687 9.64174869 -0.9060614100000001 1.9864 1.032863 1.320055
9100 1.1076961500000004 9.77661657 -0.80187921 1.7021389999999998 0.609575 2.191349
9120 0.42601887000000005 9.52798212 0.07095573000000001 1.3119459999999998 0.07369500000000001 2.540756
9140 0.018707670000000003 9.50403591 0.36299943 1.328084 -0.498965 2.412347
9160 0.27198225000000004 10.05084531 0.4939727400000001 0.967755 -0.387229 2.22168
9180 0.40835106000000004 11.41571061 0.7258419 0.992117 -0.138462 1.795311
9200 0.27587682 11.67601896 0.35116857000000007 1.443724 -0.857942 1.242844
9220 -0.16750575 12.49466346 0.2555210700000001 1.773308 -1.546474 1.048407
9240 -0.22588506000000003 13.386510180000002 -0.09669717 2.031809 -0.3348 1.243077
9260 -0.2225889 15.79410981 -1.20529584 1.762421 0.434453 1.17932
9280 2.77028514 16.432230690000004 1.5991281 1.675027 0.58433 1.070628
9300 1.3233984300000001 14.29931106 0.74365686 1.643539 0.566864 0.936902
9320 -3.9134640600000004 15.915204450000001 -3.5628939 1.602917 0.408844 0.795816
9340 -3.45840759 13.9860189 -3.02011641 1.480636 0.022587 0.7922520000000001
9360 -1.8312915600000002 9.31378077 -3.0626329500000002 1.352135 0.03099 0.66743
9380 0.23232042000000003 10.67280912 -4.05955458 1.132505 -0.130448 0.470618
9400 3.51663975 12.96454284 -4.06464597 0.949592 -0.34562 0.359589
9420 4.833602820000001 11.427688620000001 -1.78099569 0.657204 -0.216495 0.024096
9440 2.27511558 10.08662238 0.8155053 0.318572 -0.062074 -0.203862
9460 -1.12192065 11.209435740000002 0.99423369 -0.067342 0.023244 -0.425653
9480 -3.1980992400000003 11.419752330000001 -0.6483036600000001 -0.505288 0.059094000000000015 -0.752429
9500 -6.261477750000001 9.69219171 -2.68047459 -0.964263 0.478207 -1.001863
9520 -6.9629221800000005 7.575900030000001 -0.13845833999999996 -1.141315 0.860611 -1.107207
9540 -3.62725731 8.22629322 0.19295289 -0.918189 0.724267 -1.037108
9560 -0.9780668100000001 10.185566040000001 -3.66033663 -0.494167 0.268368 -0.8818739999999999
9580 -1.43611533 9.5669082 -3.0419730900000004 -0.344125 0.14028800000000002 -0.684109
9600 -1.32878412 8.07181515 -2.34817065 -0.541325 0.590885 -0.509807
9620 -0.9593591400000001 7.672597199999999 -1.2740050800000002 -0.886648 1.316843 -0.336893
9640 -0.02245509 7.1876006100000005 -1.2274468200000002 -1.034288 1.6711470000000002 -0.36722
9660 -0.19564083 6.8034998700000004 -1.4976338400000002 -0.981779 0.917126 -0.460959
9680 1.16158248 7.131173490000001 -1.4253341400000001 -0.8212520000000001 0.273306 -0.501742
9700 0.9499219200000001 6.70350654 -1.6374459600000002 -0.165432 0.509145 -0.906592
9720 0.37287810000000005 6.0056623799999995 -0.78212187 -0.043248 0.124511 -0.463002
9740 -0.18726309 4.78135476 -0.97941078 0.043618 0.76015 0.07624299999999999
9760 -0.39068325000000004 4.23079794 -1.20754233 -1.098956 2.15164 0.739458
9780 -0.51133644 4.30055685 -1.33117776 -1.926199 2.321682 0.758031
9800 -0.60623838 4.39680276 -1.7561469600000001 -1.511696 2.047838 -0.115733
9820 0.45790137000000003 3.75688665 -1.39060674 -0.777031 1.226877 -0.843418
9840 0.83346741 5.000049090000001 -2.9624924700000004 -0.852247 0.6677310000000001 -0.8090430000000001
9860 2.03936166 5.969885310000001 -6.29935416 -1.018327 0.244659 -0.35994
9880 3.1605269400000005 8.15533749 -9.16319727 -1.05648 0.539978 -0.120235
9900 4.932095220000001 11.22755481 -10.24155171 -1.4586709999999998 1.792836 -0.061624
9920 7.25765382 12.793142520000002 -10.14500169 -1.558924 2.623546 -0.189439
9940 7.280256060000001 9.621392940000002 -6.953337810000001 -1.322476 2.607403 -0.353342
9960 3.6642312000000006 7.788904560000001 -5.05543635 -1.264856 2.431084 -0.5321739999999999
9980 1.2489993900000003 9.46975977 -5.61721581 -1.205814 2.471521 -0.5724060000000001
10000 -1.1798487 12.93161067 -5.33385396 -1.0676709999999998 2.446254 -0.234919
10020 -3.11082948 14.825323260000001 -5.13567234 -0.8653139999999999 2.299988 -0.063471
10040 -2.30400603 12.362189220000001 -9.079517970000001 -0.829635 2.323736 0.093777
10060 3.70285317 12.92861862 -6.0242229 -0.916248 2.325986 0.139102
10080 3.42413145 6.47344242 4.88284902 -1.0211290000000002 2.855172 0.027665
10100 -0.45295713 2.8723778100000006 4.60293048 -0.712531 3.148129 0.025172
10120 -3.4835604300000003 4.253704290000001 0.6786852300000001 -0.350883 2.657943 0.017644
10140 -4.63017285 12.50394372 -2.82268035 -0.395972 2.28767 -0.053767
10160 0.45130905 14.561414640000002 -0.68093172 -0.501181 2.186656 -0.009507
10180 2.7578656800000005 12.46188825 0.61941321 -0.476607 1.982999 0.016562
10200 -0.6529437900000001 10.26385965 0.68093172 -0.526721 1.933332 -0.04034
10220 -4.1185323 9.38742444 1.46410326 -0.645099 1.934846 -0.049714
10240 -3.9112175700000003 9.15196482 1.39060674 -0.557918 1.817561 -0.099161
10260 -2.1734839800000003 9.61869519 0.95830947 -0.412691 1.660145 -0.285952
10280 -0.7105677300000001 10.34274186 0.73108044 -0.376305 1.7873290000000002 -0.421525
10300 0.6798820499999999 9.75865446 1.0717719300000002 -0.455858 2.122127 -0.427851
10320 1.06488531 8.83747584 1.72232208 -0.47609 2.214539 -0.343721
10340 0.20551950000000002 9.214542810000001 2.69080452 -0.312948 2.037873 -0.261171
10360 -0.021552570000000004 9.496854990000001 2.9181807 -0.109048 2.104119 -0.221375
10380 0.9108585 9.465718050000001 2.6595204300000006 0.178645 2.094305 -0.147782
10400 1.50422616 9.08266698 2.57899014 0.625869 2.045292 -0.000386
10420 1.6211319300000002 10.076145300000002 1.62232875 1.266277 2.080557 0.21555
10440 1.7958186 10.03887711 1.49973318 1.929037 1.94191 0.745923
10460 2.183509800000001 9.23115114 1.4883535800000003 2.66566 1.846948 1.7425
10480 2.9165326200000004 8.787023009999999 1.46994021 3.4908010000000003 1.191548 2.422083
10500 3.2427053100000007 8.74152423 2.04429609 3.601004 1.519295 2.682011
10520 3.21396201 9.36797121 2.16734292 3.398338 2.0280400000000003 2.70558
10540 2.79723321 9.916428690000002 1.58370678 2.770464 1.951955 2.031517
10560 1.29914811 10.07674371 1.27355382 2.409626 3.143965 2.086221
10580 0.14969079000000002 9.93649014 1.3328258400000002 2.20598 2.846864 2.234731
10600 -0.05044302 10.24260138 1.7548029900000002 3.03016 2.732455 2.957411
10620 0.35776089000000005 10.190059020000001 1.96496262 3.085312 1.745675 2.993244
10640 0.5149269000000001 10.40396607 1.49628987 2.709404 1.812112 2.423307
10660 1.30813407 10.954218780000001 1.16997003 3.028544 -0.068425 1.696214
10680 2.8473819300000005 10.67639958 0.87373746 3.025209 -0.5871460000000001 1.6819
10700 3.51154836 11.31482457 0.3150972 2.578997 -0.379144 1.468077
10720 2.9361428100000007 11.30658417 -0.17244018 2.453172 -0.909039 1.158093
10740 3.0130826400000004 10.40501574 -0.057329639999999994 2.370038 -1.250319 0.795823
10760 3.2467470300000003 10.242297270000002 -0.00014715 2.104708 -1.766768 0.44105
10780 3.2376139200000003 12.16819647 -2.20520952 1.484434 -1.238099 0.107027
10800 0.50714757 12.62294883 -3.51618849 0.843066 -0.006972 -0.052854
10820 -2.55204207 13.440553470000001 -3.2635123200000002 0.12445 1.159425 0.057068
10840 -5.42980557 17.486481960000003 -3.8636194500000003 -0.329262 1.398303 0.119822
10860 -8.08139952 21.616099560000002 -2.6129621700000003 -0.5369649999999999 0.189268 0.020576
10880 -10.15114275 19.11285243 1.5566115600000001 -0.429201 -1.024451 -0.246308
10900 -5.007534120000001 17.13097737 -2.04924033 -0.42843 -1.3378219999999998 -0.734079
10920 2.1802136400000003 15.403416750000002 -1.63445391 -0.861873 0.81076 -1.137238
10940 1.41949719 11.14253154 -3.1491473400000003 -1.10202 2.709832 -1.11678
10960 1.4564710800000003 14.204114820000001 -1.4115609000000002 -1.150599 1.935397 -0.81382
10980 0.75712599 8.79002487 -5.060076480000001 -1.710866 1.7208720000000002 -0.759775
11000 0.85068396 7.120245150000001 -2.29113531 -1.410352 1.359838 -1.043496
11020 2.95814664 8.55485955 -0.22677777 -1.552551 0.903829 -1.434874
11040 1.5164984700000002 6.94900179 0.40445649000000006 -1.316493 1.906311 -1.9194830000000005
11060 1.10590092 4.3024992300000005 -0.6406714800000001 -1.449834 2.1178220000000003 -1.950596
11080 1.33267869 1.95089508 -1.5338621700000001 -1.678076 2.345735 -1.738838
11100 1.3647083400000002 -1.9685530800000002 0.3505701600000001 -1.537928 1.859028 -1.359084
11120 1.91002662 -1.5998736599999999 -0.20103633 -1.16816 1.2134280000000002 -1.668663
11140 3.68563662 0.04969746 -3.42068814 -1.140925 1.173627 -1.595783
11160 5.13940995 1.5066198 -7.204071600000001 -1.313572 1.224371 -1.349226
11180 5.35226733 3.50361207 -8.50321971 -1.266124 1.116544 -1.331665
11200 5.618118330000001 2.9539577700000006 -7.09150185 -1.013138 0.872814 -1.605187
11220 7.113211379999999 3.2195046600000006 -7.329207960000001 -0.950975 0.515402 -1.7890970000000002
11240 5.25497175 4.48706457 -7.978561290000001 -1.279321 0.15423399999999998 -1.49503
11260 1.8282995100000001 5.76570978 -6.662490930000001 -1.460309 0.555203 -1.178478
11280 0.4192794 11.75939415 -11.72661894 -1.551934 0.724334 -1.037262
11300 1.31127327 19.34127828 -13.26316905 -1.365365 0.912314 -1.055427
11320 9.77721498 14.96572398 -1.86407658 -1.115487 1.095092 -1.15967
11340 4.12751826 5.079088260000001 -2.51970831 -0.918226 1.337167 -1.128692
11360 -2.21269455 0.41059755000000003 0.9515699999999999 -0.8169390000000001 1.232886 -0.979368
11380 -5.257071090000001 3.53474901 -2.6229978000000003 -0.6471520000000001 1.44028 -1.042541
11400 -2.82686922 11.015295840000002 -0.26061246000000005 -0.466953 1.517013 -0.940968
11420 1.94145786 18.7205211 -0.14579622 -0.266991 1.382085 -0.93833
11440 8.475526080000002 19.826716320000003 0.0031392000000000004 -0.180115 1.103366 -0.843363
11460 5.782475070000001 12.77623008 -0.32138541 -0.17896099999999998 0.8712979999999999 -0.618731
11480 1.5602020200000002 8.97459021 -1.10709774 -0.14562 0.836408 -0.713525
11500 0.03517866 8.34829038 -1.00994931 -0.08495499999999999 0.599571 -0.679683
11520 0.58213521 8.249346720000002 0.16390548000000002 0.025579 0.740875 -0.681228
11540 1.95089508 8.35891461 0.4249692 0.268522 0.908456 -0.442601
11560 3.056796 9.13430682 -0.039965940000000005 0.663218 0.725825 -0.135166
11580 4.64783085 8.94135393 0.52331445 0.8851969999999999 1.17604 0.303778
11600 2.0793276 8.48105892 0.7693983000000001 1.15164 1.142193 0.810952
11620 0.69784416 7.809260310000001 0.18875421000000003 1.632486 1.496842 1.480426
11640 0.4176313200000001 7.9974161100000005 0.32153256 2.217715 1.629335 2.204326
11660 1.47667968 8.60754906 -0.19863287999999998 2.293422 1.522201 2.822425
11680 1.5452319600000002 8.548718490000002 -0.12259557 1.746733 1.203282 2.597893
11700 1.16143533 8.84719755 -0.44367687000000006 1.701616 0.578342 2.276843
11720 0.7450008300000001 9.67812417 -0.22318731000000003 1.860108 0.772375 2.101445
11740 1.14631812 9.373955310000001 0.14550192 2.790747 -0.535068 1.915205
11760 2.5084856700000002 10.000549440000002 -0.79919127 2.558806 -0.394809 1.673055
11780 4.437975330000001 11.35119024 -0.8448470100000001 2.461616 -0.546287 1.543315
11800 4.19188167 11.90624004 -0.51972399 2.518795 0.118378 2.308778
11820 3.66677199 12.10771782 -0.71940654 2.461376 0.692534 2.365325
11840 1.4400099000000002 13.03354638 -1.1934649800000001 2.29157 -0.0475 1.897206
11860 0.5978606400000002 13.21616934 -0.7352693100000001 2.315513 -0.216814 1.860203
11880 -0.9937824300000001 14.195276009999999 1.04063499 2.179202 -0.950004 1.7822099999999998
11900 -1.5521185800000001 15.95203119 1.12700223 1.943474 -1.285475 1.431685
11920 -5.54926194 15.84156078 -2.0969856 1.336256 -1.325105 0.946794
11940 -5.397471810000001 13.10479641 -4.62448305 0.759862 -0.994873 0.382597
11960 -3.0837342600000004 10.97577135 -5.800584330000001 0.152725 -0.5794779999999999 -0.140264
11980 -0.12154590000000001 12.75467751 -5.39732466 -0.395567 -0.118515 -0.654227
12000 4.058514720000001 14.71545126 -3.0238638300000003 -1.011028 0.624947 -0.894487
12020 3.78996597 14.734904490000002 -0.5126804100000001 -1.913043 2.115463 -0.960382
12040 0.78286743 13.5032688 0.9648919800000001 -1.844399 3.004125 -1.341328
12060 -3.08912976 11.78275176 0.5096883600000001 -2.271753 2.014018 -0.056905
12080 -4.47569478 9.90400923 -2.7009873000000004 -2.305384 1.22436 -0.48769
12100 -5.38265871 11.01469743 -3.83532741 -0.799983 -1.662616 -1.23939
12120 -3.6220187700000004 9.56959614 -2.4291522000000003 -1.267176 -0.664945 -0.977945
12140 3.9707937 10.277780040000001 -1.06518942 -1.244839 1.160984 -1.274958
12160 6.06882897 10.917244890000001 -3.21127407 -1.531054 1.211261 -1.877362
12180 1.9523862 8.33286906 -1.9754397000000001 -1.573444 1.723801 -2.142166
12200 0.8764254 5.97347577 -2.2324617 -1.584939 1.502524 -1.941137
12220 1.9546326900000002 4.89137391 -2.26135215 -1.39713 1.327166 -1.408694
12240 2.0130120000000002 4.27046958 -1.75225239 -1.381947 1.42081 -1.13097
12260 0.31749084 4.142782620000001 -1.4180060700000001 -1.375548 1.106838 -1.207435
12280 -0.21031659 2.31912324 -0.76461102 -1.2435040000000002 1.095437 -1.400915
12300 0.11271690000000001 0.8152011900000001 -0.7132654800000001 -1.183858 0.7780100000000001 -1.458843
12320 -0.23381154 0.29144529 -2.48947389 -1.061782 0.09609 -1.5286879999999998
12340 0.46942812 -0.7791298200000001 -3.81557007 -1.106206 -0.15253 -1.387674
12360 3.6125913599999997 -0.53663643 -3.7832363100000004 -1.079052 -0.206197 -1.310504
12380 4.0900931100000015 2.10537315 -4.1555061900000005 -1.177714 0.032309 -1.196131
12400 8.96590836 6.952288139999999 -11.059597799999999 -1.161956 0.106306 -1.06686
12420 11.85115689 20.649706650000002 1.601973 -0.934355 0.1992 -1.051503
12440 8.06133807 30.255383970000004 -18.82845072 -0.8512930000000001 0.5953689999999999 -1.095227
12460 2.6198487900000003 6.602473350000001 5.89668309 -0.7661819999999999 0.7379859999999999 -1.136476
12480 -1.5187449600000003 -0.44637462000000006 -2.48393124 -0.6149939999999999 0.682012 -1.12253
12500 -4.693486590000002 4.3584849000000006 -4.4400648600000014 -0.461378 0.526667 -1.0358
12520 -2.37046878 10.57820148 0.39143862 -0.350414 0.185924 -0.902129
12540 1.41904593 17.57480139 -0.021258270000000003 -0.14133900000000002 -0.333337 -0.699177
12560 6.890171220000001 17.61806349 1.1273063400000003 -0.07334299999999999 -0.32003400000000004 -0.621807
12580 4.74798114 11.24910738 0.5204695500000001 -0.06519900000000001 0.013696000000000002 -0.437376
12600 1.1966139900000001 8.97234372 -0.88765785 0.213394 0.140278 -0.10017
12620 0.9695321100000001 8.44977483 -0.018413370000000002 0.999307 0.434287 0.28523000000000004
12640 1.96077375 8.72206119 0.10583028000000001 1.545955 1.127595 0.6566960000000001
12660 2.4716589300000007 9.118434240000001 -1.16232804 2.079657 1.468784 1.183416
12680 1.89266292 8.87399847 -0.85247919 3.076706 1.7270599999999998 1.7967990000000005
12700 1.0268617500000001 7.59850227 -0.40521186000000003 3.566203 1.867678 2.702686
12720 0.6815301300000001 7.13296872 -0.6391705499999999 2.800706 0.330042 2.943932
12740 0.6956074800000001 7.01156997 -0.22902426 1.760433 -0.802186 3.006483
12760 0.40581027000000003 7.413181560000001 -0.4801995 2.270848 -2.627727 2.745332
12780 0.76446387 7.957901430000001 0.12857967 1.870358 -1.604436 2.669652
12800 1.0931773500000002 7.91778834 -0.46658322 2.354409 -1.265926 2.844583
12820 0.6629696099999999 9.174419910000001 -0.62345493 3.08316 -1.609932 2.726201
12840 1.48206537 11.40478227 -1.6021201500000002 2.021544 0.060725 2.5051360000000003
12860 4.738691070000001 12.90616353 -2.15521776 2.117957 0.4542640000000001 2.5747400000000003
12880 6.83269443 11.749819590000001 -1.73399598 1.730432 0.188019 2.359798
12900 4.371061320000001 11.65491765 -1.8187151400000001 1.916088 -1.217894 2.136433
12920 0.17109621 13.24161648 -2.34532575 1.319118 -1.673631 1.804903
12940 -2.8370520000000004 17.64920043 -3.18103965 0.461066 -2.113443 1.180973
12960 -1.5167927700000001 17.58812337 -2.07394191 -0.17083900000000002 -2.00798 0.39769
12980 -4.89722067 16.132849110000002 -3.75478731 -1.014298 -0.727012 -0.328756
13000 -4.08260808 14.232701160000001 -6.93044127 -2.131564 1.2596459999999998 -0.671323
13020 0.89259228 12.728926260000001 -6.2644698000000005 -2.889465 2.659443 -1.085404
13040 5.529200490000001 12.632680350000001 -3.3452394300000003 -2.267076 2.55545 -1.991048
13060 7.271427060000001 12.257114310000002 1.7911784700000002 -2.918967 1.336399 -1.066823
13080 5.07234879 12.892537440000002 2.12527764 -1.943818 2.441118 -1.386166
13100 1.07117352 12.74300361 -0.13217994000000002 -0.798147 -1.288353 -0.796545
13120 -4.7762633700000015 13.61553444 0.26614530000000003 -0.490046 0.396495 -0.958921
13140 -5.169654179999999 12.24004491 3.02221575 -1.167881 0.625037 -1.845232
13160 -1.03510215 12.083771610000001 -6.890769629999999 -1.587901 1.811063 -2.639102
13180 -3.59462925 10.82848401 -1.88981802 -1.6787310000000002 2.340581 -2.313539
13200 1.87275843 8.593030259999999 -1.60915392 -1.591132 1.6588080000000005 -1.592072
13220 1.0985630400000002 8.59108788 -2.97237114 -1.20759 1.334777 -1.079436
13240 3.13702218 7.377708600000001 -3.6797996700000004 -1.259799 1.184357 -1.24625
13260 4.181551740000001 5.5479081599999995 -3.11891292 -1.384641 0.475184 -1.479086
13280 2.34966177 5.61137886 -0.83076966 -1.199953 -0.157495 -1.662856
13300 -0.5587874100000001 3.9086767800000004 -0.73017792 -1.052955 -1.058569 -1.56133
13320 -0.6749476200000001 -1.05111207 -0.2371077 -1.07323 -0.90784 -1.408909
13340 -0.48888135 -3.30692157 -1.18673532 -1.070277 -1.111674 -1.319964
13360 2.7762790500000003 -4.94302356 -2.93090427 -1.094141 -1.010085 -1.130118
13380 3.3668018100000006 -2.65263381 -0.27003987 -1.062176 -0.615649 -0.962689
13400 -1.91796291 0.35371917 -3.47487858 -0.7226739999999999 -0.14151 -1.013268
13420 2.0887550100000003 11.36256984 -0.7328756700000001 -0.676642 0.9009999999999999 -0.954462
13440 7.28146269 44.391986369999984 -14.522498370000001 -0.516884 1.096376 -0.934368
13460 12.202472610000001 14.99477139 0.23232042000000003 -0.481399 0.8717860000000001 -0.744758
13480 -1.13104395 1.86407658 -2.60159238 -0.36687 0.666103 -0.556755
13500 -4.220477820000001 3.7630277100000002 -2.9304530100000004 0.239689 -0.06715499999999999 -0.462916
13520 -3.75314904 8.17210278 1.5609573900000002 0.290889 -0.082196 -0.475358
13540 -1.69312752 15.146551709999999 0.8658011700000001 0.320413 0.158129 -0.394275
13560 6.48227142 16.625477880000002 0.94707702 0.914101 0.557571 -0.101152
13580 6.99794388 10.926230850000001 1.04273433 1.5824 -0.332837 0.343697
13600 3.5802576000000004 9.77677353 -1.04557923 2.04905 0.648407 1.238732
13620 2.38978467 8.11852056 -1.36291311 2.643031 1.7069919999999998 2.129217
13640 1.7714211300000002 7.466626440000001 -0.57660237 3.146068 1.851405 2.873892
13660 2.26374579 7.06770279 -0.6215027399999999 2.658729 0.894808 3.290457
13680 1.3076828100000002 6.8256606600000005 -0.08308088999999999 2.233849 -0.586467 3.527601
13700 0.55744344 6.56579376 -0.09968922 0.997596 -1.855979 2.661742
13720 -0.42796125 7.60209273 0.41868099000000003 1.141501 -3.00299 2.730446
13740 -1.0496209500000002 8.90932428 -0.023946210000000002 2.297883 -1.704641 3.115011
13760 -1.26307674 9.34790976 -0.64950048 2.513793 -0.936353 2.605992
13780 0.20702043 9.15944985 -0.7744896900000001 1.901756 -0.817307 2.403944
13800 1.73459439 10.48000338 -0.73003077 1.935353 0.236074 2.1528650000000003
13820 4.47359544 13.0173795 -0.8298769500000001 2.054262 -1.018528 1.97691
13840 5.73876171 14.626533420000001 -1.54149435 1.845577 -1.214662 1.922292
13860 5.46782913 12.25142451 -3.30677442 1.417665 -1.47108 1.6824869999999998
13880 2.43932517 12.92921703 -4.81129488 0.920874 -2.160682 1.140448
13900 -1.3509449100000002 15.398178210000001 -5.52590433 0.407784 -2.29379 0.5078520000000001
13920 -2.75861124 17.15657166 -3.7663140600000014 -0.278896 -1.253092 -0.208646
13940 -0.6888680100000001 15.78751749 -3.40930854 -1.142114 0.269357 -0.568071
13960 -1.3939029000000003 12.419822970000002 -6.0757155900000015 -2.122936 1.532268 -0.6566569999999999
13980 -0.6950090700000001 12.056676390000002 -6.90095241 -3.490113 2.29571 -0.979106
14000 2.9294131500000002 11.23563825 -4.37539734 -2.485379 2.7392830000000004 -1.42131
14020 6.26372424 12.19034745 0.79589511 -2.783291 2.133636 -1.0209629999999998
14040 8.203543830000001 13.106748600000001 3.6470146500000005 -1.84112 2.036984 -1.376385
14060 1.75599981 16.11009972 0.4939727400000001 -1.007973 -0.94673 -0.532461
14080 -2.2908410100000003 12.986546670000001 2.67449049 -0.706306 -0.690405 -0.691984
14100 -2.75636475 13.507761780000001 -2.43334107 -1.412988 0.075802 -1.744759
14120 -5.1828192 13.90697973 -7.1380601100000005 -1.588644 1.584409 -2.700773
14140 -2.3252643 7.029983340000001 0.66447054 -1.684636 2.144868 -2.382764
14160 1.34166465 7.85865366 -3.6446210100000003 -1.807122 1.596532 -1.548635
14180 0.60219666 6.844064220000001 -3.3501836700000003 -1.34832 1.377795 -1.059109
14200 3.29584608 6.16103316 -1.6994157300000001 -1.22803 1.084409 -1.0546879999999998
14220 3.56827959 5.92542639 -1.03943817 -1.330106 0.603486 -1.3773879999999998
14240 0.6786852300000001 4.5463464 -1.0090467900000002 -1.229521 0.238525 -1.571703
14260 -1.04512797 2.7475357500000004 -0.8029288800000001 -1.139444 -0.497278 -1.459035
14280 -0.9515699999999999 -0.06856209 -0.64591002 -1.090154 -0.606434 -1.377366
14300 -0.20447964000000002 -1.1306025000000002 -1.79476893 -1.063284 -0.740989 -1.318254
14320 0.84260052 -2.5626663000000005 -3.4928406900000004 -1.119741 -0.564588 -1.160778
14340 3.5313057000000003 -0.96908085 -2.92581288 -1.08686 -0.441798 -0.994063
14360 1.46964591 1.26831528 1.58969088 -0.87671 -0.202874 -0.985423
14380 4.34726226 5.02070895 -4.2890301 -0.7856390000000001 0.447331 -0.8948219999999999
14400 4.147874010000001 33.48237366 -6.3441073800000005 -0.584657 0.70482 -0.726037
14420 22.23192231 32.85038403 -5.739811380000001 -0.46144 0.889475 -0.657047
14440 2.5394656500000004 5.554500480000001 -3.9936902400000003 -0.197563 0.748933 -0.6379319999999999
14460 -5.10528096 1.5153016500000003 -3.1780377900000003 -0.031180000000000006 0.352772 -0.546531
14480 -3.31111044 3.1368750300000006 0.96878655 -0.047275 -0.279285 -0.445421
14500 -3.3715890900000005 7.403754149999999 0.39008484000000004 -0.003153 -0.434958 -0.448118
14520 -1.4310239400000002 16.55841672 0.9038247300000001 -0.059781 -0.137863 -0.369846
14540 8.3927493 17.12079459 1.70151507 0.109946 0.032451 -0.218259
14560 6.20938665 10.37282913 -0.33978897 0.747703 0.051348000000000005 0.097024
14580 2.89632402 8.372835 -1.6769606400000001 1.261551 0.702574 0.364698
14600 1.47892617 7.14838023 -0.73302282 1.461369 0.808366 0.641559
14620 1.90628901 7.35854967 -0.9952833600000001 2.003702 1.224942 1.222722
14640 1.5340093200000002 7.826771160000001 0.060321690000000004 2.9580740000000003 1.855668 1.972062
14660 1.48206537 7.16739201 -0.37272114 3.159753 1.487377 2.787928
14680 0.45999090000000004 6.93672948 -0.29324052 2.667421 -0.499757 3.046613
14700 -0.026192700000000003 7.2763713 0.17348985 1.051407 -0.146066 2.844729
14720 -0.40220999999999996 8.1066897 0.00164808 1.44308 -0.670171 2.769088
14740 -0.2555210700000001 8.52073056 0.18621342 1.903839 -1.73023 2.929625
14760 0.8373619800000001 8.735088870000002 -1.20754233 3.024583 -3.187648 2.787634
14780 1.32863697 9.32380659 -1.2975000300000004 2.718764 -0.401361 2.638785
14800 1.47667968 10.62220914 -1.16098407 2.054816 -0.8364950000000001 2.274714
14820 2.9708702100000006 11.99844423 -0.53663643 2.243407 0.152 2.131623
14840 5.552558100000001 12.32821719 -0.32153256 2.125732 -0.412111 2.112296
14860 5.789214540000001 12.11266206 -0.43903674000000004 2.050793 -1.085599 1.969494
14880 1.96496262 12.7774269 -1.3985430300000004 1.628969 -2.164268 1.689124
14900 -1.77231384 15.64771518 -2.60862615 1.144946 -2.545411 0.987614
14920 -2.37046878 15.863407650000001 -1.6229271600000001 0.593749 -1.865718 0.388962
14940 -1.5820587000000002 17.76715587 -1.7807013900000002 -0.156385 -0.711724 -0.100593
14960 -2.9720670300000007 15.625701540000001 -4.861885050000001 -0.7672979999999999 0.158123 -0.515104
14980 -1.10635218 12.47834943 -7.244037540000001 -1.482559 0.597015 -0.693715
15000 1.56380229 12.736715400000001 -6.66489438 -2.38097 1.2002549999999998 -0.787289
15020 5.42382147 13.42947798 -3.72125673 -2.971045 1.739612 -1.422353
15040 7.83829791 12.98594826 1.4226462000000002 -2.71225 3.011915 -1.471314
15060 5.9520703500000005 14.770838520000002 3.6217146600000003 -3.172977 2.943966 -0.8634219999999999
15080 2.20701456 15.38411067 0.31045707000000006 -1.735548 2.299077 -0.14645999999999998
15100 -2.91324627 14.41398015 0.37751823000000007 -0.91468 -1.962418 -0.227133
15120 -6.43407489 12.42356058 -1.9606266 -1.139945 -1.306616 -0.728406
15140 -2.8006765200000006 10.98296208 -4.19068485 -1.4294870000000002 0.213238 -1.734368
15160 -2.09504322 10.47132153 -3.64297293 -1.622858 1.717197 -2.31235
15180 0.07559586 7.60688001 0.8134059600000001 -1.4839790000000002 2.4699720000000003 -2.0730630000000003
15200 1.58879817 6.65351478 -2.33993025 -1.441086 2.181752 -1.695311
15220 3.5015225400000003 4.822223220000001 -3.09915558 -1.066592 1.183776 -1.268401
15240 3.81691404 5.07624336 -2.8533660300000006 -1.0670620000000002 0.995561 -1.352552
15260 1.47892617 4.190832 -1.4735404799999998 -1.062739 0.731514 -1.391708
15280 -1.67831442 2.67777684 -0.16016787000000002 -0.949457 0.451296 -1.477084
15300 -1.2769971300000003 0.15747012000000002 0.06691401 -0.940391 -0.058278 -1.3919780000000002
15320 -1.20439332 -0.49831857 -1.9404180000000002 -0.870525 -0.5733779999999999 -1.3096450000000002
15340 -1.25334522 -1.04302863 -2.4569929800000003 -0.905726 -0.801148 -1.06284
15360 0.90741519 -1.76198391 -1.1996060400000002 -0.796558 -0.332365 -0.906717
15380 3.0964578300000003 0.16270866 -1.34570637 -0.602517 0.009438 -0.771204
15400 2.6548803000000003 2.16719577 -2.07124416 -0.277472 0.208413 -0.728596
15420 5.629497929999999 3.88247427 -3.59267706 -0.116935 0.789516 -0.733561
15440 1.41021693 22.63427946 -8.97459021 -0.099235 1.072135 -0.8288709999999999
15460 21.8761038 41.798477430000005 -7.295383080000001 -0.11028 1.535169 -0.995116
15480 9.27620847 12.044551230000001 -3.95238033 -0.273836 1.54712 -0.911884
15500 -2.8735746300000002 0.07903917 -1.98517122 -0.46403 1.003448 -0.917857
15520 -5.588482320000001 -2.00882313 -4.313584530000001 -0.558675 0.44629 -0.8312780000000001
15540 -3.94669053 2.47285575 0.86295627 -0.56581 0.122054 -0.993282
15560 -2.77582779 12.49331949 0.7568218800000002 -0.637544 -0.047682 -1.107865
15580 4.1734683 23.77730142 -0.38933928 -0.680233 -0.15576800000000002 -1.2137790000000002
15600 8.66787075 14.76783666 -1.17490446 -0.523428 -0.030078 -1.080385
15620 3.7598787000000002 8.561599020000001 -1.04452956 -0.31045500000000004 -0.088365 -0.808563
15640 2.19293721 6.77565909 -0.81206199 -0.036918 -0.358114 -0.454862
15660 2.26943559 7.6552335000000005 -0.5322906000000001 0.325079 0.158686 -0.00541
15680 3.5331009300000003 8.641079640000001 -0.35071731 1.270297 0.83854 0.454315
15700 4.100727150000001 8.59721913 -0.36135135 2.005119 0.905045 1.300054
15720 2.36792799 8.398586250000001 -1.1618865900000004 1.80457 0.029187 2.322063
15740 0.38319822000000003 8.37343341 -0.91923624 1.34538 -1.110587 2.7016720000000003
15760 -0.56897019 8.23287573 -1.0835929800000001 1.032195 -1.659404 2.756803
15780 -0.5427676800000001 8.7599376 -1.5081109199999998 0.587008 -0.7196779999999999 2.57196
15800 -1.1255111100000001 8.95108545 -2.18515788 0.805546 -0.287078 2.092232
15820 -1.93592502 9.45628083 -1.49433768 1.401824 -1.214335 1.426742
15840 -1.9263406500000002 10.52865117 0.28965006000000004 1.5734780000000002 -1.0614059999999998 1.129711
15860 0.182466 10.89494676 0.54756477 2.07502 0.354962 1.339703
15880 2.04369768 10.08228636 -0.0782838 1.765687 0.470682 1.439943
15900 3.8567328300000003 10.74480471 0.60009732 1.7770990000000002 0.126698 1.405212
15920 4.43393361 11.990664900000002 0.09939492000000001 2.004998 -0.056004999999999985 1.076958
15940 3.86706276 12.935799540000001 -2.53063665 1.902765 0.137403 0.751256
15960 3.9143567700000004 13.35089007 -3.7850315400000003 1.7360759999999995 0.11123 0.781104
15980 1.2777426900000002 11.721674700000001 -3.7658726099999997 1.559303 0.164127 0.759505
16000 -0.44802270000000005 14.709761460000001 0.64395783 1.31501 0.037678 0.625501
16020 -0.18217170000000002 12.7973412 -1.58849406 1.147251 0.010336 0.416061
16040 -3.4361094600000004 13.18412988 -4.48691742 0.8705579999999999 -0.10267 0.145081
16060 -4.14113454 14.83639875 -3.6895311900000003 0.510526 -0.097831 -0.219567
16080 3.0955651200000003 11.566892520000001 -1.6238198700000002 0.027615 0.05782200000000001 -0.630132
16100 6.94436166 8.692121069999999 -1.26532323 -0.487999 0.325324 -1.011159
16120 4.1197291200000015 9.087003000000001 -2.0127177 -1.006317 0.687816 -1.169068
16140 0.45206442 11.884089059999999 -1.0404878400000002 -1.262539 0.801974 -1.2564620000000002
16160 -2.10791394 13.69591758 0.2282787 -1.036781 0.7424569999999999 -1.220625
16180 -6.048924480000001 12.78581445 -1.32698889 -1.011364 0.885437 -1.03476
16200 -9.65911239 10.034531280000001 -1.7872839 -1.306165 1.102493 -0.980482
16220 -7.390128060000001 8.04382722 1.1135331000000002 -1.163491 1.452823 -0.801541
16240 -0.8660954700000001 9.18415143 -2.27077956 -1.067422 2.722337 -0.013081
16260 -0.67000338 10.187066970000002 -5.4646899300000005 -1.802678 1.903005 0.390894
16280 -0.78541803 9.05751414 -1.6691813100000001 -0.77496 0.62683 -0.239089
16300 -2.0989377900000004 8.821308960000001 0.07663572 0.289691 0.538705 0.894367
16320 -2.2947257700000003 7.48503 -0.16270866 -0.974932 0.5893510000000001 0.780783
16340 -1.12371588 6.67177119 -1.7973097200000003 -1.563691 1.455496 -0.058721
16360 -0.52076385 6.66743517 -1.31681592 -1.564685 2.3810580000000003 -0.8151470000000001
16380 -0.30910329 6.8355393300000005 -0.55070397 -0.855714 2.247529 -1.07067
16400 0.10523187 6.54663483 -0.18186759 -0.692392 1.382759 -1.004328
16420 0.08292393 6.189325200000001 -0.26973576 -0.731869 0.976965 -0.457154
16440 -0.29878317000000004 5.37562494 -0.63991611 -0.851492 1.6475990000000005 -0.231317
16460 -0.94752828 4.00312746 -0.86565402 -1.1848530000000002 2.336473 -0.385148
16480 -0.29099403 4.23394695 -1.78039728 -1.338083 2.317205 -0.495152
16500 0.15043635 4.000733820000001 -2.8753698599999997 -1.094142 2.447369 -0.7563979999999999
16520 1.23433344 4.1276654100000005 -5.087917260000001 -1.103772 1.905423 -0.8177270000000001
16540 2.78660898 5.362146 -7.504345890000001 -1.094167 1.843962 -0.641325
16560 3.64746591 8.10010719 -8.46340092 -0.868935 2.152038 -0.357068
16580 4.26253329 10.763365230000002 -7.99637625 -0.721196 1.772466 -0.135496
16600 4.890628350000001 11.19043377 -8.12959605 -0.791216 1.854759 -0.141431
16620 5.4142371 8.85633066 -7.291939770000001 -0.8633780000000001 2.648658 -0.14615699999999998
16640 3.30423363 9.28953045 -4.896171 -0.6010949999999999 2.3485 -0.169578
16660 2.37196971 16.23793383 -2.2384458 -0.410325 1.994451 -0.240431
16680 0.30565998000000005 15.882723540000002 -3.01547628 -0.406892 1.748603 -0.30098
16700 5.721554970000001 9.37605465 -5.8505859000000004 -0.46204 1.631426 -0.254214
16720 -0.48933261000000006 5.37337845 2.4816847500000003 -0.497167 1.454541 -0.211503
16740 -5.19659244 5.779483020000001 0.30701375999999997 -0.532265 1.215083 -0.238147
16760 -4.8280601700000005 7.8541704900000004 3.4617037500000003 -0.622872 1.165601 -0.306015
16780 -2.7690883200000003 11.89860786 0.55204794 -0.584163 1.124356 -0.41465
16800 2.83569822 15.2848629 -0.40461345 -0.418754 1.269067 -0.51623
16820 4.856352210000001 11.90519037 0.35730963 -0.364344 1.345269 -0.4390350000000001
16840 0.08292393 9.639649350000001 1.1454156 -0.251141 1.46593 -0.34225900000000004
16860 -2.5831790100000003 9.35434512 1.4153083200000003 -0.14799600000000002 1.484364 -0.24649
16880 -1.9875648600000002 9.691299 1.4198013 0.019401 1.659816 -0.045789
16900 -0.55115523 10.48195557 1.49973318 0.475495 1.773405 0.190124
16920 1.9085355000000002 10.46009889 1.5645478499999999 1.018153 1.347099 0.5672699999999999
16940 3.3751795500000004 9.29132568 1.83038904 1.691312 1.372632 1.3229
16960 2.4610347 8.65559844 2.04429609 2.827407 1.250163 2.191979
16980 1.82979063 8.776251629999999 2.57794047 3.781319 0.987333 2.623063
17000 1.8841282200000002 9.26303364 2.37675699 4.455755 1.6627900000000002 2.553201
17020 1.6363962900000002 9.37485783 1.2019996800000001 3.990338 0.293691 1.947091
17040 1.59777432 9.723328650000001 0.44951382000000006 3.075157 1.962912 1.425813
17060 1.6732230300000004 9.57035151 0.9517171500000001 2.17653 4.531237 1.685437
17080 2.9175822900000004 9.51616107 0.8476919100000001 2.445758 3.315486 2.052071
17100 3.3268358700000005 9.278454960000001 0.9247788900000001 2.691526 1.6413650000000002 1.7162380000000002
17120 3.01832118 8.83283571 0.96878655 2.380385 1.642577 1.15111
17140 2.30445729 8.9942004 0.92987028 2.229699 0.653174 0.689854
17160 1.5669414900000003 9.361535850000001 0.8647515000000001 2.10181 0.076774 0.556171
17180 1.08614358 9.796079610000001 1.3189054500000001 1.766341 -0.02009 0.56143
17200 0.88196805 9.401050530000001 1.53955197 1.370842 -0.034349 0.474296
17220 0.57315906 9.55029006 1.5010771500000002 0.944157 -0.068988 0.18294
17240 1.51963767 10.40097402 1.3201022700000002 0.454944 -0.027704000000000003 -0.12604200000000002
17260 2.2870935900000005 11.223807390000001 1.06518942 -0.046511 -0.242422 -0.340777
17280 3.5010712800000006 11.752958790000001 0.36299943 -0.647708 -0.400075 -0.620376
17300 3.7619780400000002 11.328588000000002 -1.09063656 -1.234018 -0.184568 -0.991147
17320 3.58265124 11.69084187 -1.34869842 -1.500003 0.2326 -1.453943
17340 2.9461686300000003 13.934526210000001 -2.41657578 -1.721002 0.908872 -1.21814
17360 1.3941972 12.7947906 -3.40361874 -1.580803 2.61231 -0.557046
17380 -0.22153923 14.24542473 -3.2121667800000004 -0.939871 2.377595 -0.49138
17400 -4.525833690000001 17.85756483 -4.37479893 -0.466542 1.570755 -0.26271300000000003
17420 -9.68665887 19.202221530000003 -1.23747264 -0.727472 1.624495 0.642316
17440 -11.59668549 16.18030008 7.0853706 -1.279107 -0.815304 -0.130735
17460 -0.6911145000000001 13.542489180000002 -1.0255177800000002 0.72126 0.909561 -0.046334
17480 2.9271666600000006 12.98534985 -5.883066810000001 0.0030440000000000003 1.132674 0.457905
17500 1.01264706 11.001375450000001 -0.8032329899999999 -1.100772 2.060357 -0.139584
17520 1.3627659600000002 8.6762583 1.5905934000000002 -1.362391 3.111424 -1.419283
17540 2.04938748 6.84526104 -0.43589754000000003 -0.958371 2.305485 -2.15357
17560 2.3564012400000003 5.80478301 -0.51028677 -0.8234309999999999 1.24322 -1.425944
17580 1.9142154900000001 4.69648845 0.15447807000000002 -0.756537 1.03295 -0.849435
17600 1.6154421300000001 4.29546546 1.03570056 -0.8352959999999999 1.4576870000000002 -0.704183
17620 0.87792633 4.06150677 1.37070225 -1.074282 1.373633 -0.7890659999999999
17640 0.1733427 3.70853316 0.29742939 -1.1340370000000002 2.111855 -0.999801
17660 -0.15328125 3.2983868700000003 -0.6810788700000001 -1.146795 2.6697 -1.165111
17680 -0.07244685 2.74947813 -1.78398774 -0.986935 1.841735 -1.241982
17700 0.5273561700000001 2.20161906 -2.8298612700000003 -1.085762 1.637983 -0.8193950000000001
17720 0.5072947200000001 3.38505822 -5.20527429 -0.885437 2.649043 -0.223224
17740 3.78023445 6.03110952 -7.507190790000001 -0.379602 2.651755 -0.008186
17760 6.004916820000001 12.73641129 -10.567125990000001 -0.25061 2.360611 -0.038959
17780 9.50778333 16.90374834 -12.66516126 -0.063993 2.507254 -0.109414
17800 9.540705690000001 10.491981390000001 -10.15038738 0.061456 2.297404 -0.220432
17820 9.389827890000001 9.08550207 -4.179158100000001 0.15756099999999998 2.527058 -0.724256
17840 3.09032658 17.57494854 3.8348761500000004 0.144551 2.186444 -0.781594
17860 -1.32818571 16.5168027 0.07125002999999999 0.062726 1.646235 -0.682129
17880 -2.23110792 10.65528846 -6.0649344 0.005706 1.158056 -0.828248
17900 -6.51848994 2.91728799 -1.9202094 -0.081997 1.043577 -0.8949440000000001
17920 -6.40892205 4.9457115 3.85104303 0.153835 1.02063 -0.689236
17940 -3.20154255 9.887842350000001 5.595064830000001 0.609597 1.080982 -0.19368
17960 -0.7399094400000001 16.380738 3.37548366 1.045706 1.225774 0.24822
17980 4.4364744 16.59898107 1.3507879500000002 1.467285 1.764501 0.756812
18000 3.3810165000000003 10.754830530000001 0.21211182 2.189095 2.112765 1.2164700000000002
18020 -1.31501088 9.61166142 1.6049650500000001 3.159106 2.742049 2.046038
18040 -3.17295621 9.816739470000002 2.9343475800000003 3.077198 2.1883 2.8665700000000003
18060 -2.08052442 9.11439252 3.28462344 2.494228 0.816578 3.017011
18080 1.14467004 9.89232552 2.7521758800000002 2.124461 0.344098 2.679612
18100 5.04285993 10.897791660000001 2.507436 2.12125 0.34812600000000005 2.208499
18120 7.2852003000000005 9.70716177 2.6438048100000007 2.500509 -1.255147 2.15445
18140 5.313802320000001 8.79376248 1.15559838 2.964409 -1.49661 2.196456
18160 1.55945646 9.36797121 0.24968412 2.686271 -0.219299 2.691736
18180 0.74739447 8.15339511 0.47406825 2.13957 -0.27733 2.493575
18200 0.46718163 9.3702177 0.053592030000000006 1.99093 0.421646 2.317521
18220 0.7471001700000001 10.130335740000003 0.46582785000000004 1.967544 -0.288743 2.3001080000000003
18240 3.0876288300000003 10.8828216 0.18037647 1.862023 -0.7666890000000001 2.0350650000000003
18260 5.18477139 12.2684841 0.2459367 1.527362 -1.304103 1.6552650000000002
18280 6.1152302700000005 10.76860377 -0.64141704 0.8541690000000001 -1.457829 1.255518
18300 3.3729330600000003 11.615393160000002 -2.14997922 0.33943 -1.47379 0.632374
18320 2.6924525999999998 13.089826350000001 -2.96862372 -0.048317 -1.208044 0.047144
18340 2.4550407900000004 14.99941152 -2.46642039 -0.701048 -0.437973 -0.420942
18360 0.36015453000000003 15.216752069999998 -1.15485282 -1.309144 0.574757 -0.605949
18380 -1.9411635600000001 17.922526650000002 -2.45654172 -2.101465 1.625681 -0.592534
18400 -4.4062399800000005 17.952015510000003 -4.147874010000001 -2.213357 2.0543970000000003 -1.146135
18420 -1.5242778 13.71672459 -4.47988365 -2.151137 2.19285 -0.127863
18440 3.08179188 12.70572561 -3.056796 -2.242713 2.204888 -0.394505
18460 4.9891207500000005 13.111830180000002 -1.7360855100000003 -0.6844020000000001 -0.411259 -1.254073
18480 3.3555693600000005 14.260846050000001 -0.19774017000000002 -1.146091 -0.41673 -1.084239
18500 1.3572233100000002 13.142672820000001 -0.18112203000000002 -1.015449 0.644766 -1.317559
18520 -1.6423803900000002 12.283758270000002 -2.03097411 -1.281828 1.316007 -1.914211
18540 -3.83353218 10.18436922 1.22251239 -1.408467 1.810834 -2.205218
18560 -0.08622009 10.08946728 -0.47795301 -1.518899 1.600872 -1.817956
18580 2.3436776700000004 13.06468332 -2.01166803 -1.393032 1.103237 -1.357104
18600 0.044007660000000004 8.88777171 -2.70921789 -1.174242 1.0984120000000002 -1.139788
18620 0.28979721 7.12458117 -1.9437043500000002 -1.214468 0.962073 -1.108916
18640 1.6381915200000001 5.97003246 -0.76356135 -1.073033 0.888913 -1.317206
18660 2.97865935 5.389545330000001 -1.6434300600000002 -0.989643 0.569524 -1.437992
18680 2.26554102 5.086867590000001 -2.08860786 -0.969976 -0.003807 -1.401868
18700 0.905463 4.11104727 -1.6118516699999998 -0.809513 -0.255329 -1.51152
18720 -1.52158986 2.34353052 -1.35018954 -0.888127 -0.204781 -1.297422
18740 -0.8885505600000001 0.03907323000000001 0.31479309 -0.943033 0.029341 -1.190215
18760 -0.41373675 -0.4251163500000001 -0.25312743 -0.950501 0.100454 -1.118787
18780 2.30086683 -1.18494009 -1.7574909300000001 -0.725182 0.08394 -1.180217
18800 5.591474370000001 1.37534238 -3.6235197 -0.709576 0.695404 -1.192642
18820 4.6268766900000005 4.22002656 -5.66602056 -0.605925 0.705909 -0.979355
18840 10.653944489999999 9.01425204 -4.448599560000001 -0.413772 0.618449 -0.8529190000000001
18860 6.498732600000001 25.57207035 -2.09728971 -0.29580500000000004 0.541238 -0.827427
18880 5.88905091 23.80649598 -13.9108743 -0.166959 0.116387 -0.7212970000000001
18900 1.9251438300000001 4.074073380000001 2.7243351000000002 0.030972000000000006 -0.219924 -0.705597
18920 -1.5694822800000003 1.47533571 -6.34889466 0.189961 0.066966 -0.659988
18940 -3.7830793500000004 7.20211941 -1.14571971 0.403371 0.299675 -0.432333
18960 -2.08920627 12.93984126 -0.27602397 1.024974 0.132928 -0.031467
18980 3.7630277100000002 17.770000770000003 0.14160735 1.641937 0.653068 0.427239
19000 6.759197909999999 14.51276685 0.8057737800000001 2.071796 0.910373 0.7097859999999999
19020 3.6215675100000007 9.60807096 0.5123861099999999 2.098535 1.506624 1.294594
19040 2.07708111 8.140524390000001 -0.19938825000000002 2.286725 1.817435 1.991991
19060 1.5932911500000002 8.09396613 -0.04955031 2.513718 1.878176 2.588498
19080 2.09234547 9.07322976 -0.7683486300000001 2.470328 0.979564 3.0380000000000003
19100 2.35056429 9.349852140000001 -1.1762582400000001 1.6501669999999995 -0.730208 2.685153
19120 1.8362358000000003 8.59961277 -0.82628649 0.8860299999999999 -1.719593 2.218544
19140 0.89050275 7.8522183000000005 0.02439747 1.088854 -2.081779 2.306951
19160 0.33291216 7.03686996 -0.26973576 2.507773 -0.365281 2.856251
19180 0.5768966700000001 7.1555709599999995 0.03562992 2.667491 -1.372791 2.391844
19200 0.8565209100000001 8.221957200000002 -0.04819653 1.757888 -0.43492 2.274262
19220 1.64761893 8.876539260000001 -0.57779919 2.1604810000000003 0.6890890000000001 1.890006
19240 2.37316653 9.433835550000001 -0.8665467300000002 2.288882 -0.060826 1.769018
19260 2.64230388 10.220744700000001 -0.6319896300000001 2.059802 -0.8318450000000001 1.641288
19280 3.8574783900000003 11.312273970000001 -0.90097983 1.537095 -1.34763 1.343468
19300 4.766384700000001 11.64533328 -1.65794886 1.0875549999999998 -1.787894 0.7448239999999999
19320 3.77963604 12.60304434 -2.7795654000000005 0.498449 -1.546661 0.070625
19340 1.05949962 13.010198579999999 -2.13620598 -0.239888 -0.725701 -0.528447
19360 -1.7003182500000003 14.87995515 -3.32593335 -1.086307 0.584357 -0.802026
19380 0.03847482 16.06040226 -2.168991 -2.032086 1.8767080000000005 -0.824175
19400 -1.5920845200000002 16.295714730000004 -2.26254897 -3.17089 2.658399 -1.378993
19420 -2.95590015 14.7614013 -6.28947549 -2.386304 2.61489 -1.035898
19440 0.08023599000000001 11.82690657 -8.139621870000001 -2.79888 2.326212 -0.681624
19460 3.45347316 13.07276676 -7.40854143 -1.121748 -0.002245 -0.86241
19480 5.73712344 12.93939 -3.1790874600000003 -1.107479 -1.957557 -1.008288
19500 5.90327541 13.80564243 0.9818044200000001 -1.042777 0.178714 -1.162261
19520 2.9102444100000002 11.57348484 3.18671964 -1.352633 0.124834 -2.070208
19540 -2.45175444 11.01154842 2.7271800000000006 -1.494504 1.61837 -2.484379
19560 -2.42181432 10.74091014 1.58310837 -1.540201 2.009137 -2.131617
19580 0.07529175 12.248275500000002 -6.706655550000001 -1.564616 1.931145 -1.521733
19600 -5.08358124 14.115344129999999 -11.73484953 -1.310832 1.632219 -1.31341
19620 -0.80038809 7.289546130000001 4.83973407 -1.334321 1.003327 -1.464456
19640 0.01497006 7.63622172 -2.5116248700000003 -1.352275 0.573004 -1.460825
19660 0.74724732 8.025413850000001 -5.013822330000001 -1.28063 0.395822 -1.436597
19680 2.87567397 6.61354884 -3.2668084800000003 -1.250433 -0.173426 -1.365154
19700 3.02685588 5.86959768 -1.2150273600000001 -1.160879 -0.6987720000000001 -1.401243
19720 2.03696802 4.2309549 -0.25791471 -1.158158 -0.689661 -1.284799
19740 0.42481224000000006 1.8381781799999999 -0.46762308 -1.140824 -0.548373 -1.201538
19760 -1.33881975 -0.8469365400000001 -1.85434506 -1.020966 -0.385068 -1.118657
19780 -0.21929274 -1.89835272 -3.0247565400000003 -0.756684 -0.237827 -1.139432
19800 1.94490117 -2.91908322 -4.25176191 -0.646134 0.358554 -0.92578
19820 3.6961137 -1.47937743 -2.0378607300000002 -0.481782 0.773833 -0.7574529999999999
19840 3.90179016 0.7661021400000001 -2.51985546 -0.340134 0.929087 -0.5451550000000001
19860 6.44035329 10.638974430000001 -3.6895311900000003 -0.134366 0.809523 -0.394013
19880 8.46744264 40.09846329 -12.54810834 -0.030551 0.268669 -0.294319
19900 14.01699888 16.64329284 -2.6402143500000004 -0.025986 -0.249694 -0.404718
19920 -0.5921708400000001 1.0118916900000001 -0.72943236 -0.004956 -0.520597 -0.608254
19940 -5.992487550000001 2.47914396 -6.31282329 -0.004265 -0.35765 -0.5988439999999999
19960 -5.662871550000001 6.977293830000001 1.5066198 0.07728099999999999 -0.055134 -0.397836
19980 -3.28072887 12.79703709 1.2769971300000003 0.526112 0.034368 0.006836
20000 4.19233293 18.2696535 1.61424531 1.031342 0.45436 0.299315
20020 8.31775185 13.834984140000003 1.3075356599999999 1.250713 0.524321 0.462059
20040 3.5458245 9.24358041 -0.0836793 1.704041 0.753005 0.955246
20060 2.87941158 7.993972800000001 0.06990606 2.569477 1.419661 1.587483
20080 3.29629734 8.057443500000002 0.24428862 3.1493900000000004 1.673144 2.4286950000000003
20100 2.99093166 8.13153843 -0.7188081300000001 2.471282 0.522277 2.8420400000000003
20120 1.87036479 7.4329389 -1.01758149 1.439158 -0.891381 2.946669
20140 0.91325214 7.002888120000001 -0.70742853 0.983891 -1.122958 2.645751
20160 0.25476570000000004 6.94240947 -0.65653425 0.8375520000000001 -0.220128 2.637163
