time Ax Ay Az Gx Gy Gz
20 -13.88677113 32.91760215 -7.28984043 -0.147319 -1.7058779999999998 -2.173743
40 -32.50655334 39.42142614000001 5.523667649999999 -0.662829 -1.922836 -2.349049
60 -16.1925822 18.5614029 9.34102314 -1.595392 -0.933392 -2.290602
80 6.314471370000001 19.773585360000006 5.8745321100000005 -3.127504 1.146545 -1.625648
100 2.87132814 17.32123251 6.637347899999999 -5.400428 1.714761 -2.158204
120 -0.48798864 3.08313585 5.293740870000001 -5.354592 0.769837 -4.0538349999999985
140 -3.94264881 -5.80433175 3.8574783900000003 -3.549893 3.03894 -6.430544
160 -14.066549190000002 -7.149586860000001 0.87986871 -2.782957 -1.15251 -3.206605
180 -10.464287760000001 -3.1575348900000004 -2.2129986600000002 -1.616212 -0.884051 -2.35704
200 0.69200721 0.2371077 -5.34014217 -0.787484 1.1781620000000002 -3.566326
220 1.48057425 -0.32542713 0.25611948 -0.13531500000000002 -0.6117060000000001 -3.281739
240 1.35797868 2.5077303000000004 4.8957197400000005 0.200321 -1.279133 -2.899321
260 0.31299785999999996 2.50399269 6.4358701200000015 0.5436 -2.5898060000000003 -1.770406
280 -1.1018592 6.19367103 -6.439460580000001 0.381138 -1.85072 -0.245998
300 -0.07739109000000001 10.58209605 -5.16605391 0.685433 -0.030888 1.533453
320 -6.14187423 24.00184251 11.21617521 0.823876 1.275344 2.426848
340 -8.54393121 56.03522031 3.08598075 1.365476 2.280642 2.570348
360 -7.766302320000001 28.163479950000003 4.60666809 1.489061 2.642594 2.2577580000000004
380 -10.28032083 21.55053933 7.2235248300000015 0.690401 0.926744 2.339836
400 -16.32101472 20.772606330000002 0.997677 -0.69991 -2.246242 1.564003
420 -10.765758870000003 15.952923900000002 1.19197386 -0.286439 -0.647845 -0.7767
440 -0.86549706 4.61759643 -1.05904836 0.149677 2.559903 -2.269002
460 5.3055717300000005 -2.70322398 -1.62637047 1.4585629999999998 2.909567 -1.869338
480 5.15168226 -8.13588426 -0.90127413 -0.230559 -1.219125 -0.4860890000000001
500 3.8261943 -7.081476030000001 -2.81549943 0.649833 -0.679686 2.639645
520 5.5787508 -7.211105370000001 -3.4323620400000006 0.804217 1.519336 1.102871
540 9.05945652 -7.104823830000001 -2.51551944 0.950733 2.944286 2.935137
560 5.567224050000001 -0.6911145000000001 -1.29226149 1.735213 3.190475 6.218674
580 -2.1174983099999998 6.46340679 1.93846581 0.996649 0.45089 7.580078
600 -10.124047529999999 10.33750332 6.084995850000001 4.935162 -7.665052999999999 4.072559
620 -14.69553696 10.350079740000002 2.3114910600000007 4.932972 4.8735610000000005 2.132609
640 -7.7130144 3.3703922700000004 -3.2699476800000005 0.5233300000000001 -1.215299 0.566029
660 8.62551117 7.947424350000001 -9.40030497 0.717639 -0.6108640000000001 1.622015
680 13.7520504 33.13898442 10.52641449 0.8724350000000001 0.680225 1.228336
700 4.77297702 14.322217410000002 0.2282787 1.509669 0.083494 1.518767
720 -3.0205676700000006 1.4180060700000001 -6.9904588500000004 0.690136 -1.313785 1.339645
740 -2.06749674 7.45555095 -5.33685582 0.280299 -1.721529 -0.231913
760 -1.9459508400000003 23.59842588 -6.31387296 0.438072 -1.248792 -1.637197
780 -10.67520276 36.193681080000005 -19.47449808 -0.25398000000000004 -2.2474380000000003 -2.247501
800 -20.4124518 27.645561 5.20137972 -1.328333 -1.4482780000000002 -2.166299
820 -5.783976 23.901093810000003 11.99740437 -3.319272 0.524971 -1.5962809999999998
840 7.050633390000001 22.39522938 4.18470075 -3.952638 1.071029 -2.803154
860 -7.17353307 9.7058178 4.833602820000001 -3.931467 1.573694 -4.647401
880 -2.9844963 -1.9634715 6.12855225 -5.613931 1.122778 -6.306842
900 -1.52547462 -6.653063520000001 4.96787229 -4.2279620000000016 -1.523042 -2.533629
920 -8.653508910000001 -5.748346080000001 -0.9744763500000001 -2.593135 -0.407686 -3.15389
940 -8.963809020000001 -2.20297284 -1.14092262 -1.49891 0.193552 -3.408732
960 -2.38079871 0.44921952000000004 -3.3641040600000003 -1.463637 -0.77975 -2.731054
980 0.7502393700000001 1.5688838700000003 2.14084611 -0.57781 -2.329574 -2.205861
1000 2.87955873 4.21972245 6.11014869 -0.25489 -2.77279 -1.140157
1020 1.7178290999999999 6.480172080000001 -3.78936756 -0.24156 -0.855351 0.192757
1040 -2.9493176400000003 11.56525425 0.95965344 0.623146 1.468351 1.222381
1060 -8.756337330000001 24.0160572 1.24031754 1.75452 2.878835 1.824544
1080 -7.92960939 47.57601807 2.32107543 2.36056 2.890565 1.828762
1100 -3.08179188 38.18319813 2.617308 1.880746 2.818434 2.167334
1120 -9.28519443 25.512798330000003 7.403607000000001 0.118559 1.471647 2.1663650000000003
1140 -13.856232600000002 19.8514179 2.21883561 -0.8185020000000001 -2.620623 0.985746
1160 -9.56735946 13.803994350000002 3.5684267400000005 -0.397561 0.009235 -2.227895
1180 0.52570809 4.929701580000001 -3.97199052 0.226207 4.649422 -2.729412
1200 2.43169299 -1.3687500600000002 -4.3565425200000005 -0.700489 2.513662 -1.158589
1220 5.063068530000001 -5.40136638 -3.2885082000000003 -0.035979000000000004 0.321683 2.166759
1240 6.97744098 -8.634948390000002 -1.10051523 0.462071 1.240927 1.22582
1260 6.292908990000001 -8.12225817 -0.48454533 0.287032 1.128273 1.843242
1280 6.13843092 -7.3248719399999995 -1.5789195000000003 2.171987 1.410463 5.292517
1300 3.56663151 -4.00506984 -2.8024717500000005 2.550757 1.589241 7.139753
1320 -2.23514964 4.840185330000001 -2.19922542 2.917129 -5.01242 4.465261
1340 -5.9800680900000005 10.52192151 5.090909310000001 7.223152000000002 0.228697 2.343633
1360 -14.12537976 15.20762877 10.66262634 0.102538 -0.447233 1.195561
1380 -3.80658411 2.42975061 -1.949247 1.013439 0.104202 1.565481
1400 10.90781748 17.598159000000003 -9.747883080000001 0.939335 0.149755 1.959079
1420 11.19895866 28.15749585 1.61259723 0.913882 0.909222 1.733601
1440 -0.63438327 8.78298129 -2.20761297 0.21877 0.6891619999999999 1.158598
1460 -5.06546217 -0.5742087300000001 -4.26418137 -0.5230630000000001 -1.155559 -0.145315
1480 -6.32614527 13.098361050000001 -7.011864270000001 -0.38143 -1.788862 -1.199985
1500 -5.41408995 26.952955380000002 -8.90528256 -0.595145 -1.147167 -1.912668
1520 -13.863119220000002 35.49703374 -14.75991018 -1.460546 -0.498475 -1.94625
1540 -18.93263292 20.705996430000003 16.80614865 -3.51983 0.348604 -1.539772
1560 -1.67860872 24.82153668 5.09331276 -2.457723 0.374681 -2.586721
1580 8.39664387 18.29076462 4.263131700000001 -3.362485 1.6943549999999998 -3.880871
1600 -7.10781588 7.866589950000001 4.227207480000001 -5.456089 1.339386 -4.404582
1620 -6.10400763 -3.97768032 5.90911236 -4.729608 0.814706 -2.764456
1640 -7.43938407 -8.05490271 1.89296703 -2.20873 -0.403942 -2.027441
1660 -7.8939892799999996 -6.3379663200000005 -2.3215266900000002 -1.377945 1.393381 -2.531346
1680 -3.45407157 -1.2608302500000002 -2.42585604 -0.892769 0.863194 -2.765491
1700 0.10432935000000002 0.65698551 0.08412075 -0.487189 -1.2654610000000002 -2.791977
1720 2.45893536 3.0051463500000004 0.84813336 -0.616987 -3.811474 -1.6145770000000002
1740 2.48603058 5.33161728 -2.72822967 -0.136489 -1.740757 0.142283
1760 -2.10357792 8.0719623 0.72913806 0.872707 0.13883900000000002 1.816554
1780 -7.808809050000001 21.756657240000003 8.20398528 1.564173 0.905774 2.563884
1800 -4.16329533 25.54198308 -2.29307769 1.944257 0.680933 2.517689
1820 -2.79333864 40.31296875 4.79587356 1.159907 0.036496 2.384849
1840 -6.412061250000001 35.86736124 6.22136466 0.19791 -1.31645 1.899163
1860 -12.248726759999998 23.733450720000004 6.36656247 0.07270900000000001 -1.268307 0.359987
1880 -11.33518032 17.57884311 2.62285065 -1.317153 0.413546 -1.840663
1900 -8.892411840000001 10.26190746 -3.1165192800000003 -1.117983 4.097469 -2.594952
1920 3.1204138500000003 1.793268 -9.70806429 0.5108520000000001 5.1238980000000005 -1.486758
1940 5.56588008 -7.8465285 -1.25619012 -0.508865 -2.655109 1.614999
1960 5.980666500000001 -14.09498838 1.0795512600000001 0.384565 1.245994 1.623719
1980 3.8459516400000004 -11.52752499 -1.4253341400000001 -0.239617 1.799619 1.711585
2000 4.0639004100000005 -8.20264131 -5.647303080000001 1.679055 1.80948 4.5044879999999985
2020 4.267624680000001 -2.99272689 -3.2034849300000006 2.335378 1.036591 7.269278999999999
2040 0.64321227 4.06239948 -1.25379648 3.1632830000000003 -4.161118 6.343824
2060 -2.95994187 10.1424609 3.4355012400000002 7.258869 -1.425048 2.95382
2080 -7.1657439300000005 17.987341320000002 12.911549220000001 1.1075 0.513361 1.460928
2100 -6.54858702 10.450073069999998 5.85507888 0.51595 -1.298361 1.894952
2120 3.83413059 -0.13517199 -5.425763850000001 0.930276 0.631422 1.12839
2140 13.699665000000001 26.38787976 -0.75607632 1.008664 1.645702 1.558131
2160 3.3691954500000003 13.760879400000002 -0.05163984 0.7896989999999999 -0.761042 1.819264
2180 -1.34300862 4.623286230000001 -5.3810106300000005 -0.234086 -2.167179 0.304517
2200 -4.41985626 3.8823271200000002 -4.866083730000001 -0.214046 -1.410036 -1.508018
2220 -3.6326430000000003 19.72612458 -6.102065250000001 -0.09159 -1.831999 -2.117644
2240 -9.29103138 29.7974826 -13.58634969 -0.881792 -1.636999 -2.245191
2260 -18.235828620000003 32.73153588000001 -0.26689086 -1.977349 -0.07288 -1.902335
2280 -15.57601389 24.313192290000003 16.35393708 -4.820128 0.58855 -2.074727
2300 10.717415190000002 25.54872255 6.3598230000000004 -3.3901980000000003 0.273384 -3.883517
2320 -4.531376340000001 13.709092410000002 4.337383590000002 -4.3483550000000015 2.099813 -5.850601
2340 -5.78187666 2.48632488 6.159836340000001 -4.549986 -0.792559 -3.5110330000000003
2360 -5.08447395 -5.89174866 2.20297284 -2.899432 -2.356589 -2.228452
2380 -11.84636961 -6.55846569 0.76026519 -1.633457 1.077402 -3.209979
2400 -10.45545876 -1.3504936500000002 0.61866765 -0.927323 -1.576273 -2.739106
2420 0.34652844000000005 1.2234051000000001 -5.282665379999999 -0.49877 -1.7149310000000002 -2.801096
2440 2.8744771500000006 0.41299119 -0.5445629100000001 0.097548 -2.544948 -1.945562
2460 2.3692719600000003 2.5108793100000004 5.36544216 -0.311297 -1.303308 -0.409633
2480 -0.17318574 5.1385172400000005 -3.9582172800000004 0.481606 1.410915 1.322947
2500 -3.73578534 11.6323056 -1.35902835 1.996929 2.662185 2.512313
2520 -10.98461016 26.097032880000004 3.04391547 2.298235 2.460162 2.688797
2540 -5.744755620000001 39.908061000000004 0.27198225000000004 0.942022 0.238412 2.163015
2560 0.40655583 35.50136976 4.8240184500000005 -0.345872 -3.403789 1.155625
2580 -8.43360795 26.076520170000002 7.25451462 0.102659 -1.987186 -1.573432
2600 -12.989391570000002 23.10684678 0.00987867 -1.041455 2.238941 -2.489487
2620 -8.984017620000001 17.43289974 -0.18800865000000003 0.039756 4.831946 -2.126335
2640 -2.19054357 6.289318530000001 0.11016630000000001 -0.523662 1.430171 -0.753246
2660 0.37960776 0.75098493 -5.27802525 0.057019000000000014 -0.515067 2.479333
2680 5.7492486000000005 -7.03881234 -1.3418117999999999 -0.191662 1.219878 0.663669
2700 7.155266850000001 -15.211072080000001 -1.66559085 0.046577 3.270367 2.893152
2720 6.46146441 -12.51443061 -6.11238537 1.555799 2.2269240000000003 6.243225
2740 8.62880733 -4.9220694 -5.9376987 1.923996 -0.755827 7.5154619999999985
2760 1.83069315 6.44080455 -1.6801096500000001 6.798214999999999 -4.090538 4.991118
2780 -4.263730110000001 10.75647861 6.33138381 2.260729 4.826997 2.241121
2800 -12.2684841 14.6802726 11.43606636 1.153988 -0.624167 1.374048
2820 -9.09283995 6.73179858 0.40835106000000004 1.030781 -0.333484 1.780876
2840 2.00837187 2.39801526 -2.80771029 0.883392 0.938485 1.901062
2860 10.854529560000001 35.11203048000001 3.0446708399999998 0.595808 0.047088 2.090339
2880 9.624836250000001 20.34553779 1.0065060000000001 -0.220402 -1.446018 0.832458
2900 2.02199796 0.20611791 -6.76099314 -0.254421 -1.700134 -1.121232
2920 1.24840098 2.39531751 -5.728883040000001 -0.235664 -1.8792830000000005 -2.155978
2940 0.41089185000000006 21.30714342 -8.34903594 -0.82471 -1.442663 -2.40848
2960 -8.94958452 31.279999230000005 -15.59876328 -1.555388 -0.726054 -1.961576
2980 -25.74466749 40.36192065 3.14166231 -4.094794 -0.188201 -1.863566
3000 -19.482738480000002 21.342920490000004 16.790138730000002 -4.005972 0.5267109999999999 -3.830459
3020 8.32882734 18.51859206 6.051916530000001 -3.753723 2.491388 -6.253942
3040 -1.78398774 11.849204700000001 2.5312350600000006 -4.059703 -0.478842 -3.800703
3060 -3.1081317299999998 -1.18089837 5.511091230000001 -2.310064 -2.968614 -1.269629
3080 -7.592214060000001 -6.3165609 3.27773682 -1.416149 -0.184424 -2.731485
3100 -13.74411411 -6.05071971 -3.31620183 -0.381528 0.3484 -2.609573
3120 -5.8451904 -0.48603645 -3.1253482800000003 -0.704476 -1.584701 -2.9554560000000003
3140 0.6836294700000001 -1.4042328300000002 -2.53393281 -0.113639 -2.613346 -2.50563
3160 1.2205602 -1.02013209 1.2582796500000002 -0.369947 -1.5399 -1.131858
3180 -1.22070735 2.42855379 4.3881209100000005 0.438688 -0.38924 0.521651
3200 -1.7181234000000003 7.6769332200000004 -6.34829625 1.443663 0.622838 2.029294
3220 -4.956943949999999 15.33680685 1.82411064 2.680245 0.781039 2.420152
3240 -7.27891209 30.4567146 2.8539644400000004 2.412645 0.650572 2.245398
3260 -2.80172619 50.95014795 -0.34652844000000005 0.788169 -0.7360949999999999 1.709194
3280 -4.594248629999999 27.96394455 3.63503664 -0.85669 -2.900834 -0.30030100000000004
3300 -11.950394850000002 21.043391760000002 11.98527921 -1.6576799999999998 0.295292 -2.873724
3320 -15.04086858 20.040024960000004 0.7125199200000001 -0.619729 4.664969 -3.219245
3340 -11.757147660000003 15.901578359999998 -2.07153846 -0.541913 2.673708 -1.625568
3360 -0.48424122 5.7782862 -5.95985949 -0.349929 2.088952 1.380363
3380 8.24545215 -2.4983028899999997 -4.52240019 0.096264 2.629784 1.874168
3400 10.618471529999999 -11.43651762 -2.9157870600000004 -0.134979 1.986829 3.552622
3420 8.23153176 -12.96543555 -2.8951272 2.377085 1.561295 6.820245
3440 7.11740025 -9.56930184 -5.374869570000001 2.133278 -0.398842 7.836933
3460 4.935685680000001 -2.54994273 -3.1897215 5.0909260000000005 -4.62585 4.742733
3480 -1.9970020800000001 5.92587765 -0.6914088 6.106593 6.312787 1.905022
3500 -7.351957350000001 12.31219746 5.3100549 -0.196782 -1.383369 0.862453
3520 -11.612401110000002 15.613586190000001 12.111916500000001 0.486654 -0.375216 1.500459
3540 -3.48610122 6.83494092 2.1603091500000002 1.024768 1.627698 1.517675
3560 14.16699378 17.219443950000002 -10.42327215 0.992855 0.250521 2.021281
3580 14.05726893 24.64953795 3.3289254000000006 0.228295 -1.630156 1.469284
3600 4.21583769 7.98140619 -2.05852059 -0.328803 -1.64528 -0.656077
3620 -2.7285239700000004 7.964042490000001 -9.49145949 -0.072115 -2.0935650000000003 -1.725136
3640 -1.9725948000000002 14.44241934 -5.7321792 -0.306974 -1.938189 -2.0153950000000003
3660 -3.9152592900000003 22.803129180000003 -10.249183890000001 -0.914163 -1.413339 -1.939124
3680 -17.79170049 39.94773264000002 -11.608506540000002 -2.688429 -0.80042 -1.56347
3700 -27.726993810000003 27.291547530000003 14.277307230000002 -3.648659 0.5266649999999999 -3.330171
3720 1.3867121699999998 23.20834104 8.32538403 -3.4031910000000005 1.828444 -5.141829
3740 1.39629654 16.32085776 3.2546833200000003 -4.596596 0.59735 -5.529943
3760 -3.91406247 2.89857051 5.490431370000001 -3.446063 -1.93678 -1.245771
3780 -2.9975141700000005 -5.46543549 5.097197520000001 -2.435903 -2.013037 -2.230996
3800 -10.64645946 -7.35840252 1.8425141999999999 -0.5515479999999999 0.672035 -2.676337
3820 -13.34624994 -2.8753698599999997 0.14519781 -0.399454 -0.664063 -2.481282
3840 -2.1625556400000003 -0.11451213 -5.870039129999999 -0.6355689999999999 -1.3520219999999998 -2.861269
3860 1.45393029 -1.3921076700000001 -2.47675032 -0.770584 -1.844899 -2.03264
3880 0.9683352900000001 -0.77344002 1.76692815 -0.534589 -1.060059 -0.573874
3900 -2.10178269 2.7931914900000003 3.12520113 0.497096 0.80691 1.307805
3920 -0.74964096 8.38615698 -1.15514712 1.670132 1.969457 2.603853
3940 -8.53300287 18.9405594 5.83277094 2.229198 2.0714 2.466622
3960 -7.454501280000001 32.14415232 -3.7663140600000014 1.39294 0.961801 2.022096
3980 -2.8725249600000002 48.49914888 2.40744267 -0.5739920000000001 -2.507882 0.818531
4000 -3.35721744 27.5413788 3.51843498 -1.1326969999999998 -0.753757 -1.794081
4020 -10.07929431 20.53609704 9.2925225 -0.63917 3.074191 -2.856284
4040 -12.01431681 19.01106387 0.35311095000000003 0.901127 3.610647 -2.483017
4060 -7.951318919999999 15.25762053 -1.7925224400000002 -0.54905 -3.14546 1.996702
4080 -2.3989079700000002 7.78096827 -4.8538016100000005 1.131516 1.7343240000000002 1.134792
4100 7.48952298 -1.36530675 -4.62522861 -0.088298 1.530391 1.242969
4120 9.962977140000001 -12.34527678 -2.65143699 0.926226 1.903365 3.790877
4140 8.80708446 -14.635215270000002 -3.20977314 1.784227 2.613499 6.607521
4160 9.58217256 -9.50164227 -4.448452410000001 1.862568 -0.879566 6.812302000000002
4180 5.050943370000001 -1.2769971300000003 -2.2489228800000003 5.95596 -6.006226 3.406721
4200 -2.73077046 7.90326954 0.9554645700000001 6.1505230000000015 6.740278 2.054332
4220 -10.173293730000001 12.90556512 9.79877736 0.269826 -1.522365 1.117991
4240 -13.24056681 12.10188087 6.7500648000000005 0.901729 -0.212044 1.89305
4260 -3.6718633800000005 2.82717333 -4.38962184 0.886767 1.027645 1.712964
4280 9.907148430000001 19.89632808 -10.36025271 0.585088 0.820225 2.1629810000000003
4300 10.862308890000001 28.860588359999998 1.7781507900000002 -0.4856140000000001 -0.792185 1.389516
4320 2.8851013800000005 4.23933264 -1.5657446700000002 -0.710774 -1.099898 -0.5814630000000001
4340 -1.3959924300000002 0.71042058 -5.8962416399999995 0.236301 -1.308684 -1.6695080000000002
4360 0.06975891000000001 14.494961700000001 -3.8833767900000002 0.046805 -1.355514 -2.047854
4380 0.49951539 23.145321600000003 -6.98806521 -1.086932 -0.8442 -1.859876
4400 -10.713520619999999 32.705784630000004 -17.70982623 -2.830682 -0.359085 -1.5180280000000002
4420 -23.50262142 28.789779780000003 3.2177094300000006 -3.447182 0.322432 -2.781573
4440 -10.1481507 28.577667960000003 21.98358216 -2.936649 0.778641 -4.3552870000000015
4460 4.0371093 20.67426108 4.01330043 -4.521942 2.028767 -5.5163
4480 -2.2129986600000002 9.922716900000001 2.68900929 -3.762353 -0.883524 -2.226753
4500 -2.5596742500000005 -2.35789236 6.24202452 -2.60148 -2.682875 -2.142632
4520 -5.243749110000001 -7.221729600000001 4.11883641 -1.271092 0.795077 -2.452921
4540 -10.621159470000002 -5.70419127 -1.16712513 -0.999971 -1.087205 -2.702852
4560 -5.660929169999999 -0.83227059 -4.38543297 -0.774234 -2.409007 -3.215533
4580 0.54321894 -0.8994789 -3.53145285 -0.334704 -2.677277 -2.044552
4600 1.56289977 -0.03666978 1.53775674 -0.007489 -1.418227 -0.705398
4620 0.53603802 1.77860205 4.19307849 0.7308020000000001 0.033957 0.996371
4640 -2.53707201 5.46768198 -4.530925080000001 1.607458 1.435281 2.244109
4660 -5.8187034 9.05721984 0.6360313500000001 2.219544 2.103217 2.510311
4680 -7.920181980000001 24.04989189 6.387222330000001 1.711389 1.44062 2.150825
4700 -6.77745432 37.19704788 -2.9083020300000006 0.588381 -0.930985 1.336307
4720 -0.9768699900000001 39.93290973 4.072876560000001 -1.197807 -3.944046 -0.460512
4740 -9.75880161 25.7743035 11.097621360000002 -2.204162 1.933564 -2.370099
4760 -15.08592591 24.49401021 4.76563914 0.383019 5.130445 -2.478969
4780 -13.392945540000001 19.63616688 -2.37541302 -0.667901 2.814223 -1.224976
4800 -5.263359300000001 12.55050198 -2.7339194700000005 -0.23687800000000006 0.653859 1.856214
4820 3.3959865600000008 3.0051463500000004 -3.5485222500000004 -0.392012 1.109071 2.171809
4840 10.16745678 -7.4783003400000005 -1.5114070800000001 0.143066 0.011622 3.092419
4860 6.70770522 -14.01804855 -2.29952286 2.972717 0.932122 5.405545
4880 6.605759700000001 -13.225449600000001 -6.210887580000001 2.711522 2.834301 6.7963809999999985
4900 10.08886887 -8.844803910000001 -6.781348889999999 4.020889 -3.743903 4.896498
4920 5.1882147 0.5174775 -3.5360929800000003 6.253521 2.102112 2.752135
4940 -2.43573471 11.03789808 1.8839810700000001 0.013497 -0.624657 0.8875190000000001
4960 -10.98281493 18.77156253 17.2656981 0.471566 -0.801387 2.060648
4980 -13.56464016 14.21279667 8.880885090000001 1.184474 0.764583 1.439779
5000 -2.06645688 0.70773264 -8.14980465 0.832249 1.195268 1.666435
5020 13.29131394 17.14743855 -11.51704791 0.318122 -0.835808 1.744495
5040 13.520779650000001 21.755911680000004 2.35011303 -0.605154 -1.411766 0.060607000000000015
5060 3.0853823400000002 7.90521192 -2.03876325 -0.172072 -1.402319 -1.343228
5080 -3.7402685100000004 2.9660829300000007 -9.83470158 0.207724 -1.682806 -1.858303
5100 -3.99055104 18.141672240000002 -3.15349317 -0.57526 -1.543226 -1.985729
5120 -6.25219749 27.402469200000002 -10.03887711 -1.475594 -1.067954 -1.777914
5140 -15.200438040000002 35.41455126 -9.16319727 -3.638518 -0.090583 -2.161743
5160 -22.652692830000003 20.798799029999998 17.56028259 -3.536892 1.572495 -3.891547
5180 -3.50002161 18.59178447 6.58899441 -3.652771 2.7305740000000003 -5.684181
5200 6.45173289 17.90905752 4.575531150000001 -3.319195 0.95216 -4.525892
5220 -6.25324716 7.130418120000001 4.943769120000001 -2.022792 -1.934477 -1.7229419999999998
5240 -2.5283901600000003 -2.5313822100000003 3.9890501100000004 -1.794423 -1.443569 -2.672693
5260 -7.16185917 -6.43407489 1.5590052 -0.6280859999999999 0.65356 -2.518751
5280 -12.0629646 -4.102218270000001 1.77994602 -0.664496 -1.132293 -2.374643
5300 -3.9853125 -0.32706539999999995 -5.15812743 -0.401395 -1.809332 -2.721246
5320 1.4705386200000001 -0.0925083 -3.8484924300000003 -0.296342 -2.379201 -1.4956
5340 1.20858219 -1.05081777 0.46058931000000003 0.32391 -0.739526 0.307653
5360 -0.78212187 0.61432182 3.45077541 0.915652 0.6894819999999999 2.071454
5380 -1.89730305 5.49342342 -3.46034997 1.665412 1.414492 2.863041
5400 -0.6595263 11.30134563 0.8792703000000001 1.922266 1.230652 2.261526
5420 -7.78770774 23.685548490000002 3.1008036600000004 1.149876 -0.793665 1.407351
5440 -8.057296350000001 44.210265930000006 -2.15866107 -0.633249 -4.244836 -0.321587
5460 -5.9138996399999995 33.12162072 4.21703451 -1.3115629999999998 0.443136 -2.584144
5480 -12.47970321 21.326449500000003 8.442593910000001 0.620732 3.449353 -2.929149
5500 -13.317055380000001 22.5205227 7.549550370000001 -0.324504 1.49367 -1.087358
5520 -12.727435140000003 18.57427362 -1.61573643 0.056915 1.85784 1.5469389999999998
5540 -4.02378732 12.644805510000001 -3.8865159900000004 0.411691 2.130964 1.934695
5560 4.67987031 1.02477222 -4.78749582 0.76742 0.794578 3.355354
5580 10.65829032 -8.15698557 -0.23905008000000003 2.739387 1.519108 6.400882
5600 5.83710696 -13.658198130000002 -1.56380229 2.370743 1.385679 7.585273
5620 4.92161814 -11.6838081 -4.876109550000001 4.830799 -4.781802 4.541358
5640 7.522906410000001 -6.558161580000001 -5.25811095 3.778512 4.780099 2.529521
5660 0.89364195 5.68712187 -2.48887548 0.420413 -1.1474799999999998 0.744685
5680 -4.6783693799999995 12.00264291 5.6315874599999995 0.56647 -0.396783 1.762759
5700 -11.88169542 14.63715765 10.79959356 0.98138 1.065099 1.588595
5720 -7.776926550000001 6.81413391 -2.15791551 0.655098 0.897917 1.854654
5740 8.51040063 12.092002200000001 -7.30361367 0.133456 -0.980717 1.380195
5760 16.959135600000003 33.30574461 10.87563087 -0.093969 -1.13989 -0.173316
5780 2.388735 5.986346490000001 -3.6579429900000004 0.314866 -1.151211 -1.424538
5800 -3.21651261 4.42913652 -10.892700270000002 -0.015718 -1.540377 -1.851501
5820 -2.5418592900000005 12.522062790000001 -5.39014374 -1.05747 -1.212728 -1.89979
5840 -0.84619098 25.37269191 -7.668408330000001 -1.845826 -0.717727 -1.6613080000000002
5860 -11.77811163 36.37331199 -15.489038430000003 -4.281621 0.205536 -2.396282
5880 -22.272633810000002 27.612628830000002 15.49338426 -3.927011 1.284628 -4.025295
5900 -7.56137142 22.40271441 5.404211280000001 -4.511264 2.404958 -6.094616
5920 5.549114790000001 16.8988041 2.42166717 -4.438288 -0.12524000000000002 -3.721548
5940 -4.149522090000001 7.7335173 2.8149010200000006 -2.318984 -2.099339 -1.264396
5960 -2.08561581 -1.5552675900000001 7.09105059 -1.004304 0.693631 -2.090937
5980 -4.45278843 -6.07257639 1.0398894300000001 -0.117188 0.603071 -2.057919
6000 -10.451564190000001 -6.111639810000001 0.02529999 -0.394273 -1.167977 -2.476328
6020 -6.762641220000001 -0.66387213 -1.7143857900000001 -0.122692 -2.103652 -2.354659
6040 0.27917298 0.44338257000000003 -3.4835604300000003 -0.171457 -1.885154 -1.011456
6060 2.3456200500000004 0.89498592 -1.2364327800000001 0.6952649999999999 -0.680269 0.35183200000000003
6080 1.29226149 1.72172367 1.6170902100000002 1.595481 0.293795 1.86627
6100 -2.2073088600000004 4.90110543 -1.06189326 2.509209 0.8745940000000001 2.349403
6120 -0.24009975 9.59235534 2.4674700600000006 1.958075 0.866188 1.99946
6140 -8.95632399 22.19538987 6.35817492 0.6018859999999999 -1.106423 1.241555
6160 -7.6350248999999994 35.3156076 -3.77604558 -0.992846 -4.654137 -0.483807
6180 -2.4730029000000004 46.20636549 1.92110211 -1.508616 0.460022 -2.640021
6200 -5.770349909999999 23.39515287 9.7288713 -0.291254 4.531307 -2.846107
6220 -15.12110457 20.551361399999998 7.369478010000001 -0.728201 2.271983 -1.169155
6240 -15.7590783 17.21045799 -2.56670802 0.461094 2.300517 1.316322
6260 -7.315885980000001 12.56801283 -1.16981307 0.360063 2.7582310000000003 1.226368
6280 -1.68683931 3.65704047 -2.94348069 -0.6926329999999999 2.595517 3.133477
6300 5.98201047 -3.59267706 -4.7689353 1.516672 1.124799 6.966482000000001
6320 8.95498002 -13.42513215 -2.56656087 1.705493 0.08744500000000001 8.076875999999999
6340 9.353599560000001 -14.79059586 -2.2589487 4.9149379999999985 -5.54571 4.760842
6360 10.261309050000001 -8.236171890000001 -4.0540217400000005 7.398233 5.5307 2.160737
6380 2.8572606000000005 3.7389245399999997 -2.73915801 -0.331971 -1.888507 0.7628119999999999
6400 -2.5842286800000003 10.27104057 1.8188721 0.943967 -0.5584680000000001 1.642757
6420 -9.505379880000001 15.55939575 11.56480299 1.171529 2.244899 1.289309
6440 -9.49924863 10.806323220000001 6.1490649600000005 0.640422 1.608746 1.794888
6460 1.2223554300000001 4.35938742 -1.16158248 -0.119457 -1.331928 1.516679
6480 12.90062088 27.51952212 -6.765927570000001 -0.602503 -1.117852 -0.714212
6500 10.208923650000001 10.904825429999999 -0.11032326000000002 0.50762 -1.7833830000000002 -1.74178
6520 5.45630238 6.84945972 -4.70352222 0.214166 -2.130426 -2.078807
6540 0.16884972000000004 7.271574210000001 -8.78298129 -1.396452 -0.977981 -1.968688
6560 -1.24181847 22.734419940000002 -4.951705410000001 -3.736808 -0.992841 -2.084361
6580 -7.384143959999999 27.59720751 -16.38463257 -2.187237 -0.480924 -3.5718410000000005
6600 -23.932230750000002 40.157892270000005 -0.07424208000000002 -3.729579 2.0724 -5.393318
6620 -22.653595350000003 18.82230966 25.39603971 -4.698146 0.131232 -4.762004
6640 5.852979540000001 20.433111659999998 5.723948610000001 -3.653911 -1.968448 -0.6062489999999999
6660 0.88166394 15.974927730000001 3.3474859200000004 -2.319976 -1.039137 -2.124612
6680 -2.4614859599999996 1.5633510300000002 7.377855750000001 -0.992159 0.8816430000000001 -2.232098
6700 -3.74476149 -6.706351440000001 2.15985789 -0.649788 -0.251181 -2.153479
6720 -14.67218916 -7.1934375600000005 1.8606332700000001 -0.470426 -0.96787 -2.9012
6740 -11.50867017 -1.11128661 -3.03180012 -0.874033 -1.823176 -1.78129
6760 1.8895237200000001 -0.5559425100000002 -6.93927027 -0.495319 -0.370835 -0.073487
6780 2.5524933300000003 -1.0448238600000002 1.15545123 0.757706 1.241383 1.920092
6800 -0.15866694 0.3505701600000001 5.07938256 2.194135 1.241429 2.7932490000000003
6820 -2.5533860400000004 5.010231870000001 -6.028117470000001 2.284349 0.260546 2.39028
6840 -10.38540555 10.87982955 0.7318260000000001 1.05174 -1.3615700000000002 1.786613
6860 -8.81247015 29.48223825 0.86070978 -0.479976 -3.324956 0.207075
6880 -5.46797628 44.77967757 -2.08037727 -1.035218 -0.252217 -2.0931450000000003
6900 1.5630469200000001 33.61529916 4.0478806800000005 -0.8651690000000001 2.993549 -2.740255
6920 -6.175257660000001 26.780809500000004 7.51362615 0.190036 3.936019 -2.5151060000000003
6940 -13.342502520000002 23.14187829 3.2042403000000004 -1.203285 -3.123157 -0.080247
6960 -8.89765038 17.27467425 -1.09542384 0.638525 1.362484 0.778243
6980 -4.8675748500000005 13.125456269999999 -2.5478532 0.257284 2.7898810000000003 0.8602770000000001
7000 2.9564985600000004 -1.1569423499999998 -6.31117521 0.42864 4.047594 2.934349
7020 10.00264878 -9.43936839 -3.2159142000000003 2.007702 2.975701 6.146077
7040 9.87436341 -17.995277610000002 -3.07610208 1.80244 0.404958 7.711815
7060 10.33121511 -13.643826480000001 -4.15461348 5.14207 -7.468160000000001 5.003106
7080 7.47949716 -2.07213687 -2.78855136 4.558407 5.70321 2.50708
7100 -1.0568018700000001 6.754106520000001 -1.0186311599999998 0.465308 -1.289735 0.582811
7120 -5.3889469199999995 11.346108659999999 4.75485795 1.017282 -1.015957 1.9664580000000005
7140 -13.89695391 14.83190577 11.45761893 1.468927 0.30945 1.79059
7160 -8.07061833 7.847578169999999 1.1193700500000001 0.963674 1.503741 1.932945
7180 2.5545828600000005 0.11840670000000002 -6.68165967 -0.16868699999999998 -0.211067 1.245707
7200 16.88892543 20.620669050000004 -8.571026430000002 -0.694932 -1.219881 -0.427375
7220 6.784193790000001 27.777731130000003 -1.88697312 -0.12071099999999997 -1.895621 -1.633862
7240 1.3009433400000001 5.40855711 -2.8726721100000003 -0.394084 -2.256806 -2.1811700000000003
7260 -1.3591755 2.40160572 -2.5406624700000005 -1.42672 -1.083377 -2.2251380000000003
7280 1.9366705800000001 15.58453878 -7.90566318 -2.38811 0.036761 -1.792113
7300 -0.76102056 22.70313585 -9.190586790000001 -4.029337 1.139304 -2.7610490000000003
7320 -15.593377590000001 44.22598155 -16.25259978 -3.406764 1.613176 -4.3201160000000005
7340 -28.357933770000002 26.399406510000002 25.62326874 -4.796266 1.527012 -5.2761559999999985
7360 -6.23842425 17.79948963 5.970336570000001 -3.665531 -1.164827 -1.495053
7380 6.0574493700000005 17.78182182 4.3283976299999996 -2.759311 -2.065932 -1.7770560000000002
7400 -0.6247989 8.649163080000001 2.97146862 -1.020123 0.588703 -2.476541
7420 -0.50459697 -3.3257862 7.49626245 -0.044367 0.07596 -2.171034
7440 -7.92317403 -6.31596249 2.67209685 -0.031743 -1.535362 -2.557714
7460 -12.917837430000002 -5.4142371 -1.0027683900000002 0.095301 -2.123089 -2.2121060000000003
7480 -4.314928500000001 -0.21420135 -4.988375189999999 -0.307798 -0.927786 -0.814946
7500 0.37676286000000003 -1.1782006200000001 -2.6077236299999997 0.6536649999999999 0.646763 0.72906
7520 1.85868108 0.35700552 2.3861844000000003 1.537227 1.398554 2.165686
7540 0.6617727900000001 3.0587383800000003 4.10716251 2.187158 1.263003 2.466296
7560 -1.0415375100000002 8.18902503 -4.3445645100000005 1.474135 0.233036 1.980868
7580 -5.25676698 15.350432940000001 3.1193641800000007 -0.07085 -2.426193 0.999265
7600 -7.128927000000001 27.04365864 -0.98809263 -0.5777680000000001 -2.497691 -1.190834
7620 -5.0555835 41.50523691 -1.5498819000000004 -1.202244 1.7052490000000002 -2.619181
7640 -3.6655751700000003 28.20599649 2.75771853 0.202593 4.159411 -2.712926
7660 -8.25219162 21.54454542 8.99464185 -0.509861 -1.216677 -0.05755
7680 -13.559705730000001 21.09233385 3.4527177900000003 0.936274 1.904326 0.350204
7700 -10.68687666 15.465837780000001 -0.7587740700000001 -0.636322 3.121342 1.327901
7720 -4.6689419700000006 9.01845072 -3.13163649 0.980067 1.447092 4.892107
7740 5.60120589 -0.25880742 -6.50397114 3.2826230000000005 1.180863 7.930532
7760 8.20683018 -6.92848908 -1.8209616300000002 2.13425 -0.8751040000000001 7.856778
7780 7.6690067399999995 -13.373492310000001 -2.68690995 5.836242 -4.8871980000000015 3.388427
7800 7.55973315 -11.55267783 -4.4825814 4.845582 6.886645 1.7480639999999998
7820 7.41482964 -6.02512542 -2.60293635 -0.397451 -1.983392 0.040358
7840 -0.28845324000000006 4.89167802 -0.33275520000000003 0.7859109999999999 -0.7937109999999999 1.201847
7860 -6.971751179999999 9.799218810000001 4.960083149999999 1.314505 0.204976 1.145507
7880 -14.017302990000001 13.35567735 8.798108310000002 0.5759270000000001 0.7355520000000001 1.501796
7900 -8.69092425 9.067245660000001 2.47704462 -0.254547 -0.673711 1.132469
7920 8.91680931 20.216055600000004 -7.76135808 -0.47248 -1.143672 -0.231502
7940 12.714711569999999 28.286232480000002 2.7478398600000005 0.001076 -1.243491 -1.252492
7960 7.46362458 3.91690737 1.2975000300000004 -0.250111 -1.348295 -1.731607
7980 0.7580285100000002 4.9970570400000005 -9.716294880000001 -1.205575 -0.8429209999999999 -1.810499
8000 0.7471001700000001 15.31195812 -7.8302144700000005 -2.262603 -0.373349 -1.640092
8020 -1.2813331500000003 26.405841870000003 -8.107445069999999 -3.499737 0.832274 -3.161812
8040 -9.7029729 36.10686258 -17.0490933 -3.488484 1.492781 -4.776663
8060 -23.2352793 29.57654178 9.49879737 -4.76187 1.549292 -5.549409
8080 -9.43233462 21.11134563 18.6337026 -3.905463 -1.182252 -2.256212
8100 -0.68796549 15.378420870000001 3.07640619 -2.486735 -0.491479 -1.74085
8120 -1.01339262 8.648868779999999 0.92971332 -0.806701 2.119545 -2.139454
8140 0.46897686000000005 0.22931856000000003 7.494918480000001 -0.434087 1.026094 -2.342685
8160 -1.5432895800000002 -5.06815992 4.51625913 -0.326831 -0.946476 -2.781652
8180 -8.86052934 -4.16373678 -0.6366297600000002 -0.265987 -1.980375 -2.1571290000000003
8200 -6.82954542 -1.89820557 -1.85614029 -0.326106 -1.659531 -0.557763
8220 -0.94169133 -1.0497681 -2.91518865 0.639451 -0.54424 1.2795530000000002
8240 0.7292852099999999 0.10448631000000001 0.24189498000000004 1.581414 0.384179 2.717428
8260 0.17438256000000002 1.2307429799999998 3.29120595 2.199618 0.702771 2.695701
8280 -2.81369439 5.699698290000001 -3.8000016 1.429276 0.034849 2.031015
8300 -1.93412979 10.60993683 0.9033734700000001 -0.074775 -2.808786 0.77647
8320 -8.67131406 25.29080784 4.29576957 -1.047013 -2.845075 -1.82285
8340 -4.78675026 36.722979630000005 -3.175497 -1.265798 1.637866 -3.028667
8360 -0.59336766 43.51077369000001 4.65636555 0.32777 4.77127 -2.6530150000000003
8380 -6.04173375 25.20848232 9.74069235 0.341173 0.917409 -1.410982
8400 -12.49466346 21.69139131 4.8814952400000005 -1.348889 -1.352478 3.722542
8420 -13.62496185 16.8842853 -2.0071750500000003 2.223442 0.8474879999999999 0.852999
8440 -8.172259740000001 12.62758896 -2.09040309 0.179221 4.153162 1.7937470000000002
8460 -0.5095412100000001 3.6271101600000004 -4.7165400900000005 1.505342 4.704315 4.268829
8480 7.94487375 -7.59595167 -2.58392457 1.882607 3.13442 7.320044
8500 7.50554271 -15.649804710000002 -2.2339528200000003 1.596618 -5.621534 6.88275
8520 8.05669794 -15.31599984 -2.6783850600000005 8.09727 -2.967194 2.400836
8540 9.17023104 -7.958048580000001 -4.293375930000001 0.06575800000000001 2.087996 0.993367
8560 2.08441899 5.263055189999999 -3.39748749 0.617907 -0.680375 0.711283
8580 -4.07033577 10.83192732 3.44283912 1.2240540000000002 0.381735 1.508913
8600 -12.319084080000001 16.697179170000002 13.338607950000002 0.950105 1.6227790000000002 1.746827
8620 -9.5034375 9.16932852 4.20206445 0.04815 0.10693 1.986024
8640 -2.03276934 -2.13246837 -8.3119149 -0.585492 -0.925377 0.686099
8660 18.0726687 8.40831777 -7.66496502 -0.175294 -0.6353310000000001 -0.80585
8680 17.10598149 51.52704462 12.237651270000002 -0.051519 -0.985035 -1.63775
8700 -4.61130822 10.825933410000001 -5.160521070000001 -0.92096 -0.760418 -1.910098
8720 -2.7695395800000004 -3.0409234200000004 -6.728512230000001 -1.586581 -0.453494 -1.630994
8740 0.10269108 3.4329604500000004 -6.64229214 -3.381395 0.190754 -1.878297
8760 1.4105210400000001 25.763228010000002 -6.62208354 -3.840585 1.271821 -3.562135
8780 -9.56226807 38.96172954 -18.715429710000002 -3.698314 1.817098 -5.245357
8800 -22.182224849999997 31.319965170000003 10.82009646 -4.410462 0.664942 -5.81074
8820 -15.504008490000002 20.864212110000004 8.28257319 -2.793423 -2.876911 -1.405582
8840 5.71840596 18.869907780000002 4.6807630200000006 -1.913578 -1.456321 -2.045395
8860 -0.10612458 11.53725651 3.17789064 0.029233 0.926071 -2.505963
8880 0.7232913 -0.88121268 5.567224050000001 0.065863 -0.729093 -2.340148
8900 -4.48332696 -7.06081617 2.30460444 -0.312797 -2.246514 -2.693362
8920 -12.085566839999998 -5.838912 0.7080269400000001 -0.275565 -1.645043 -1.825408
8940 -5.63144031 -1.0463247900000001 -3.83128569 -0.135766 -1.099704 -0.32962
8960 0.40251411 -0.90561996 -1.55421792 0.903313 -0.245758 1.266058
8980 2.0989377900000004 0.70009065 0.64335942 1.829776 0.907879 2.340341
9000 -0.04460607 1.6247223900000003 1.93008807 1.948629 1.496487 2.359645
9020 -3.5405859600000005 4.78539648 -0.29369178 1.030178 0.811319 1.873408
9040 -1.76632974 7.891291530000001 1.10035827 -0.258818 -2.227634 0.525544
9060 -11.34819819 18.713487330000003 5.79355056 -1.56451 -1.7617580000000002 -2.155797
9080 -9.61031745 35.08837857 -3.4760754 -0.961035 3.688541 -3.031303
9100 -4.66055442 46.94343003 1.3407621299999999 -0.472138 4.088354 -2.208006
9120 -3.9778274700000003 23.53466088 7.365436290000001 -1.390197 0.490105 1.449921
9140 -10.19424789 21.16029753 8.584201259999999 0.399559 1.5488959999999998 0.721856
9160 -13.276196729999999 19.23051357 0.7442552699999999 -0.511973 2.626275 1.414862
9180 -8.44319232 14.09244759 -1.26592164 1.764629 2.033254 4.6799870000000015
9200 -0.78481962 4.77686178 -2.7204405300000003 3.086586 1.671642 7.646522
9220 5.39567658 -2.7000847800000005 -4.73555187 2.848134 -1.2946540000000002 6.9308130000000014
9240 7.50150099 -11.47363866 -3.42217926 6.972869 -3.184188 3.825746
9260 7.034770620000001 -13.209282720000003 -3.29405085 0.471713 2.192541 1.935035
9280 9.3730626 -10.019119770000001 -3.40541397 0.5481020000000001 -0.044265 0.736685
9300 6.068534670000001 -1.04422545 -3.1151753100000006 0.829362 -0.414173 1.887463
9320 -1.9752925500000003 9.88199559 1.06383564 1.335435 0.965279 2.001393
9340 -10.420280100000001 16.455127230000002 12.6757953 0.212374 0.57822 2.000454
9360 -11.8694133 12.91513968 6.942262320000001 -0.361336 -1.1539549999999998 0.910148
9380 0.67135716 8.81097903 -2.24234037 -0.399461 -1.40356 -0.836341
9400 9.640257570000001 41.9125383 4.82896269 -0.01538 -1.74368 -1.892899
9420 5.87304099 2.58392457 -0.7387126199999999 -0.6522180000000001 -1.86563 -2.278546
9440 3.5721741600000003 -0.02470158 -7.72139214 -1.595557 -0.8580979999999999 -1.939254
9460 0.5890218299999999 0.6421626 -8.36070984 -2.7387 0.371505 -1.550368
9480 -1.5364029600000002 23.638538970000003 -7.122334680000001 -4.951676 0.6149180000000001 -2.693112
9500 -4.104317610000002 26.07697143 -10.61562663 -3.791743 1.016475 -4.4822739999999985
9520 -15.788871270000001 36.66475728 -8.255477970000001 -4.616781 1.371593 -5.725493
9540 -24.260649930000003 25.027958700000003 19.70816247 -2.908256 -2.532616 -1.624743
9560 -5.72469417 20.28461769 6.6246243300000005 -2.146487 -1.521477 -1.8001790000000002
9580 5.469173100000001 16.397797590000003 3.4163423100000005 -0.808809 0.364268 -2.477982
9600 -3.14196642 7.53323634 3.88367109 -0.285721 -0.995652 -2.24185
9620 -3.1326861600000004 -2.11525182 7.49581119 0.009469 -2.346357 -3.045633
9640 -7.99516962 -7.053036840000001 -1.16577135 0.117035 -1.407912 -2.059047
9660 -11.24955864 -6.883735860000001 -0.50250744 -0.07191900000000001 0.34541900000000003 -0.27120500000000003
9680 -3.89789559 -1.5173911800000002 -4.86369009 0.5279699999999999 1.576705 1.380742
9700 1.01085183 -0.36329373000000004 -1.5926927400000002 1.185853 1.7855419999999995 2.396676
9720 1.77695397 0.98360946 3.0147307199999998 1.872572 1.314093 2.483262
9740 -0.13950801 1.9023944400000001 5.47516701 1.524867 0.16251600000000002 2.255846
9760 -3.27982635 6.939564570000001 -3.71378151 0.289796 -2.716739 1.416627
9780 -3.2915100600000007 12.130928280000001 0.93884643 -0.574212 -2.607513 -0.903317
9800 -8.546177700000001 25.197848280000002 3.2275881000000006 -1.376473 1.571877 -2.681116
9820 -6.468351030000001 47.28696642 -0.74964096 0.18237 5.0110730000000006 -2.8220490000000003
9840 -3.1204138500000003 36.361039680000005 2.8746243000000002 0.241532 -1.358008 -0.26362800000000003
9860 -6.896459429999999 19.98867942 8.584201259999999 0.777456 1.524327 0.411538
9880 -12.36338604 19.267781760000002 3.71587104 -0.821658 1.970442 1.056753
9900 -11.07801117 15.297135210000002 -3.22115274 0.477762 0.581332 4.4517370000000005
9920 -4.629427290000001 10.375968330000001 -0.99468495 3.883408 0.793636 7.2772
9940 4.24592496 -0.39038895 -3.5675340300000005 2.824844 -1.365934 5.863588
9960 6.61878738 -8.22165309 -1.64926701 5.7812980000000005 -2.259407 3.762827
9980 5.05543635 -10.87174611 -2.9240176500000006 2.566259 2.655399 2.117852
10000 6.03664236 -10.56652758 -4.868173260000001 0.765196 -0.377169 1.481043
10020 8.75499336 -6.9442047 -3.46768785 0.875693 -0.7288279999999999 1.946942
10040 2.6063796600000004 3.0057447600000002 -2.4351363000000004 1.223852 0.905474 1.603312
10060 -4.671639720000001 9.60133149 4.7403391500000005 1.200711 0.747025 2.08619
10080 -13.138631100000001 13.29954453 10.514436480000002 0.093405 -0.57802 1.675297
10100 -10.620119610000001 9.69534072 6.446190240000001 -0.5930380000000001 -0.8759889999999999 -0.201709
10120 3.32787573 10.983256380000002 -7.67738448 0.023449 -0.800425 -1.515686
10140 11.763141570000002 38.69168967 7.4266605000000006 -0.182092 -1.166489 -1.967442
10160 6.36775929 0.76236453 4.2138855 -1.027861 -1.152589 -1.7800189999999998
10180 0.45071064 -0.85547124 -9.921372930000002 -2.926062 -0.265875 -1.567952
10200 -2.82117942 8.29589517 -7.769294370000001 -3.952343 0.534533 -3.1699330000000003
10220 -3.1177161 29.815150410000005 -7.68726315 -3.336361 1.384587 -5.024358
10240 -7.226075430000001 25.813072620000003 -12.90107214 -4.78774 0.545764 -5.7833120000000005
10260 -14.93340003 25.0626861 0.2874035700000001 -3.275252 -2.103745 -1.198431
10280 -13.798451700000001 27.582845670000005 13.24984707 -2.273482 -1.50197 -1.7733169999999998
10300 3.12010974 23.22839268 6.12092007 -0.605613 1.086105 -2.815046
10320 -5.13940995 14.937441750000001 4.247720190000001 -0.297747 0.509885 -2.572875
10340 -2.5677576899999996 3.52382067 5.52740526 -0.24983200000000005 -1.182014 -2.820336
10360 -0.44352972000000007 -4.52119356 5.181171120000001 -0.13940999999999998 -1.720366 -2.286901
10380 -9.6392079 -5.272482600000001 1.28956374 -0.156929 -1.256612 -0.765401
10400 -10.30307022 -4.05806346 -0.07380063 0.66625 0.012372 0.8560110000000001
10420 -1.7479163700000002 -0.38904498 -5.751485280000001 1.425332 0.919701 2.132403
10440 0.57825045 -1.07701047 -0.50908995 1.962198 1.201322 2.368664
10460 -0.44068482 0.42421383 4.85485128 1.717236 0.219326 2.001811
10480 -3.60974646 3.5850448800000003 -0.3176379900000001 0.550488 -2.248567 1.328117
10500 -2.06046297 8.274048299999999 -0.09071307 -0.885775 -3.565062 -0.667121
10520 -10.214760600000002 22.295088900000003 6.84676197 -1.645765 1.321073 -2.598286
10540 -6.82311006 37.10693322 -3.9582172800000004 0.28875500000000004 4.253312 -2.560757
10560 0.14564907000000002 44.80332948 1.4771309400000001 0.222434 1.340664 -1.393126
10580 -1.16203374 23.83852563 6.493651020000001 -1.234702 0.346742 2.799287
10600 -8.073316080000001 20.06097912 9.257795100000001 2.1736020000000003 -0.029081 0.8580469999999999
10620 -12.6672606 17.8213365 0.70728138 0.454604 3.059812 1.3836700000000002
10640 -11.105557650000002 15.552960389999999 -3.13313742 1.725831 3.915232 4.272448000000002
10660 -1.4485347899999998 6.43527171 -1.85927949 1.872122 3.4231050000000005 7.330284
10680 5.72065245 -3.47232798 -2.55024684 0.746895 -4.058086 6.648348
10700 4.31701803 -10.50320403 -2.61940734 7.393994 -4.224746 2.609043
10720 5.97168054 -14.48298369 -3.78562995 0.316238 1.64831 2.038264
10740 11.45807019 -15.081285780000002 -5.87094165 1.006143 -0.349946 0.592862
10760 10.05369021 -2.67717843 -2.87402589 1.339002 -0.788435 2.0656220000000003
10780 0.39188987999999997 6.88478553 0.66970908 2.062709 0.284683 1.874886
10800 -9.47035818 14.44900185 10.26025938 0.972898 0.7725569999999999 1.759826
10820 -18.7088472 16.98368022 8.71442901 -0.17740999999999998 -0.306912 0.713795
10840 -6.2815392 3.4757712900000004 -0.68317821 -0.640925 -0.908931 -0.978599
10860 11.125766250000002 0.2080701 -2.70202716 -0.10456300000000003 -1.508608 -1.993168
10880 17.67793392 36.21284982 12.54062331 -0.953085 -1.524116 -2.1742630000000003
10900 2.33813502 25.073457480000002 -13.825998180000001 -1.835238 -0.198271 -1.837088
10920 -3.9573245700000004 -1.9374259500000002 -4.08171537 -3.246823 1.882061 -1.641311
10940 -4.08470742 -0.5881291200000001 -6.43556601 -4.700351 1.843635 -3.02408
10960 -0.6562399500000001 24.21454293 -6.08619267 -3.788441 0.8520979999999999 -4.670047
10980 -3.3982330500000004 33.68789316 -15.327673740000002 -3.97031 0.878265 -5.726754
11000 -17.41358385 33.76198809 8.19785403 -2.939777 -1.951188 -2.342485
11020 -21.12796377 18.00785403 24.36184008 -2.228928 -1.769943 -2.462734
11040 -3.6416289600000002 17.10807102 4.75830126 -0.6069479999999999 0.732775 -2.633005
11060 6.76668294 12.04919136 2.43498915 0.23124 0.276579 -2.762229
11080 -1.34614782 5.1341714099999995 3.4618509 0.389041 -1.563183 -3.157216
11100 -1.0517104800000001 -4.627475100000001 7.39836846 -0.035887 -2.015327 -1.874534
11120 -8.125554330000002 -6.652170810000001 1.4606599500000002 -0.14208800000000002 -1.206446 0.2612
11140 -9.86134554 -3.2154629399999997 -0.12917808 0.8083239999999999 -0.015004 1.982944
11160 -2.3902261200000003 -0.7550266499999999 -5.341937399999999 1.7921630000000002 1.371425 2.867186
11180 0.09400923 -1.0370445300000004 -0.20986533 2.152785 1.519569 2.537298
11200 1.15200792 1.5617029500000001 4.010308380000001 1.321508 1.063949 2.1133330000000004
11220 0.43574058 4.8120404400000005 6.407421120000001 -0.36255 -1.877251 1.170644
11240 -1.48282074 9.120082320000002 -9.03460779 -0.925176 -0.923425 -1.369398
11260 -2.95455618 12.248275500000002 -0.9904862700000001 -0.37007 2.506273 -2.525732
11280 -10.801084679999999 26.86088853 1.99325466 1.099317 4.102149 -1.692846
11300 -10.98760221 49.90352886 0.5004081 -1.765486 -1.241091 -0.58865
11320 -7.154070030000001 27.23256981 4.30804188 -0.733747 1.6560529999999998 2.077922
11340 -6.274652580000001 20.833830539999997 8.92683513 0.912852 2.516868 1.432432
11360 -10.45381068 22.47920298 5.16784914 1.104426 3.532773 3.752646
11380 -10.82279421 19.30056678 -0.031588200000000004 3.514639 2.883903 5.9516230000000006
11400 -4.02138387 10.35860463 -4.774468140000001 2.98801 -2.647708 5.784117
11420 5.933058570000001 -4.93314489 -6.34320486 5.940451 -3.985282 3.657191000000001
11440 10.382707800000002 -12.46742109 -3.8347290000000003 -0.015128 0.43035 2.146469
11460 6.76922373 -14.22956196 -2.1487824000000004 0.398301 1.328041 0.542669
11480 8.50755573 -10.039475520000002 -2.2540142700000003 0.459466 0.866308 1.670662
11500 6.781348889999999 -2.7104147100000002 -0.93255822 0.6357149999999999 1.913612 1.4836120000000002
11520 -1.15065414 7.349416560000001 1.2265541100000001 0.813836 -0.15173499999999998 1.805833
11540 -8.78163732 12.08047545 8.7343335 0.28953 -1.162416 1.129418
11560 -13.79232045 12.320428049999999 4.79962098 0.159085 -0.787602 -0.5789920000000001
11580 -6.16253409 3.0731100300000005 -1.3686029100000001 0.083474 -1.103723 -1.644133
11600 6.05371176 -1.5027252300000002 -3.06742023 -0.946018 -1.1575 -1.95463
11620 19.02199221 32.967888210000005 12.93400431 -1.541855 -0.382636 -1.541042
11640 -2.80292301 28.40627745 -10.778639400000001 -2.581192 -0.071612 -1.430127
11660 -9.03760965 4.34771352 -9.873313740000002 -2.743366 1.577389 -2.874405
11680 -3.0202733700000004 9.71031078 -5.825884320000001 -3.163725 0.8876959999999999 -4.5236550000000015
11700 -2.1731798700000002 24.509431530000004 -9.86867361 -4.318638 0.152657 -5.3864269999999985
11720 -9.58951044 31.645696410000003 -16.28134308 -3.565209 -0.843253 -2.611056
11740 -17.103136590000002 24.20945154 28.267819110000005 -2.270973 -0.7509979999999999 -2.295554
11760 -4.41387216 20.01292974 3.2260871700000004 -0.727677 1.331012 -2.948672
11780 8.62461846 16.257995280000003 2.89079118 -0.5446310000000001 -1.19084 -2.755086
11800 -5.23072143 7.11709614 5.68667061 -0.398379 -2.357937 -2.992919
11820 -5.968237230000001 -0.12708855 0.45101475 0.103766 -2.3342110000000003 -2.170116
11840 -5.293740870000001 -8.308618740000002 3.2518384200000003 0.098873 -1.073328 -1.0009940000000002
11860 -11.71119762 -4.98433347 1.5386494500000003 0.7822359999999999 -0.351166 0.559253
11880 -7.13909997 -0.15612615000000002 -1.1945146500000001 1.292946 0.4555770000000001 2.163051
11900 -0.56373165 0.5290042500000001 -1.24226973 2.027037 1.490536 2.713782
11920 1.18389042 0.01482291 0.95501331 1.410772 1.484432 2.377268
11940 0.029184750000000002 1.6735173300000001 1.1653299000000001 0.178425 -1.272398 1.290084
11960 -1.29046626 4.13814249 -4.69843083 -1.489186 -3.957368 -1.403633
11980 -1.7745603300000001 8.766068850000002 3.19255659 -2.04293 2.251938 -3.272028
12000 -10.87593498 22.15991691 0.82299033 -1.529937 4.514257 -3.102565
12020 -6.24471246 34.04550690000001 -1.6628931 -0.756948 2.136763 -0.363743
12040 -3.79116279 37.62126171000001 7.3428340500000004 -0.6985439999999999 0.98801 0.213908
12060 -6.91262631 24.670943370000003 7.07353974 -0.414287 3.085994 1.982181
12080 -12.54526344 22.7898072 4.465364850000001 1.790305 1.960781 6.262295
12100 -13.77749754 19.022590620000003 -0.31629402 3.721629 1.150497 6.354805000000002
12120 -3.89804274 13.152698640000002 0.8789760000000001 3.225712 0.442029 4.40488
12140 1.3777360200000002 5.99279166 -4.21882974 3.689107 0.20447 4.802594999999998
12160 6.157746810000001 -0.06571719 -4.39156422 3.311783 -0.49841 4.014649
12180 6.75934506 -10.006543350000001 -1.3627659600000002 1.109208 -0.42876 1.563628
12200 4.902007950000001 -14.001734520000001 -1.4768268300000003 0.355324 0.020466 0.965992
12220 6.4556274600000005 -12.560527800000001 -4.06239948 1.238077 0.187878 1.7570869999999998
12240 8.204289390000001 -3.1507954200000006 -3.9381558300000004 1.248342 1.818651 2.055239
12260 -2.3831923500000003 9.53936172 1.35618345 -0.029237 0.181911 1.950136
12280 -12.46083858 16.71050115 13.37213853 -0.900938 -1.070385 0.459755
12300 -12.889398240000002 12.175083090000001 9.322011360000001 -0.181127 -0.976556 -1.514752
12320 3.5203773600000003 23.19621588 -5.411245050000001 -0.405063 -1.539072 -2.106323
12340 7.54311501 36.34367598 3.5202302100000002 -1.095913 -1.219943 -1.660767
12360 9.771525180000001 -2.25775188 8.34514137 -1.7809419999999998 -0.345824 -1.48187
12380 0.89574129 -2.65323222 -9.974660850000001 -3.760702 0.521324 -1.89953
12400 -0.06660990000000001 13.51479555 -7.45838604 -3.204185 0.638057 -3.599606
12420 -2.0254412700000004 28.389365010000002 -10.00085355 -3.2979230000000004 1.243258 -5.411672
12440 -4.42898937 20.35541646 -5.391938970000001 -3.715294 -0.022296 -4.2507410000000005
12460 -8.58824298 17.865952380000003 -2.68526187 -2.691257 -2.085469 -1.745577
12480 -18.21232386 27.93521106 0.017363700000000003 -1.955496 -0.366503 -2.551285
12500 -19.064057490000003 27.46817658 5.77484289 -0.615359 1.651307 -2.691924
12520 -0.64440909 15.38815239 6.601570830000001 -0.354515 -0.365228 -2.925732
12540 5.65269858 11.62392786 2.48632488 -0.122603 -2.595988 -3.108192
12560 -2.13845247 2.52270036 8.05864032 -0.130425 -1.7534040000000002 -1.227119
12580 -8.286919020000001 -5.42546955 2.8081615500000003 0.198088 -0.334784 0.698293
12600 -13.83977142 -8.58748761 0.16734879000000003 0.763957 0.8203360000000001 2.246483
12620 -7.82377911 -3.0798495000000004 -3.8302360200000005 1.805636 1.235107 2.580103
12640 -0.09400923 -1.0629429300000002 -2.48632488 2.20155 0.769209 2.3302970000000003
12660 2.09803527 1.3696525800000003 1.86032916 0.986393 -0.747479 1.986195
12680 -0.93600153 1.8815874300000002 3.4027260300000006 -0.907606 -3.166271 0.321389
12700 -2.4438181500000002 4.31193645 -1.7079504300000001 -0.677319 0.52755 -2.133305
12720 -0.7488954 9.315576 -0.99648018 0.213459 3.67701 -2.764575
12740 -9.301802760000001 22.448370150000006 3.00081033 -0.849281 1.758521 -1.3306440000000002
12760 -7.7764752900000005 38.43721827 -1.62921537 -0.690344 2.330369 0.445118
12780 -3.9519290700000003 42.41130813000001 3.65809014 -0.550603 2.322655 0.920394
12800 -5.46333615 21.66909318 6.825209399999999 0.013065 1.566774 2.710299
12820 -9.35809254 21.196525859999998 6.136792649999999 3.058215 1.271695 6.191919
12840 -13.255389720000002 19.44217413 -0.19279593 2.749781 0.26208200000000004 6.391883999999999
12860 -7.68876408 15.47287155 -3.4813139400000006 3.807093 -2.77337 4.532702
12880 1.22684841 1.42219494 -2.12422797 4.206805 2.097388 3.309343
12900 9.94501503 -7.4164777200000005 -2.17692729 0.434879 -0.612362 0.910743
12920 5.61152601 -11.81238777 -3.71228058 0.23724 -0.98484 1.787918
12940 7.22636973 -12.77024598 -3.68293887 1.124024 -0.049298 1.494879
12960 9.00078291 -9.57094992 -2.30326047 1.140891 1.124557 1.7658900000000002
12980 2.1802136400000003 2.21673627 -1.0782072900000002 0.546852 -0.5985659999999999 1.891067
13000 -3.79056438 9.17262468 2.57195637 -0.486276 -1.7466150000000005 0.577818
13020 -11.948158170000001 14.88384972 7.478447490000001 -0.240137 -1.498333 -1.249577
13040 -8.794360890000002 10.16595585 5.397923070000001 0.193471 -1.53902 -2.105347
13060 4.86877167 14.555283390000001 -4.142782620000001 -0.87372 -1.846348 -2.113475
13080 10.83521367 37.60360371 8.10534573 -1.662921 -0.399753 -1.683939
13100 4.60637379 3.6309949200000005 -1.3548296699999998 -3.014892 1.386357 -1.754423
13120 -0.36135135 0.6948521099999999 -9.94202298 -4.9619860000000005 1.341625 -2.99749
13140 -0.49038228 7.548353550000001 -5.920933410000001 -3.954838 0.915308 -4.615743
13160 -2.7155061000000003 28.99814418 -9.20510559 -3.130885 1.422309 -5.843365
13180 -9.09493929 25.624759860000005 -12.450361500000001 -2.346496 -1.500337 -2.383784
13200 -18.046917450000002 25.889708340000002 3.2498960400000003 -1.551154 -1.248112 -2.478965
13220 -17.0257455 26.34491196 8.95647114 -0.101138 0.771321 -2.853847
13240 -2.52270036 20.926034730000005 6.44499342 0.187566 -0.64054 -2.745336
13260 -0.1966905 16.09707204 4.06763802 0.165215 -2.458212 -2.914078
13280 -1.98906579 4.022737650000001 5.401219230000001 0.244838 -2.669326 -1.605748
13300 -2.32032006 -4.40653428 3.79266372 0.189052 -1.4807549999999998 0.373891
13320 -9.95833701 -6.5924377199999995 1.8844323300000003 0.8290700000000001 -0.211781 2.156393
13340 -11.49219918 -4.765040730000001 -0.21180771 1.402296 0.7085140000000001 3.015932
13360 -2.0158569 -0.35611281 -4.91846913 2.113797 0.90307 2.763211
13380 2.8331574300000004 -0.4918734 -2.2674834 1.55699 1.05979 2.4162220000000003
13400 2.44740861 0.42571475999999997 3.76661817 -0.040704 -0.67276 1.507839
13420 -2.16734292 1.66722912 5.22503163 -1.344681 -2.679155 -0.701372
13440 -2.85052113 5.14629657 -0.22677777 -0.914056 1.210153 -2.6667400000000003
13460 0.9156457800000001 9.4541913 -1.87934094 0.505624 5.120284 -2.707767
13480 -8.19410661 21.82985946 3.80868345 -0.582137 2.011441 -1.408151
13500 -10.894642650000002 46.84613445 1.52846667 -0.891545 0.8340059999999999 2.660054
13520 -9.30315654 34.19234298000001 3.2427053100000007 0.784388 2.873938 0.695072
13540 -7.68052368 20.032687080000002 7.2016779600000005 0.196865 1.624645 2.4647490000000003
13560 -12.71186667 19.65637548 5.539383270000001 1.902228 2.30978 5.204022
13580 -16.165182870000002 17.661924000000003 -0.8184973500000001 2.013634 1.316288 5.537222
13600 -5.49776925 12.128377680000002 -2.08456614 3.172112 -3.213439 4.843956
13620 4.60891458 -1.35887139 -6.36161823 5.728229 0.959643 3.595961
13640 9.21289473 -7.761210930000001 -3.9478873500000002 1.279621 -0.710667 1.584408
13660 7.5817369800000005 -11.35059183 -2.8581533100000005 0.8903129999999999 -0.929691 1.81591
13680 7.12593495 -10.09156662 -2.4673229100000005 1.30209 -0.187722 1.85736
13700 8.026012260000002 -5.545818629999999 -1.11083535 1.792385 1.253524 1.982851
13720 2.50818156 1.3328258400000002 -1.42488288 0.798358 0.17759 1.780734
13740 -3.5968659300000003 10.462796640000002 2.1743766900000003 -0.31316900000000003 -1.444697 0.582913
13760 -8.355177000000001 14.491518390000001 9.44416548 -0.185173 -1.549911 -1.186102
13780 -8.16192981 10.352767680000001 5.05349397 -0.041274 -2.264691 -2.113534
13800 -3.23417061 -1.3222016099999998 -5.457352050000001 -1.00183 -1.447259 -2.171497
13820 15.45641037 14.23689003 -8.340501240000002 -2.240264 0.247936 -1.716575
13840 4.8675748500000005 32.3800632 0.15717582000000002 -4.353319 0.774181 -2.015088
13860 -6.0534076500000005 10.298135790000002 0.52570809 -2.694919 0.997133 -3.79413
13880 -5.1781790700000006 3.61018791 -7.9851438 -4.693813 1.0802200000000002 -5.254571
13900 -1.81483038 12.006684630000002 -3.3301222200000002 -4.788558 -0.814597 -3.38769
13920 -3.0509590500000003 24.12667476 -11.49549534 -3.4504269999999995 -2.002008 -2.2445060000000003
13940 -10.710822870000001 26.45179191 -7.72483545 -1.943761 -0.202307 -2.863334
13960 -21.4625142 27.465184530000002 8.02795464 -0.881914 -0.147269 -2.629525
13980 -12.09439584 19.7011287 7.4164777200000005 -0.63073 -1.440436 -2.600476
14000 4.934037600000001 18.14870601 6.01314741 -0.049997 -2.1557630000000003 -2.439542
14020 -3.2361228000000004 12.61531665 3.92693319 -0.244992 -1.658942 -1.041102
14040 -2.5439586300000006 0.6198644700000001 6.277046220000001 0.165801 0.0777 0.936821
14060 -4.143979440000001 -5.99143788 5.25557016 0.879152 2.1476330000000003 2.155856
14080 -12.40874748 -7.6133153700000005 -0.4801995 1.550524 2.740573 2.21106
14100 -6.851853360000001 -1.5593093100000002 -4.44441069 2.000817 2.081464 2.013156
14120 -0.42301701 -1.79776098 -3.1587317100000005 1.015707 0.465055 1.89832
14140 1.46545704 1.4124634200000001 3.20468175 -1.032895 -3.90204 0.878
14160 1.6774119 3.93427107 5.34688164 -0.711043 0.265236 -1.774282
14180 0.27138384000000004 6.853050179999999 -4.11329376 -0.408211 4.0781800000000015 -2.914709
14200 -8.90992269 15.86940156 2.0796219000000002 -0.683099 0.83168 -1.727811
14220 -7.94771865 27.5240151 -2.36553435 -0.120368 1.625282 -0.079835
14240 -3.40227477 41.32141713 -0.55608966 -1.450325 4.207047 1.453284
14260 -3.3295238100000004 32.53723902 5.2462899 0.32195100000000004 1.892797 4.824982
14280 -7.598198160000001 23.742574020000003 8.896296600000001 3.3927940000000003 -1.539326 8.236025
14300 -12.22911657 21.5259849 2.4298977600000002 3.2802260000000003 -1.91333 7.026491
14320 -9.78814332 17.45969085 -0.6647648400000001 5.258836 -0.993032 4.008587
14340 -3.63744009 9.71075223 -1.9267919100000002 4.655673 5.612629 1.898989
14360 3.42502416 -2.64425607 -4.35010716 -0.334482 -1.382002 0.640368
14380 8.45666145 -10.92443562 -4.5725391 0.319595 -0.362679 1.1745370000000002
14400 5.43804597 -12.820237740000003 -4.5173088 1.1448120000000002 0.014750999999999997 1.443668
14420 9.14523516 -11.049424830000001 -4.09563576 1.391274 0.6938989999999999 1.886763
14440 10.85228307 -7.1654496299999995 -2.4766031700000006 0.416778 -0.090144 1.666248
14460 1.0388397600000001 3.60735282 -1.4635048499999999 -0.745971 -0.980716 0.013138
14480 -4.83674202 9.986334750000001 4.277052090000001 -0.299779 -1.213793 -1.225789
14500 -14.669795520000001 16.90479801 10.741508549999999 -0.446473 -2.104891 -1.765124
14520 -11.60117847 11.61075303 4.74557769 -1.31857 -1.274055 -1.788304
14540 -0.49547367000000003 27.111622320000002 -12.07329453 -1.760984 -0.023845 -1.565465
14560 16.642390320000004 9.39146616 2.0704986 -3.754804 0.244993 -2.064709
14580 9.12442815 0.6047472600000001 0.7417046700000001 -2.866708 0.926625 -3.861469
14600 3.8713987800000003 7.4366863200000015 -10.54137474 -3.716556 1.339398 -6.179567
14620 -0.33246090000000006 23.75709282 -9.26992026 -3.936113 -0.478688 -4.478161
14640 -2.71430928 27.797498280000003 -9.501789420000001 -3.1791240000000003 -2.642754 -1.286799
14660 -12.887750160000001 30.104947620000004 -6.21253566 -2.093473 -0.999427 -2.394409
14680 -23.521486050000004 25.977880620000004 6.45697143 -0.515426 1.022857 -2.528051
14700 -11.261379690000002 24.451797780000003 14.24707281 -0.09079 -0.86515 -2.279111
14720 -0.9081607500000001 16.680266730000003 4.12003323 0.08396 -1.908482 -2.323555
14740 0.18067077 9.09688167 0.63766962 -0.099908 -1.518344 -0.896059
14760 1.20170538 -0.9256716 4.559962680000001 0.211995 -0.332676 0.691978
14780 -4.0739262300000005 -5.2605144 6.10699968 1.230944 1.056946 2.078526
14800 -12.682829070000002 -2.1424941900000003 1.09796463 2.122644 1.938313 2.540824
14820 -9.1103508 -1.8616829400000001 -2.5075831500000003 1.70471 2.0704130000000003 2.368957
14840 0.36329373000000004 -1.2713073300000002 -4.71608883 0.583465 0.037775 1.500606
14860 3.19360626 -1.28508057 -0.25402014 -0.776806 -3.638083 0.181902
14880 0.77059512 -0.6210612900000001 2.53422711 -0.862757 -1.322315 -2.368307
14900 -2.5131258000000005 1.2880726200000001 1.2331366200000002 -0.834715 3.224091 -2.87707
14920 -1.6796583900000002 7.6468459499999994 -0.12259557 -0.864316 3.349962 -2.095499
14940 -13.34384649 23.032006289999998 3.2171110200000004 -1.393492 -0.345085 0.39236
14960 -8.99045298 38.681811 -3.0163788000000005 -0.313278 1.837486 0.5658880000000001
14980 -0.53618517 42.3403524 4.31627247 -0.070612 2.402072 2.220467
15000 -2.30041557 23.896757790000002 6.286777740000001 2.408814 0.248693 6.04021
15020 -8.009992530000002 22.375020780000003 7.68247587 3.441084 0.632057 6.776525
15040 -10.83791142 21.03755481 0.96025185 4.8515510000000015 0.98516 5.697407
15060 -8.422385310000001 13.81641381 -1.33567074 3.909322 1.042367 3.400484
15080 -0.9472339800000001 4.11584436 -3.46723659 1.6462830000000002 -1.939396 1.383445
15100 5.66915976 -4.03186095 -4.17706857 0.927744 -0.929959 1.31838
15120 6.50427525 -10.67654673 -2.5352767800000002 1.037629 -1.026569 1.93884
15140 5.341338990000001 -11.704762259999999 -2.73017205 1.450507 0.892596 1.962766
15160 8.339010120000001 -9.979448130000002 -3.4810098300000005 0.7096399999999999 0.268996 1.909252
15180 5.80582287 -2.04864192 -3.5582537700000003 -0.724572 -1.119183 1.053913
15200 -1.1811926700000002 7.537729320000001 0.7575772500000001 -0.904701 -1.380061 -0.6807350000000001
15220 -8.726848470000002 11.315864430000003 9.111106170000001 -0.358653 -1.291434 -1.7377790000000002
15240 -14.453494830000002 13.994396640000001 8.66023857 -0.643666 -1.327825 -1.980073
15260 -6.2785471500000005 5.84040312 -1.87290558 -1.192408 -0.78747 -1.836116
15280 3.8987883 35.247202470000005 -4.293974340000001 -2.25468 0.135032 -1.707986
15300 11.79876168 7.47081531 3.7690118100000003 -4.85113 0.740107 -2.38599
15320 6.09233373 -0.39637305000000006 -6.1827426899999995 -4.204332 0.655636 -4.1973410000000015
15340 0.41358960000000006 2.8708768800000004 -9.04853799 -3.016257 2.502839 -6.293671
15360 -1.42143957 27.03093507 -7.0762374900000005 -2.83413 -1.581678 -2.9308110000000003
15380 -4.5137183400000005 25.92907587 -8.638234740000001 -2.286523 -2.44303 -2.188809
15400 -14.797482480000001 27.415938330000003 -3.72275766 -0.8226030000000001 0.5604520000000001 -2.7752950000000003
15420 -23.6690775 23.20549614 6.6575565 0.058849 0.658475 -2.478708
15440 -14.367873150000001 21.549636810000003 6.10011306 0.436906 -1.456099 -2.539587
15460 4.7900366100000005 17.349671700000002 5.607337139999999 0.488106 -2.648934 -1.588051
15480 2.44291563 13.41824553 2.3486121000000004 -0.023012 -0.901879 0.183661
15500 -1.13029839 2.34697383 5.21125839 0.545664 0.8256030000000001 1.918075
15520 -6.067779300000001 -4.81294296 4.70981043 1.435917 1.505372 2.978826
15540 -12.15876906 -6.189629310000001 -0.07574300999999999 1.742003 1.468027 2.728912
15560 -6.03140382 -3.31395534 -4.258050120000001 0.932064 -0.460964 1.778213
15580 0.2721294 -3.1166664300000004 -3.35781585 -0.643422 -3.364896 0.213462
15600 1.9160107200000003 -0.19683765 0.54831033 -0.644483 -0.5493680000000001 -2.446821
15620 0.034276140000000004 1.6386427800000003 4.044437370000002 -0.160215 2.386207 -3.050746
15640 -2.75741442 4.10446476 6.45338097 0.744316 3.755616 -2.104011
15660 -1.7316023400000002 6.953494770000001 -7.05287988 -1.220851 -3.194596 2.345654
15680 -6.3973953 16.42804182 -0.9894464100000001 0.301273 1.709113 0.434681
15700 -10.59586929 37.260067320000005 2.4309474300000002 0.148763 2.277437 1.231917
15720 -4.462372800000001 51.961441230000005 2.79228897 1.213403 2.08927 3.937923000000001
15740 -3.1859740800000003 23.34574971 5.30676855 3.005979 2.573219 6.297776
15760 -8.18558172 18.33986367 7.115006610000001 3.087565 -1.180933 5.991236
15780 -11.69592345 16.531468650000004 0.14205861 5.594336 -0.384846 4.271865
15800 -8.650958310000002 11.880940050000001 -2.0528307900000007 1.3952790000000002 -2.328793 2.009237
15820 -0.8270320499999999 4.40713269 -3.30811839 1.384524 0.460707 0.536782
15840 7.22323053 -6.33991851 -2.12273685 0.668612 -1.160874 2.012279
15860 6.314471370000001 -13.33651842 -2.50399269 1.463363 0.27319 1.805553
15880 6.77670876 -15.21316161 -3.69476973 1.205565 0.8864139999999999 1.856377
15900 8.57087928 -9.864484740000002 -3.8357688600000004 0.0971 -0.062271000000000014 1.367014
15920 2.58991848 3.3133569300000003 -1.99639386 -0.799311 -1.4939440000000002 -0.265383
15940 -4.81923117 10.57415976 4.85680347 0.008276 -1.7509150000000002 -1.702581
15960 -13.50985131 15.6403773 9.13834854 -0.5695819999999999 -2.244996 -2.052088
15980 -10.09680516 9.34790976 2.0041830000000003 -1.57786 -0.733462 -1.954245
16000 3.8875656600000004 6.39065583 -4.67851653 -3.380208 0.582367 -1.5113219999999998
16020 13.358522250000002 38.34755487 15.56583111 -4.193413 0.995778 -2.956427
16040 2.01855465 10.1920014 -0.48947976000000004 -2.820973 2.586455 -5.2637160000000005
16060 -0.76446387 1.61245008 -11.23877745 -4.52604 1.273934 -5.358333
16080 -1.68759468 3.0261103200000004 -6.69362787 -3.4607650000000003 -1.543324 -1.857401
16100 -2.2360521600000003 22.83067566 -6.9153240600000006 -2.328401 -0.7654890000000001 -2.351484
16120 -7.14494673 27.68119092 -12.53583603 -0.6237659999999999 0.927112 -2.732716
16140 -16.86287988 29.327161770000004 3.8428124400000003 -0.339324 -0.801751 -2.466799
16160 -19.707564060000003 19.93883481 4.45563333 0.062247 -2.216543 -2.787989
16180 -7.628432580000001 18.78084279 6.265372320000001 0.144794 -2.390886 -1.619622
16200 6.951248280000001 16.783399260000003 5.421280680000001 0.074915 -1.528196 0.082598
16220 0.6215027399999999 9.131010660000001 1.65990105 0.612769 -0.203573 1.623966
16240 -0.13142457 -0.33919056000000003 5.54656419 1.251683 1.069289 2.702497
16260 -7.41303441 -6.218814060000001 5.26814658 2.093954 2.131618 2.709155
16280 -13.3558245 -7.27217262 -0.21225897000000002 1.424396 1.69721 2.168788
16300 -5.09435262 -2.5709067000000005 -5.95730889 -0.021682 -1.242748 0.975659
16320 0.8451413100000001 -1.9606266 -0.6336279 -1.350395 -4.078611 -1.3074370000000002
16340 3.1695129 2.8196883 3.9037325400000005 -1.410326 2.093828 -3.175539
16360 0.57914316 2.88959436 3.9080685600000002 0.419651 5.644788 -2.996392
16380 0.05163984 6.83149761 -3.3138081900000005 -0.731588 -0.185617 0.698018
16400 -8.580610799999999 18.04707441 3.1168233900000004 0.450361 1.001938 0.26357600000000003
16420 -7.9138937700000005 33.57368514 -2.2962267 -0.6795869999999999 1.319927 0.84173
16440 -2.57599809 39.76360875 1.30259142 0.92225 0.044464 3.527244
16460 -7.149135600000001 22.514832900000002 5.220244350000001 3.590456 1.223258 6.6539660000000005
16480 -11.67991353 21.821324760000003 9.52034994 3.115405 0.120367 6.083767
16500 -14.797923930000001 22.409748179999998 2.6909516700000005 4.6752080000000005 -1.176608 4.068838
16520 -9.6423471 17.287250670000002 -1.11427866 2.602994 -0.394129 2.529009
16540 -2.14174863 6.565499460000001 -3.95537238 1.632127 1.089098 1.150866
16560 6.169273560000001 -2.27556684 -4.006413810000001 0.608001 -1.1888040000000002 2.654961
16580 6.86053521 -7.56497169 -2.5334815500000003 1.128768 0.5950310000000001 1.797462
16600 5.125793669999999 -11.00735955 -2.6709000300000003 1.235281 1.425894 1.718093
16620 5.86689993 -10.126588320000002 -3.43101807 0.927278 0.272368 1.676827
16640 8.83477809 -5.9640483600000005 -3.15019701 -0.6416850000000001 -1.7013049999999998 0.304278
16660 2.5812366300000003 4.6158012 -1.53655011 -0.392418 -1.836962 -1.415781
16680 -4.566555 12.056382090000001 6.29935416 0.130681 -2.634025 -1.809553
16700 -12.23016624 16.84716426 14.47325217 -0.938729 -1.7356060000000002 -1.779718
16720 -9.06844248 5.12998254 0.8268849 -1.959464 0.555899 -1.452226
16740 3.4108094700000002 19.865642400000002 -12.456649709999999 -4.696757 0.907245 -1.427999
16760 11.068436610000001 26.49520116 2.32376337 -3.56876 0.636409 -3.670517
16780 4.7761162200000005 1.8143791200000001 5.62993938 -3.5042160000000004 2.041806 -6.195007
16800 -1.8540409500000001 -3.79072134 -9.73650348 -3.939896 0.200581 -4.380782
16820 -2.21569641 9.65537478 -5.425920810000001 -2.48375 -1.235227 -1.963135
16840 -5.170399740000001 31.88953377 -9.41302854 -1.7048580000000002 -0.381348 -2.785592
16860 -9.976004820000002 27.694954350000003 -6.487961220000001 -0.356221 0.42422 -2.9438470000000003
16880 -15.98915223 19.908747540000004 4.4400648600000014 -0.052087 -2.635072 -2.453898
16900 -12.21280254 23.815324980000003 3.1118791500000005 -0.182374 -2.206305 -2.472449
16920 3.11233041 23.96052279 6.6801587399999995 0.201525 -1.753473 -1.497197
16940 -2.30235795 15.936609870000002 4.5232929 0.189133 -1.275067 0.085208
16960 -5.047058610000001 6.65440749 4.01764626 0.749687 -0.154925 1.593881
16980 -4.3496559 -2.41222995 4.03381314 1.526921 1.473292 2.39839
17000 -10.35606384 -7.3389394800000005 4.77896112 2.440969 2.713884 2.518553
17020 -12.85751574 -4.79603052 0.05703534 1.363867 2.476232 2.410921
17040 -2.37391209 -1.31217579 -7.13925693 -0.562005 -1.762984 1.272722
17060 1.4672522700000001 -0.67329954 -1.3218975000000002 -0.918592 -1.524656 -1.537361
17080 3.62216592 3.11113359 5.1422548500000005 -0.389726 3.507933 -2.849756
17100 1.8567387 3.87453798 7.18236207 0.945552 4.577566 -1.901764
17120 -0.12334113000000002 7.40061495 -5.75028846 -0.943635 -1.342062 2.100594
17140 -7.74743769 16.43462433 0.11271690000000001 1.028927 1.548964 1.224043
17160 -9.2432763 30.324544470000003 -2.12318811 0.181581 1.645798 0.653979
17180 -3.60735282 41.81284908 1.2762417600000002 0.968132 1.230483 2.331773
17200 -4.33184094 22.56587433 4.6527750900000004 2.847776 2.638001 5.952621
17220 -9.35120592 19.4321385 7.016808510000001 1.352849 0.354989 7.278245
17240 -14.496305670000002 21.96097992 3.57666714 4.249423 -4.531765 4.056277
17260 -11.21078952 16.93413972 -5.69984544 5.205438 1.29596 2.264079
17280 -2.5444098900000003 9.261836820000001 -0.65937915 -0.207779 0.372527 0.79176
17300 3.3314760000000003 0.3376994400000001 -3.46993434 0.455815 -1.065188 1.977555
17320 8.20967508 -6.05670381 -3.4365509100000007 1.206681 0.151614 2.061357
17340 5.84219835 -9.85266369 -1.9696027500000002 1.103964 1.090259 2.116052
17360 6.73958772 -10.18496763 -1.36950543 0.262819 0.255768 1.609182
17380 7.8954804 -6.40518444 -3.28207284 -0.882591 -1.5508959999999998 -0.07040700000000001
17400 3.898494 2.2113505800000004 -2.62359621 -0.276307 -1.91498 -1.453326
17420 -3.1992960600000004 10.37297628 3.16891449 -0.289563 -2.27831 -1.956086
17440 -9.445960710000001 13.357619730000001 10.92802608 -1.340054 -1.223292 -1.943411
17460 -9.458233020000002 6.60171798 0.2951829 -2.686865 0.563815 -1.735055
17480 3.03957945 2.0881566 -1.0440783 -5.160464 -0.049943 -2.480074
17500 11.118134070000002 31.222522440000006 7.870484520000001 -4.126995 0.470374 -4.022444
17520 -0.0023936400000000003 20.78951877 -4.346506890000001 -4.144361 3.011951 -6.890793
17540 -2.37481461 1.7055567900000002 -7.78336191 -4.073189 -1.234404 -3.452657
17560 -3.41454708 -1.14916302 -3.8754405000000003 -1.92581 -1.190518 -1.905884
17580 -2.12123592 20.31410655 -4.11060582 -1.313784 1.13016 -2.828595
17600 -4.52059515 30.905482860000003 -11.634257790000001 -0.636741 -0.148635 -3.298654
17620 -15.3656973 29.35365858 -2.3695760700000004 -0.156594 -2.321998 -2.866294
17640 -21.01240197 17.59486284 5.7910097700000005 0.107914 -2.53146 -1.864322
17660 -6.986122830000001 24.764648490000003 10.069258679999999 -0.012904 -1.7183259999999998 -0.511703
17680 5.45795046 17.815499550000002 3.1262508 0.447819 0.8344889999999999 1.380065
17700 0.2513322 8.6939163 2.4843824999999997 0.981061 2.404754 2.76833
17720 -0.97716429 -1.5964303499999999 3.7167735600000014 1.441821 2.327701 2.723577
17740 -8.518189770000001 -5.652247320000001 3.48834771 1.603437 1.891637 2.409071
17760 -11.72825721 -6.3659640600000005 -0.49112784 0.489268 -0.444605 1.8007369999999998
17780 -4.92446304 -3.02371668 -5.10917553 -1.131489 -3.431659 0.01679
17800 1.19271942 -0.58348899 -1.58894532 -0.928839 1.379041 -2.5313950000000003
17820 2.77867269 2.58991848 5.28431346 0.687783 3.754436 -2.824386
17840 0.27273762 2.46402675 6.70904919 0.028274 -0.834304 -0.242288
17860 -2.11030758 5.459000130000001 -8.73463761 -0.401167 1.266828 0.559596
17880 -4.55637222 11.033405100000001 0.34982460000000004 -1.175523 2.166249 1.414021
17900 -10.97787069 30.294300240000002 5.34643038 0.7938569999999999 0.198428 3.763296
17920 -5.1013962 52.941156119999995 0.5824393200000001 3.038238 1.753721 6.610973
17940 -1.1683219500000002 31.45588272 6.518048490000001 2.52375 -0.966484 5.599258
17960 -8.631348120000002 18.613346850000003 9.22546134 5.285662 -3.10637 4.475091
17980 -17.22977388 18.80958609 1.8010571400000002 2.639407 1.347273 2.578306
18000 -13.11572475 16.05590928 -2.6897548500000004 1.440017 -0.585811 1.390952
18020 -4.38782661 7.968231360000002 -3.5670827700000003 0.925354 -0.8948389999999999 2.126963
18040 5.851782720000001 0.37032750000000003 -3.4551114300000005 1.233103 -0.004668 1.960261
18060 9.73126494 -10.422820890000002 -2.41672293 1.319545 0.841407 2.090103
18080 7.47755478 -13.568387580000001 -2.3144831100000003 0.541071 0.274886 1.914476
18100 8.24485374 -9.977800049999999 -3.230433 -0.5149590000000001 -1.0348 0.55
18120 7.980209370000001 -5.3271243 -1.79671131 -0.249488 -1.058929 -1.102791
18140 -0.2633004 5.1663580200000006 -0.53812755 -0.041776 -1.315866 -1.763308
18160 -6.700818600000001 11.283089219999999 6.93044127 -1.127574 -0.832477 -1.825991
18180 -15.17813991 14.439123180000001 7.5576338100000005 -2.166723 0.320824 -1.626424
18200 -7.13955123 8.39349486 -2.88046125 -4.115533 -0.29793800000000004 -2.108193
18220 4.5156607200000005 20.03942655 -10.01297871 -2.665978 0.416159 -3.453489
18240 12.45409911 15.422428530000001 10.21880232 -3.910764 1.82152 -6.165518
18260 2.99736702 0.46897686000000005 -2.07813078 -3.869616 -0.908721 -3.556338
18280 -5.99339007 1.6878889799999999 -10.315950749999999 -2.273171 -2.287352 -1.439023
18300 -3.7131831 19.84842585 -5.345684820000001 -1.806313 -0.196361 -2.338953
18320 0.6617727900000001 29.46068568 -9.61180857 -0.525121 0.985563 -2.783376
18340 -5.028046830000001 19.874471400000004 -3.2945021100000003 -0.030092 -1.6939970000000002 -2.848056
18360 -17.09310096 29.70168795 8.62806177 0.108381 -2.219656 -2.848551
18380 -15.48619353 25.949284470000002 3.7236601800000004 0.18049 -2.028773 -1.364532
18400 0.40461345 17.403862139999998 5.867047080000001 0.354389 -0.632882 0.518169
18420 -1.19092419 12.34857294 3.94564086 0.971733 0.690886 1.938316
18440 -1.2734066700000002 3.68009397 3.0241581300000004 1.6989419999999995 1.717902 2.35014
18460 -1.6384956300000002 -3.5628939 4.71758976 1.92399 1.54401 1.95242
18480 -9.986030640000001 -4.87551114 -0.07559586 1.039097 -0.461137 1.462767
18500 -10.10383893 -3.1603797900000004 -0.7643069100000002 -0.951558 -3.3318220000000003 0.201653
18520 -1.9443027600000002 -2.4462117900000004 -4.85904996 -0.93869 0.388638 -1.800599
18540 1.27160163 -0.6773412600000002 1.7033103 -0.974747 4.088292 -3.619433
18560 0.43738866000000004 1.05335856 4.23469251 -0.677191 1.335494 -2.781682
18580 -2.7551679300000003 2.93465169 -2.1056674500000003 -0.4645220000000001 -0.351237 -0.737731
18600 -2.5521892200000003 6.985073160000001 0.32766381 -2.167605 3.729887 1.521524
18620 -10.56937248 23.70769947 5.28416631 0.133921 0.72677 5.141356
18640 -4.984480620000001 38.776261680000005 -2.21359707 2.973689 -0.513839 9.224162
18660 2.95785234 37.27174122 2.98538901 2.994297 -4.077709 7.474852
18680 -2.68226982 21.604876920000002 6.0715267200000005 6.556002 -1.307284 4.214603
18700 -10.09336185 21.13485039 7.29553023 3.252273 4.038881 1.601715
18720 -15.31345905 21.33199215 0.6589278900000001 1.361819 -0.631662 0.937538
18740 -11.1432771 15.885862740000002 -3.15588681 0.685305 -0.7350720000000001 1.808887
18760 -1.4226462000000002 4.690945800000001 -2.2873977 1.185708 0.209307 2.037636
18780 6.87041388 -5.00334525 -1.93547376 0.916033 1.348594 2.4103060000000003
18800 7.12548369 -11.32499754 -2.01855465 -0.036598 0.268926 1.7747849999999998
18820 5.8945935600000015 -12.56411826 -2.94812082 -0.8545360000000001 -0.924938 0.01124
18840 8.35278336 -10.013125859999999 -5.43788901 -0.1066 -1.264266 -1.2916729999999998
18860 7.39971243 -1.76408325 -3.06428103 -0.35411 -1.431147 -1.7012490000000002
18880 0.8930435400000001 5.86840086 0.8048810700000001 -1.245018 -0.138577 -1.825564
18900 -6.774011010000001 11.534715720000001 7.09584768 -3.2120580000000003 -0.341555 -2.107168
18920 -11.811936509999999 15.01857045 9.35405082 -1.111887 -0.262975 -3.330668
18940 -10.84434678 38.938676040000004 -2.0221451100000003 -2.810674 0.946541 -5.158993
18960 7.115457870000001 13.10510052 -8.347839120000002 -3.770868 0.726444 -4.43155
18980 17.98210278 -7.89098742 6.37749081 -3.5578260000000004 -1.487791 -1.807944
19000 8.598720060000002 -5.35212018 -5.3928316800000005 -2.391105 -1.2749620000000002 -1.963505
19020 0.9078664500000001 10.6980993 -7.72333452 -0.906062 0.342177 -2.463678
19040 -0.40117014 31.498997670000005 -11.40148611 -0.603392 0.400142 -2.569528
19060 -2.85530841 30.011536800000005 -8.78777838 -0.55894 -2.458428 -2.499325
19080 -18.81766953 29.06012376 0.71491356 -0.353274 -1.673482 -2.370708
19100 -19.66491018 25.670572560000004 7.106923170000001 -0.187432 -1.479988 -1.087931
19120 -6.97385052 21.645882720000003 10.587933 0.258848 -0.5197649999999999 0.285553
19140 4.02468003 17.81101638 4.100423040000001 0.934824 0.559617 1.232131
19160 2.5376704200000004 8.53240446 3.3724916100000004 2.138057 1.663557 1.442084
19180 -3.5308544400000006 -2.1086693100000007 5.74729641 1.991721 1.706243 1.283978
19200 -12.573104220000001 -4.69139706 2.3921783100000003 0.209963 -1.627628 0.321882
19220 -11.90728971 -6.099661800000001 -1.77695397 -0.976817 -1.606916 -1.960678
19240 -1.65870423 -1.6145396100000002 -4.94496594 -0.991291 3.521291 -4.068543
19260 2.3902261200000003 -0.50789313 -0.83107377 0.837884 0.877703 -2.300495
19280 -0.08667135 -1.23059583 1.8390708900000001 -1.422809 0.842339 0.50707
19300 -2.04385464 2.7952908300000003 -7.09883973 -1.6742130000000002 3.840561 2.719101
19320 -8.17539894 6.073920360000001 -0.4391838900000001 1.013972 0.183247 6.299743
19340 -7.76016126 30.178895400000002 3.1798330200000002 3.672907 -2.857322 7.257975
19360 1.00261143 33.405129720000005 -2.63900772 4.265822 -0.131299 6.483094
19380 3.2415084899999997 26.539807230000005 2.02648113 6.112409 2.709897 4.857972
19400 1.3593226500000002 24.899673330000002 5.95955538 1.944496 2.864553 2.034192
19420 -9.848170710000002 24.623492400000003 6.6681807300000004 0.683998 -1.077143 1.041265
19440 -12.469373280000001 19.173026970000002 2.11450626 0.608396 -1.7941759999999998 2.196404
19460 -7.335349020000001 13.51060668 -2.01630816 1.456676 -0.979433 2.04212
19480 -1.34360703 8.73014463 -0.27198225000000004 1.376395 0.938033 2.119219
19500 4.70800539 -1.5037749000000002 -2.8575549000000002 0.23537 0.33452800000000005 1.384563
19520 3.97139211 -7.66331694 -1.97679348 -0.973615 -0.943363 -0.338877
19540 3.94504245 -11.2446144 -2.99767113 -0.125868 -1.468079 -1.7209720000000002
19560 6.513408360000001 -12.321772020000001 -5.45974569 -0.326745 -1.907967 -2.096757
19580 8.71053444 -6.117928020000001 -4.66939323 -1.727134 -0.798646 -2.040662
19600 -0.6027950700000001 8.75948634 0.54292464 -2.461844 0.45579 -1.822007
19620 -9.39281994 13.940961569999999 12.657381930000001 -4.002149 0.338096 -2.4885040000000003
19640 -14.766041430000001 28.345053240000006 13.54607964 -3.244089 1.070375 -3.785241000000001
19660 -2.65457619 22.393287000000004 -8.876686410000001 -4.15396 1.4544629999999998 -6.070606
19680 20.48310342 -0.7244979300000001 11.996649000000001 -3.755954 -0.157851 -3.883383
19700 10.532398590000001 -0.16794720000000002 -6.4834682400000005 -2.512729 -2.288312 -1.7900040000000002
19720 6.67446894 11.34250839 -11.266176779999999 -1.8217 -0.068547 -2.587052
19740 3.7389245399999997 22.50734787 -14.35440402 -0.531157 0.64979 -2.725304
19760 -3.04526925 23.972196690000004 -7.415428050000001 -0.365976 -1.712824 -2.910198
19780 -17.13576465 36.00582939 -3.52637127 -0.088523 -3.097688 -2.882985
19800 -28.171563390000003 34.05238371 15.633490680000001 -0.262064 -1.935697 -1.080391
19820 -14.774880240000002 19.2411378 6.692431050000001 0.380185 0.234882 0.870819
19840 2.15402094 12.7398546 1.6831017000000001 1.147568 1.442129 2.262253
19860 2.6837707500000003 10.92008979 2.10746268 2.058277 2.124739 2.329696
19880 0.32122845000000005 -0.11929941000000001 5.598959399999999 2.129198 2.028393 2.119875
19900 -6.89346738 -4.61744928 5.795797050000001 0.57762 0.043815 1.85948
19920 -12.20022612 -4.68929772 -0.028586340000000002 -1.048971 -1.7910080000000002 -0.086217
19940 -7.413181560000001 -2.57105385 -6.21192744 -0.8210370000000001 1.050014 -2.394557
19960 0.34293798000000003 -2.7704421 -1.6700740200000002 -0.451738 2.379341 -3.477926
19980 2.7015857100000003 -0.5266008 3.6013589100000005 -1.052559 0.574014 -1.440573
20000 -0.11915226000000001 1.37115351 3.36948975 -0.647261 1.440618 -0.062983
20020 -3.87603891 5.855677290000001 -3.58549614 -1.162203 3.593277 1.778686
20040 -0.7201521000000001 11.072625480000001 2.4200190900000003 2.129203 -0.888542 5.630586
20060 -9.8068608 25.6066506 1.88503074 4.003716000000002 -0.489947 7.952665
20080 -5.85747252 40.03828875000001 0.34563573000000003 3.625843 0.500236 7.080292
20100 -3.0000647700000003 35.73099243 3.35272446 5.689278 1.153567 4.1509160000000005
20120 -7.468117560000001 20.60644455 8.02989702 0.7726350000000001 -0.8732270000000001 2.182484
20140 -12.000690720000001 22.92632316 6.31806183 0.751089 -0.508163 0.686355
20160 -14.41278333 21.62193651 -1.0865948400000003 0.203451 -1.748114 1.419055
20180 -5.272639560000001 14.880700710000001 -3.8799334800000005 1.399429 -0.544115 1.920453
20200 4.51595502 2.60683092 -5.74700211 1.302917 0.14945999999999998 2.250039
20220 11.48905998 -7.2395445600000015 -1.9730460600000002 0.440907 -0.6228899999999999 1.938428
20240 7.2750175200000005 -12.40365609 -2.6102742300000004 -0.769937 -1.205899 0.136104
20260 8.15833935 -12.04919136 -2.63931183 -0.4197010000000001 -1.6709439999999998 -1.351023
20280 8.59018536 -8.44873497 -3.00769695 -0.223727 -1.875744 -1.7200650000000002
20300 0.36763956000000003 1.81617435 -1.60376823 -1.350934 -0.57857 -1.725328
20320 -6.10894206 8.44438914 3.08208618 -3.250142 -0.204154 -1.803167
20340 -13.05674703 12.912000480000001 5.63053779 -2.282691 0.50017 -2.950991
20360 -9.37979226 15.44772852 2.9126478600000003 -2.533042 0.539754 -4.904432
20380 -4.60862028 39.76241193 -4.47524352 -4.443141000000002 1.065623 -5.018861
20400 12.019555350000001 2.05777503 3.12235623 -4.133457 -1.453526 -1.885716
20420 10.51892946 -4.3206183000000005 -4.553978580000001 -2.530568 -1.060105 -2.2926990000000003
20440 5.962253130000001 -1.07491113 -10.33795458 -0.715713 0.63336 -2.985082
20460 1.21292802 21.57463269 -11.09597328 -0.099666 0.812104 -2.664814
20480 -2.33708535 30.64218246 -9.86239521 -0.138096 -1.574902 -2.434492
20500 -11.864478870000001 30.896202600000002 -1.91033073 -0.023869 -2.116973 -2.039894
20520 -22.76990271 23.91981129 12.16444905 -0.135972 -1.364078 -0.5493359999999999
20540 -20.79640539 24.64205292 4.52823714 0.573235 -0.05739800000000001 1.068027
20560 -3.9212433900000003 16.2822456 6.3219564 1.582703 0.8805959999999999 2.450814
20580 6.0454811699999995 12.007881450000001 1.7185746599999998 2.498488 1.405086 2.89451
20600 3.96375993 2.05433172 2.49351561 1.522887 0.921059 2.50696
20620 -2.88000999 -3.2980925700000006 5.550753060000001 -0.27032 -2.262071 1.15469
20640 -11.05136721 -3.9481914600000003 3.91151187 -0.586658 -2.857657 -1.473514
20660 -10.34124093 -3.43520694 -1.7866854900000002 -0.959187 2.056049 -3.176613
20680 -0.37212273 -3.38985531 -6.8804397 -0.078499 4.99865 -2.952042
20700 3.8475997200000003 -1.33148187 0.48603645 -0.936166 -1.750275 0.019205
20720 1.66454118 0.52226478 4.12976475 0.43155 1.5772 0.276595
20740 -1.63489536 4.37914476 -6.7379396400000005 -0.120207 2.100864 0.601082
20760 -9.46736613 8.73463761 -0.10073889000000001 0.618186 1.98797 2.61571
20780 -10.330616700000002 29.007424440000005 4.31402598 2.361685 0.8343649999999999 6.67045
20800 -3.01727151 36.19114029 -4.02183513 2.518717 -0.04386 7.1758039999999985
20820 2.4932115 31.06893708 4.42001322 4.363593 -2.477532 4.926111
20840 -2.10102732 27.468029429999998 8.083489049999999 3.950086 2.259584 2.665341
20860 -11.649826260000001 25.594672590000002 5.68922121 0.7620359999999999 -0.558662 1.05076
20880 -10.81980216 17.878371840000003 1.1720595600000001 0.765163 -0.8417 1.498729
20900 -8.50307256 14.37416136 -0.7339253400000001 0.972035 -0.908077 1.933957
20920 -2.7288280800000004 5.26095585 -2.6728424100000003 1.749991 0.6738810000000001 2.052732
20940 7.331601600000001 -5.556442860000001 -3.5591464800000003 0.8567440000000001 0.849475 1.805918
20960 7.402106070000001 -10.837764270000001 -2.8747714500000003 -0.384079 -0.201942 0.749604
20980 6.82909416 -13.803994350000002 -3.2226438600000002 -0.890647 -1.190135 -0.769543
21000 8.64167805 -10.791362970000002 -4.756662990000001 -0.283152 -2.117051 -1.796014
21020 5.789508840000001 -0.6188148 -4.0679421300000005 -0.999543 -1.207343 -1.964554
21040 -1.4596102800000001 9.27575721 1.5308701200000001 -2.97169 -0.101149 -1.696668
21060 -10.69151679 14.44541139 13.552063740000003 -2.895523 0.521115 -2.596376
21080 -12.716055540000001 13.29834771 5.853725100000001 -2.849972 1.010822 -4.418004
21100 -1.6613921699999998 6.8850798300000005 -3.57157575 -4.920702 1.179049 -4.9977730000000005
21120 9.25106544 34.41193983 -0.64426194 -4.487629 -0.438192 -3.738583
21140 8.03798046 4.30309764 -3.0816447300000003 -2.688921 -1.117363 -2.488148
21160 4.0701886200000015 -0.5742087300000001 -7.368428340000001 -1.137994 0.322016 -3.3465550000000004
21180 1.57263129 4.05357048 -6.260428080000001 -0.5112680000000001 -0.253424 -3.309393
21200 -0.5185173599999999 23.67147114 -5.25497175 -0.271275 -1.630837 -3.248268
21220 -0.8265807900000001 28.889478810000004 -10.36354887 0.154766 -2.324292 -2.828865
21240 -11.41092333 30.50895285 -4.30594254 0.319441 -2.141275 -1.056837
21260 -21.702918060000002 25.15099572 12.026589120000002 0.486412 -0.875273 0.813163
21280 -13.874950080000001 19.602185040000002 4.84047963 1.103374 1.008038 2.165292
21300 1.2795379199999999 14.161598280000002 4.29426864 1.870361 2.092372 2.328425
21320 0.5965068599999999 11.336377140000002 2.1333610800000002 1.8819 1.796137 2.074648
21340 1.35857709 1.5832555200000002 4.1137450200000005 0.453472 -0.478958 1.897739
21360 -3.3521260500000007 -3.9631615200000003 7.019202150000001 -0.96429 -2.318892 0.249405
21380 -11.45926701 -3.36020949 1.97978553 -0.752782 1.606781 -1.828636
21400 -9.819584370000001 -3.56139297 -3.2744406600000002 0.536701 4.0407410000000015 -2.630323
21420 -2.7255319200000003 -2.10327381 -5.098845600000001 -1.558134 -0.463869 -0.12886199999999998
21440 1.37249748 0.25028253 2.7315160200000004 -0.197202 0.934303 0.422578
21460 2.15057763 2.1782712600000003 0.60130395 -0.6762600000000001 2.406169 1.18967
21480 0.32332778999999995 6.49319976 -0.71835687 0.48333 2.400786 3.125917
21500 -11.89007316 19.237841640000003 6.0773636699999996 3.000608 0.484962 6.1156120000000005
21520 -5.003198100000001 27.12853476 -3.05005653 2.967442 -0.455244 7.100418
21540 -0.53468424 36.02678355 -0.19654335 6.018936 0.26734600000000003 5.173438
21560 -1.1684691 33.71633235 4.89002994 1.29979 -1.23314 2.752785
21580 -10.23272271 25.95422871 6.59214342 1.068864 -1.378042 0.564707
21600 -14.454691650000001 21.36132405 2.4739054200000004 0.5599609999999999 -2.151946 1.931605
21620 -9.087454260000001 16.0368975 -0.77014386 1.714352 -0.622382 2.039189
21640 -1.44449307 9.46780758 -3.6158777100000004 1.561035 0.530245 2.1723060000000003
21660 3.56258979 -0.71506071 -4.1529654 0.560608 0.039682 1.842275
21680 7.71211188 -9.600134670000001 -3.8622656699999998 -0.894617 -1.421779 -0.114454
21700 6.442158330000001 -11.65326957 -2.6150615100000003 -0.072149 -1.68851 -1.787612
21720 7.32351816 -10.91051523 -3.58219998 -0.290479 -2.284647 -2.23489
21740 9.78305193 -6.89540976 -1.9151180100000003 -1.805348 -0.747851 -2.154505
21760 3.9944456100000005 0.77599062 0.9786652200000001 -4.205189 -0.024874 -1.586809
21780 -4.90395033 10.446178500000002 7.6757364 -4.037574 0.4991890000000001 -2.516731
21800 -14.31428112 15.789018420000001 8.22404673 -3.829197 1.889165 -4.773142
21820 -10.745403120000002 10.894642650000002 2.65188825 -5.336645 0.948044 -5.741728
21840 3.0708635400000004 31.141845000000004 -10.52581608 -4.222942 -1.696174 -2.398777
21860 14.213689380000002 16.229850390000003 2.41927353 -2.169729 -1.491077 -3.253162
21880 7.3784541599999995 -1.3178557800000001 0.18231885 -0.476739 0.393251 -4.416658999999999
21900 1.76348484 -0.8420021099999999 -7.21259649 0.468934 -1.839323 -3.168055
21920 -0.84888873 10.720407240000002 -10.526110379999999 0.283848 -3.289828 -2.8416810000000003
21940 -5.14196055 29.37341592 -12.310098120000001 0.400365 -3.260839 -1.6690650000000002
21960 -14.87711025 33.82710687 -6.01644357 0.533846 -1.852075 -0.039831
21980 -26.7315633 25.31311578 15.40162152 1.296943 0.7031609999999999 1.517556
22000 -16.17147108 19.161657180000002 3.9341141100000003 1.783327 1.994512 2.367467
22020 2.24473401 15.895447110000001 4.810696470000001 2.525561 1.984222 2.432485
22040 5.3157447 14.280152130000001 2.81145771 1.500518 1.551077 2.416266
22060 0.17782587000000002 3.7552385700000004 4.44695148 -0.512671 -1.529505 1.450093
22080 -2.3601388500000002 -5.278319550000001 4.7023254 -0.807365 -2.289566 -1.889185
22100 -12.482244 -6.688389330000001 1.24495767 -0.865865 4.696765 -3.497675
22120 -9.91313253 -2.71610451 -5.769604350000001 -1.045709 2.004812 -2.011721
22140 0.36434340000000004 -1.9176587999999999 -4.71474486 0.4753439999999999 1.503667 -0.285958
22160 2.3951703600000003 1.8315956700000002 5.61556773 -0.867827 1.575975 1.441496
22180 1.32265287 3.6588455100000004 6.51759723 -0.082887 0.594773 2.910632
22200 -1.67516541 5.811816780000001 -5.294937689999999 3.150089 -1.924855 6.292796
22220 -8.951683860000001 11.928391020000001 0.85697217 3.494342 0.372503 7.967229
22240 -9.19283328 25.167309750000005 -0.13682007 5.226758 1.46302 6.016677
22260 -3.0244622400000005 36.64170378 -2.54710764 3.585332 1.801872 2.891979
22280 -0.24624081 34.9045686 2.6458943400000003 1.340324 -1.123815 0.955111
22300 -8.51938659 25.88746185 8.96216094 1.301676 0.07778600000000001 1.262017
22320 -14.666205060000001 22.227282180000003 6.55995681 1.315321 -0.802659 1.381813
22340 -12.127926420000001 14.3970579 0.02006145 2.072557 -0.901959 1.581646
22360 -6.793022790000001 7.369321050000001 0.6524925300000001 2.149452 -0.79075 1.676044
22380 -0.72165303 -0.54876159 -5.391634860000001 0.383747 -1.198631 0.780814
22400 8.19814833 -9.84008727 -3.1840317000000002 -0.445241 -1.424535 -0.8793629999999999
22420 8.102049569999998 -10.093656150000001 -2.6752360500000005 -0.322912 -1.464977 -1.792855
22440 7.23669966 -10.21880232 -3.5869872600000003 -1.030545 -0.8319129999999999 -2.050709
22460 8.462949660000001 -6.673272120000001 -3.56139297 -2.076311 0.360475 -1.7636439999999998
22480 3.79775511 0.33784659 -2.2936761 -3.736993 0.7231529999999999 -1.51079
22500 -4.02677937 11.0422341 4.45713426 -3.4561620000000004 1.471431 -3.197578
22520 -12.316533480000002 22.46243769 17.86834602 -3.3039940000000003 1.736722 -5.466826
22540 -9.92496339 20.37951963 11.91447063 -4.710445 0.4150930000000001 -6.737595
22560 2.2731732 31.540758840000002 -8.26192314 -3.108734 -1.409836 -1.711972
22580 10.108184760000002 -4.346506890000001 2.3944248 -2.403017 -0.486236 -2.32459
22600 6.69048867 -2.9304530100000004 -8.601260850000001 -0.767781 1.171548 -2.729762
22620 1.56380229 -0.82927854 -10.584342540000002 -0.252999 -0.950674 -2.59526
22640 -2.40385221 20.64417381 -8.89854309 0.177578 -2.281568 -2.87683
22660 -1.71063837 31.566205980000007 -7.755069870000002 -0.108792 -2.579411 -1.407508
22680 -10.21670298 33.680408129999996 -0.31180104000000003 0.111545 -1.012467 0.283019
22700 -16.865881740000003 30.055848570000002 12.51637299 0.8626590000000001 0.515975 1.818137
22720 -11.868069329999999 21.644087490000004 6.83298873 1.958985 1.815316 2.272783
22740 -5.0006475 11.852648010000001 5.03897517 2.763094 2.1217200000000003 1.941517
22760 -3.4236801900000002 5.60853396 1.54807686 1.926791 0.721693 1.931061
22780 -1.05994107 -1.10080953 2.16315405 -0.238393 -2.246448 0.949795
22800 0.44757144 -5.10947964 8.13124413 -0.01998 0.522532 -1.449318
22820 -10.40786064 0.5382845100000001 2.4255519300000006 0.414051 3.215119 -2.515822
22840 -7.58277684 0.7439511600000001 -3.04242435 -0.87265 2.541169 -1.760168
22860 0.12498921000000002 -0.68123583 -4.51790721 0.071495 1.256508 0.067255
22880 2.2778133300000003 -1.17834777 1.1150340300000001 -0.424942 2.065983 -0.001343
22900 2.8289685600000003 1.12431429 4.321216710000001 -0.92189 2.926803 2.005545
22920 -0.31390038 4.5472391100000005 -4.9192244999999994 1.150203 1.629252 6.873545
22940 -1.81782243 7.66181601 0.92956617 1.211508 -1.196353 7.741786
22960 -10.97937162 21.35564406 2.9044074600000003 3.893806 -4.680111 4.698121
22980 -10.14470739 42.34200048000001 -2.4673229100000005 6.940442999999999 4.357376 2.670722
23000 -1.7317494900000001 40.49483634 4.79962098 -0.130664 -0.053453 1.490394
23020 -6.83613774 20.18058264 7.5717013500000006 0.845292 0.105162 1.47137
23040 -12.233011140000002 19.69888221 6.08843916 0.991729 -0.624528 1.870707
23060 -14.712155100000002 18.68025105 -0.15866694 1.169225 0.8588950000000001 1.84334
23080 -7.812850770000001 13.628562120000002 -1.7453657700000003 0.423335 0.199517 1.6840830000000002
23100 4.05087273 -0.18845991 -4.55218335 -0.146861 -0.85898 0.485048
23120 9.16424694 -5.9959308600000005 -3.3293766600000003 -0.048857 -1.204825 -1.022154
23140 5.90507064 -11.149565310000002 -3.7664710200000004 0.038589 -1.369946 -1.895137
23160 5.84609292 -10.66083111 -3.98830455 -0.801665 -1.048431 -1.916373
23180 8.609942700000001 -8.49798117 -2.9497689000000005 -1.830637 0.345135 -1.603812
23200 4.165983270000001 -0.51642783 -1.4892561 -3.421845 0.955741 -1.607163
23220 -3.27130146 8.93013129 2.9267154 -3.669846 1.402935 -3.198983
23240 -10.6169706 13.94290395 6.543642780000001 -3.029529 1.321489 -5.2283
23260 -9.836948069999998 9.23310333 4.30429446 -4.140656 1.091266 -5.831834
23280 1.6378972200000002 17.86938588 -6.15684429 -2.929005 -1.527684 -1.700951
23300 6.819970860000001 29.426860800000004 -1.4289246 -2.410393 -1.375874 -2.285045
23320 6.17600322 5.287599810000001 1.59927525 -0.699631 1.128754 -2.743118
23340 4.76968086 1.1397258000000001 -6.132446820000001 -0.5273720000000001 -0.8585290000000001 -2.224485
23360 4.24487529 13.45940829 -6.104606040000001 -0.4451270000000001 -2.372345 -2.812698
23380 1.47937743 27.653340330000002 -9.7784118 -0.081731 -2.051323 -2.156819
23400 -7.13730474 32.086528380000004 -12.53987775 0.03012 -1.317324 -0.663604
23420 -21.716985600000005 28.88752662 6.302493360000001 0.493239 -0.260813 0.8583569999999999
23440 -17.31748509 23.51818989 13.41300699 0.998857 0.8152229999999999 1.7236330000000002
23460 -4.060908360000001 15.8547258 5.158725840000001 1.876419 2.172354 1.769685
23480 -0.43125741 11.7507123 3.0190765500000003 2.168894 2.68807 2.017826
23500 -2.7991755900000004 3.5670827700000003 4.15700712 0.910486 0.259101 2.078378
23520 -3.2787864900000003 -3.6997041600000005 5.27188419 -0.980149 -3.817143 0.381537
23540 -8.752452569999999 -5.49417879 -0.33186249000000007 -0.68324 2.625901 -1.801682
23560 -9.253753380000001 -3.95956125 -1.7597374200000002 0.166116 4.538025 -2.525659
23580 -2.76564501 -1.55691567 -3.5072025300000003 0.180279 0.8368899999999999 -0.5841310000000001
23600 0.59381892 -0.92702538 1.0806009300000001 0.9006719999999999 2.277461 0.574872
23620 1.90373841 1.25858376 3.73667805 -0.896483 1.237966 1.545346
23640 -0.0009025200000000001 2.74619178 3.70285317 1.582075 -0.137545 3.715821
23660 0.09714843000000001 7.01411076 -4.88299617 2.699622 1.521001 6.228618
23680 -7.05497922 15.662381130000002 2.0098728 1.464033 1.838169 6.571026
23700 -9.88334937 31.125825270000004 0.13082616000000002 3.318328 -2.211905 4.407858999999998
23720 -5.069503889999999 44.235261810000004 1.53910071 4.3590230000000005 1.4609 2.508987
23740 -5.115758040000001 24.06201705 4.7948337 0.265244 0.699083 1.0349959999999998
23760 -7.52919462 19.550398050000002 8.99404344 0.212801 -0.196995 1.125508
23780 -14.17147695 21.985975800000002 2.1871002600000002 0.916348 -0.445798 1.728946
23800 -11.253600359999998 18.55092582 -0.35281665 1.593723 0.7545029999999999 2.006672
23820 -3.48999579 9.33308685 -0.30042144 0.316862 0.559651 1.758721
23840 2.67972903 1.4760812700000003 -3.7214136900000003 -0.738375 -0.905189 0.299377
23860 6.6168450000000005 -6.879546990000001 -3.3906008700000005 -0.320479 -2.235415 -1.202192
23880 5.181622379999999 -9.83470158 -3.64177611 0.173146 -2.229384 -2.071489
23900 7.71959691 -10.45395783 -2.18246013 -0.726534 -1.6804310000000002 -2.174617
23920 11.156304780000001 -8.99824212 -2.2382986500000004 -1.717644 0.3159 -1.849744
23940 6.10984458 1.03419963 -2.42360955 -4.32034 1.000928 -2.004466
23960 -2.8809125100000004 10.21311252 2.9047115700000004 -3.874794 0.973846 -3.607925
23980 -11.55521862 15.63318657 12.764556180000003 -3.543768 1.6602400000000002 -5.845486
24000 -11.85250086 8.94255075 1.63445391 -4.021378 0.834335 -5.087189
24020 3.7283003100000003 14.383735920000001 -9.88469334 -2.778296 -1.895801 -1.416348
24040 9.32396355 18.90374247 -0.47151765 -2.340583 -0.443518 -2.405393
24060 2.59844337 9.921215970000002 -1.4895504000000002 -0.962226 1.598177 -2.957062
24080 -1.2012541200000002 5.360654879999999 -9.62737704 -0.672986 -0.571279 -2.536723
24100 -1.97379162 11.37858957 -6.33602394 -0.361959 -2.218833 -2.646739
24120 -2.1612018600000003 27.925626690000005 -6.81622344 -0.338215 -2.749255 -1.092699
24140 -6.31431441 25.43526009 -8.75769111 0.091342 -0.700401 0.58158
24160 -17.771796000000002 27.553052700000002 -3.1690616400000002 0.984531 0.838316 2.087767
24180 -20.877985350000003 23.167472580000002 8.880286680000001 1.5834549999999998 1.698019 2.627097
24200 -7.56452043 18.122660460000002 7.873182270000001 1.950582 2.1230450000000003 2.313991
24220 1.9550839500000001 13.99110048 2.4050490300000003 1.175371 1.387869 1.954868
24240 0.07603731000000002 6.13065159 2.9364469200000007 -0.622301 -2.14947 1.006809
24260 -0.5698629000000001 -2.35549872 7.150479570000001 -1.139043 -0.8023819999999999 -1.616739
24280 -7.93664316 -4.44021201 5.28655995 -0.8020689999999999 3.284073 -2.720958
24300 -11.381434470000002 -6.505766370000001 -3.66108219 0.5982729999999999 3.72451 -1.924461
24320 -4.77566496 -2.6952975 -5.526954000000001 -0.416733 -1.208536 1.552901
24340 -0.32706539999999995 -1.17011718 -1.27370097 0.7300449999999999 1.454484 1.40047
24360 1.83922785 2.5797357 4.23993105 0.328098 0.935386 1.293642
24380 1.13269203 3.9661535700000004 6.5386985399999995 1.476039 0.677602 2.956666
24400 -1.09691496 6.73524189 -7.796389590000001 2.185527 3.214344 5.986781
24420 -4.35609126 12.12163821 -0.79305021 1.084433 1.888375 6.333302
24440 -10.45426194 30.73049208 3.13598232 3.877929 -3.233279 4.931164
24460 -5.526061290000001 48.610512 2.4599850300000004 2.9321740000000003 2.467585 2.414409
24480 -1.32205446 28.715832000000002 4.8199767300000005 0.783799 0.395047 0.959959
24500 -5.52800367 20.375477910000004 8.65934586 0.5019170000000001 -0.5986319999999999 1.6803130000000002
24520 -14.371169309999999 23.37719076 4.896171 1.010267 0.16896 1.624128
24540 -16.77621834 19.61940159 -2.21673627 1.257487 0.494624 2.019612
24560 -7.16799042 10.531947330000001 -4.09997178 0.7592180000000001 -0.26620900000000003 1.975446
24580 6.9789419100000005 -3.6438754500000003 -5.34657753 -0.117058 -1.390382 0.6824899999999999
24600 10.618471529999999 -9.099275310000001 -2.122884 0.005937 -1.338143 -0.764159
24620 8.36939169 -12.51457776 -2.1713846400000003 0.117729 -1.427127 -1.517429
24640 8.12989035 -9.80775351 -2.49067071 -0.565819 -0.778746 -1.896912
24660 6.8272989299999995 -6.00011973 -3.09032658 -1.447583 0.112652 -1.606179
24680 0.42646032 2.9373396300000003 -3.056796 -3.463454 -0.043253 -1.895662
24700 -5.20137972 8.85424113 3.4855028100000003 -2.360078 0.35128000000000004 -3.211987
24720 -11.93422797 14.934439890000002 10.28914983 -3.534524 0.848874 -5.148969
24740 -8.97234372 10.48284828 3.7356283800000005 -4.778295 0.363534 -4.976505
24760 3.37144194 2.85771186 -2.4673229100000005 -3.870566 -1.9809330000000005 -1.557396
24780 10.51488774 23.75500329 7.907154300000001 -2.445328 -1.016782 -1.7462970000000002
24800 2.5801869600000003 13.66269111 -9.43532667 -1.266742 1.485522 -2.4933
24820 -1.62412398 5.36319567 -5.64461514 -0.780978 1.209547 -2.364571
24840 -4.05387459 8.068518990000001 -6.227652870000001 -0.584023 0.074603 -2.695026
24860 -1.06084359 23.686598160000003 -1.4934449699999999 -0.195131 -1.301512 -2.288895
24880 -0.00837774 21.29023098 -6.43721409 -0.117769 -1.696175 -0.898092
24900 -13.04567154 30.72929526 -5.7869680500000005 0.5472090000000001 -0.8786809999999999 0.813592
24920 -24.274423170000002 31.11324885 7.44881148 1.341091 0.704757 2.144908
24940 -11.3137749 20.375477910000004 7.886347290000001 1.86805 1.662734 2.413349
24960 1.02925539 14.95270611 4.12632144 1.4672 1.156282 2.07364
24980 -4.26388707 8.30832444 3.1635189900000005 0.632269 -1.049731 1.423292
25000 -2.02768776 -1.8781441200000002 4.48736868 -0.819351 -3.4268970000000003 -0.112427
25020 -3.3156034200000004 -5.9200406999999995 5.08043223 -1.45361 1.68125 -2.260915
25040 -9.70132482 -4.0519224000000005 0.93465756 -0.102647 4.426575 -2.659853
25060 -6.6547116000000015 -0.14624748 -2.9045644200000003 -0.6937409999999999 0.8044819999999999 -1.045257
25080 0.51687909 0.59322051 -3.9648096000000006 0.063472 2.607214 0.356025
25100 3.89086182 0.49457115 -0.19923129 -0.6720659999999999 1.029451 1.015207
25120 2.99377656 -0.06002739000000001 2.7738854100000006 0.539924 -0.8035680000000001 2.280114
25140 -2.19309417 3.03553773 -2.83016538 2.852249 0.269929 5.673676
25160 -2.9806017300000005 5.77903176 1.6145396100000002 2.107689 2.482263 6.911187
25180 -11.797868970000003 19.580034060000003 5.494021830000001 3.630796 -1.853536 4.5602019999999985
25200 -8.29694484 30.200300820000002 -3.6037525500000003 5.2048260000000015 0.338826 2.393488
25220 -2.13919803 43.6821642 2.6479936800000003 0.368502 0.529929 1.155575
25240 1.1915225999999999 29.37027672 5.995185300000001 0.568565 -0.253808 1.437851
25260 -6.63540552 23.747067 7.782910650000001 1.000092 -0.5228550000000001 2.0116400000000003
25280 -11.982130200000002 22.079082510000003 3.46395024 1.482988 0.676679 2.117093
25300 -9.73650348 17.73601893 0.16286562000000002 1.217683 0.01193 2.085114
25320 -5.800584330000001 9.258393510000001 -3.1403183400000003 0.111742 -0.6948340000000001 1.03571
25340 2.9819457000000003 -1.6886345399999998 -5.047804169999999 -0.496304 -1.46974 -0.719428
25360 7.29612864 -8.61473979 -2.6972398800000006 -0.413372 -1.6001610000000002 -1.74097
25380 7.37007642 -12.939988410000002 -3.59746434 -0.720078 -1.293247 -2.0361990000000003
25400 10.01716758 -12.51502902 -5.085072360000001 -1.450611 -0.528872 -1.812613
25420 11.53276353 -7.494163110000001 -3.8526911100000003 -3.932555 -0.06371900000000001 -2.231129
25440 3.19181103 4.3881209100000005 -2.1254346 -3.398667 0.8090609999999999 -3.837261
25460 -3.9446010000000005 10.71786645 6.00251337 -3.680569 1.810837 -6.357245
25480 -15.19924122 18.71917713 14.048587079999999 -4.1663 0.539301 -4.707537
25500 -11.06723979 9.26363205 0.5822921700000002 -3.199734 -2.636619 -1.204698
25520 4.84107804 10.472822460000001 -7.25870349 -2.185447 0.261901 -1.793122
25540 13.27888467 26.76823308 7.76345742 -0.8946200000000001 1.366369 -2.322837
25560 4.21433676 4.32569988 -6.263871389999999 -0.699806 -1.023087 -2.480784
25580 0.8619066000000001 0.49307022000000006 -8.397987839999999 -0.209775 -1.5250709999999998 -2.579267
25600 -3.2757846300000004 6.3499443300000005 -6.29261469 0.004332 -1.73565 -1.52103
25620 -2.2402410300000004 29.63851155 -4.854556980000001 0.118113 -0.674098 0.108511
25640 -5.417837370000001 26.74862289 -8.794360890000002 0.914127 0.632736 1.878167
25660 -15.586638120000002 27.28540647 -2.4960564 1.423802 1.562152 2.643247
25680 -18.35124327 21.61175373 11.6001288 1.9990900000000005 1.687466 2.242249
25700 -5.887108530000001 21.14607303 6.41311092 1.630691 1.237532 1.859965
25720 3.92783571 16.324752330000003 4.35414888 0.012762 -1.439834 0.948379
25740 -3.8491006500000005 7.07054769 4.01045553 -1.302088 -3.165316 -1.171537
25760 -3.79835352 -0.9488722500000001 4.47314418 -0.720527 3.051839 -3.056581
25780 -6.674920200000001 -5.572462590000001 5.14839591 0.512462 4.609464 -2.841661
25800 -9.624983400000001 -5.131777770000001 -0.8496342900000001 -1.3602299999999998 -1.305649 0.816839
25820 -4.4652177 -1.6935787800000002 -3.51573723 0.46762 2.404366 0.915652
25840 0.44681607 -0.09145863 -2.42720001 -0.148982 1.141437 1.061446
25860 0.18067077 -1.05395697 1.1364394500000001 1.2661870000000002 -0.261944 3.131593
25880 -1.2611245500000001 0.5786919 3.4170976800000004 2.669391 1.860306 6.64992
25900 -0.43574058 6.677313840000001 -1.1374891200000001 2.191226 1.234955 6.54056
25920 -7.675883550000001 18.50331789 6.267618810000001 4.684243 -2.645029 3.912686
25940 -7.26154839 32.12454213 -3.4328133000000003 3.019676 1.732239 2.148907
25960 0.51956703 49.90456872000001 3.11981544 0.198415 0.078972 0.324956
25980 -2.7562176 25.1697132 7.0265400300000005 0.422267 -0.473891 1.723394
26000 -11.67721578 18.69657489 10.45067148 1.070863 -0.206821 1.772448
26020 -16.31293128 20.05365105 1.68759468 1.564602 0.670503 1.99269
26040 -11.01634551 18.10993689 -1.1469165300000004 0.954239 0.303411 1.882074
26060 -4.176018900000001 9.48697632 -2.57958855 -0.078997 -0.7313149999999999 0.468267
26080 2.96309088 -0.18037647 -4.30175367 -0.385444 -0.965501 -0.906239
26100 9.545345820000001 -9.6944382 -3.5281665 -0.182237 -1.549314 -1.603757
26120 8.22598911 -12.62444976 -2.99976066 -0.720507 -1.308373 -1.716784
26140 7.92123165 -8.51279427 -2.03127822 -1.468836 0.056677 -1.442818
26160 7.15377573 -4.7171385 -1.9152651600000001 -2.973436 0.865559 -1.28879
26180 0.8288272799999999 3.7411710300000003 -1.6727717700000002 -4.271896 0.973343 -2.60657
26200 -3.4480776600000005 9.65357955 3.23148267 -2.6628 0.416862 -4.163835
26220 -9.04404501 14.52849228 12.479850359999999 -4.172181 1.326179 -5.942383
26240 -8.98492014 8.943600420000001 -0.37302525000000003 -3.135243 -1.2443 -2.059541
26260 4.24607211 8.34724071 -3.5654346900000005 -1.812871 -1.823702 -0.8371299999999999
26280 10.52117595 27.86066487 10.58164479 -0.908984 0.6533100000000001 -2.2130650000000003
26300 2.2107521700000006 7.4779962300000005 -4.36462596 -0.35790700000000003 -0.230421 -2.2700400000000003
26320 -1.19840922 2.40669711 -9.69713595 -0.260778 -1.57882 -2.679967
26340 -4.16538486 7.67753163 -6.734192220000001 -0.036432 -1.360439 -1.810216
26360 -3.9633086700000004 28.05151842 -3.54163563 -0.149338 -0.963583 -0.259386
26380 -5.970934980000001 24.720189570000002 -8.283926970000001 0.5137550000000001 -0.421721 1.119353
26400 -15.776147700000001 29.634921090000002 -3.0021543000000004 1.339018 0.1704 2.310085
26420 -18.93951954 24.45943977 12.768597900000001 1.869164 0.741305 2.669842
26440 -6.114180600000001 21.421351440000002 5.48414316 1.422616 0.856701 2.437976
26460 5.341790250000001 13.9544307 3.39897861 0.395662 -0.309501 1.396122
26480 -3.67081371 7.65583191 2.7619074 -1.211932 -3.989739 -0.210588
26500 -1.0737143100000002 -2.81175201 5.478610320000001 -1.822147 -0.449 -3.347141
26520 -4.3436718 -5.54926194 5.13716346 -0.515173 5.285919 -3.5493910000000004
26540 -10.087377750000002 -3.9345653700000005 -0.91894194 -0.79893 1.868766 -1.5045540000000002
26560 -5.870196090000001 -1.04108625 -2.69574876 -0.009445 1.815114 0.835094
26580 0.034276140000000004 0.03666978 -3.41140788 -0.384232 1.840652 1.166797
26600 2.1749751 0.42571475999999997 1.44764208 0.362021 0.440348 2.515491
26620 2.3074493400000002 1.12341177 4.5693999 2.505026 0.366411 6.354789
26640 -0.23036823 2.9813472900000004 2.428249680000001 3.2434990000000004 1.103641 7.296902
26660 -0.3182364 6.72057594 -3.8428124400000003 4.381995 0.022336 4.993539
26680 -9.73396269 14.675779620000002 0.5051953800000001 2.854671 1.11808 2.165633
26700 -12.54301695 32.41433934 0.06481466999999999 1.146833 -0.871185 0.816703
26720 -3.13567821 48.112497539999985 4.00746348 0.792801 -1.111381 1.250372
26740 0.48739023 26.22426858 5.675143860000001 1.058678 -0.806429 1.747494
26760 -8.752599720000001 20.94145605 7.76211345 1.813898 0.055217 1.932194
26780 -15.546220920000001 20.444334299999998 0.6493533300000001 1.520377 0.281056 2.186228
26800 -7.44506406 15.656995440000001 -1.14945732 0.222444 -0.029244 1.523808
26820 -2.3989079700000002 5.32636893 -1.92409416 -0.77428 -0.715033 -0.069654
26840 -0.5891787900000001 -1.28582613 -4.816239120000001 -0.5414100000000001 -1.09575 -1.231901
26860 5.14644372 -7.275920040000001 -3.4949302200000005 -0.495646 -1.089861 -1.678106
26880 6.902747639999999 -11.56330206 -2.95904916 -1.089941 -0.629696 -1.6871189999999998
26900 7.554043350000001 -10.39602978 -2.274968430000001 -2.24378 -0.512637 -1.456047
26920 7.86180267 -6.98193396 -2.72134305 -3.3499800000000004 0.13557 -2.756085
26940 1.5844523400000003 4.88538981 -2.13007473 -3.028551 1.179341 -5.112743
26960 -3.91780008 11.857288140000001 4.728812400000001 -4.965598 0.462514 -6.653980000000002
26980 -12.57205455 19.33918875 15.59577123 -3.562771 -2.032346 -1.487882
27000 -9.35539479 7.36393536 1.0946782800000001 -2.435673 -1.491661 -1.280945
27020 4.61505564 16.914970980000003 -11.313323640000002 -1.06598 1.675972 -2.34259
27040 15.833026080000002 18.68369436 5.698197360000001 -0.254292 1.303624 -2.903669
27060 6.5470860900000005 1.51021026 -1.4748844500000002 -0.312415 -1.216376 -2.697884
27080 -1.1469165300000004 0.34563573000000003 -10.52790561 -0.237853 -1.742564 -2.244831
27100 -2.36778084 15.9876513 -7.09314993 -0.256238 -1.856656 -0.8721479999999999
27120 -5.36005647 30.709685070000003 -5.827228290000001 0.487606 -0.466787 0.956858
27140 -9.83200383 28.39130739 -3.74086692 1.420736 0.973644 2.498702
27160 -18.36949968 27.52221987 2.70502902 1.9619830000000005 1.434551 2.651443
27180 -14.835201930000002 20.50720659 4.6970868600000015 1.710307 0.778871 2.205076
27200 -4.1068584 17.4364902 4.99930353 0.268646 -1.627392 1.276214
27220 -0.62046288 10.07509563 3.7889163000000003 -0.927643 -2.822881 -0.817916
27240 0.10642868999999999 4.94212104 2.0202027300000003 -0.934605 1.578987 -2.711153
27260 2.3451687900000002 -1.26456786 5.491628189999999 0.334661 4.190471 -2.869072
27280 -4.21299279 -2.8157937299999998 6.31042965 -1.177979 -0.421491 -0.399726
27300 -11.190129660000002 -0.99707859 0.44427528000000005 0.033266000000000004 0.869534 -0.361941
27320 -5.94697896 -1.85179446 -3.4703856 -0.499202 1.842012 0.394736
27340 0.51867432 -2.51177202 -3.51872928 0.57677 2.017994 2.602563
27360 1.8615259800000001 -2.36388627 0.21330864 2.918325 1.5278770000000002 6.716178
27380 0.18231885 0.13457358 2.0272365 2.808626 -1.451575 6.780117999999999
27400 -2.0610613800000004 4.24067661 -4.67657415 5.225796 -2.327085 3.853037
27420 -7.80402177 10.87158915 2.36477898 3.079285 0.575961 2.210626
27440 -12.32551944 28.889625960000004 0.50714757 1.281876 -0.334456 0.742183
27460 -6.426138600000002 49.51927116 -1.73204379 0.73937 -0.76846 1.853105
27480 4.64019867 36.773579610000006 3.4651470600000005 1.091847 -0.326886 2.208583
27500 -2.1794680800000004 22.82812506 10.085876820000001 1.405577 0.85774 2.193233
27520 -13.75115769 22.00558599 4.716844200000001 0.939495 0.959116 2.021068
27540 -14.41846332 14.28330114 -2.47854555 -0.387699 -0.34543 0.93777
27560 -7.05228147 10.690319970000003 -0.8201454300000001 -0.551299 -0.945091 -0.538887
27580 0.06735546 1.5849035999999999 -3.7365309000000004 -0.17863800000000002 -1.32616 -1.4683540000000002
27600 6.843024360000001 -6.81637059 -4.2570004500000005 -0.388399 -0.992123 -1.704187
27620 9.099579420000001 -15.58394037 -3.30423363 -1.305128 -0.610513 -1.502777
27640 8.836279020000001 -14.045889330000001 -3.29914224 -3.798223 -0.29099899999999995 -1.721426
27660 9.39191742 -8.08528428 -2.42540478 -3.209462 0.620308 -3.153103
27680 2.1454862400000003 4.4300390400000005 -0.84244356 -3.375086 1.408406 -5.884576999999998
27700 -3.0047049 9.37529928 3.57965919 -4.303038 -0.089665 -5.539831
27720 -11.8198728 13.297896450000001 9.71899263 -3.008456 -2.7077720000000003 -0.627499
27740 -9.787250610000001 9.15750747 3.8872615500000003 -2.148175 -0.685221 -1.536343
27760 3.21187248 9.796678020000002 -4.16568897 -0.772393 1.684782 -2.13652
27780 9.09314406 37.30661577 8.16956199 -0.341548 0.850457 -2.456113
27800 3.7071891900000002 3.2154629399999997 1.82979063 -0.045203 -1.015386 -2.842621
27820 -0.6717986100000001 -1.15380315 -10.23437079 -0.155846 -1.726953 -1.957995
27840 -0.68721993 6.167027070000001 -6.09382485 -0.164454 -1.032765 -0.5275270000000001
27860 -3.73982706 27.60679188 -6.82999668 0.6832630000000001 -0.126512 1.206684
27880 -7.8920370900000005 31.059960930000003 -12.067310430000003 1.793254 0.795536 2.760042
27900 -14.5792296 26.71195311 0.29233800000000004 2.307692 1.465323 2.914464
27920 -15.48020943 22.32861948 5.2810173 1.393106 0.441323 2.1776560000000003
27940 -4.8674277 22.896383040000003 7.009774740000001 -0.061292 -2.375337 1.060155
27960 4.704562080000001 16.77606138 4.58870598 -0.881516 -2.918417 -1.20844
27980 -0.35910486 9.35405082 2.2013247600000003 -1.190497 2.061388 -2.979546
28000 -1.8696094200000002 -0.35311095000000003 5.69250756 0.161865 4.090421 -2.740896
28020 -4.834044270000001 -6.080659830000001 7.39552356 -1.463739 -1.035296 -0.100765
28040 -11.374842150000001 -5.32038483 -0.59396607 0.528629 1.59998 -0.175683
28060 -6.87086514 -2.18006649 -3.13014537 0.147818 1.125409 0.284806
28080 0.07559586 -1.1036544300000002 -3.6019573200000004 0.8858159999999999 1.04198 2.6561790000000003
28100 2.0091174300000003 0.29069973 0.31434183000000004 3.037501 1.916134 6.222995
28120 0.6524925300000001 1.1180260800000001 3.43490283 2.675863 2.303629 6.6023960000000015
28140 -2.9271666600000006 4.65561999 -5.75942157 4.206114 -2.824618 4.482144
28160 -4.627926360000002 7.767195030000001 1.43611533 2.5762150000000004 -0.772582 2.888229
28180 -11.14971246 26.719889400000003 5.04525357 1.410508 -0.005451 0.938144
28200 -6.074214660000001 41.29777503 -3.1596342300000004 0.826499 0.108885 1.621853
28220 1.8203632200000002 36.2552094 4.19202882 0.96493 -0.02647 1.784295
28240 -1.2713073300000002 22.55420043 9.067844070000001 1.5539040000000002 0.924937 1.7775759999999998
28260 -11.337426810000002 21.86398845 6.828348600000001 0.807156 0.6019770000000001 1.671293
28280 -12.96004986 19.16105877 -0.09684432000000001 -0.101317 -0.6217699999999999 0.7980510000000001
28300 -9.07592751 14.943121740000002 -1.2364327800000001 -0.519482 -1.304943 -0.6193890000000001
28320 -1.57442652 7.67379402 -3.4835604300000003 -0.398043 -1.516045 -1.744176
28340 5.40855711 -4.50667476 -2.9361428100000007 -0.840087 -1.2647540000000002 -2.131077
28360 7.751479410000001 -12.036771900000002 -2.12587605 -1.59913 -0.531737 -1.766645
28380 6.887473470000001 -14.49106713 -4.13620011 -4.177355 -0.112949 -1.6965290000000002
28400 9.05721984 -11.768978520000001 -4.881348090000001 -2.292753 0.146481 -3.203777
28420 7.106923170000001 -1.0177384500000002 -3.44224071 -4.061468 0.775461 -5.247627
28440 -0.9904862700000001 6.9757929 1.01713023 -4.658035 -0.370711 -4.215219
28460 -9.80895033 12.14155251 9.51092253 -3.59767 -1.547072 -1.068937
28480 -15.36435333 13.51914138 9.07233705 -1.829555 0.732927 -2.410809
28500 -4.5057820500000005 2.98838106 -0.6991979400000001 -0.458758 1.491516 -2.561371
28520 10.599312600000001 24.43473819 -10.40710527 -0.053566 -0.532446 -2.395714
28540 8.347093560000001 23.701715370000002 -1.66722912 -0.105462 -1.722997 -2.723563
28560 0.52929855 0.7499450700000001 -4.947957990000001 0.070789 -2.00616 -1.86205
28580 -1.5976271700000002 0.43724151 -7.317828360000001 0.162076 -1.867247 -0.18555
28600 -2.09250243 18.37504233 -3.25573299 0.935298 -0.808954 1.420827
28620 -3.4459881300000004 28.932888060000003 -6.19816401 1.665904 0.370168 2.418934
28640 -10.39079124 31.03241445 -6.75695142 1.916429 0.801796 2.420131
28660 -15.52856292 23.01942987 10.196798490000003 1.322153 0.288196 1.90496
28680 -10.52147025 21.764142270000004 2.8309109400000003 0.178885 -1.03242 0.951154
28700 3.34853559 15.056594010000001 4.09069152 -0.437941 -1.018783 -1.388306
28720 0.4858893000000001 11.463465690000001 2.82657492 -0.8628389999999999 2.399554 -3.381478
28740 -4.50069066 2.78869851 4.48901676 -0.111263 3.785062 -2.332215
28760 -2.86549119 -5.065020720000001 6.234833790000001 -2.63755 -2.244861 1.832477
28780 -9.01066158 -6.47373672 2.5863182100000004 0.7811859999999999 1.925519 -0.019443
28800 -10.867547430000002 -2.35699965 -0.44338257000000003 0.187524 2.488539 0.88795
28820 -4.17241863 0.14369688 -2.76729309 1.335934 1.47544 3.357385
28840 -0.19699461000000001 -0.16585766999999998 -1.17461016 3.288402 1.231514 6.449951
28860 2.1356075700000003 2.5524933300000003 3.0416787900000006 3.18955 1.152502 6.048779
28880 1.7836934400000002 4.54484547 -4.37195403 4.121652 -0.304629 4.668468
28900 -3.7320379200000002 8.571928950000002 1.07191908 1.305903 -0.750037 2.348421
28920 -12.302613090000001 25.700954130000003 2.8238771700000003 0.8912959999999999 -0.128523 0.730645
28940 -6.2783901900000005 35.18897031 -3.5254687500000004 0.6544220000000001 0.15037 1.254198
28960 1.05635061 37.19989278 4.3613298 1.193255 -0.241466 1.805394
28980 -1.17970155 25.89615351 6.217470090000001 1.868697 -0.16722 2.099505
29000 -11.779004339999998 24.210658170000002 6.59513547 1.427745 0.074758 2.175163
29020 -12.86663904 19.444714920000003 1.5015284100000001 -0.067873 -0.050845 1.050721
29040 -11.41002081 14.59180602 -0.32766381 -0.666549 -0.298782 -0.361059
29060 -3.73248918 6.64153677 -2.12139288 -0.361792 -0.236948 -1.168722
29080 7.3886369400000005 -5.32877238 -4.02049116 -0.395843 -0.253835 -1.444539
29100 6.302640510000001 -9.08430525 -2.5397697600000004 -0.904686 0.004640999999999999 -1.439879
29120 3.8002959000000005 -12.59914977 -3.33581202 -1.454533 0.206506 -1.627713
29140 5.9439869100000005 -10.876229279999999 -4.418365140000001 -3.421895 -0.260104 -2.5798240000000003
29160 6.5622033 -4.934636010000001 -3.2546833200000003 -2.3505130000000003 -0.156054 -3.952616
29180 2.7047249100000004 3.5554088700000004 -0.9178922700000001 -2.965007 -0.222993 -6.6562199999999985
29200 -3.3952410000000004 9.83140542 5.90507064 -2.813672 -1.168772 -4.705514
29220 -12.363690150000002 16.783252110000003 10.16611281 -2.673665 -2.490448 -0.121238
29240 -9.15391701 7.54161408 -0.92208114 -1.692507 -0.530632 -1.1637540000000002
29260 13.29983883 18.857184210000003 -5.032981260000001 -0.442959 1.587721 -2.657524
29280 8.52821559 31.238983620000003 7.00378083 -0.250824 0.312357 -2.766711
29300 -0.25806186000000003 2.6460513000000003 -5.57516034 -0.4356930000000001 -1.497419 -2.372577
29320 -0.7173072 3.91480803 -10.418337720000002 -0.061344 -1.254803 -2.097877
29340 -1.61768862 13.767471720000001 -5.6613804299999995 0.16121300000000002 -1.96054 -0.563587
29360 -3.4076604600000002 25.44274512 -6.195917520000001 0.726861 -0.660259 1.179899
29380 -5.81570154 24.251222520000002 -6.627616379999999 1.357984 0.775845 2.733526
