time Ax Ay Az Gx Gy Gz
20 -5.020414649999999 -3.64327704 2.5592328 -2.512724 2.896758 -1.3512
40 -2.11300533 2.40968916 -6.35338764 -2.733742 0.974754 -1.09818
60 8.30488113 9.00467748 -14.563965240000002 -3.607269 -1.3663379999999998 -0.171929
80 12.08796048 8.55680193 -3.5211229200000003 -3.504062 -3.372542 -0.454921
100 5.01592167 -3.4244257500000006 5.67470241 -2.1867970000000003 -0.224367 -0.070535
120 -2.42975061 6.74961354 9.573637860000002 -1.028852 2.748872 -0.02246
140 7.393728330000001 33.28838091 4.50219159 -0.7803479999999999 1.757395 -0.045091
160 -4.49350974 7.88739696 2.6297274600000002 -0.454088 -0.017266999999999998 -0.349254
180 -1.32564492 10.85707035 7.322174189999999 -0.127323 -1.097693 -0.307131
200 6.590789640000001 24.499552859999998 4.98403917 0.5632550000000001 -1.727502 -0.0494
220 9.771230880000001 21.392313840000003 5.7109209299999995 1.26268 -1.852351 -0.069991
240 15.958319400000002 20.37248586 -0.30177522 2.348418 -1.406682 0.224373
260 21.179760570000003 18.30274263 -5.357809980000001 2.5584860000000003 -2.654595 0.4271970000000001
280 13.827499110000002 14.416216830000002 -11.27455452 2.261261 -3.5788830000000003 0.5918800000000001
300 11.75116356 13.452972930000001 -6.13619424 3.042312 -2.554574 1.367279
320 6.3938048400000005 6.849606870000001 2.28515121 2.543088 0.6016739999999999 2.3724220000000003
340 0.5626819800000001 3.9910023000000003 0.8178989400000001 3.516013 1.927526 1.102062
360 -4.100118930000001 0.14445225 -9.206302410000001 3.486946 -1.190023 -0.064917
380 0.14265702 -0.7387126199999999 -3.3870104100000007 2.440903 -2.1918990000000003 0.703521
400 2.30235795 -0.5522049 -4.6687948200000005 1.544878 -1.222912 2.114619
420 1.19422035 -0.5159765700000001 -3.31471071 0.458797 -2.539534 1.97626
440 0.49786731 -1.2698064 -1.6229271600000001 -0.355378 -3.128028 0.934084
460 1.2900150000000001 -1.32833286 -0.6939594 -0.869936 -2.354876 0.109104
480 1.9565848799999999 1.0054563300000001 -2.2094082 -1.332311 -0.984755 -0.332784
500 4.25954124 4.9741605 -0.93764961 -1.971562 1.062669 -1.100447
520 7.4241099 10.12854051 1.20170538 -2.144045 3.098776 -1.042304
540 9.42814575 25.166711340000003 1.3070844000000001 -1.642873 4.102304 -0.6875760000000001
560 11.13145605 50.2153299 -5.860915830000001 -0.985033 3.776138 -0.677222
580 4.62732795 29.58701886 -4.8731175 0.718076 -1.065348 -0.6035739999999999
600 6.73120017 17.93749671 -1.8645180300000002 1.867129 0.064887 0.535319
620 13.962219840000001 17.31404178 -3.21471738 0.349956 3.719492 0.8736200000000001
640 16.058302920000003 15.1026912 -4.63406742 2.376535 0.6572100000000001 2.215227
660 9.58980474 9.43487541 -2.54890287 1.19587 0.656018 1.406883
680 0.41913225000000004 4.76908245 -0.27348318 -0.458441 3.146119 -0.491138
700 -5.46992847 -1.03719168 1.6802568 -0.766794 2.422912 -2.646969
720 -4.92760224 -5.34298707 6.74482626 -0.8083560000000001 2.545521 -3.966671
740 -5.1880577400000005 -5.8187034 9.932742720000002 -0.180502 1.227975 -3.49592
760 -5.475461310000001 -3.9631615200000003 7.1263764 -3.447344 0.509242 -2.079991
780 -4.6587591900000005 -2.1791639700000003 2.02453875 -4.325222 -1.6949310000000002 -0.758704
800 -1.29885381 4.354747290000001 -10.81980216 -4.555078 -1.770403 0.46397
820 10.203381 10.25862111 -15.51089511 -3.184814 -0.30503600000000003 0.188585
840 12.6501912 5.63144031 -0.9232779600000001 -1.920002 2.060363 0.302279
860 4.35504159 4.687051230000001 9.88424208 -0.859466 1.802191 0.275834
880 4.90245921 18.60646023 10.233173970000001 -1.229847 0.795481 -0.461468
900 -2.3077534500000003 3.85253415 -0.11106882000000001 -0.5372600000000001 -0.398899 -0.7435189999999999
920 -0.8526263400000001 9.13385556 5.68712187 -0.286792 -0.300259 -0.587004
940 4.17302685 21.68555436 4.65397191 0.6834560000000001 -1.911792 -0.154078
960 9.62917227 25.33990689 4.69872513 1.337601 -2.523795 -0.320708
980 12.57489945 20.04541065 2.42031339 1.823965 -2.294307 -0.056959
1000 22.681436129999998 19.40774103 -0.9586037700000001 2.060367 -3.426856 0.576395
1020 17.1185481 15.900685650000002 -7.45914141 2.47058 -3.916496 0.922787
1040 10.01971818 15.75773433 -2.35221237 2.9556400000000003 -2.083524 1.6587630000000002
1060 4.63481298 11.444453910000002 -1.42908156 2.447985 1.274001 1.88806
1080 -0.9394448400000001 5.56782246 -5.435799480000001 3.975926 -0.717254 0.097057
1100 -4.02677937 1.8363829500000002 -5.60329542 3.4883870000000003 -1.902689 -0.8651610000000001
1120 0.66671703 -0.6029422200000001 -6.2288496900000005 3.4399870000000004 -1.910704 0.646046
1140 6.00925284 1.5865516800000001 -2.9708702100000006 2.266255 -1.447867 2.33359
1160 4.6726795800000005 -0.5706182700000001 -5.7987891000000005 0.8844770000000001 -2.402138 1.879713
1180 2.3556556800000004 -1.4202427499999999 -4.12018038 -0.093126 -3.547997 1.035798
1200 0.99124164 -1.0268617500000001 -0.8813696400000001 -0.5215270000000001 -2.700047 0.344853
1220 2.23365852 -0.11960352 -0.67449636 -0.8859100000000001 -1.0919020000000002 -0.29855
1240 4.408633620000001 4.36791231 -1.1651729400000002 -1.64537 0.867344 -0.756087
1260 6.0794532 8.77146435 2.18291139 -2.161868 3.166071 -0.806437
1280 7.19508564 20.202135209999998 4.14098739 -1.731032 5.0225230000000005 -0.566525
1300 8.904831300000001 43.30404756 -5.1522904800000004 -0.699087 3.377613 -0.364929
1320 4.18140459 34.563278700000005 -3.0740027400000005 0.5420159999999999 0.79782 0.08074400000000001
1340 5.4646899300000005 22.300327440000004 1.6453822500000002 1.7348290000000002 0.191601 0.663488
1360 12.127033710000001 19.89063828 -1.4801229900000001 0.586639 3.635654 0.589097
1380 15.61612698 16.83833526 -4.4004030300000005 2.973247 -0.322385 2.115965
1400 10.834320960000001 11.724372449999999 -4.84317738 0.346991 1.562612 0.80052
1420 4.56490692 5.2338704400000005 -0.2083644 -0.811463 1.671297 -0.331481
1440 -2.61520866 -0.2565707400000001 2.00882313 -0.980768 2.620579 -2.077218
1460 -5.751043830000001 -5.0368758300000005 4.0701886200000015 -1.7318240000000005 4.250332 -3.791571
1480 -4.60367604 -5.63338269 7.960746330000001 -0.096522 3.606043 -3.661819
1500 -6.604719840000001 -4.8678789600000005 9.15690906 -1.405977 0.891689 -2.25423
1520 -7.166195190000001 -2.84109372 3.5568999900000002 -3.022703 0.481696 -1.155114
1540 -2.3599917 2.0764827 -6.390508680000001 -3.996815 -1.906105 -0.448491
1560 7.582178430000001 7.45838604 -12.610970819999999 -4.529962 -4.042835 -0.040348
1580 14.54585598 8.51384394 -8.836122060000001 -3.099513 -0.116736 -0.08772999999999999
1600 10.02929274 3.2855161500000003 5.879025090000001 -0.950285 3.0070330000000003 0.08458099999999999
1620 5.47756065 16.69194063 3.7684134 -1.403631 2.348002 0.11751
1640 -1.8277011 5.09061501 2.9933253000000004 -1.430026 0.471971 -0.63764
1660 -8.2048878 0.85412727 -4.43692566 -0.7911560000000001 -0.313008 -0.424936
1680 1.97020116 16.96826871 7.36828119 -0.125378 -1.02349 0.048506
1700 4.02977142 21.49964505 5.795797050000001 1.357558 -2.251358 0.262331
1720 9.30420621 23.32943568 3.37412988 1.879418 -2.152348 0.09173
1740 18.59253984 26.45434251 0.56851893 1.668895 -2.355312 0.680178
1760 28.25763633 21.76474068 -5.87049039 1.977776 -3.538259 0.8013560000000001
1780 16.773216480000002 12.40006563 -9.20076957 3.138046 -2.5861490000000003 0.92254
1800 9.41123331 13.050910080000001 -3.13867026 3.040339 -0.129842 1.859813
1820 3.3096193200000004 7.69175613 4.3423180200000004 2.740267 -0.360781 0.733175
1840 -2.5723978200000004 1.66378581 -1.7289045900000002 4.186622 -1.469883 -1.013594
1860 -5.52426606 1.5359517 -8.661592350000001 3.724144 -1.145974 -0.0975
1880 1.69611957 -0.18231885 -5.17788477 2.827341 -0.941274 1.435281
1900 4.941669780000001 0.29593827000000006 -4.080361590000002 1.598702 -2.064454 2.593568
1920 3.2045346 -1.49898762 -5.242101030000001 0.661081 -2.984224 1.386448
1940 1.99729638 -1.6994157300000001 -4.96577295 -0.15880999999999998 -3.317663 -0.029973000000000007
1960 2.2001279400000002 0.42377238 -1.9387699200000001 -0.63831 -2.529695 -0.32916100000000004
1980 3.28626171 2.09609289 -1.45152684 -1.496801 -0.345003 -0.602876
2000 2.84348736 4.48138458 -0.050148719999999994 -2.045888 2.467577 -0.722479
2020 6.3165609 10.384807140000001 2.38259394 -1.552255 5.001332 -0.4840640000000001
2040 9.27321642 27.63838008 4.935832830000001 -0.736946 4.270212 -0.306517
2060 10.0382787 51.56597069999999 -10.4433336 0.235974 1.908395 0.206438
2080 3.7640773800000003 30.416150250000005 0.8095212000000002 1.22243 0.749819 0.571599
2100 5.069356740000001 20.33506071 -0.08128566000000001 0.813972 3.000679 0.409901
2120 12.33285732 19.833602940000002 -2.84408577 1.855842 0.746382 0.881539
2140 17.36897778 14.778166590000001 -2.27437002 0.5482630000000001 3.519215 0.703278
2160 13.64143284 8.68434174 -3.24629577 -0.8189069999999999 1.2946879999999998 -0.7156100000000001
2180 3.2040833400000004 3.0202733700000004 0.96219423 -0.940353 1.550318 -1.931355
2200 -5.3012258999999995 -3.1195113300000004 3.03493932 -1.523424 3.362738 -2.853216
2220 -6.19561341 -6.79153167 6.97430178 -0.522989 3.656588 -3.677681
2240 -4.68346077 -6.30698634 11.01514869 -2.00747 1.306388 -2.608271
2260 -7.139855340000001 -4.12048449 8.05684509 -3.756919 -0.789759 -1.438488
2280 -7.815401370000001 -1.00530918 -2.00672379 -4.292212 -2.285537 -0.144557
2300 2.31239358 2.65787235 -9.59864355 -3.863883 -2.174105 -0.143844
2320 11.65416228 7.3965732299999996 -12.405451320000001 -2.197839 1.324702 -0.100371
2340 11.41690743 4.07946888 2.3516139600000003 -0.918293 2.458807 0.4914310000000001
2360 0.7738912800000001 3.46739355 9.23339763 -1.605944 1.241698 -0.368527
2380 4.83374997 21.486323070000005 -4.21268868 -1.406089 -0.428053 -0.691867
2400 -0.48005235 4.88015127 5.21246502 -0.862883 -0.103008 -0.397933
2420 0.99438084 11.304494640000001 6.4158086700000005 -0.026539 -0.8238620000000001 -0.142271
2440 4.31657658 17.559232920000003 4.7542595400000005 1.138464 -1.851266 0.032757
2460 8.13498174 21.02542965 4.1794622100000005 1.602818 -2.069937 0.23497
2480 12.516225840000002 24.075780480000006 3.1603797900000004 1.586171 -2.155225 0.531929
2500 24.73920135 24.789654180000003 -3.4417894500000004 1.486921 -3.201463 0.918204
2520 18.1708668 15.275582640000001 -9.47844162 2.747678 -2.728037 0.5140710000000001
2540 11.32454628 12.998671830000001 -4.70172699 3.38287 -1.147202 1.302693
2560 5.240600100000001 9.61495758 2.7940940100000002 2.293618 1.147623 1.924531
2580 -1.2501962100000001 2.6800233300000005 -3.2335722000000002 3.972943 -1.91299 0.755525
2600 -5.10303447 0.6890151600000001 -5.375919240000001 3.460401 -2.636373 -0.115592
2620 -0.41329530000000003 -0.9392976900000001 -6.436762830000001 3.022749 -0.440385 0.947827
2640 5.45630238 -0.18157329000000003 -4.42554606 1.996807 -1.949096 2.438105
2660 4.43977056 0.17483382000000003 -4.613407560000001 1.0972959999999998 -2.415998 2.230526
2680 2.5400640600000006 -0.8482903200000002 -4.139790570000001 0.065466 -2.943485 0.773349
2700 1.04766876 -1.1195172 -3.90478221 -0.800849 -2.549512 -0.027964
2720 1.72172367 0.10073889000000001 -0.9515699999999999 -1.620271 -0.656143 -0.742209
2740 2.45115603 2.79633069 -2.2957754400000003 -2.194974 2.351524 -1.141047
2760 2.69439498 5.28655995 0.21630069000000005 -1.984969 4.493105 -0.618895
2780 8.837024580000001 11.80954287 1.7958186 -1.353808 4.679382 -0.33057800000000004
2800 13.14760725 32.96400345 5.26619439 -0.605572 1.219857 -0.302759
2820 11.034307620000002 46.998817290000005 -3.12206193 1.465998 -1.7803650000000002 -0.132757
2840 5.4148355100000005 29.399461470000002 -3.69491688 1.661139 1.534258 0.358946
2860 6.74767116 21.38857623 0.58662819 0.969712 2.322788 1.167091
2880 12.18436335 20.94713604 -0.8352626400000002 2.403511 -0.233528 1.967661
2900 15.43350402 14.614408260000001 -1.87575048 -0.927009 1.998417 0.546439
2920 10.993135050000001 7.16126076 -1.38297456 -1.094062 2.682329 -1.970198
2940 1.25723979 1.5769673100000001 0.65144286 -1.85354 3.2932410000000005 -3.30195
2960 -5.710175370000001 -5.21216091 4.39591005 -1.054792 3.429988 -3.559328
2980 -5.59401516 -7.79624244 9.13565079 -0.460099 0.670385 -2.609466
3000 -6.652916370000001 -6.1659774 9.35075466 -2.126841 0.6883739999999999 -0.870316
3020 -7.444024199999999 -3.84939495 4.18035492 -2.552254 1.782386 -1.0274450000000002
3040 -6.8034998700000004 0.12229146 -4.54814163 -3.566242 -1.31735 -0.469739
3060 3.4328133000000003 6.16717422 -15.53574384 -3.743655 -3.983283 -0.6950930000000001
3080 13.90353642 9.792783450000002 -13.13803269 -1.872366 0.447574 -0.280708
3100 14.130618300000002 3.5642378700000004 2.0857629600000003 -1.138019 2.332079 -0.126305
3120 4.934037600000001 8.552161799999999 9.36378234 -1.366923 1.393685 -0.222842
3140 0.8732862 12.426856740000002 6.80335272 -0.928737 0.313178 -0.52284
3160 -8.09891037 0.03726819 -11.20689495 -0.8363229999999999 -1.1318290000000002 -0.213763
3180 0.8469365400000001 13.833031950000002 7.726336379999999 -0.152406 -1.992082 -0.129903
3200 3.30063336 21.81069072 7.3575 1.212847 -1.758641 -0.284104
3220 7.8261727500000005 22.79819475 4.90454874 2.27472 -1.975088 -0.090539
3240 12.26878821 21.947805090000003 4.79557926 2.400847 -3.059009 0.200151
3260 25.472528280000002 22.71915558 -3.3552750600000003 2.768748 -3.4173480000000005 1.313063
3280 18.03404673 13.943953620000002 -10.706182740000003 2.368543 -1.863928 2.661714
3300 11.801753730000001 11.75790303 -9.48906585 2.493938 -0.5577880000000001 1.461303
3320 7.56691407 7.474258620000001 1.4431491 4.139606 -0.8248040000000001 -0.58746
3340 1.0270187100000001 1.39225482 2.5412608800000003 3.914113 -0.400393 -1.031823
3360 -4.90964013 0.37855809 -4.71594168 3.195078 -1.868049 0.581255
3380 -1.75344921 1.1569423499999998 -4.48272855 1.964287 -1.7122119999999998 1.836165
3400 4.79931687 1.4630535900000003 -4.1068584 0.8041739999999999 -2.324879 1.543631
3420 3.7975981500000002 -0.7020428400000001 -5.98545378 0.085753 -2.988212 0.486196
3440 2.3523595200000003 -2.3340933000000006 -2.36104137 -0.214392 -2.051487 -0.404793
3460 2.00597823 -1.8696094200000002 -4.01869593 -1.060792 -0.199458 -0.6149720000000001
3480 1.3371716699999998 0.7253906400000001 -2.23081362 -2.434217 2.523054 -0.67292
3500 5.4149924700000005 4.11464754 0.69231132 -2.222148 4.9435 -0.093427
3520 6.76652598 12.207416850000001 1.44748512 -1.212864 4.282506 -0.038529
3540 8.466697080000001 25.535547720000004 3.03793137 0.465075 0.7057770000000001 0.254445
3560 9.36512631 45.05600565 -11.29416471 2.012789 -0.049487 0.77256
3580 5.27548446 33.800315760000004 -1.09063656 0.675951 3.280586 0.062475
3600 6.52852557 22.359001050000003 1.3564777500000003 1.381629 1.4547139999999998 0.5130560000000001
3620 12.931757820000001 19.136651490000002 -1.4921010000000001 2.380322 2.183414 1.231602
3640 17.35730388 15.02395614 -3.33476235 -1.1646379999999998 2.06909 -0.402824
3660 10.7729496 11.03550444 -3.6706665600000004 -1.170649 1.946898 -1.806353
3680 3.0114345600000005 5.87917224 0.8598072600000001 -2.019467 3.289183 -2.9431130000000003
3700 -3.7482048 -2.08022031 3.40047954 -1.08637 2.616066 -3.518981
3720 -6.67297782 -9.07906671 6.943311990000001 -1.067825 -0.916501 -1.910924
3740 -6.333179040000001 -8.92130229 13.175899290000002 -3.824422 2.468312 -0.962434
3760 -7.3229197500000005 -5.91794136 6.594988320000001 -3.770128 -0.498925 -0.100471
3780 -6.71323806 0.03771945 -3.19675527 -3.5901120000000004 -2.538293 -0.41493
3800 3.8943051300000002 4.82251752 -15.99064335 -2.187684 0.019719 -0.103969
3820 13.59847485 10.90571814 -15.1143651 -1.301356 1.734475 0.01112
3840 10.161472680000001 4.40983044 9.421111980000001 -1.192974 1.202251 -0.18613
3860 -0.4309533 0.95366934 9.23564412 -0.653738 0.441326 -0.573426
3880 7.069350870000001 26.90086428 -14.369668380000002 -0.694208 -0.763225 -0.607416
3900 -1.30214016 7.136264880000001 5.2533236699999994 0.053908000000000005 -1.844006 -0.309181
3920 -1.10559681 9.696233430000001 6.686741250000001 0.94668 -2.0690470000000003 -0.483186
3940 3.4489801800000004 18.20708532 5.704485570000001 1.973656 -1.38357 -0.168175
3960 10.36654092 24.79549113 5.126843340000001 2.57553 -1.861482 0.275681
3980 15.86655666 24.999068250000004 4.55352732 2.881387 -2.440767 0.486863
4000 22.51273356 17.37287235 -3.44104389 3.061375 -2.629771 2.03942
4020 14.2897365 12.72968163 -11.420802 2.013221 -0.8288030000000001 2.517968
4040 10.671759450000001 14.20456608 -7.685615070000001 3.59341 -1.11091 0.304261
4060 5.95536651 7.921830060000001 1.39779747 3.717854 -0.678495 -0.845899
4080 -0.5620835700000001 5.978115900000001 -0.777933 3.187046 -1.807095 0.529846
4100 -4.59020691 1.51425198 -7.3688796000000005 1.7465389999999998 -1.513031 2.296929
4120 1.6242711300000001 -1.6651395900000001 -3.6456706800000003 0.93196 -2.0635790000000003 1.622169
4140 3.20079699 -0.67000338 -5.22084276 0.028018 -2.959475 0.5423720000000001
4160 2.34188244 -0.6412698900000001 -4.78360125 -0.385758 -2.194611 -0.162252
4180 1.3245952500000002 -1.19302353 -1.69013547 -0.8452379999999999 -0.518251 -0.466712
4200 1.0955709900000001 -1.54493766 -0.35611281 -1.617402 1.3319530000000002 -0.817376
4220 0.6860231099999999 -0.5998030200000001 -1.2094847100000001 -1.968694 3.241852 -0.744297
4240 3.55586013 2.52929268 1.28343249 -1.750259 4.238924 -0.39474
4260 6.93717093 12.0689487 -0.03847482 -1.094674 2.958081 -0.6010949999999999
4280 9.17651925 30.9713472 1.949247 0.577429 0.142398 -0.146768
4300 7.953859710000001 44.16954462 -9.963428400000002 1.977143 0.423126 0.629632
4320 5.11845579 33.964368390000004 -1.445994 0.429621 3.421602 0.175941
4340 8.53315983 21.422253960000003 0.18052362000000002 0.244824 2.293572 0.045773
4360 14.785798770000001 18.129694230000002 -3.22744095 4.166774 -3.558713 1.088
4380 15.827640390000003 14.181061320000001 -4.61326041 -1.78312 5.358884 -0.987131
4400 9.04928355 8.93522268 -3.62471652 0.361734 0.005461 -1.676725
4420 1.0785114 3.72440574 1.00800693 -0.757259 1.948987 -2.153845
4440 -6.040389780000001 -2.7946924200000005 2.7232854300000007 -2.060822 2.907919 -2.667312
4460 -7.205866830000001 -7.45374591 6.56999244 -1.6933169999999995 0.6763680000000001 -1.439839
4480 -5.9897898000000005 -7.72962273 10.726097039999999 -3.748796 3.503043 -0.848932
4500 -6.631363800000001 -4.69543878 6.97639131 -3.525886 0.686551 -0.7999689999999999
4520 -5.92542639 -0.77838426 -0.2026746 -4.1298080000000015 -2.274326 -0.424379
4540 1.37309589 4.61280915 -10.58553936 -2.827143 -2.166498 -0.54681
4560 12.70572561 9.10166895 -15.200889300000002 -1.193766 1.963973 -0.197794
4580 14.05411992 6.002670330000001 1.58415804 -0.98937 2.355218 -0.180844
4600 2.79333864 -4.380488730000001 10.4575581 -0.646349 0.336299 -0.42262
4620 -3.10289319 4.591550880000001 6.1052044500000004 -0.345793 -0.2474 -0.700715
4640 9.46392282 40.64617521 -0.81206199 -0.028886 -1.31624 -0.351028
4660 -5.774097330000001 10.08108954 -0.36972909000000004 0.842126 -2.385596 -0.086132
4680 -2.5812366300000003 5.785172820000001 8.13872916 1.62481 -2.339876 0.056008
4700 4.591854990000001 19.79468667 6.143826420000001 2.111346 -2.5958490000000003 0.509456
4720 15.20552943 27.853179840000003 6.474639240000001 1.894721 -3.757344 0.782896
4740 23.970548609999998 22.95671454 2.7093650400000007 2.977729 -3.331731 0.235509
4760 21.107755170000004 13.639931910000001 -6.1987624199999996 4.108378 -1.835843 1.324666
4780 11.080708920000001 14.204713230000001 -12.359795580000002 2.684885 3.50756 1.49802
4800 8.893010250000001 12.684477150000001 -5.89354389 4.065767 -1.024514 0.93236
4820 3.35183175 7.36393536 2.8880934300000005 3.714492 -3.07614 -0.117527
4840 -1.4934449699999999 3.42562257 0.59381892 2.396357 -0.415825 1.475394
4860 -4.81967262 -0.95965344 -9.944416620000002 1.148243 -1.253877 2.742139
4880 3.8172083400000005 -0.95816232 -1.5123096 0.6592180000000001 -2.2212240000000003 1.854407
4900 3.8944522800000003 0.1733427 -3.25213272 -0.07864700000000001 -2.405566 0.377479
4920 2.50997679 -1.5962832 -5.01816816 -0.8035909999999999 -0.775968 -0.25671900000000003
4940 1.57652586 -1.94386131 -2.95156413 -1.845446 0.781482 -0.954995
4960 1.6470205200000003 -0.28336185 -1.46410326 -2.612269 2.565782 -1.612117
4980 0.5577377400000001 2.13471486 -4.89258054 -2.137446 3.232508 -1.190912
5000 1.2040990200000001 3.77425035 -2.4441222600000003 -0.956427 2.077847 -0.907718
5020 8.57222325 9.358239690000001 3.8594207700000003 0.116052 0.406373 -0.49216
5040 14.55213438 33.82081866000001 7.106923170000001 1.6560439999999998 0.5122260000000001 0.471315
5060 12.119244570000001 52.18971993 -0.6227093699999999 0.856202 2.230282 0.6899890000000001
5080 4.21732881 28.73379411 -6.68389635 0.15022 3.3792910000000003 0.342823
5100 4.55832441 19.897073640000002 -1.11308184 5.485254 -5.05374 0.589584
5120 9.81688662 18.54987615 0.44427528000000005 -1.379771 3.93286 0.430771
5140 13.3586694 13.831383870000002 -2.7675972 -0.6935439999999999 1.239668 -0.6516390000000001
5160 10.51773264 6.87280752 -2.35774521 -1.028112 2.222727 -1.910397
5180 1.0584499500000002 0.99333117 0.7952967000000001 -2.496944 2.889267 -3.218332
5200 -6.591397860000001 -5.99323311 3.7187159400000005 -0.654712 2.230534 -2.853175
5220 -6.55681761 -9.14777595 7.27008309 -1.909782 0.85664 -1.04634
5240 -6.702309720000001 -5.7637674 8.92264626 -2.940865 1.220325 -1.058281
5260 -7.29582453 -2.57284908 2.7226870200000004 -3.661059 -2.3731150000000003 -0.368636
5280 -5.324132250000001 1.8938597400000001 -3.3477900300000005 -4.101436 -4.573135 -0.728883
5300 2.3812499700000003 6.301747800000001 -10.50216417 -2.3199650000000003 -0.211109 -0.339606
5320 15.40267119 9.721239120000002 -13.27199805 -1.533943 2.6110130000000003 -0.539626
5340 14.05188324 2.6262841500000005 -0.06675705 -1.2829959999999998 1.28167 -0.255227
5360 1.82889792 -2.97296955 12.3809067 -0.8431690000000001 0.101201 -0.067976
5380 7.5712599 35.339259510000005 -26.12576637 -0.634147 -1.198788 -0.16099000000000002
5400 0.16435674 13.4830602 8.54124327 0.436411 -1.618845 -0.205317
5420 -6.6524651100000005 -5.61302694 3.07580778 1.449048 -1.901153 -0.28120300000000004
5440 0.38080458 14.058318600000002 7.56182268 1.806557 -1.864951 0.211562
5460 5.748650189999999 25.15998168 6.28243191 1.540381 -3.162397 0.693133
5480 12.16056429 27.034682490000005 5.89354389 1.893021 -3.543798 0.661902
5500 21.27031668 22.6303947 -0.94618431 3.373063 -1.540248 0.237043
5520 17.2830618 13.57856055 -10.17389214 3.06696 -0.7009890000000001 3.206691
5540 12.400516890000002 13.09357377 -10.09590264 1.707395 -0.8119310000000001 1.495659
5560 11.27515293 10.720858500000002 -3.3247365300000005 3.692846 -2.342997 -1.221023
5580 4.412224080000001 4.7862990000000005 4.748422590000001 4.2540809999999984 -0.572617 -0.881813
5600 -2.4587882100000003 2.380651560000001 0.37048446 2.692885 1.327346 0.8578
5620 -4.10700555 -0.45894123000000003 -8.33796045 1.302768 -1.601627 2.19353
5640 2.79453546 -0.12469491 -3.75599394 0.587658 -1.567575 2.289972
5660 2.06165979 -1.0931773500000002 -6.44769117 -0.301589 -1.395119 0.429106
5680 0.30910329 -0.50939406 -3.07385559 -0.929311 -0.686362 -0.444651
5700 0.37721412000000004 -0.19025514000000002 -2.59829622 -1.698624 0.450744 -0.956751
5720 2.2252709700000004 -0.2282787 -1.1115907199999997 -2.121547 1.52692 -1.45033
5740 2.77986951 2.38558599 -4.48198299 -1.473559 2.588982 -0.942964
5760 2.0737849500000003 3.2516912700000002 0.69754986 -0.479853 2.9996 -0.8607049999999999
5780 8.577461790000001 8.23572063 4.8675748500000005 0.27567600000000003 1.009898 -0.5089100000000001
5800 12.50005896 28.606715370000003 5.23341918 1.4759790000000002 0.676459 0.58201
5820 11.36002905 58.70552193 -5.057231580000001 1.027702 1.573012 0.806329
5840 1.1731092300000001 30.42588177 -0.76925115 0.236584 2.799853 0.250165
5860 0.25327458 15.410607480000001 -1.10380158 1.39694 0.143188 0.542617
5880 6.783291270000001 17.963846370000002 -1.8347348700000001 1.108003 6.542669999999998 0.966096
5900 13.092524100000002 18.04258143 -0.7881157799999999 -0.186306 -0.488446 -1.297497
5920 14.14034982 10.43898777 -1.23163569 -0.030596 1.6579700000000002 -2.467795
5940 5.65000083 3.77604558 -1.4392545300000001 -0.685824 2.752284 -2.767535
5960 -3.93427107 -2.060168670000001 0.46778004 -0.941517 2.397541 -2.012565
5980 -5.354219520000001 -5.50345905 3.0756508200000003 -2.74179 2.055725 -1.552548
6000 -3.70793475 -5.44971987 7.040313270000001 -3.56624 0.584784 -1.421826
6020 -4.63182093 -3.3277285800000005 7.86180267 -4.134633 -1.001196 -0.451682
6040 -4.803358590000001 -2.54979558 3.12474987 -4.101072 -2.674378 -0.572149
6060 -3.4655885100000003 3.62546208 -7.3070569800000005 -2.789238 -0.56891 -0.498386
6080 7.71660486 5.77633401 -11.13863697 -1.268795 2.46333 -0.334622
6100 13.06513458 7.027736850000001 -5.7148155 -1.074728 1.788089 -0.272581
6120 7.112760120000001 -1.9636186500000001 7.565570100000001 -0.645174 0.020322 -0.525825
6140 -2.45714013 1.4368608900000002 9.47110374 -0.514695 -0.912033 -0.579266
6160 11.49549534 36.93838761 -16.60976226 0.254338 -2.280578 0.001494
6180 -1.7744131800000003 13.97045043 1.9404180000000002 1.3392389999999998 -2.628113 -0.07594
6200 -5.23955043 2.22886143 6.09621849 2.336136 -1.7360369999999998 0.015338
6220 3.3063231600000003 17.835413850000002 5.49686673 2.579165 -1.761264 0.5180640000000001
6240 11.836785240000001 25.74541305 2.40744267 2.581212 -3.0274240000000003 0.935239
6260 14.87262708 20.281919940000005 1.0642869000000001 2.936121 -3.2088080000000003 2.029673
6280 20.672907300000002 15.525718020000001 -0.3150972 2.0018700000000003 -1.4369999999999998 2.775042
6300 15.7994955 15.967148400000001 -7.38010224 3.0729900000000003 -1.355791 0.721819
6320 12.145290120000002 15.3972855 -8.183786490000001 4.010767 -1.306776 -0.891117
6340 7.70522526 12.713063490000001 -2.51537229 3.240612 -1.645077 -0.072464
6360 2.91099978 6.940162980000001 0.38319822000000003 1.97162 -1.053693 2.051153
6380 -4.1294606400000005 2.15416809 -4.10266953 0.997929 -1.938551 2.265539
6400 -1.20933756 -0.5396284800000001 -7.16814738 0.05265 -2.571041 1.150933
6420 4.9457115 0.30850488000000004 -2.08456614 -0.5231600000000001 -2.087723 0.132549
6440 3.1385231100000004 -1.04542227 -5.8189977 -0.917281 -0.791071 -0.377135
6460 1.3103707500000001 -1.14900606 -3.9362134500000003 -1.763211 1.005143 -0.748541
6480 0.73362123 -0.2484873 -0.9699833700000001 -2.24023 2.763904 -0.8652219999999999
6500 1.601973 -0.11720988 -0.14833701000000002 -1.845006 3.991271 -0.4517
6520 3.4447913100000007 2.40310665 -1.3130685 -0.93182 2.914845 -0.32002800000000003
6540 6.7758062400000005 7.309597770000001 1.04766876 0.564372 0.835895 0.12998900000000002
6560 7.78605966 17.43125166 2.6072821800000003 1.973041 0.7170770000000001 0.649523
6580 11.889180450000001 46.88505072 1.52922204 0.734275 2.611009 0.423731
6600 4.02123672 36.22691736 -5.617372770000001 -0.18444 1.940462 0.01118
6620 3.80763378 22.079082510000003 -1.15514712 1.886887 -1.089793 -0.033494
6640 9.20809764 17.61835779 -2.3725681200000004 -0.256405 6.272925 -1.25324
6660 15.47706042 17.03517291 -2.49935256 -0.281437 1.455455 -1.690553
6680 12.09305187 10.93041972 -2.6710471800000004 -0.222552 2.051392 -1.853275
6700 3.51588438 5.55404922 -0.53020107 -1.050411 2.615252 -2.016809
6720 -4.32914319 -0.63393201 0.35221824000000007 -1.220278 2.053005 -0.860391
6740 -6.081552540000001 -6.11149266 1.6681316400000001 -2.863639 3.79428 -1.18709
6760 -3.96780165 -6.004916820000001 6.73913646 -3.106233 1.024613 -1.255738
6780 -5.7725964 -3.2651604000000005 9.12892113 -4.1042 -2.5034810000000003 -0.416429
6800 -5.3387982 -2.52015957 3.3590126700000003 -3.755533 -4.3110019999999984 -0.515295
6820 -1.5067669500000003 2.6473952700000005 -5.3473329 -1.8413580000000005 0.8758459999999999 -0.58121
6840 9.12442815 8.73059589 -13.197157559999999 -0.432879 3.442012 -0.183691
6860 13.404776400000001 6.7907763 -5.29254405 -0.971517 0.902933 -0.383957
6880 3.6833901300000003 -1.9143724500000001 6.937475040000001 -0.269847 -0.191146 -0.449225
6900 -4.17870684 -3.04421958 10.00474812 -0.245842 -1.256408 -0.207342
6920 5.113815659999999 28.71628326 -28.52647938 0.670227 -2.026496 0.303176
6940 0.4801995 24.99787143 6.7020154199999995 2.129648 -1.148367 0.018484
6960 -6.544839600000001 -3.4359525000000004 -3.93172047 2.663281 -1.376889 0.226534
6980 2.2788630000000003 14.20395786 6.946451189999999 2.279309 -3.122903 0.831772
7000 12.95376165 27.64376577 6.60396447 2.595991 -3.660599 1.288667
7020 19.4378283 22.68442818 4.50054351 2.409173 -2.889653 2.326822
7040 24.271578270000003 14.26503492 -3.50451459 1.465049 1.296 1.501947
7060 14.32535661 13.48695477 -10.47896352 3.902828 -1.255419 -0.32150700000000004
7080 10.02704625 14.499444870000001 -9.94381821 3.259681 -2.3633450000000003 -0.287192
7100 8.358169049999999 13.2342786 -0.97656588 2.248752 -1.173828 1.750936
7120 3.67425702 5.86689993 3.5685837 0.984807 -1.7553450000000002 2.282305
7140 -4.43872089 1.7571966300000001 -4.63481298 0.09745 -2.315611 1.171215
7160 -3.0054504600000005 -0.01571562 -7.361237610000001 -0.422522 -2.384513 0.472258
7180 5.24359215 0.21525102000000002 -0.46194309 -0.6921649999999999 -1.172424 -0.043925
7200 4.574785590000001 -1.16337771 -6.949747350000001 -1.363726 -0.230071 -0.422633
7220 2.64230388 -2.27946141 -4.8580002900000006 -1.959517 0.907044 -1.087344
7240 0.9756731700000001 -0.08382645000000001 -0.37331955 -2.147459 2.695525 -1.1614520000000002
7260 1.7232147899999999 1.27444653 -1.0065060000000001 -1.4662959999999998 3.77337 -0.899565
7280 4.995408960000001 4.17901095 -2.01106962 -0.345976 2.459981 -0.563181
7300 6.8114361599999995 8.048163240000001 1.43611533 1.154774 0.34743 0.026849
7320 6.72970905 18.90374247 2.71026756 2.008719 0.980393 0.570387
7340 11.15734464 48.36831291 1.43132805 0.237988 3.723956 0.38786
7360 3.88217997 32.971488480000005 -3.2244489 1.725557 0.8991809999999999 0.346323
7380 5.968237230000001 20.675153790000003 -1.5844523400000003 0.855461 2.618685 0.530321
7400 13.621077090000002 17.843791590000002 -3.60704871 -0.623181 1.400759 -0.23902
7420 15.64695981 16.29750996 -5.200938270000001 -0.492121 2.625477 -1.595248
7440 9.469004400000001 9.90176274 -3.17220084 -1.362795 3.355503 -2.515595
7460 2.69634717 5.30017623 0.34293798000000003 -0.333321 2.791653 -3.06102
7480 -4.44874671 1.32894108 0.9860031 -1.542033 0.923164 -2.8139
7500 -5.404515389999999 -4.0806657 1.69747335 -2.7735950000000003 0.689988 -1.777483
7520 -4.078115100000001 -6.48616599 5.51962593 -3.412554 -1.221392 -0.623681
7540 -5.44597245 -4.780305090000001 8.36715501 -3.974776 -3.102775 -0.376301
7560 -5.11830864 -3.20064003 4.9891207500000005 -3.274379 -1.2995709999999998 -0.107732
7580 -2.98928358 0.5900715000000001 -3.28910661 -1.859238 1.182876 -0.091415
7600 6.20324559 7.771540860000001 -11.4874119 -1.481603 2.447928 0.237546
7620 13.88078703 9.98543223 -10.755281790000002 -1.413912 -0.015611000000000003 -0.197863
7640 9.02233548 1.08538821 1.3090267800000002 -0.7500640000000001 -0.731537 -0.491411
7660 -0.40505490000000005 8.56009809 12.496762799999999 0.16711199999999998 -1.050994 -0.252791
7680 6.79272849 29.452307940000004 6.32569401 1.164148 -1.699671 -0.070875
7700 -2.9196816300000004 0.18202455 5.43145365 1.823442 -1.881199 -0.001944
7720 -1.8369813600000002 6.512054580000001 7.37965098 2.402629 -2.016798 0.37188
7740 3.1193641800000007 22.279216320000003 4.858893 2.540235 -3.221834 0.8369260000000001
7760 8.84061504 24.640110540000002 2.17557351 2.641995 -3.029347 1.894929
7780 12.012521580000001 21.17631726 1.9570263300000001 2.033441 -1.2075870000000002 2.387204
7800 21.927449340000003 20.407507560000003 -2.059119 3.298365 0.33000100000000004 0.9274
7820 17.73286992 15.63244101 -9.05617017 3.649302 -1.012497 -0.644055
7840 12.73551858 11.79217917 -6.7657804200000005 3.2410650000000003 -1.5448309999999998 0.165624
7860 8.73463761 9.52244928 -0.10777265999999999 2.516034 -0.939775 1.86253
7880 2.1171942 2.6304828300000005 0.22677777 1.187353 -1.799695 2.27523
7900 -2.18096901 -0.53618517 -2.0796219000000002 0.275607 -2.706473 1.259486
7920 -2.14174863 1.9583801100000002 -9.46316745 -0.236258 -2.621096 0.333926
7940 3.1132231200000002 -0.46209024000000004 -6.0514652700000005 -0.6173810000000001 -1.479114 -0.135945
7960 2.83750326 -0.1938456 -3.4932821400000003 -1.285961 0.008062 -0.633903
7980 2.06390628 -0.13097330999999998 -2.45040066 -2.080644 1.640736 -1.177793
8000 1.76198391 -0.64156419 -2.6069780700000003 -2.193141 3.654678 -0.956833
8020 1.9293425100000001 -0.43050204000000003 -0.16525926000000002 -1.1715209999999998 4.029389 -0.7108949999999999
8040 3.75882903 2.31029424 -0.33994593000000006 0.037216 1.3029700000000002 -0.332559
8060 5.47935588 8.11627407 0.41463927 1.619282 0.126992 0.670241
8080 6.330932550000001 17.54621505 2.26958274 0.6910890000000001 2.920409 0.609971
8100 10.86605631 41.503892939999986 0.5837832900000002 0.753908 2.506612 0.938885
8120 5.116954860000001 36.72986625 -6.61369599 2.134469 0.6917810000000001 1.506329
8140 5.27742684 23.06209356 0.15717582000000002 -1.129214 1.289758 -0.2798
8160 11.770322490000002 18.29690568 -1.98172791 -0.767994 2.119786 -1.9672
8180 15.792314580000001 15.740812080000001 -4.04503578 -1.517692 3.458564 -2.845821
8200 13.78768032 11.30718258 -4.17047625 -0.155937 3.341839 -2.808386
8220 6.20324559 7.25062005 -0.74141037 -0.363275 0.56298 -1.942082
8240 -1.6916364000000002 3.02042052 1.07401842 -2.816327 2.381624 -1.735084
8260 -5.97572226 -2.44037484 2.4179197500000003 -3.084501 -0.347395 -1.291216
8280 -6.84496674 -5.95821141 6.13034748 -4.057931 -3.269961 -0.320052
8300 -6.647079420000001 -6.01883721 10.26879408 -3.681305000000001 -2.941502 -0.468461
8320 -6.29845164 -3.48983883 5.524560360000001 -1.873232 1.0204799999999998 -0.226968
8340 -4.48452378 0.94154418 -4.332439350000001 -1.40045 2.7329 0.031581
8360 6.370300080000001 5.529347639999999 -12.312795870000002 -1.276661 0.334549 -0.237946
8380 15.167662830000001 8.83358127 -10.06581537 -0.812326 -0.392359 -0.5424869999999999
8400 10.55485368 3.33042633 8.37747513 -0.216591 -1.542365 -0.117041
8420 7.089706620000001 20.60136297 -3.17789064 0.924478 -2.050534 -0.032576
8440 0.68587596 13.694720760000001 4.102218270000001 1.875289 -1.47997 -0.217877
8460 -7.388784090000001 -2.9876355 -3.51709101 2.443838 -0.848727 0.204028
8480 1.26906084 15.185772089999999 8.02766034 2.679271 -2.298314 0.735232
8500 5.651197649999999 24.79758066 5.676644790000001 2.940428 -2.620475 1.418995
8520 9.211246650000001 21.40563582 4.36776516 2.780984 -1.57643 2.336282
8540 14.54390379 19.723289490000003 0.90247095 2.349015 1.792121 1.874954
8560 21.924310140000003 19.90845324 -5.604492240000001 3.764025 -1.344674 0.8056810000000001
8580 15.14056761 13.815373950000001 -9.30000753 2.705145 -2.912268 0.535374
8600 12.74973327 12.174180569999999 -5.17788477 2.220401 -1.281219 2.257213
8620 6.42778668 7.494467220000001 3.28312251 1.129923 -2.339057 2.40798
8640 -0.49531671000000005 1.90105047 0.68587596 0.28935700000000003 -3.046149 0.944892
8660 -5.3100549 -0.07304525999999999 -9.51721074 -0.07562200000000001 -2.931882 0.126074
8680 2.3221251 0.91490022 -4.62582702 -0.553285 -1.7751740000000005 -0.213098
8700 3.8838280500000004 -0.08981055 -5.2398545400000005 -1.26054 -0.195795 -0.558688
8720 3.02401098 -1.05051366 -4.976102879999999 -2.108511 1.638596 -1.1512790000000002
8740 0.6017454 -0.47930679000000004 -3.76810929 -2.252437 3.622285 -1.328947
8760 0.93255822 -0.08861373 -0.13381821000000002 -1.348493 3.682221 -0.8516239999999999
8780 1.67546952 0.58184091 -1.0383885000000002 -0.269226 1.673779 -0.622526
8800 3.6512035200000006 4.168533870000001 -0.8476919100000001 1.30121 0.256027 0.113447
8820 5.99937417 9.425153700000001 1.14407163 1.275951 1.885581 0.480787
8840 7.8740749800000005 23.64018705 3.2388107400000004 -0.029855 3.649398 0.084846
8860 11.882892240000002 45.110039130000004 2.9410870500000006 1.58066 0.699333 0.099875
8880 7.14554514 32.479163820000004 -8.27853147 0.937359 2.901246 0.393799
8900 9.222322140000001 21.989723220000002 0.04027005 -1.947129 1.514477 -0.622292
8920 14.053678470000001 17.64231381 -4.76773848 -0.881042 1.6909459999999998 -1.453625
8940 16.04887551 14.709457350000001 -6.32674368 -1.277328 3.161255 -2.497657
8960 10.4606973 9.19343169 -1.8359316900000002 -0.290754 2.599475 -2.991042
8980 2.06825211 6.0119505900000005 1.62501669 -1.578361 -0.226014 -2.047835
9000 -5.023406700000001 0.74844414 2.20357125 -2.589009 0.864425 -1.604433
9020 -7.693698510000001 -5.121899100000001 4.2906781800000005 -3.684564 -1.845962 -0.308587
9040 -6.95888046 -6.38617266 8.049212910000001 -3.691788 -3.543623 -0.399397
9060 -7.1756324099999995 -5.125793669999999 7.059472199999999 -2.935854 -0.401165 -0.229364
9080 -5.6896724700000005 -2.23440408 -0.44621766 -1.232147 2.315213 -0.089554
9100 2.03696802 3.1326861600000004 -7.587868230000001 -1.321458 1.825941 0.065342
9120 10.83836268 7.8879953700000005 -12.093797430000002 -0.996529 0.296982 -0.410061
9140 14.15590848 5.98155921 -1.9928034 -0.6376569999999999 -0.900176 -0.507501
9160 4.83688917 -0.77403843 7.93709442 -0.248677 -1.827517 0.091404
9180 -0.32242527000000004 12.777731009999998 1.06698465 0.773759 -2.638907 -0.08308099999999999
9200 4.629427290000001 21.71250243 6.31282329 2.107244 -1.34988 -0.184377
9220 -4.739142330000001 1.35812583 -2.69619021 2.83973 -1.317717 0.194576
9240 0.28965006000000004 11.746072170000001 7.152726060000001 3.254946 -2.495717 1.1165889999999998
9260 4.89347325 23.404129020000003 6.104606040000001 2.826117 -2.704442 2.800583
9280 9.85190832 23.82565491 4.863984390000001 1.033002 -0.485762 2.563025
9300 14.42085696 19.44127161 0.85741362 3.636497 -2.178686 0.093354
9320 20.50481295 18.27055602 -6.42478482 3.5381050000000003 -1.398313 -0.501196
9340 13.774652640000001 13.723915320000001 -8.004008429999999 3.390993 -0.794828 0.555611
9360 11.781250830000001 12.41907741 -4.870125450000001 1.988015 -1.91439 2.291652
9380 6.60456288 8.603811450000002 4.135896 1.089636 -2.421666 1.790372
9400 1.08643788 3.1654711800000004 -1.63534662 -0.014747 -3.124704 0.873434
9420 -4.4945496 1.3108220099999999 -7.6031424 -0.531759 -2.611559 0.336122
9440 0.9324110700000001 1.03853565 -4.89706371 -1.011085 -1.296443 -0.188067
9460 4.13260965 1.0788057 -2.21464674 -1.68439 0.727942 -0.7593850000000001
9480 4.0342644000000005 -0.8990276400000001 -5.74684515 -2.38378 2.799735 -1.176055
9500 1.7598943800000002 -1.66304025 -4.72971492 -2.056537 4.119912 -0.736421
9520 0.9310671 -0.6631167600000001 -0.66536325 -0.825213 2.777423 -0.67803
9540 2.11090599 0.3617928 0.91624419 0.614428 0.34970300000000004 -0.339056
9560 5.551204320000001 5.45256477 1.1229605100000002 2.076553 0.176797 0.340086
9580 5.8685480100000005 12.90540816 0.41134311000000007 0.414751 2.315631 0.242416
9600 8.13019446 29.253213990000003 -0.52840584 0.526133 2.768564 0.364391
9620 7.795339920000001 44.14530411 -5.74145946 4.803021 -2.266595 1.350367
9640 4.322707830000001 28.904743170000003 -0.05867361000000001 -1.6814490000000002 2.101481 0.202411
9660 9.166336470000001 21.69858204 1.03225725 -0.521949 2.42871 -0.848517
9680 15.021709650000002 18.23702544 -2.65473315 -1.495418 2.754408 -2.3309490000000004
9700 16.13853891 13.153748310000001 -3.80464173 -1.011001 3.19265 -2.853692
9720 8.245305 8.18317827 -2.70352809 -0.714857 1.2061110000000002 -2.361968
9740 0.29847906 3.5610986700000002 1.15978725 -2.956591 2.208828 -1.558517
9760 -5.463640260000001 -1.04857128 1.43985294 -3.046313 -0.035897000000000005 -1.167435
9780 -6.43826376 -6.04293057 4.74258564 -4.159046 -2.456995 -0.272662
9800 -5.2403058 -7.67528514 9.49999419 -4.016506 -3.330745 -0.339981
9820 -6.80335272 -5.2834109400000004 7.131320639999999 -2.726032 0.045314 -0.177196
9840 -6.09038154 -0.5269049100000001 -0.86685084 -1.1783 2.088638 0.047845
9860 1.84999923 4.87835604 -10.043213130000002 -1.4062940000000002 1.787438 -0.089025
9880 12.700339920000001 9.80281908 -14.73640542 -0.890418 -0.143157 -0.722813
9900 14.087356200000002 6.405930000000001 -1.78623423 -0.385841 -1.328281 -0.227456
9920 2.9692221300000003 -1.6709765400000003 11.465260920000002 0.975268 -1.663929 0.211907
9940 1.95822315 23.051763630000004 -11.49415137 1.868732 -1.696422 -0.162098
9960 2.71520199 16.90300278 5.314253580000001 2.585354 -1.25369 0.121146
9980 -7.792799130000001 -3.9833701200000005 1.5976271700000002 2.355363 -2.79208 0.6193029999999999
10000 -0.13517199 12.224182140000002 6.611449500000001 2.417827 -3.600667 1.107884
10020 6.20699301 23.68375326 5.291200080000001 2.574102 -2.5058 2.095678
10040 11.10914811 23.700067290000003 4.37525019 2.067226 0.8194170000000001 1.879573
10060 16.3201122 19.91608542 1.50916059 3.695654 -1.169669 0.524036
10080 21.196074600000003 16.295410620000002 -5.17848318 3.402297 -1.653604 -0.211261
10100 14.615909190000002 13.76702046 -8.02256895 3.04957 -1.420277 0.884108
10120 10.699001820000001 12.43224243 -5.19793641 1.5617370000000002 -1.346017 2.515478
10140 4.854252870000001 8.70589431 2.7280727099999997 0.425285 -2.567504 1.807283
10160 -0.65818233 3.8537407800000003 -1.13703786 -0.388072 -3.390704 0.584883
10180 -3.9764835 1.3135197600000001 -5.22698382 -0.802254 -2.313314 0.046499
10200 -0.46972242000000003 1.3787856900000002 -5.82378498 -1.525778 -0.596295 -0.339974
10220 4.17257559 0.7093709100000001 -5.1302768400000005 -2.301767 1.7250759999999998 -1.032031
10240 3.1467537 -1.0448238600000002 -4.81892706 -2.242097 3.498988 -1.14071
10260 1.0464719400000002 -1.59133896 -2.5177659300000004 -1.230253 3.552203 -0.940362
10280 2.21434263 -0.56148516 -0.7577244000000001 -0.463412 1.902449 -0.629516
10300 2.4141821400000003 0.65683836 -1.6997198400000002 0.399698 0.750084 -0.112469
10320 4.55368428 4.59829035 -1.2969016199999999 1.635625 -0.161354 0.304324
10340 6.448289580000001 9.67767291 1.5706791 0.30335300000000004 2.929618 0.241919
10360 7.92946224 24.04944063 4.692888180000001 1.701446 1.611579 0.966946
10380 11.511210960000001 46.844486369999984 -2.58272775 1.510633 1.59764 1.154707
10400 5.44058676 31.206208410000002 -3.9751297200000004 -0.974632 1.316594 -0.464626
10420 6.816076290000001 22.35511629 0.65653425 -0.321646 2.35486 -2.531609
10440 14.499150570000001 17.143700940000002 -2.8945287900000003 -1.785225 2.600308 -3.767397
10460 18.01249416 13.73604048 -3.9037325400000005 -0.351202 1.904537 -2.57824
10480 11.71732887 9.18579951 -3.4358053500000003 -2.040597 1.472517 -1.23605
10500 2.5390242 4.62388464 0.86205375 -3.253839 0.597425 -1.124831
10520 -5.745648330000001 -0.80038809 1.8811361700000002 -3.792201 -1.115838 -0.317752
10540 -6.849606870000001 -6.807992850000001 5.54342499 -4.398603 -3.573475 -0.313497
10560 -6.63524856 -6.227201610000001 9.234143190000001 -3.122291 -0.7629229999999999 -0.176792
10580 -7.58906505 -3.1593301200000004 6.15385224 -1.195529 2.303722 -0.177945
10600 -7.10961111 -0.53663643 -0.64290816 -1.233485 2.012699 -0.094516
10620 -1.5010771500000002 1.95044382 -5.68563075 -1.075717 0.487807 -0.642663
10640 9.02144277 7.236846810000001 -10.83761712 -0.892417 -0.90015 -0.559487
10660 14.864837940000001 9.146883240000001 -6.7916788200000004 -0.348051 -2.07123 0.118796
10680 8.491545810000002 0.3239262 5.607337139999999 0.634119 -2.727436 -0.200379
10700 4.13230554 16.885482120000002 -3.48939738 2.112334 -1.806129 -0.111117
10720 4.431235860000001 23.220907650000004 7.35376239 2.794788 -1.205214 0.33726
10740 -8.96485869 -3.51977895 -10.314155520000002 2.9486 -2.195911 0.7337779999999999
10760 1.07102637 11.709098280000001 9.49071393 3.33218 -2.392368 1.843387
10780 5.383257120000001 24.174429840000002 6.805295100000001 2.579219 -1.074093 2.629059
10800 10.96005573 24.018607799999998 5.711676300000001 2.672239 0.537181 1.340436
10820 17.615817000000003 19.29502413 -1.31980797 3.895326 -1.012453 -0.06977
10840 19.72552617 15.945291720000002 -6.09248088 2.978133 -2.261364 0.027973
10860 13.855487040000002 14.81454207 -7.80940746 2.3082 -1.080932 1.911465
10880 10.15683255 14.312338740000001 -5.462590590000001 1.02892 -1.64281 2.0741650000000003
10900 4.5333187200000005 7.659422370000001 4.099824629999999 0.095945 -2.669202 1.152429
10920 -1.5606532800000001 2.8891431 -2.88195237 -0.441615 -2.612464 0.21818
10940 -5.08836852 0.45146601000000003 -8.82639054 -0.823091 -1.248093 -0.187884
10960 2.7770246100000002 0.75398679 -2.3305028400000003 -1.59777 0.539071 -0.7553340000000001
10980 4.13230554 0.34743096000000007 -4.752768420000001 -2.364154 2.30159 -1.293852
11000 3.1085829900000004 -1.4449443300000002 -6.052514940000001 -1.994345 3.711598 -0.97795
11020 1.05111207 -1.46290644 -3.0305934900000002 -0.689723 2.996359 -0.933738
11040 1.30573062 -0.42736284 -0.76311009 0.463559 0.702933 -0.364063
11060 1.5609573900000002 0.9196875 -0.31374342 2.042802 0.4860140000000001 0.5637810000000001
11080 3.55061178 4.25205621 -0.668061 0.869965 3.086994 0.620621
11100 6.33901599 10.56128904 0.8786718900000001 3.972989 -1.041538 2.337514
11120 9.64743849 27.282414420000002 2.8834533 0.221186 0.720175 1.126528
11140 11.734702380000002 47.237121810000005 -5.604796350000001 -1.093838 1.971902 0.12977
11160 4.81129488 29.92143195 -3.63668472 -0.8114180000000001 3.1520330000000003 -2.194221
11180 7.18969995 20.723360130000003 0.17303859 -2.394551 3.55242 -3.976904
11200 14.381342279999998 17.73407655 -1.3674060900000002 0.014143 2.676505 -3.337252
11220 15.776442000000001 14.090946660000002 -4.04563419 -0.377578 -0.74843 -2.447907
11240 9.14523516 8.54063505 -2.43678438 -3.0343150000000003 1.490425 -1.123373
11260 1.10140794 3.8884681800000003 0.7973960400000001 -3.656177 -0.872869 -0.191063
11280 -6.37419465 -1.49868351 2.05148682 -4.54253 -3.534579 -0.059247
11300 -6.736291560000001 -6.623721810000001 4.6217853 -2.83028 0.104415 0.051667
11320 -4.9850790300000005 -6.03529839 9.987080310000001 -1.485606 3.0420130000000003 0.05943200000000001
11340 -6.204599370000001 -3.59626752 7.91628741 -1.473912 1.699359 0.15096500000000002
11360 -6.23438253 -0.08906499000000001 -0.26509562999999997 -1.036167 0.490921 -0.656277
11380 -0.034276140000000004 4.43303109 -8.152051140000001 -0.984947 -0.665307 -0.8659459999999999
11400 11.967611400000001 7.66301283 -14.13450306 -0.31495500000000004 -1.755364 -0.045884
11420 15.388005240000002 7.60658571 -3.7770952500000003 1.161449 -2.737391 -0.033245
11440 10.503959400000001 12.87397692 6.915765510000001 2.319955 -1.363945 -0.048277
11460 4.51640628 21.025723950000003 11.321858340000002 2.579943 -0.906791 0.4870640000000001
11480 -10.961252550000001 -7.07054769 -6.80081193 2.507143 -3.003168 1.060741
11500 -3.5325025200000004 8.182736819999999 12.24603882 3.085318 -3.196961 1.602343
11520 2.57868603 23.9927094 6.64782498 2.677165 -1.42475 2.323612
11540 8.0836362 24.78380742 2.33020854 2.639795 2.4097630000000003 1.411517
11560 11.044480590000001 23.2782471 4.25624508 3.984991 -1.268207 0.140556
11580 25.81426944 21.731062950000002 -3.2241447900000004 3.18019 -1.898724 0.5395300000000001
11600 19.782267210000004 13.018282020000001 -9.29956608 2.267707 -0.981856 2.477213
11620 13.080398940000002 12.13436178 -7.806719520000001 1.117858 -2.041494 2.0646150000000003
11640 6.283187280000001 9.53412318 3.0292495200000005 0.199831 -2.568522 0.926563
11660 0.01018278 3.4462824300000006 0.27243351000000005 -0.513841 -2.59601 0.162107
11680 -5.8853133 1.84715433 -7.907458409999999 -0.842983 -1.393043 -0.418573
11700 0.30117681 1.46530008 -5.68412982 -1.640946 0.400735 -1.0214450000000002
11720 4.722828300000001 1.2603789900000002 -4.23993105 -2.703568 2.272824 -1.531195
11740 3.9775331700000005 -0.7893126 -5.967187560000001 -2.173878 3.936782 -0.925013
11760 1.6799526900000001 -2.45549205 -4.313280420000001 -0.572024 2.580668 -0.7112609999999999
11780 1.3049850600000001 -1.20858219 -2.20790727 0.858174 0.549937 -0.008597
11800 1.81093581 0.032932170000000004 -0.10448631000000001 2.126488 1.489524 0.752154
11820 2.6095188600000006 2.2050623700000003 -2.76400674 0.37821 3.232962 0.508041
11840 6.10026021 7.005733020000001 1.16009136 4.19624 -2.2916060000000003 1.7371299999999998
11860 7.341185970000001 15.36689412 2.20865283 -0.4881470000000001 1.928586 1.111479
11880 13.268858849999999 43.91418051 6.56145774 -0.892907 0.636154 -0.337133
11900 6.22270863 39.065911740000004 -15.384856230000002 -1.096369 3.244078 -2.321311
11920 6.157746810000001 24.592208310000004 -1.91631483 -2.3071900000000003 4.751348 -4.175451
11940 11.46631059 19.008375930000003 0.48110202 -0.325438 2.410986 -3.775118
11960 16.231949730000004 15.13023768 -5.113364399999999 -0.7850050000000001 -1.519831 -2.059863
11980 13.874498820000001 10.42851069 -3.96899847 -3.229417 1.401041 -1.245331
12000 5.84624007 5.395529430000001 -1.55512044 -3.977086 -1.917268 -0.338312
12020 -2.43049617 1.53011475 1.7944648200000002 -4.697158 -4.152325 -0.219769
12040 -5.74026264 -3.55974489 4.25849157 -2.610872 0.451113 0.006822
12060 -6.004759860000001 -6.861732030000001 8.18168715 -1.486922 3.289009 0.36355
12080 -6.898401810000001 -5.44163643 11.965669020000002 -1.642194 0.656716 0.231242
12100 -7.39926117 -3.15768204 2.96773101 -0.835174 0.15978 -0.604243
12120 -3.98096667 3.8678083200000004 -8.408916180000002 -0.910872 -0.8824420000000001 -0.70919
12140 10.034080020000001 6.764877899999999 -14.806164330000001 0.16656700000000002 -2.275223 0.070309
12160 15.46868268 9.496698030000001 -4.96892196 1.201462 -2.535568 -0.189184
12180 7.60463352 4.341719610000001 10.91140794 2.23918 -1.346413 -0.100138
12200 8.62356879 26.31842496 -3.19376322 2.649813 -2.319171 0.38254
12220 -2.97686412 2.9779039800000002 5.986650600000001 2.389098 -3.352442 0.862743
12240 -7.242085350000001 -1.1707155900000001 5.2796733300000005 3.094155 -2.942081 1.791154
12260 2.13321393 16.4242944 7.05243843 2.393438 -0.448128 2.096052
12280 6.849901170000001 27.69915303 4.60846332 4.015672 0.279975 0.561802
12300 9.1795113 24.730372350000003 4.38123429 4.120431 -0.780149 -0.549195
12320 19.20401676 21.70052442 -0.11601306 3.021599 -1.720759 0.395052
12340 21.248764110000003 14.91423129 -8.28017955 1.962009 -0.703537 2.405287
12360 14.89463091 12.410993970000002 -8.98805934 0.793141 -1.834982 2.11763
12380 9.81494424 9.70985952 -0.13531914 -0.137626 -2.578355 0.747962
12400 1.7479163700000002 4.3963613100000005 3.51349074 -0.773983 -2.1410560000000003 0.100955
12420 -5.067414360000001 1.9636186500000001 -7.0626114 -1.162542 -0.5812 -0.433596
12440 -2.4146334 2.4568458300000002 -6.69407913 -2.135144 1.291994 -1.031381
12460 3.75074559 0.58004568 -3.2701046400000005 -2.564965 3.399779 -1.092631
12480 3.4619980500000005 -0.56313324 -6.975645750000001 -1.6909490000000005 3.966603 -0.809515
12500 1.62412398 -1.4664969 -4.81967262 -0.137918 1.11966 -0.958457
12520 1.1901786300000001 -1.13852898 -0.4300605900000001 1.806758 -0.947441 0.134543
12540 1.75449888 -1.1094913800000001 0.36673704 1.985975 1.018365 0.684479
12560 1.79986032 1.91062503 -3.21935751 0.030621 3.729524 0.24112600000000006
12580 5.041211850000001 5.86959768 0.25356888000000005 4.870485 -2.538956 1.7368150000000002
12600 7.8778224 16.128660240000002 2.0404113300000004 -1.056849 1.5412370000000002 0.969134
12620 13.73543226 46.23884640000001 7.522602300000001 -0.728691 1.601538 -0.540185
12640 5.32308258 40.3390143 -15.565232700000001 -1.437384 3.17251 -2.243485
12660 3.7660197600000003 25.082590590000002 -2.4577385400000002 -2.404694 3.981679 -3.424186
12680 8.79914817 19.0100142 2.1026754000000003 -0.297618 3.208836 -2.990803
12700 15.919099019999999 15.80638212 -2.6458943400000003 -0.6722670000000001 -0.442041 -2.090367
12720 14.76754236 11.13234876 -4.5378117 -3.117816 2.134164 -1.129054
12740 6.82131483 4.76099901 -2.24143785 -3.411939 -0.16122899999999998 -0.41139
12760 -2.4358818600000003 0.43215012 1.81677276 -4.092006 -3.546597 -0.374415
12780 -6.02527257 -4.99435929 4.803358590000001 -2.801577 -1.35305 -0.197297
12800 -5.40286731 -6.86771613 8.30442987 -1.377377 2.528751 -0.08443200000000001
12820 -6.5274759 -5.27113863 10.70154261 -1.546308 2.3774 0.08229199999999999
12840 -6.790629149999999 -3.01114026 2.9223695700000003 -1.075578 0.130591 -0.555678
12860 -5.74401006 3.46619673 -8.45546463 -0.947831 -0.948707 -0.622837
12880 6.230046510000001 8.24455944 -15.13727145 -0.041704000000000005 -1.92596 -0.244583
12900 15.721211700000001 9.2486718 -10.54916388 0.8477040000000001 -2.265723 -0.497513
12920 9.91747836 1.1651729400000002 7.175034000000001 2.111775 -1.67517 -0.093129
12940 7.591762800000001 20.48685084 -3.7127318400000004 2.520912 -1.945187 0.476232
12960 1.4383618200000001 12.47925195 6.25234464 2.554041 -2.718179 0.880174
12980 -10.897791660000001 -7.23894615 -6.9467553 3.159145 -2.508546 2.008969
13000 0.44592336000000005 14.01326127 9.0608103 2.49962 -1.201717 2.6457580000000003
13020 3.2400075600000005 24.82991442 6.542298810000001 3.5902 1.0697530000000002 0.8280780000000001
13040 8.78792553 24.99831288 3.5860945500000003 4.04646 -0.186157 -0.111434
13060 11.563154910000002 20.72095668 3.04391547 2.7681 -2.24353 0.012596
13080 23.52208446 18.393004440000006 -2.28948723 2.236255 -1.2922360000000002 1.802275
13100 16.87784994 13.370647410000002 -8.606656350000002 1.07503 -1.588651 2.076554
13120 11.14971246 13.491594899999999 -7.982446050000001 0.28230500000000003 -2.344648 1.079608
13140 5.692360409999999 8.658149040000001 1.36307007 -0.384864 -2.327176 0.220348
13160 0.9292718700000001 2.40310665 1.15619679 -0.721649 -0.944077 -0.378777
13180 -3.28986198 0.4573029600000001 -6.97249674 -1.7461490000000002 1.124861 -0.8650110000000001
13200 0.61611705 0.46553355 -4.58481141 -2.333384 3.402217 -1.103836
13220 4.18664313 0.054936000000000006 -4.978800629999999 -1.465557 3.4707980000000003 -0.8916950000000001
13240 2.45639457 -1.0581458400000003 -5.69101644 -0.192201 1.514547 -0.8290190000000001
13260 0.20866851000000003 -0.5185173599999999 -2.26927863 1.46777 -0.15270699999999998 0.152522
13280 0.55549125 -0.8384018400000001 -1.02222162 2.389118 0.428309 0.840807
13300 1.2301445700000002 0.26869590000000004 -0.8752285799999999 0.137462 2.894714 0.323058
13320 3.3025855500000003 4.237243110000001 -0.72598905 0.8089770000000001 1.6912049999999998 0.210719
13340 6.41311092 9.93199716 1.02312414 4.5550180000000005 -3.279097 1.155516
13360 10.62385722 27.21386214 3.3434442000000004 -2.333042 3.826814 -0.992214
13380 12.3928749 46.90301283 -0.89708526 -0.144645 0.739553 -1.267801
13400 4.44126168 32.10703128 -4.796324820000001 -1.31899 2.776535 -2.156693
13420 5.01367518 23.19112449 0.62330778 -1.094754 3.667793 -2.256681
13440 11.96716014 18.10005822 0.060920100000000005 -1.103978 1.08084 -1.600747
13460 15.601461030000001 14.978153250000002 -2.49141627 -3.137131 2.829714 -1.359748
13480 9.355247640000002 9.30420621 -2.22916554 -3.0903970000000003 0.147395 -1.145545
13500 1.4855086800000001 3.67336431 0.1761876 -4.154618 -2.757022 -0.371591
13520 -4.5232929 -2.11824387 2.74005072 -3.582422 -3.4596980000000004 -0.436128
13540 -6.52283577 -7.811055540000001 5.974074180000001 -1.62536 0.895797 -0.430176
13560 -5.69131074 -6.53256729 11.239375859999999 -1.180924 2.942724 -0.415808
13580 -6.571189260000001 -4.55622507 5.809864590000001 -0.695857 0.619157 -0.519469
13600 -6.74093169 -0.5436702 -3.0416787900000006 -0.736197 -0.7476119999999999 -0.74553
13620 0.71835687 5.335953300000001 -12.02240025 -0.11048399999999997 -1.85731 -0.302835
13640 13.01498586 9.39686166 -14.607972900000002 0.807446 -1.700033 -0.4696770000000001
13660 13.570477110000002 5.03044047 1.3822290000000002 2.078199 -1.205696 0.013925
13680 0.71820972 -3.54373497 13.353283710000001 2.7489790000000003 -2.148743 0.5667479999999999
13700 -2.3763057300000003 8.98117272 5.49327627 2.4439580000000003 -3.433929 0.6805640000000001
13720 5.207373629999999 33.42459276 10.39033998 3.254874 -2.944586 0.681329
13740 -4.48018776 4.398607800000001 3.94833861 3.5738550000000004 -2.555777 2.271505
13760 -0.49771035 10.309662540000001 8.319694230000001 1.856005 3.775772 1.742918
13780 6.20204877 21.865028310000003 5.4688788 4.098885 -1.136104 0.571675
13800 13.361661450000001 25.709184720000003 5.4600498 3.163175 -2.5679990000000004 0.092684
13820 19.960387380000004 19.95934752 0.16165899 2.4058770000000003 -0.431846 1.477618
13840 19.905304230000002 15.15882402 -5.472322110000001 1.008347 -1.368426 1.940142
13860 12.48494175 12.847185810000001 -8.266857569999999 0.138317 -2.15313 1.262091
13880 9.53457444 12.52070901 -6.5488813200000004 -0.351626 -2.151127 0.122078
13900 4.62029418 7.86733551 3.11802021 -0.743748 -1.024255 -0.289098
13920 -2.35011303 3.5114012100000003 -0.21180771 -1.263343 0.557664 -0.367393
13940 -4.6783693799999995 1.06354134 -9.44805024 -2.562494 1.952456 -1.191172
13960 4.213738350000002 0.05568156 -3.35451969 -2.735212 3.572659 -1.021403
13980 4.81368852 -1.34405829 -7.67244024 -0.872268 2.986396 -0.6818310000000001
14000 2.0221451100000003 -1.65031668 -2.93449473 0.984025 1.060649 0.037561
14020 1.18343916 -2.1019298400000004 -1.2549933 2.675506 0.375738 0.685846
14040 0.83780343 -1.14496434 -1.15035984 0.682607 2.565049 0.240763
14060 1.41815322 2.3394888000000007 -4.39395786 -0.042901 2.901437 -0.135409
14080 3.71093661 4.500386550000001 0.43365105000000004 5.662449 -5.342866000000001 0.279271
14100 8.40038148 12.28076622 2.03860629 -1.414923 3.399239 -0.357138
14120 11.143129950000002 33.55646859 5.83800948 -0.114547 0.727136 -0.8531049999999999
14140 9.16468839 46.83610863000001 -7.63322967 -1.286637 3.109996 -1.6601709999999998
14160 2.92028004 27.57086766 -4.677319710000001 -1.215834 3.84907 -2.196871
14180 8.13363777 18.63475227 -0.29383893 -0.8115680000000001 1.861203 -2.265207
14200 13.72047201 16.34690331 -2.4322914 -2.18527 2.154969 -2.077558
14220 13.658198130000002 13.710436379999999 -4.04579115 -2.885765 0.758151 -1.676873
14240 8.67565989 8.02017531 -1.53745263 -4.027761 -2.153108 -0.456937
14260 0.10178856 2.8856997900000003 1.22670126 -4.337905 -4.865655 -0.631884
14280 -7.418871360000001 -1.9074858300000002 1.56904083 -2.873981 -0.779103 -0.607667
14300 -7.1280244800000006 -6.74107884 2.39397354 -0.965792 2.498139 -0.776931
14320 -4.82851143 -5.223981960000001 8.97937749 -1.140411 2.02947 -0.372694
14340 -4.41177282 -1.99475559 6.78284982 -0.815278 0.352261 -0.804108
14360 -2.9382421500000007 -0.00628821 -2.28948723 -0.680665 -1.320371 -0.61729
14380 4.41686421 5.13312174 -11.49415137 0.012793 -2.194289 -0.055851
14400 13.126653090000001 10.777736879999999 -13.712682870000002 1.418927 -1.733414 0.420193
14420 8.49079044 1.6278615900000002 4.56116931 2.62661 -1.489364 0.679348
14440 -2.8789603200000005 0.10104300000000001 12.974568660000001 2.742689 -2.778422 0.863409
14460 5.82289227 30.501467820000002 -27.22463352 2.8325 -3.328895 0.983314
14480 0.07380063 9.765246780000002 10.92338595 3.133296 -2.509735 2.062201
14500 -1.30034493 1.2832853400000002 6.107146830000001 2.324519 1.314058 2.10079
14520 3.0308976000000003 12.429701640000001 4.67627985 4.390599 0.461675 0.884654
14540 8.90617527 24.08057757 2.7470844899999998 2.779542 -3.075114 0.4356890000000001
14560 12.719047590000002 23.20684011 2.16180027 2.632197 -1.05616 1.297333
14580 20.258876250000004 19.339630200000002 -0.41553198 1.420887 -1.318178 2.070078
14600 17.97057603 16.12536408 -5.98365855 0.37144 -2.352707 1.418867
14620 11.82616101 13.502523240000002 -8.519985 -0.219847 -2.786088 0.554305
14640 10.59795882 12.87502659 -4.02902586 -0.593023 -1.816649 -0.196231
14660 4.59664227 6.4695478500000005 3.24569736 -1.203268 -0.129563 -0.654513
14680 -2.50279587 1.9589785200000003 -1.37848158 -2.690933 2.298094 -1.468114
14700 -5.1403124700000005 -1.2509515800000002 -9.78110955 -2.845024 4.495747 -1.066082
14720 4.85140797 1.00725156 -2.28230631 -1.115629 3.098331 -1.023369
14740 3.92963094 -0.06002739000000001 -5.61886389 0.563515 -0.750631 -0.31877300000000003
14760 1.6293625200000001 -1.25184429 -3.56333535 2.398221 0.186985 0.709788
14780 1.02177036 -3.15782919 -2.90516283 0.394391 2.846016 0.55672
14800 0.7770304800000001 -0.04086846000000001 -2.7864520200000005 0.262923 2.191618 -0.047974
14820 2.2103009100000004 3.0478100400000003 -3.4934391 5.210182 -4.279474 0.609103
14840 6.25219749 6.743031030000001 0.92463174 -1.704541 4.49136 0.372239
14860 8.11043712 15.97358376 1.63505232 -0.643259 0.28420100000000004 -0.450306
14880 14.055473700000002 42.07959279 2.11240692 -0.817461 2.7200290000000003 -1.515388
14900 7.531882560000001 39.90746259 -10.552008780000001 -0.732282 3.424275 -2.677921
14920 6.56968833 24.091505910000002 -2.8488730500000004 -0.736946 1.914566 -3.152446
14940 10.99119267 18.671873310000002 1.16143533 -2.163719 0.317237 -2.063302
14960 14.18285655 16.10051535 -3.72979143 -2.791185 0.8796139999999999 -1.2319870000000002
14980 10.830279240000001 12.219836310000002 -2.40744267 -3.538619 -0.194384 -0.269091
15000 4.9572382500000005 5.87797542 -0.23036823 -3.86363 -3.579165 -0.41978
15020 -4.176018900000001 0.7144623 1.9749884400000002 -2.725566 -1.053035 -0.431091
15040 -7.308548100000001 -5.2413456599999995 4.495746420000001 -1.438349 2.122348 -0.696429
15060 -5.6717103600000005 -7.724982600000001 10.56473235 -1.237709 2.232162 -0.360814
15080 -6.175257660000001 -5.22533574 11.481123690000002 -1.032791 0.081627 -0.8683059999999999
15100 -6.96516867 -2.60264205 -0.17408826000000002 -0.7456010000000001 -1.51089 -0.602544
15120 -2.02963014 3.7208152800000005 -11.904140700000001 0.159163 -1.778917 -0.161115
15140 12.075236910000001 8.30562669 -15.77524518 1.303221 -1.105764 0.203868
15160 15.81580953 10.007887320000002 -0.6385721400000001 2.393176 -1.267782 0.614409
15180 4.74408657 -1.37249748 10.59242598 2.482576 -3.179235 0.8898790000000001
15200 -1.98143361 7.7130144 7.230862709999999 2.239522 -4.321432 0.889645
15220 7.86090015 28.035645840000004 6.820863570000001 3.03983 -3.689497 1.736184
15240 -2.78391123 2.50489521 8.980123050000001 2.33038 0.101482 2.434602
15260 -1.3507879500000002 7.40764872 4.93238952 4.157581 1.494016 1.06437
15280 4.5608652 22.82468175 1.8853250400000001 3.389132 -2.238059 0.236981
15300 9.86014872 26.4252951 2.74648608 2.727939 -1.958484 0.69134
15320 12.955860990000001 18.70091091 1.8089836200000002 1.912379 -0.7517119999999999 2.241564
15340 21.835392300000002 18.253790730000002 -1.8944581500000002 0.650447 -1.66163 1.515002
15360 14.48822223 14.558422590000001 -7.773336090000001 -0.10102 -2.368216 0.646467
15380 12.563676810000002 13.159438110000002 -7.0307289 -0.456071 -1.652322 -0.117505
15400 8.621018190000001 9.558069390000002 -1.5364029600000002 -0.949934 -0.468146 -0.385254
15420 2.1921916500000003 2.8178930699999998 1.20484458 -1.723596 0.903165 -1.120943
15440 -3.3926904000000007 1.2552876 -4.422701160000001 -2.425668 2.588382 -1.564909
15460 -0.09504909 0.41253993 -4.52135052 -1.4051870000000002 3.268603 -0.9957
15480 4.11329376 -0.11840670000000002 -6.43886217 0.08704400000000001 1.675661 -0.6029479999999999
15500 2.75891535 -1.4136602400000002 -4.913083439999999 1.540748 0.769216 0.5065
15520 1.13852898 -1.70974566 -1.0910780100000002 1.225827 2.756639 0.8745629999999999
15540 1.3781872800000001 -2.73091761 -1.5864045300000003 0.655936 2.767794 0.4443470000000001
15560 2.15431524 0.25956279 -3.32399097 2.690403 0.481017 1.516892
15580 3.78353061 3.4581132900000005 -1.3506408 -1.204795 0.369764 -0.049482
15600 7.4503026000000006 8.83088352 1.44389466 -0.652343 1.818768 -1.6487439999999998
15620 9.521252460000001 21.91068405 3.13957278 -1.800698 3.064603 -3.180578
15640 13.475722320000001 49.08202965 4.8597955200000005 -1.813787 3.845589 -4.002065
15660 2.5821293400000003 33.13195065 -11.66374665 -0.106275 0.375136 -2.341697
15680 5.123400030000001 21.65052285 0.22558095000000003 -2.730894 2.074879 -1.822756
15700 12.35185929 15.78991113 -1.2549933 -3.446554 -1.216905 -0.650629
15720 15.7938057 14.957640540000002 -4.0302226800000005 -4.6944 -4.276758999999998 -0.007014
15740 10.859316839999998 9.95804271 -2.70951219 -3.945156 -2.985441 -0.440338
15760 2.7876488400000006 4.42075878 0.20671632 -1.778505 1.534209 -0.375448
15780 -4.897819080000001 0.61776513 1.1964668400000003 -1.198308 3.039165 -0.010128
15800 -6.63779916 -4.55457699 3.3118658100000005 -1.512296 0.390562 -0.454376
15820 -5.1063306299999995 -5.63787567 8.55366273 -1.10082 -0.6782159999999999 -0.734279
15840 -6.327646199999999 -3.6529987500000005 10.041722009999999 -0.771882 -1.465778 -0.406233
15860 -5.958358560000001 -1.42473573 0.7851139200000001 0.371163 -2.151065 0.012827000000000002
15880 -0.19205037000000003 4.130059050000001 -10.384355880000001 1.719194 -1.629214 -0.056406
15900 13.617928080000002 6.10071147 -14.276865780000001 2.4154400000000003 -1.269264 0.166981
15920 14.50468341 5.23686249 0.88001586 2.496666 -3.042218 0.978465
15940 3.72694653 9.512717760000001 8.86037238 2.306739 -4.114223 2.291356
15960 3.53295378 22.263049440000003 0.19534653000000002 1.775791 -1.352305 2.836379
15980 -5.9201878500000005 -3.0943683000000006 -2.1634483500000004 3.77593 -0.523457 1.354846
16000 0.5694116400000001 9.73081368 10.47552021 4.677206 2.093082 -0.012741
16020 4.1128425 19.74229146 5.50345905 2.593335 -2.752757 0.170125
16040 10.217154240000001 25.277633010000002 2.5951570200000003 3.116545 -2.27502 1.988076
16060 14.35828878 24.50538981 0.47615778 1.763557 -1.6848009999999998 2.613461
16080 23.12900757 19.461176100000003 -3.09391704 0.404348 -2.788933 1.256218
16100 16.56380241 12.98115117 -8.952135120000001 -0.19347 -3.135405 0.507935
16120 11.95428942 13.34744676 -4.810696470000001 -0.460566 -1.849746 -0.026484
16140 6.05864619 9.150473700000001 4.67987031 -0.968783 -0.039337 -0.510917
16160 -1.0591955100000001 3.96735039 1.7697730500000002 -2.125785 1.7614419999999995 -1.220992
16180 -6.68869344 0.04235958 -8.80559334 -2.264679 3.986752 -1.088081
16200 0.61192818 0.81924291 -4.13125587 -0.959178 3.0221150000000003 -1.013633
16220 4.211197560000001 1.93862277 -4.07093418 0.252399 0.241253 -0.6095689999999999
16240 3.0525973200000003 -0.44802270000000005 -6.95857635 2.022117 0.116596 0.523517
16260 0.67000338 -1.7923752900000003 -4.99435929 1.108616 2.605453 0.689135
16280 -0.22768029 -1.67082939 -0.61462593 -0.571945 3.504763 -0.038396
16300 2.8544157 -0.0580752 1.08389709 3.167527 -2.710004 0.169808
16320 6.86711772 4.627926360000002 1.21981464 -0.937097 4.593721 -0.315807
16340 7.9278141600000005 10.68553269 0.56492847 -1.416954 0.997036 -0.886049
16360 10.65334608 24.22831617 1.3066331400000002 -0.793647 1.878143 -1.722447
16380 11.39100903 43.50537819 -5.1163564500000005 -2.0873310000000003 2.96205 -3.126902
16400 5.033285370000001 33.957638730000006 -2.57284908 -1.225052 0.871346 -2.651386
16420 4.5655053300000015 25.321042260000002 1.40961852 -2.9830240000000003 1.563527 -1.067561
16440 14.469063300000002 17.12543472 0.52301034 -3.3628410000000004 1.6743439999999998 -0.479629
16460 17.88839766 12.541516020000001 -4.21568073 -4.199728 -0.447249 -0.130243
16480 10.57281579 8.67415896 -3.2939037000000004 -3.697319 -3.770834 -0.583947
16500 2.0534292 5.2696377000000005 1.3069274400000002 -2.082518 -0.22413200000000005 -0.485345
16520 -5.27338512 0.13831119 3.0205676700000006 -1.107626 3.682441 -0.316899
16540 -7.784862840000001 -6.8106906 5.21081694 -0.6747529999999999 1.292285 -0.506297
16560 -6.9070836600000005 -8.132440950000001 10.69061427 -0.850957 0.004065 -0.8103199999999999
16580 -8.663083470000002 -6.519392460000001 9.819427410000001 -0.564349 -1.835013 -0.423538
16600 -7.86524598 0.17019369 -0.72658746 0.569114 -1.995378 -0.197498
16620 0.65189412 5.611084560000001 -9.66106458 1.884946 -1.4830290000000002 0.005453
16640 14.08795461 9.59579865 -16.93742607 2.268878 -1.4673 0.53368
16660 16.4129148 6.44933925 -1.53715833 2.393898 -3.754947 0.81629
16680 1.97739189 -4.3354314 14.440172850000002 2.645405 -4.374198000000002 1.211946
16700 -2.52015957 7.49791053 4.76982801 2.123454 -3.296418 3.063489
16720 7.50300192 35.93233287 7.498508940000001 2.0692630000000003 1.516186 2.124386
16740 -4.1561046 2.37885633 8.61503409 5.016326 1.195876 0.552663
16760 -1.41516117 8.19441072 6.61699215 2.718465 -1.582116 0.086177
16780 4.57987698 21.59484129 4.75411239 2.195961 -2.392026 0.879391
16800 13.62616848 27.96260058 3.80568159 1.6575810000000002 -0.855698 2.093571
16820 19.58273181 22.48264629 2.4977044800000003 0.431611 -1.75541 1.447364
16840 19.85232042 14.849867880000001 -4.7196891 -0.5615829999999999 -2.520165 0.416982
16860 12.609175590000001 12.963189060000001 -9.46062666 -0.833391 -1.32412 -0.347024
16880 9.19792467 13.992454259999999 -8.756494290000001 -1.511556 0.465381 -0.783479
16900 4.396204350000001 8.22584196 2.2698770400000003 -2.4111990000000003 2.307919 -1.50356
16920 -0.88077123 3.9640542300000003 1.72426446 -1.776159 3.547929 -1.2625
16940 -3.0112874100000004 0.10896948000000001 -7.876772730000001 -0.12562 1.961168 -0.954108
16960 3.2970429 -0.06137136000000001 -3.56378661 1.015578 0.677221 -0.007661
16980 2.5662665700000002 -2.01375756 -8.17704702 2.362954 0.569968 0.8692840000000001
17000 0.72284985 -1.64687337 -0.86999004 0.560415 2.475 0.753839
17020 0.6875240400000001 -1.97694063 -2.88330615 0.047810000000000005 2.782638 0.456104
17040 1.41201216 -0.86565402 -1.1027519099999998 5.718586 -6.118583 0.5455770000000001
17060 2.9461686300000003 2.11240692 -2.00972565 -1.418166 4.103718 0.36085
17080 6.126158610000001 5.394332610000001 1.5645478499999999 -0.035407 1.061246 -0.5592189999999999
17100 9.07203294 14.578631190000001 1.3073787000000001 -0.770898 2.683236 -1.944441
17120 14.711703840000002 39.25526436 3.19121262 -1.170223 3.2990760000000003 -2.690434
17140 9.42680178 42.32313585 -7.71285744 -0.430766 2.430196 -2.6286080000000003
17160 3.4328133000000003 26.856405360000004 -4.68315666 -2.017692 1.467252 -2.069096
17180 5.67994095 19.38199959 2.07064575 -2.997171 0.784771 -1.311285
17200 15.03054846 12.901376250000002 -0.87193242 -3.82987 -0.570972 -0.412716
17220 15.284715750000002 11.90578878 -2.16464517 -4.311357 -3.981308 -0.430938
17240 6.967856610000001 6.52118769 -1.45706949 -3.218185 -2.039599 -0.772962
17260 -2.00463426 1.32669459 2.21314581 -1.239743 2.193844 -0.8991629999999999
17280 -7.00274097 -4.12362369 3.20064003 -1.028726 3.3139540000000003 -0.675866
17300 -5.95462095 -6.03245349 7.1319190500000005 -0.894495 0.323651 -0.7736460000000001
17320 -5.97887127 -3.8630210400000005 9.48368016 -1.09064 -1.147433 -0.6193069999999999
17340 -6.96845502 -1.27040481 -0.5394813299999999 -0.31279 -1.980167 -0.04024
17360 -3.02685588 2.75996502 -8.198903700000002 1.354931 -1.390799 0.044361000000000005
17380 11.179505429999999 5.36574627 -11.605965750000001 2.491197 -1.134772 0.300866
17400 15.513592860000001 8.648868779999999 -3.14286894 2.6469080000000003 -2.307117 0.567307
17420 5.728883040000001 -2.6756873100000003 8.27269452 2.591398 -4.371528 1.1239709999999998
17440 -2.8615966200000003 1.91377404 9.544149 2.189506 -3.961872 2.654606
17460 11.351494350000001 36.13350654 -5.55015465 1.319493 0.455591 2.6685060000000003
17480 -1.35169047 6.690635820000001 10.039769819999998 4.552323 0.058489 0.340439
17500 -3.96854721 1.92530079 1.6384956300000002 3.28896 -1.391581 -0.370485
17520 2.71206279 15.81281748 4.39081866 2.925909 -1.14964 0.178939
17540 9.43278588 24.05303109 2.8518651000000004 2.00885 -1.162362 1.489668
17560 12.668006160000001 21.691842570000006 2.07333369 1.005191 -0.909288 1.6756810000000002
17580 21.09952458 19.51701462 -0.49487526 0.029599 -1.504712 1.173974
17600 18.91362114 16.08135642 -4.87101816 -0.433974 -1.219783 0.386296
17620 12.09783915 14.58836271 -8.356825080000002 -0.951903 0.099536 -0.090098
17640 10.232869860000001 15.015274290000002 -5.323828140000001 -1.692927 1.928372 -0.984242
17660 4.338727560000001 7.526349720000001 3.48669963 -2.224993 2.886978 -1.286152
17680 -1.8226097100000003 1.437165 0.6126737400000001 -1.258084 2.373988 -0.911273
17700 -4.36178106 -0.2817137700000001 -9.131010660000001 0.044289 0.32679600000000003 -0.5096510000000001
17720 4.60427445 0.6855718500000001 -2.4887283300000003 1.7696009999999998 0.044564 0.374431
17740 3.90387969 -1.76528007 -7.45165638 1.959535 1.417493 0.794878
17760 1.4705386200000001 -2.1139078500000004 -2.8711809900000005 0.054371 3.061694 0.462201
17780 0.29833191000000003 -2.11644864 -1.9461078 3.706477 -2.851667 0.23037
17800 1.2769971300000003 0.07784234999999999 -1.2530411099999998 -0.437137 3.705382 0.5562199999999999
17820 3.30677442 1.95942978 -0.54950715 -0.237045 1.599661 -0.497224
17840 7.73411571 8.534798100000001 0.78826293 -0.873459 3.216825 -2.093256
17860 9.27995589 19.008670230000007 2.88450297 -1.069039 3.3378300000000003 -2.612865
17880 12.53972079 42.08274180000001 3.1214635200000003 -0.301842 2.623652 -2.6343650000000003
17900 2.11195566 36.17736705 -7.717203270000001 -1.3209 1.925082 -2.346827
17920 1.43521281 22.41723321 0.41688576 -2.409031 1.385305 -1.4842030000000002
17940 8.25248592 17.544262860000003 2.08890216 -3.209818 -0.475561 -0.8336600000000001
17960 14.3332929 14.538812400000001 -1.4715882900000001 -3.864954 -3.2919660000000004 -0.312267
17980 11.13504651 12.11206365 -1.7208211500000001 -3.216837 -2.585443 -0.668636
18000 3.1626262800000005 6.899755590000001 -1.6735173300000001 -1.585537 1.2076870000000002 -0.671716
18020 -2.7780742800000002 1.1862840600000002 0.28141947 -0.916882 2.258143 -0.7420979999999999
18040 -4.11135138 -4.18379823 1.87006068 -0.7498020000000001 1.016357 -0.701952
18060 -3.62620764 -6.689586149999999 4.73345253 -0.7055899999999999 -0.264415 -0.662614
18080 -4.69424196 -4.23993105 7.01575884 -0.401878 -0.984708 -0.351922
18100 -4.825068120000002 -2.05897185 0.5827336200000001 0.628524 -0.772031 -0.08541900000000001
18120 -1.1485646100000002 2.9316498300000005 -6.84466263 1.760386 -0.631652 0.323958
18140 9.350460360000001 6.405027480000001 -11.51764632 2.229973 -1.923622 0.663247
18160 12.832667010000002 6.04876752 -4.9572382500000005 1.797554 -4.308473 0.962385
18180 3.12355305 -0.37182843 10.639719990000001 2.435624 -4.08017 1.656621
18200 2.06330787 20.12026095 -12.83865111 2.151457 -2.1509400000000003 2.962872
18220 2.9588922 18.4774293 9.69802866 2.64114 2.958546 1.901137
18240 -7.401360510000001 -2.1761719200000007 -3.97917144 4.4383339999999984 0.34433600000000003 0.351027
18260 0.7240466700000001 14.838193980000002 7.875271800000001 2.316879 -2.148748 -0.388056
18280 6.252943050000001 22.03373088 3.09301452 2.206475 -1.206434 1.15141
18300 10.10922462 21.41237529 3.5061626700000006 1.363806 -0.973632 2.536051
18320 16.09483536 18.677111850000003 0.25820901 0.212446 -1.809054 1.732185
18340 20.881575810000005 19.4116356 -2.4632811900000005 -0.431108 -1.983578 0.647941
18360 16.45572564 13.21541397 -7.63038477 -0.808144 -0.874771 -0.053662
18380 10.901529270000001 11.546683920000001 -7.203767490000001 -1.45039 0.658586 -0.667931
18400 7.59161565 8.972196570000001 0.47271447000000005 -2.013693 2.1396740000000003 -1.332857
18420 0.49232466 4.247720190000001 0.48364281 -1.796817 3.086336 -1.162708
18440 -3.9052334700000007 1.31261724 -4.30789473 -0.8497389999999999 2.170735 -1.05237
18460 0.46373832000000004 -0.27482715 -3.7026962100000005 0.178348 0.013114 -0.502972
18480 4.38902343 -0.21075804 -3.93052365 1.654041 0.731869 0.424018
18500 2.64304944 -1.44838764 -4.52240019 1.154464 1.436697 0.952668
18520 0.93570723 -2.4294465 -2.54979558 0.591882 1.65352 0.764726
18540 0.7279314299999999 -2.6460513000000003 -1.4693418 1.500867 0.293881 0.596561
18560 1.5790666500000001 0.5004081 -2.2598512200000003 0.583925 3.641512 0.724735
18580 3.6500067000000005 3.32847414 -0.9806076 -0.12365 0.5899 -0.6254609999999999
18600 8.79390963 9.44640216 1.5429952800000002 -0.528038 3.078642 -1.935774
18620 9.951303240000001 19.75816404 3.23717247 -1.529233 3.627368 -2.958281
18640 13.77764469 44.45470169999999 3.7679621400000003 -0.075954 2.744621 -2.446003
18660 3.27594159 33.617545650000004 -8.59273596 -1.495985 0.256548 -1.851325
18680 3.00290967 23.54259717 -1.60630902 -3.023501 1.74377 -1.617141
18700 8.320145490000002 16.68775176 2.5376704200000004 -3.262635 0.756264 -1.145392
18720 16.123716 15.614930160000002 -2.69933922 -3.757118 -1.884863 -0.108218
18740 13.238320320000001 12.499902 -3.45032415 -2.579053 -2.272841 -0.541736
18760 4.84527672 6.6723794100000005 -0.8440916400000001 -0.7435189999999999 1.579514 -0.34798
18780 -3.40990695 1.10635218 1.17011718 -0.485583 1.974991 -0.370186
18800 -5.98036239 -3.98096667 3.01937085 -0.061303 0.105549 -0.500491
18820 -5.4169348500000005 -5.1304338000000005 6.81906834 -0.20116 -0.545179 -0.4183810000000001
18840 -5.9680900800000005 -3.67126497 6.64737372 0.047754000000000005 -1.292152 -0.048217
18860 -6.252943050000001 -2.5469506800000006 -0.00494424 1.000004 -0.925707 0.194042
18880 -2.8930376700000004 2.11450626 -7.72648353 1.775409 -0.579638 0.357112
18900 9.23384889 5.0409175500000005 -9.036559980000002 2.409235 -2.432225 0.624559
18920 15.151643100000001 8.880580980000001 -4.946761169999999 2.341804 -4.15226 0.8527549999999999
18940 7.52111118 -1.47533571 1.83803103 2.44699 -3.3656410000000005 1.980524
18960 -2.13859962 2.1056674500000003 12.23210862 1.693056 0.080222 2.974971
18980 10.30786731 35.80225227 -10.507697010000001 4.2162739999999985 0.356865 0.8728889999999999
19000 -1.2323910599999999 12.24558756 5.6038938300000005 3.724131 -0.381547 -0.519359
19020 -6.4289835 5.70957696 5.03388378 2.612693 -2.332856 -0.158222
19040 1.4837134500000002 17.01376749 5.990241060000001 2.425023 -0.6887270000000001 1.23239
19060 8.45546463 22.448664450000003 3.81780675 0.965087 -1.457079 1.504119
19080 11.02023027 19.65802356 2.9268625500000005 0.162733 -2.543664 1.135643
19100 19.00881738 17.40999339 1.05111207 -0.073184 -2.443666 0.310268
19120 18.69297462 14.396018040000001 -3.0005062200000006 -0.35647 -1.268463 -0.293557
19140 12.28345416 14.012211600000002 -8.66099394 -1.215855 0.708648 -0.337345
19160 9.4453623 12.282561450000001 -8.486307270000001 -2.113055 2.185735 -0.778135
19180 5.14016532 6.36042141 2.5469506800000006 -2.132646 3.726332 -0.813361
19200 -1.6429788 3.9330742499999998 -2.5882704000000003 -1.078784 3.195481 -0.575651
19220 -0.9660888000000001 -0.24174783000000002 -6.86546964 -0.053467 1.392411 -0.243576
19240 5.12953128 0.42646032 -1.34315577 1.386583 0.336387 0.189784
19260 3.2989852800000006 -0.8126604000000001 -4.2804954 1.616094 2.014729 0.656049
19280 1.2494506500000002 -2.82717333 -3.86346249 0.606488 3.442324 0.966566
19300 0.04431177000000001 -2.98015047 0.17603064 3.404992 -1.392405 1.596923
19320 0.7105677300000001 -1.23493185 -0.9026181 -0.6647689999999999 1.774613 0.6094470000000001
19340 2.4439653 1.9869664500000002 -0.5352826500000001 -0.386124 2.3912880000000003 -1.197897
19360 6.40458603 8.35996428 0.43829118000000006 -1.07454 2.570812 -2.869362
19380 8.37313911 19.11854223 1.5356574000000003 -1.41057 3.940898 -3.411849
19400 11.55701385 41.627381220000004 -2.8544157 -0.132191 2.8893880000000003 -2.369669
19420 2.92177116 36.66715092 -5.580241920000001 -1.5774290000000002 2.249045 -2.154617
19440 2.49815574 23.674473000000003 -2.23409997 -2.62183 0.947632 -1.338782
19460 10.97232804 15.93406908 0.7087725 -3.045915 0.33793 -0.880559
19480 16.86228147 16.14692646 -3.6814477500000002 -4.034894 -3.216426 -0.407554
19500 12.430152900000001 13.975688970000002 -4.07467179 -3.366713 -3.014976 -0.7481800000000001
19520 5.13986121 9.92720988 -1.3771376100000001 -1.603263 0.410568 -0.849211
19540 -1.18403757 3.6323487 0.79888716 -1.0469700000000002 3.0052790000000003 -0.723668
19560 -4.97550447 -2.5512965100000002 1.87829127 -0.748092 0.249195 -0.662501
19580 -4.48946802 -7.22308338 5.29688988 -0.523584 -0.867756 -0.455471
19600 -5.248536389999999 -5.295987360000001 8.40951459 0.0874 -1.353675 -0.148274
19620 -5.6197664099999995 -2.92791222 4.93298793 1.019758 -0.923162 0.07346799999999999
19640 -3.7968525900000003 -0.3873969 -2.6216440199999997 2.183984 -0.8440059999999999 0.580358
19660 4.41776673 4.6071193500000005 -6.70381065 2.45817 -2.9138900000000003 0.888301
19680 11.840081399999999 9.855802890000001 -11.78364447 1.851556 -4.320697 1.041826
19700 10.515927600000001 5.057231580000001 -0.82672794 2.634804 -3.773573 1.800761
19720 5.201536679999999 7.45778763 5.30601318 2.458693 -1.081073 2.614339
19740 9.437121900000001 30.16197315 11.93587605 4.008655999999998 2.712521 1.235888
19760 -8.20742859 -2.36104137 -4.10057019 3.703661 -1.546824 0.262861
19780 -4.15281825 5.7431075400000005 12.94462854 2.399417 -2.603423 0.023301
19800 2.91428613 19.34427033 5.18925456 2.15186 -0.895335 1.987048
19820 8.09740944 23.05505979 2.9771584200000003 0.8461069999999999 -1.579068 1.7437939999999998
19840 9.329947650000001 21.42419634 2.97296955 -0.084288 -2.248573 1.081197
19860 16.331933250000002 17.759817990000002 -0.75712599 -0.453518 -1.5913700000000002 0.088602
19880 21.713846400000005 18.42728058 -2.92252653 -0.895884 -0.31905500000000003 -0.154332
19900 17.28186498 13.928090850000002 -7.231608270000001 -1.783221 1.522888 -1.002513
19920 9.57154833 11.44833867 -9.474095790000002 -2.624832 3.004016 -1.702497
19940 6.37569558 7.533687600000001 1.02761712 -2.187854 3.252496 -1.350455
19960 0.64650843 3.12325875 2.27646936 -0.922452 1.2238 -1.013208
19980 -3.04676037 -0.56297628 -5.30466921 0.679287 -0.468317 -0.157025
20000 2.29233213 -0.29982303 -4.77761715 2.396842 -0.003208 0.588245
20020 3.6033111000000004 -0.51582942 -6.22600479 0.442207 2.342026 0.8098
20040 1.79596575 -1.1214693900000001 -3.18058839 0.23072 2.59792 0.404207
20060 1.6691813100000001 -1.7583934500000002 -0.7511418900000002 4.041921 -1.579126 1.651817
20080 2.09683845 -1.4605127999999998 -2.0184075 -0.7653220000000001 2.67179 0.376859
20100 2.0258827200000002 1.64313576 -3.5455302000000004 -1.005187 2.114155 -1.419783
20120 5.092861500000001 5.408253 0.44038071 -1.266851 2.97431 -2.642623
20140 8.554565250000001 12.556937340000001 2.42181432 -0.802608 2.849753 -2.798385
20160 12.77787816 32.27078961 4.44695148 -0.375478 0.338843 -1.824375
20180 8.9942004 42.59063493000001 -6.510710610000001 -3.2557150000000004 2.303944 -1.375926
20200 3.5434308600000004 26.448947010000005 -5.05962522 -2.908906 0.44904 -1.345489
20220 6.180044939999999 18.81781668 2.95171128 -3.5924120000000004 -1.307153 -0.333202
20240 14.137799220000002 16.303945320000004 -2.17168875 -3.371622 -3.589317 -0.70475
20260 14.49346077 14.890589190000002 -4.17257559 -1.903724 -0.28785700000000003 -0.688045
20280 7.81045713 8.649761490000001 -2.05792218 -0.8651479999999999 3.101601 -0.726795
20300 -0.17573634 2.7530784 0.56043549 -0.6680520000000001 1.481278 -0.6218600000000001
20320 -6.81622344 -2.33724231 1.09407006 -0.7550399999999999 -0.068509 -0.859764
20340 -5.26095585 -6.824454030000001 4.088150730000001 -0.39428 -1.0450959999999998 -0.441522
20360 -5.228779050000001 -5.198387670000001 7.91314821 0.44418 -1.126515 -0.25503200000000004
20380 -5.29388802 -2.42645445 5.25497175 1.4222 -0.955128 -0.007002
20400 -4.401001440000001 0.27692649 -3.00739284 2.126669 -2.145909 0.397892
20420 2.3423337 5.411549160000001 -9.01590012 1.829123 -4.1702 0.722079
20440 14.388228900000001 10.45515465 -13.301938170000001 2.1237310000000003 -4.196338 1.141845
20460 12.59151759 2.87058258 -1.6536128400000003 2.7780400000000003 -2.373738 2.193073
20480 1.6411835700000001 0.5225590800000001 11.935130490000002 1.988007 1.859127 2.746152
20500 5.20393032 23.221211760000003 -5.0783427 4.271737 -0.233042 0.7608010000000001
20520 1.03075632 15.98271687 3.06428103 3.1621740000000003 -1.409975 -0.18975
20540 -4.142782620000001 0.62615268 7.632032850000001 2.704436 -1.623262 0.7965
20560 0.69156576 13.51479555 8.23272858 1.594671 -1.50859 2.383456
20580 5.83710696 25.296350490000005 6.56579376 0.442308 -2.014088 1.65821
20600 9.70431687 21.193828110000002 3.3310247400000006 -0.264463 -2.687088 0.610483
20620 16.83818811 18.6339969 -1.2790866600000002 -0.5883109999999999 -1.877699 -0.118139
20640 21.064797180000003 17.39622015 -4.4945496 -1.121958 -0.550535 -0.411988
20660 12.373872930000003 15.5999601 -8.50336686 -2.206384 1.261687 -1.116229
20680 10.642564890000001 13.31810505 -6.33767202 -2.471848 3.108054 -1.213384
20700 7.2419382 7.06411233 1.42698222 -1.413679 3.344002 -0.929626
20720 0.10463346000000001 2.6927469000000004 1.4027319 -0.139277 1.456803 -0.554042
20740 -4.29412149 0.0953532 -6.6545644500000005 1.879778 0.148307 0.176378
20760 1.55960361 -0.28860039000000004 -2.42151021 1.885999 0.7931060000000001 0.6263850000000001
20780 4.30385301 -0.67719411 -6.26551947 0.443968 2.691492 0.5284220000000001
20800 1.95104223 -1.40916726 -2.6665542 2.789061 -0.261795 0.18005
20820 1.21666563 -2.443671 -1.8034507800000001 0.493256 3.858068 0.461042
20840 1.30273857 -1.89101484 -2.27377161 -0.980564 1.926892 -0.433403
20860 2.44771272 1.15799202 -3.1401711900000002 -0.8191069999999999 2.095866 -1.535965
20880 6.02362449 4.60293048 1.17026433 -2.064579 2.611416 -2.841078
20900 8.31566232 9.983637000000002 2.95665552 -0.370955 2.141454 -2.933332
20920 12.136009860000001 28.403579700000005 3.08987532 -2.395271 1.998936 -2.036096
20940 11.37768705 49.10988024 -8.44738119 -3.324456 -0.350612 -1.078175
20960 3.59731719 30.531712050000003 -4.61984292 -4.4215300000000015 -2.470854 -0.042673
20980 4.03919883 19.97566155 1.6563105900000004 -4.094571 -3.151437 -0.357848
21000 11.39236281 15.213916980000002 -1.6985132100000002 -2.324987 0.7554350000000001 -0.153941
21020 15.880928310000002 13.50985131 -2.31299199 -1.08822 2.902091 -0.19185
21040 9.251506890000002 9.262739340000001 -1.09826874 -1.095636 1.597673 -0.321621
21060 0.16151184 4.05326637 0.88196805 -0.514292 0.516734 -0.903697
21080 -6.31282329 -1.7235189000000002 0.7201521000000001 -0.35546 -0.12551800000000002 -0.80242
21100 -6.126305760000001 -7.028933670000001 3.4624493100000002 0.669806 -1.054693 -0.296277
21120 -4.117786740000001 -5.6109276 9.40763304 1.275257 -1.975672 -0.143453
21140 -5.02669305 -3.03434091 6.17211846 1.655979 -2.105298 0.24072800000000005
21160 -5.42755908 -0.42257556000000007 -2.0390575500000003 1.634888 -3.404923 0.788107
21180 1.90703457 4.58197632 -7.723040220000001 1.961323 -4.031752 0.883058
21200 12.96454284 12.586131900000002 -16.211437019999995 3.170769 -2.631138 0.955941
21220 12.42206946 4.10266953 -1.08629073 2.862426 -0.6260600000000001 2.495867
21240 1.26592164 -0.5855785200000001 13.942452690000001 2.550106 1.533107 1.73889
21260 7.413338520000001 33.70974984 -23.1803433 3.556549 -1.914376 -0.134006
21280 -1.1741589000000001 10.99253664 9.65866113 3.043815 -1.6130000000000002 0.06819299999999999
21300 -4.03231221 -4.8847914 3.7772424 2.426376 -0.366884 1.730846
21320 1.13898024 12.73836348 5.31813834 1.113773 -1.631769 2.435803
21340 7.94383389 26.378599500000004 3.20214096 0.04658 -2.5768720000000003 1.548276
21360 13.12036488 26.04658986 2.47345416 -0.41042 -2.563429 0.449071
21380 20.254530420000002 20.75613534 -2.34980892 -0.900761 -1.562533 -0.074792
21400 18.30274263 13.55371182 -7.460936640000001 -1.838195 -0.129594 -0.629038
21420 11.519745660000002 14.208156540000001 -5.73772185 -2.379655 1.413298 -1.5833780000000002
21440 8.0312508 12.0484458 0.49067658000000003 -1.821743 2.877059 -1.286528
21460 1.8212657400000003 5.61152601 0.43439661 -0.261788 2.337478 -0.903199
21480 -4.423299570000001 1.62232875 -4.6148986800000005 0.738737 0.8536299999999999 -0.193555
21500 -3.6556965 0.27437589 -6.60740778 1.859575 0.675756 0.691512
21520 3.39449544 -0.051041430000000006 -4.20654762 0.661928 1.945676 0.902641
21540 2.99407086 -0.8129547 -4.63421457 0.126446 2.834075 0.578364
21560 1.89086769 -1.20230379 -4.241431980000001 5.376043 -5.098378 0.392325
21580 2.6280891900000003 -0.80532252 -1.15200792 -1.34685 4.410796 0.229563
21600 3.56978052 -1.14976143 -1.53685422 -0.743927 1.7476330000000002 -0.565048
21620 3.72574971 1.5651462600000001 -3.79295802 -1.208932 2.115843 -1.664763
21640 5.87588589 4.45907664 2.6994863700000002 -1.90589 2.696559 -2.692664
21660 8.76187998 10.819655009999998 3.45706362 -1.004906 2.015078 -3.01451
21680 13.743221400000001 36.1308186 6.04398024 -1.964752 1.422145 -2.023803
21700 8.0631333 46.22791806 -19.59964425 -3.044576 0.733486 -1.498489
21720 1.8532953900000002 25.197553980000006 -2.59291053 -3.978849 -1.173494 -0.389484
21740 5.79041136 18.68519529 1.04452956 -4.072374 -4.257781 -0.230225
21760 13.69936089 18.09991107 -2.32002576 -2.647292 -1.037043 -0.502135
21780 15.49697472 14.487172560000001 -3.5429796 -1.050895 2.774409 -0.793902
21800 8.816668830000001 9.37665306 -1.63714185 -1.180326 1.767148 -0.538211
21820 1.56380229 2.36373912 0.5550498 -0.987815 0.356419 -0.629062
21840 -4.856352210000001 -1.32908823 1.4395586400000002 -0.677175 -0.44088 -0.513707
21860 -6.43931343 -5.83741107 4.14637308 0.329733 -1.0213370000000002 -0.08505
21880 -5.191353899999999 -4.98059586 8.81143029 1.283095 -1.667679 0.083739
21900 -5.4248711400000005 -2.1534225300000003 5.59686006 1.797591 -1.809071 0.364183
21920 -5.48414316 0.54202212 -2.4869331000000003 1.647095 -2.702487 0.6729930000000001
21940 1.33342425 4.85245764 -6.774315120000001 1.723604 -3.368902 1.026894
21960 12.2419971 7.2251729099999995 -10.82803275 3.000582 -2.497353 1.21309
21980 11.776905 1.94805018 -1.50466761 3.032539 -1.02187 2.230507
22000 -0.39981636000000004 -1.7193202200000002 10.741959809999999 1.519968 3.110876 1.542734
22020 0.38036313000000005 19.23724323 -14.929652610000002 4.125204 -0.919114 0.630333
22040 6.7280609700000005 21.459679110000003 11.98272861 2.6472860000000003 -2.229546 0.08330499999999999
22060 -3.9552252300000004 -3.31994925 4.28543964 2.050179 -0.602763 1.637722
22080 0.27198225000000004 8.418490740000001 7.036713000000001 1.064647 -1.17552 2.666679
22100 5.97512385 23.139033389999998 3.2804247600000003 -0.094915 -2.687209 1.824099
22120 11.546536770000001 28.232934750000002 3.36799863 -0.464695 -2.896056 0.561282
22140 14.56081623 20.63174454 1.85943645 -0.806819 -1.976383 -0.025536
22160 19.970118900000003 18.965565090000002 -4.18050207 -1.3179299999999998 -0.5919949999999999 -0.5297390000000001
22180 13.13114607 14.33479383 -10.567420290000001 -2.138706 0.830256 -1.176092
22200 10.33092081 13.60670544 -5.4518094 -2.017707 2.528242 -0.999029
22220 6.54139629 9.671835960000001 3.4994232 -0.8601559999999999 2.664254 -0.851181
22240 -0.2863539 2.9767071600000006 -0.91310499 0.287905 1.433637 -0.193174
22260 -5.236264080000001 -0.70353396 -7.24269357 1.880734 0.23733 0.290571
22280 0.23770611 -2.0275308000000005 -3.89041056 1.274612 0.934058 0.5396810000000001
22300 3.87978633 -0.8587674 -5.63338269 0.517237 2.284782 0.674733
22320 3.0713148000000006 -0.8253839700000001 -4.08545298 6.259665 -5.553628 1.317752
22340 2.24218341 -0.1272357 -3.6955152900000003 -0.769065 1.976907 0.993019
22360 2.2968251100000003 0.32167971 -1.51590006 -1.000665 2.63872 -0.471843
22380 2.68422201 0.34877493 -1.11757482 -1.173632 3.730621 -2.4485240000000004
22400 2.7824103 3.53400345 -1.92394701 -2.384779 3.688456 -3.639452
22420 5.407654590000001 7.260057270000001 1.8359316900000002 -0.14775 1.757014 -2.891756
22440 8.24664897 14.93684334 2.83614948 -0.733089 -0.92639 -1.859435
22460 16.14617109 45.17037063000001 6.5331657 -3.024777 2.428887 -1.120236
22480 8.73268542 33.140779650000006 -16.8899751 -3.346976 0.029203 -0.670759
22500 5.873786550000001 23.557410270000002 -2.9633851800000004 -3.99345 -2.550625 -0.17845
22520 9.50283909 17.677335510000002 1.0463247900000001 -3.136401 -2.201265 -0.375873
22540 15.22439406 15.437997000000001 -3.0247565400000003 -1.684244 0.746218 -0.535081
22560 14.15606544 12.44840931 -3.2386635900000003 -0.964153 3.495879 -0.140469
22580 6.55217748 7.26424614 0.9982754100000001 -0.939095 0.773749 -0.606824
22600 -2.5652169000000002 2.13859962 2.4439653 -1.162102 -0.084695 -0.987568
22620 -6.914568689999999 -3.4188929100000003 2.5282430099999997 -0.453591 -0.7676890000000001 -0.498908
22640 -6.836432040000001 -6.59363454 6.0760197 0.892783 -1.078703 -0.079976
22660 -7.0452477 -4.6783693799999995 8.75559177 1.478901 -1.629658 -0.003605
22680 -7.62828543 -1.6090067700000001 2.10462759 1.317919 -2.774114 0.489188
22700 -4.401599850000001 2.3992120800000003 -6.565499460000001 1.324528 -3.681517 0.962551
22720 7.6513389300000005 6.460866 -9.77407578 2.816131 -2.111787 0.856658
22740 15.00539562 9.06066315 -7.93709442 2.933209 -1.2262879999999998 2.287759
22760 8.02766034 -2.21149773 4.68510885 1.237881 1.063249 3.158539
22780 -1.14900606 7.076688750000001 13.844264400000002 3.651206 -2.096073 0.466161
22800 15.583047660000002 38.69408331 5.84788815 3.061255 -1.461552 -1.055648
22820 -6.75095751 -1.82710269 3.1874750100000004 2.829149 -1.671542 0.773932
22840 -5.01936498 4.563710100000001 12.372823260000002 1.986377 -1.094957 2.76595
22860 2.35295793 22.858369290000002 6.55756317 0.983247 -2.288185 2.334251
22880 7.091207550000001 23.986872450000003 4.308944400000001 0.211152 -3.219217 0.603804
22900 11.201205150000002 21.821776019999998 4.00597236 -0.520921 -2.722959 -0.052492
22920 19.580034060000003 21.73255407 -1.25648442 -1.314783 -1.1593639999999998 -0.371962
22940 20.75838183 17.002692000000003 -6.08169969 -2.128716 0.8783129999999999 -1.21454
22960 13.956078779999999 13.11706872 -8.7744564 -1.873983 2.690647 -1.243925
22980 10.272237389999999 11.405684790000002 -5.31768708 -0.778119 3.494197 -0.945675
23000 4.22885556 6.836883300000001 0.41913225000000004 -0.15728499999999998 2.00318 -0.511071
23020 -1.5783210900000002 1.7986635000000002 0.7536826799999999 0.760945 0.915977 -0.08665700000000001
23040 -5.51767374 -0.36479466 -8.40547287 1.7294779999999998 0.23924 0.47645
23060 0.64022022 -1.34645193 -3.8297847600000003 0.819075 2.498927 0.673362
23080 4.165983270000001 -0.5387259600000001 -5.1742943100000005 0.76963 2.399036 0.654985
23100 2.8898886600000004 -1.61334279 -3.4513738200000006 2.518435 0.868268 0.99497
23120 2.25880155 -1.38641787 -2.82043386 -1.186376 1.300016 -0.13173
23140 3.1584276000000004 -0.33246090000000006 -1.4314752 -0.936446 2.8418490000000003 -1.5067620000000002
23160 3.0383826300000005 1.69417719 -3.8396634300000003 -1.795047 2.987631 -2.851428
23180 4.253400180000001 4.02991857 1.5911918100000002 -0.5274439999999999 2.914278 -3.188584
23200 7.57634148 8.00190909 3.81990609 -0.8153239999999999 1.272082 -2.255932
23220 10.98745506 22.47561252 4.42734129 -3.163275 2.0996810000000004 -1.257514
23240 14.37625089 47.51135055 -4.13949627 -3.3460980000000005 -0.240355 -0.6607930000000001
23260 5.0847780600000005 34.018107570000005 -2.3802003000000003 -4.0769910000000005 -2.508184 -0.06372
23280 2.11854798 23.364614340000003 0.6970986 -3.179555 -2.04367 -0.587885
23300 9.98917965 18.851651370000003 0.54441576 -1.745381 1.169262 -0.514686
23320 15.705191970000001 15.034737330000002 -2.5086328200000003 -1.202609 2.677348 -0.366481
23340 14.415775380000001 9.64129743 -2.56402008 -0.96207 1.029865 -0.699179
23360 6.2465076900000005 3.78608121 0.37721412000000004 -0.907554 0.27137 -1.007611
23380 -4.44874671 0.5312409300000001 1.5820587000000002 -0.453507 -1.028512 -0.5413020000000001
23400 -6.06268791 -4.6015767 5.03717994 0.776675 -1.391024 -0.196823
23420 -5.41588518 -6.0589503 9.78844743 1.552164 -1.387475 -0.158296
23440 -7.37830701 -3.76706943 6.17181435 1.898639 -2.205341 0.27353
23460 -7.804767330000001 -0.31404753 -0.45385965 1.906896 -3.773862 0.906916
23480 -2.35819647 1.50781662 -5.55794379 2.341688 -2.977207 1.105485
23500 8.8498953 6.56714754 -10.301431950000001 3.054898 -1.434828 1.5870540000000002
23520 14.29841835 8.25847983 -5.31275265 2.197594 0.931835 2.424065
23540 6.470440560000001 -2.20821138 3.28776264 3.371596 -1.173602 0.456616
23560 -1.3584299400000002 5.92273845 10.10952873 3.123748 -1.734525 -0.512205
23580 11.64787407 34.45893954 5.86195569 2.981247 -0.753985 1.085739
23600 -2.3426280000000004 1.08030663 7.53876918 1.82393 -0.7651060000000001 2.204644
23620 -1.84551606 6.75963936 8.73748251 0.61848 -2.187305 1.932059
23640 3.52637127 21.55517946 4.99076883 -0.329817 -2.985138 0.610408
23660 9.26513298 25.155037440000005 3.75733791 -0.8355450000000001 -2.1660220000000003 0.004417
23680 11.99769867 21.0833577 3.4527177900000003 -1.391353 -1.169488 -0.437645
23700 20.60270694 18.46829619 -2.75920965 -2.0313790000000003 0.213276 -1.222622
23720 17.866992240000002 14.68087101 -8.390198700000001 -2.152889 2.1535040000000003 -1.207797
23740 11.88722826 13.539340170000001 -8.02331451 -1.414561 3.421732 -0.65413
23760 8.41355631 10.57042215 1.40811759 -0.41518 1.760414 -0.583064
23780 0.46912401000000004 5.70269034 0.34248672 1.28337 0.226647 0.01722
23800 -5.050197810000001 1.3566249000000001 -4.16104884 1.955413 0.470597 0.765084
23820 -1.78249662 -0.46238454000000007 -5.13372015 0.690688 1.774822 0.979973
23840 4.44350817 1.01997513 -3.1466065500000004 0.817962 2.6749080000000003 0.621855
23860 3.88277838 -1.14526845 -6.94764801 3.671291000000001 -0.187048 1.234043
23880 1.57996917 -1.40737203 -2.5679146500000005 -1.32826 1.424657 -0.010035
23900 1.60002081 -1.13673375 -0.7849667699999999 -0.7501140000000001 2.563103 -1.225229
23920 2.4288480900000002 -1.2479595300000004 -1.18777518 -1.935098 2.771633 -2.52739
23940 3.0286511099999998 2.14294545 -3.96256311 -1.4249969999999998 3.611867 -2.901986
23960 5.383257120000001 4.96442898 2.50908408 -1.065642 1.6496380000000002 -2.683317
23980 7.1657439300000005 10.996578359999999 3.2727925800000004 -2.713092 1.537868 -1.810193
24000 12.318779970000001 37.189710000000005 2.86803198 -3.159921 0.181432 -1.072367
24020 8.05250907 47.38246677 -12.48598161 -3.920736 -1.882516 -0.020701
24040 2.8521692100000005 27.859919310000002 -1.8365301 -3.907806 -3.017393 -0.474219
24060 7.44192486 20.62949805 1.31187168 -2.187955 -0.319934 -0.146264
24080 14.06549952 17.69455206 -2.43903087 -0.947667 3.1804 0.150607
24100 16.538953680000002 11.07023184 -3.4500298500000004 -1.025062 1.15652 -0.084486
24120 8.86950549 6.782094450000001 -1.949247 -0.640725 0.009858 -0.577055
24140 -0.8533719000000001 2.6601188400000004 0.6595263 -0.512364 -0.698604 -0.408608
24160 -6.25728888 -2.5191099 1.25918217 0.804512 -1.613517 0.273674
24180 -5.29194564 -6.3539860500000005 6.67087848 1.468652 -1.94616 0.300104
24200 -5.529200490000001 -5.4747157500000005 9.52244928 1.810499 -2.085726 0.539816
24220 -6.14187423 -4.08006729 5.35646601 2.071789 -3.3336980000000005 0.979075
24240 -5.623052760000001 -0.52795458 -2.38678281 2.280762 -3.2179450000000003 0.8885190000000001
24260 3.50780094 6.312676140000001 -8.94075552 3.389074 -1.621667 0.8696459999999999
24280 13.994249490000001 12.00114198 -14.33763873 3.293701 0.0064930000000000005 1.645627
24300 10.170752940000002 2.52420129 -0.07394777999999999 3.1059400000000004 1.7272310000000002 1.46265
24320 -0.23665644 -3.0894240600000007 11.7128457 3.5859870000000003 -1.631687 0.008979000000000001
24340 5.6217087900000005 31.723528950000002 -26.501342219999998 3.03827 -1.194072 0.536567
24360 1.399887 13.86551286 13.14611613 1.839893 -0.862701 2.354431
24380 -8.927580690000001 -7.78770774 -5.479051770000001 0.651004 -2.205836 2.275209
24400 0.67704696 15.285010050000002 7.4559923999999995 -0.306154 -3.055919 0.973859
24420 5.362450110000001 22.9457862 4.622982120000001 -0.633685 -2.354217 0.006068
24440 10.29259314 23.20100316 3.8345720400000003 -1.144831 -0.8583459999999999 -0.139356
24460 14.81424777 20.88427356 1.9145196 -1.975797 0.561185 -0.895803
24480 20.91630321 19.9353915 -4.17810843 -2.59482 2.250098 -1.536815
24500 14.32611198 13.320047430000002 -8.48734713 -2.001199 3.230692 -1.121592
24520 9.51137379 12.266394570000001 -5.801182740000001 -0.493821 2.016446 -0.872361
24540 4.022433540000001 8.538545520000001 -0.04939335000000001 0.473608 -0.097325 -0.313829
24560 0.19414971 3.39464259 1.2436137 2.532428 -0.487307 0.32062
24580 -4.1257230300000005 -0.64964763 -7.93664316 0.8026770000000001 1.731854 0.706278
24600 2.02528431 0.00404172 -5.545220220000001 0.171742 3.814283 0.500513
24620 3.9392055000000004 0.7068301200000001 -4.804408260000001 4.905480000000002 -4.216169 1.291624
24640 2.5495012800000003 -0.50595075 -4.60293048 -1.370568 2.610164 0.8608870000000001
24660 1.42683507 -0.6875240400000001 -2.07318654 -0.8622989999999999 2.3188020000000003 -0.241867
24680 1.78384059 -0.9654903900000001 0.41045040000000005 -1.31824 3.11471 -1.745855
24700 1.88503074 0.37108287 -3.1284972900000003 -1.301161 3.022975 -2.794612
24720 1.8585339300000001 3.75179526 -3.6797996700000004 -0.605912 2.514357 -2.744239
24740 5.68831869 6.66384471 3.4049725200000003 -2.064463 0.6246149999999999 -1.761764
24760 7.77797622 15.99857964 2.7297207900000005 -2.874316 0.6509119999999999 -1.242957
24780 13.83273765 46.329853769999986 4.81518945 -3.705792 -1.1321709999999998 -0.570296
24800 6.844064220000001 36.76774266 -13.280984010000001 -3.972325 -3.94238 -0.336752
24820 5.9661477000000005 23.693180670000004 -0.02499588 -2.654713 -0.541704 -0.49214
24840 10.23377238 18.49434174 -1.19571147 -1.327944 1.852086 -0.60558
24860 15.20583354 16.36292304 -4.341719610000001 -1.222625 2.940774 -0.158655
24880 14.04813582 12.15442323 -4.44126168 -1.244982 0.7177939999999999 -0.733871
24900 5.817349620000001 5.91344838 -0.44891541000000007 -1.214911 -1.457162 -0.578118
24920 -3.37412988 1.84611447 1.0240168500000002 0.119509 -1.216935 -0.272139
24940 -6.466398840000001 -5.276082870000001 2.18755152 1.4307450000000002 -1.098385 -0.153105
24960 -4.708603800000001 -7.17308181 7.103332710000001 1.971262 -1.799381 0.188059
24980 -6.0879879 -4.44365532 9.027574020000001 1.6542259999999998 -3.3847120000000004 0.7786029999999999
25000 -6.4955934 -1.9432629 2.6710471800000004 2.135135 -3.4056010000000003 1.056522
25020 -4.63436172 1.9965508200000002 -4.89002994 3.427153 -1.5394450000000002 0.787554
25040 6.583912830000001 7.9534084499999995 -10.08033417 3.266258 -0.17213 2.115682
25060 15.446826000000001 11.429631 -12.69929025 1.962288 1.315555 1.5086
25080 10.04725485 -0.659232 1.85300109 3.328424 -2.953823 -0.267795
25100 -0.5418749700000001 3.91705452 14.522802480000001 3.5593510000000004 -1.153377 -0.234306
25120 8.231678910000001 35.92633896 5.361400440000001 2.212373 -0.882237 1.590075
25140 -1.9429587900000003 1.57756572 8.14621419 1.187494 -1.459096 2.347434
25160 -4.45518207 0.6623712000000002 5.104986660000001 0.26595 -2.712964 1.0265540000000002
25180 1.4934449699999999 19.47599901 4.298310360000001 -0.249643 -2.305718 0.065304
25200 6.599030040000001 25.801094610000003 3.09032658 -0.7336689999999999 -1.4808290000000002 -0.138891
25220 9.93185001 21.810396420000004 3.6312990300000005 -1.584079 0.537804 -0.71678
25240 18.4108194 22.950122220000004 -0.6815301300000001 -2.143926 3.384074 -1.259518
25260 20.82978882 17.36868348 -7.525300050000001 -1.559397 4.658944 -0.90135
25280 12.336447779999999 14.43627828 -7.67214594 -0.185823 2.752151 -0.772876
25300 11.43696888 11.882293830000002 -2.7093650400000007 0.7661479999999999 0.240091 -0.4980890000000001
25320 4.036952340000001 6.72760971 1.4293758600000002 2.251307 0.277855 0.490728
25340 -1.74956445 0.37855809 -2.26703214 0.6266470000000001 2.560787 0.8214899999999999
25360 -1.6078099500000003 -1.2506474699999999 -5.429511270000001 0.6910229999999999 2.175743 0.353484
25380 3.55225986 0.39577464 -4.9311926999999995 1.162698 0.513544 0.569348
25400 3.20064003 -1.3036410900000002 -9.00228384 1.832327 3.536508 0.593653
25420 0.78915564 -0.8940932100000001 -0.4340925 -1.411534 3.0200720000000003 -1.973917
25440 0.48679182000000004 -1.22804523 -2.1622515300000003 -0.081765 0.185323 -2.0485900000000004
25460 1.21682259 -0.63153837 -2.06839926 -1.27673 1.82038 -2.308996
25480 2.09190402 2.06930178 -4.10536728 -1.304129 1.841483 -1.17049
25500 3.33087759 4.341121200000001 0.9304686900000001 -2.905861 2.736603 -0.920043
25520 6.453832230000001 8.868161520000001 2.7454364100000004 -3.295529 1.890206 -1.238942
25540 9.89232552 28.431871740000002 3.3257862 -4.034791 -0.7283109999999999 -0.31567
25560 11.86567569 51.17453208 -7.55284653 -3.937054 -3.640387000000001 -0.763113
25580 3.95881569 29.14259643 -2.410591680000001 -2.631664 -0.690701 -0.547335
25600 7.175034000000001 20.05125741 1.6542112500000001 -1.03817 2.063967 -0.297248
25620 12.90975399 16.929793890000003 -2.27676366 -1.258451 1.577502 -0.197751
25640 16.02837261 14.33748177 -2.55473982 -0.421426 0.096513 -0.858713
25660 11.3977485 9.95833701 -2.24353719 -0.222842 -0.747002 -0.544324
25680 0.9060614100000001 4.12018038 1.3822290000000002 0.8804770000000001 -1.168294 -0.042559
25700 -5.36453964 -1.5018227100000001 1.6443325800000002 1.7545580000000005 -1.282467 -0.220042
25720 -5.44058676 -4.75606458 6.4375083900000005 2.219097 -1.232649 -0.027785
25740 -5.505254280000001 -5.32053198 11.75864859 2.395826 -2.4445 0.509113
25760 -6.3023462100000005 -3.4048155600000003 6.35353479 2.3029580000000003 -3.723137 0.666063
25780 -6.64932591 -0.35311095000000003 -4.31028837 2.763607 -2.785126 1.189371
25800 0.22543380000000002 4.9552958700000005 -9.06904089 2.223558 -0.8420129999999999 2.70853
25820 12.44092428 8.85123927 -11.79951705 2.878598 2.089738 1.847293
25840 14.23255401 4.4945496 2.6818185600000004 3.413307 -1.83243 0.010167
25860 2.46537072 -3.6443169 8.34035409 2.5448470000000003 -1.004183 0.364098
25880 -3.71362455 -2.23650342 6.66473742 1.867738 -0.4492390000000001 2.030425
25900 11.10331116 39.343887900000006 -23.41804941 0.46892 -1.815718 2.109999
25920 -1.57531923 19.24308018 6.931186830000001 -0.313311 -2.794827 0.6893279999999999
25940 -4.83150348 1.14167799 4.9744548 -0.745861 -2.432588 -0.277694
25960 4.14712845 18.38671623 6.6443816700000005 -1.140513 -1.471467 -0.5284409999999999
25980 14.875766279999999 28.021284 5.704034310000001 -1.901178 -0.548505 -1.042343
26000 20.408714190000005 20.17759059 2.69754399 -2.55389 1.6436259999999998 -1.7558060000000002
26020 20.86167132 15.98630733 -5.224138920000001 -1.958046 3.772924 -1.160441
26040 11.66284413 14.62727898 -9.33653016 -0.4740430000000001 4.408472 -0.743897
26060 10.22014629 14.130019890000002 -7.987841550000001 1.013914 0.227999 -0.087213
26080 7.627539870000001 10.48554603 0.44068482 2.653317 -0.564558 0.8855850000000001
26100 1.5302717100000003 5.590571850000001 0.13472073 -0.017856 2.653011 0.6950930000000001
26120 -4.91128821 0.52106796 -7.280256060000001 1.110315 1.704703 0.8355799999999999
26140 0.7084782000000001 0.10269108 -3.2141189700000004 4.372426 -0.304527 2.031711
26160 3.63653757 -0.1502892 -5.519321820000001 -1.311679 1.466603 0.141714
26180 1.97619507 -1.07251749 -3.5112442500000003 -0.603642 1.910571 -1.472265
26200 0.9036677700000001 -1.10350728 -1.41755481 -1.623595 2.489468 -2.564377
26220 1.5985296900000001 -1.41320898 -0.5986062000000002 -0.803782 2.562238 -2.8247310000000003
26240 1.6548096600000002 -1.8510489 -2.0210954400000003 -0.520382 1.731744 -2.377307
26260 3.2626196100000002 1.16592831 -0.97971489 -2.503597 2.262884 -1.882298
26280 6.6199842 6.62357466 1.84102308 -3.385408 -1.697454 -1.208267
26300 8.40996585 17.19160317 2.09055024 -4.300652 -3.848578 -0.06676900000000001
26320 13.13548209 46.73476152 1.7283061800000001 -3.763051 -2.393598 -0.485758
26340 4.74393942 37.207377810000004 -9.5321808 -2.635146 0.714344 -0.265013
26360 4.32165816 22.35840264 -1.03674042 -1.4292 1.921709 -0.080812
26380 10.208168279999999 17.75712024 -3.0271501800000005 -1.509211 1.547784 0.257735
26400 16.31202876 14.87636469 -4.92610131 -1.140795 0.270748 -0.38433
26420 13.758789870000001 9.922864050000001 -3.4088572800000003 -0.647712 -0.6661729999999999 -0.409595
26440 4.579729830000001 4.31792055 -0.7027884 0.359045 -1.327509 -0.267119
26460 -4.32930015 0.8309266200000001 -0.07229970000000002 1.460846 -2.0770470000000003 0.005388
26480 -5.2516755900000005 -3.8390650200000005 0.9172938600000001 1.565816 -2.26356 0.202913
26500 -3.2711445000000006 -3.5458245 9.051824340000001 1.451616 -3.327796 0.574152
26520 -4.20130908 -2.49949971 11.750418 2.137177 -3.348614 0.656948
26540 -4.969069110000001 -2.3460713100000006 5.888305350000001 2.975607 -2.018518 0.837356
26560 -5.069356740000001 1.3811793300000001 -7.619907690000001 2.6699740000000003 -0.876157 2.335678
26580 6.15250827 8.30263464 -16.57308267 2.926736 1.619661 1.346168
26600 14.0090724 8.89734627 -4.34891034 3.175644 -2.160181 -0.138488
26620 6.282137610000001 -1.7263638000000001 8.34245343 3.080467 -1.002713 0.5975050000000001
26640 0.26420292 12.036771900000002 2.8853956800000002 2.215152 -0.7784270000000001 2.266146
26660 9.222322140000001 20.56932351 8.645866920000001 1.078983 -1.362842 2.61254
26680 -7.015013280000001 -3.58010064 -2.22886143 -0.021112 -2.667467 1.086448
26700 -0.7997896800000001 9.81538569 9.20481129 -0.766371 -2.384985 -0.17641700000000002
26720 4.61161233 23.67507141 4.88089683 -1.354279 -1.650381 -0.622641
26740 10.178385120000002 26.200165410000004 2.9374867800000004 -2.044119 0.074384 -1.376357
26760 15.69576456 20.51768367 -1.1407754700000001 -2.389798 2.337501 -1.726707
26780 19.072886490000002 18.13404006 -4.09473324 -1.623537 3.616523 -0.966692
26800 15.45940242 14.296770270000001 -9.13834854 -0.27838 1.930864 -0.703036
26820 13.442348700000002 13.59697392 -2.58767199 0.802268 0.683327 -0.017703999999999998
26840 7.355557620000001 9.16169634 1.7940233700000001 2.303928 -0.434472 0.891524
26860 0.97836111 4.27406004 -0.73332693 0.755584 2.02355 0.794237
26880 -3.2421069 0.8780734800000001 -3.87393957 2.129386 0.375735 0.893539
26900 -1.7774052300000003 0.00299205 -6.27225894 1.250123 1.109471 1.1823549999999998
26920 3.02431509 0.27408159 -4.80949965 -1.521416 1.4203059999999998 0.711807
26940 2.04878907 -0.15103476000000002 -4.78719171 -1.14356 2.6550830000000003 -0.7100069999999999
26960 0.7138638900000001 -0.6310871100000001 -3.3464362500000004 -2.0563290000000003 2.635645 -2.514176
26980 1.28044044 -0.69260562 -2.36687832 -1.016902 3.522762 -3.349811
27000 1.89266292 -0.8381075400000001 -0.54756477 -0.7401220000000001 1.307923 -3.29056
27020 2.83973994 1.3696525800000003 -3.02955363 -2.991027 1.122653 -1.630005
27040 5.834713320000001 4.885988220000001 2.47405257 -3.642453 0.434517 -0.275963
27060 8.081095410000001 12.777731009999998 2.21644197 -3.580954 -1.152317 0.362092
27080 14.74508727 41.15197881 6.002670330000001 -2.662493 -0.207739 -0.086698
27100 9.22052691 42.86426526 -15.78482955 -1.694518 1.865638 -0.213984
27120 3.13283331 28.110348990000002 -1.5322140900000003 -1.13197 2.215142 0.073644
27140 6.720870240000001 21.40398774 1.01369673 -1.07036 1.222867 -0.386126
27160 11.76598647 15.63079293 -2.7644481900000004 -1.006018 -0.199324 -0.695775
27180 14.481482759999999 9.923766570000002 -2.6933453100000007 -0.32264 -0.540275 -0.207728
27200 9.98004654 4.3225606800000005 -2.25506394 1.095467 -0.743309 -0.21358600000000005
27220 -0.20058507 1.1508111 1.38911562 1.7066599999999998 -1.642724 -0.130184
27240 -5.0707007100000006 -2.41537896 3.8428124400000003 1.368872 -2.788423 0.294077
27260 -5.125793669999999 -5.66346996 8.24380407 1.597242 -3.858956 0.8770889999999999
27280 -6.9088788899999996 -5.58189 10.170595980000002 2.067282 -2.667586 1.7024439999999998
27300 -7.441179300000001 -3.5266655700000005 2.72478636 1.478553 -0.662522 2.956265
27320 -6.2863264800000005 2.1405518100000007 -6.35173956 2.358359 -2.837243 2.051867
27340 4.16628738 5.4386443799999995 -10.090212840000001 3.655547 -0.17691400000000002 -0.484849
27360 14.802868170000002 12.0310821 -13.770463770000001 3.770536 0.612271 -1.070443
27380 10.564133940000001 1.8000074700000002 2.44202292 3.203846 -2.826692 0.281306
27400 2.4748079400000003 9.91088604 7.50554271 2.251092 -1.304155 1.573795
27420 8.74781244 27.93700629 9.445960710000001 0.680163 -1.522772 1.928434
27440 -4.85515539 -4.8499168500000005 6.56235045 -0.072197 -3.012003 0.711587
27460 -3.56333535 4.558765860000001 7.91463933 -0.487882 -2.761301 -0.083191
27480 1.7199186300000002 21.834342630000002 4.812638850000002 -1.06006 -1.7237669999999998 -0.640788
27500 7.486383780000001 26.566156890000002 2.3989079700000002 -1.709355 0.339321 -1.054959
27520 10.27972242 22.867649550000003 4.06270359 -1.9330080000000005 3.123323 -0.970358
27540 18.187033680000003 22.819148910000003 -0.30716091 -1.061641 4.37796 -0.596275
27560 19.18065915 16.75061424 -6.5291239800000005 -0.15569000000000002 1.779991 -0.376178
27580 13.62945483 13.893804900000001 -7.75462842 1.320553 0.153385 0.456613
27600 10.949127390000001 11.71344411 -1.52173701 1.735298 1.288659 0.70695
27620 3.18881898 6.2644698000000005 -1.6184341800000002 0.199043 2.851794 0.347045
27640 -2.07124416 1.2310372800000002 -4.62208941 1.044594 1.490036 0.762757
27660 -2.02199796 -0.22902426 -3.2757846300000004 1.935303 0.416808 0.913495
27680 2.5406624700000005 -0.15418377 -6.267167550000001 -1.354697 1.970097 0.008309
27700 3.12175782 -0.50160492 -6.37598988 -0.979512 3.709442 -0.7860560000000001
27720 1.45048698 -0.33155838000000004 -2.0622582 -1.401882 3.247028 -1.995505
27740 1.6808552100000003 -0.48124917000000006 -3.3055776 -1.25912 3.044327 -3.108403
27760 2.87327052 -0.31988447999999997 -1.29495924 -1.53667 1.690276 -2.048931
27780 5.01083028 0.40999914 1.57846824 -3.079438 2.07671 -1.179987
27800 6.91142949 6.43197555 2.9361428100000007 -3.534593 0.22935300000000006 -0.743897
27820 6.54783165 13.19177187 1.90059921 -4.482406 -2.805867 -0.127059
27840 8.908127460000001 31.64658912 -11.092529970000001 -3.225619 -1.858955 -0.12163
27860 9.70596495 41.987241449999985 1.2479595300000004 -1.154748 2.332659 0.27522800000000003
27880 4.59678942 30.77121339 0.44367687000000006 -0.848925 2.769348 0.560952
27900 4.74378246 21.519255240000003 0.8614553400000001 -0.984344 0.812771 -0.4693890000000001
27920 14.15576133 16.34945391 -1.24555608 -0.980094 -0.325281 -0.65484
27940 18.19466586 10.27403262 -3.4735248000000003 -0.674208 -1.393445 -0.464396
27960 11.012902200000003 10.142313750000001 -2.64964176 1.020786 -2.289229 -0.097827
27980 1.7063023499999999 4.29861447 1.16442738 1.738329 -2.291082 0.009737
28000 -4.065244379999999 -2.03157252 3.6016630200000006 1.656934 -2.115903 0.493917
28020 -5.6077884 -6.83224317 8.98686252 1.673542 -3.0516330000000003 0.849882
28040 -7.013963610000001 -8.29155915 11.558966040000001 2.527916 -2.623389 0.375669
28060 -8.374188779999999 -4.26044376 5.5321925400000005 3.307975 -1.082737 0.698542
28080 -7.3345936499999995 1.21187835 -5.13581949 3.1133 -1.369168 2.431273
28100 4.91787072 5.79055851 -12.94253901 2.741923 -2.023152 0.600721
28120 16.89791139 11.020534379999999 -14.900016600000002 3.686978 -2.7556380000000003 -0.323228
28140 11.724372449999999 2.1802136400000003 4.5867636 3.584111 -0.4361350000000001 0.198646
28160 -2.23619931 -3.9195953100000014 11.504030040000002 1.852323 -1.067959 1.992654
28180 0.38005902 27.155178720000002 -29.021796090000002 0.968128 -2.235463 1.950586
28200 1.4688905399999999 15.577210710000001 16.78430178 0.150899 -2.850449 0.6103890000000001
28220 -6.39409914 -4.45323969 3.7778408100000003 -0.501251 -2.220023 -0.367057
28240 -1.15829613 13.076955629999999 6.02916714 -1.179113 -0.755763 -0.7208399999999999
28260 6.081552540000001 26.741137860000002 2.1637524600000004 -2.277732 1.2523959999999998 -1.3944530000000002
28280 11.08879236 23.93567406 4.78225728 -2.389619 3.970217 -0.8411049999999999
28300 20.4673878 22.44222909 0.09609875999999999 -0.62164 3.5039480000000003 -0.855932
28320 23.36401593 16.193474910000003 -4.67851653 0.794719 1.336315 -0.536682
28340 15.13861542 13.88482875 -9.11335266 1.5275610000000002 1.310656 0.182043
28360 9.58636143 13.508213040000001 -3.4331076 1.80302 1.151899 0.217285
28380 3.07056924 7.8161469299999995 1.8829314000000001 0.349075 3.474134 -0.369482
28400 -2.05237953 1.86047631 -1.14840765 2.264109 0.944744 0.206884
28420 -2.9352500999999998 1.2998936700000001 -8.18453205 0.840007 4.5515050000000015 0.441211
28440 3.65240034 -0.01915893 -2.8548669600000003 -1.440313 2.299803 -0.31745100000000004
28460 4.21433676 -1.0030626900000001 -6.60726063 -1.033362 2.425581 -1.486609
28480 2.1365100900000003 -2.08081872 -4.72208274 -1.752336 2.946243 -2.662001
28500 0.65683836 -1.17341334 -3.3888056400000006 -1.362896 2.639236 -3.213295
28520 1.8375797700000003 0.008681849999999998 -1.34226306 -2.396727 0.652725 -2.109156
28540 2.29532418 2.5631175600000002 -3.2855161500000003 -3.177156 2.305445 -1.286717
28560 0.6911145000000001 3.45197223 -3.3421002300000002 -4.049216 0.493818 -0.63353
28580 5.37861699 6.7156317 4.09279086 -4.169707 -3.811306 -0.442985
28600 9.18280746 20.55286233 3.8384666100000002 -2.439091 -0.815875 -0.314026
28620 16.52997753 51.12767952 10.45366353 -1.2372459999999998 3.557332 -0.086908
28640 7.3862433 35.07162309 -15.529004370000001 -1.144352 1.476368 -0.047273
28660 6.71488614 20.85882642 -1.5640965900000001 -0.637688 0.454044 -0.571194
28680 9.66509649 18.864070830000003 -3.0256590600000006 -0.350456 -0.403595 -0.530701
28700 13.631407020000001 16.57922373 -2.94078294 0.99285 -1.673082 0.088127
28720 13.67302104 9.66659742 -2.40490188 1.939663 -1.925166 -0.029918
28740 6.361471080000001 2.64545289 -0.45625329000000003 2.365809 -1.830639 0.203674
28760 -4.13919216 -2.5495012800000003 3.7068948900000005 2.6832540000000003 -3.291354 0.516479
28780 -7.060669020000001 -6.868618649999999 7.053183990000001 2.497118 -3.749912 1.597875
28800 -5.433248880000001 -7.44910578 13.85174943 1.686594 -1.688909 2.641771
28820 -7.08132888 -2.7348121800000005 9.886635720000003 2.554206 -1.476986 1.375308
28840 -7.815842820000001 1.4335647300000003 -3.7925165700000005 4.414845 -0.166485 -1.352296
28860 -1.72591254 4.61834199 -11.15390133 4.179941 0.323176 -1.057599
28880 10.682687790000001 8.128997640000001 -14.94686916 2.921586 -2.639294 1.080261
28900 14.12402598 6.977892240000001 -2.0275308000000005 1.523616 -1.810021 2.7006080000000003
28920 3.93561504 -2.9065068000000007 12.93834033 0.159975 -3.776553 1.2290709999999998
28940 -0.72194733 10.85871843 5.143902929999999 -0.413351 -3.860349 0.039447
28960 5.4009151200000005 28.89965178 11.69847405 -0.72245 -2.728634 -0.323085
28980 -5.73906582 -2.56387293 6.08095413 -1.288695 -0.721047 -0.516551
29000 -0.7762849200000002 9.3673728 5.75269191 -2.429635 2.653712 -0.8503799999999999
29020 5.61617595 23.12212095 4.26013965 -2.151514 5.8543080000000005 -0.419909
29040 13.33891206 26.187588990000002 3.3343209000000003 -1.019602 4.027224 -0.567758
29060 20.891454480000004 22.61916225 1.89760716 0.533421 -0.081666 -0.5516449999999999
29080 21.912783389999998 16.272357120000002 -3.6286012800000003 2.0574380000000003 0.17471199999999998 0.079309
29100 11.396551680000002 13.361661450000001 -10.407409379999999 0.455535 2.720574 -0.359227
29120 8.74331946 13.656402900000002 -7.915090590000001 1.459106 2.007491 0.205241
29140 4.871175120000001 6.29755893 2.92192812 3.388713 0.698833 1.851571
29160 -0.82763046 1.9922049900000003 -0.6336279 -1.869892 1.956616 1.160544
29180 -4.58511552 0.5258552400000001 -11.575731330000002 -1.75787 1.556743 -0.4340850000000001
29200 5.043458340000001 0.30476727000000003 -3.03283998 -2.4852380000000003 2.154469 -2.756905
29220 3.9679488000000003 -0.6099857999999999 -5.05828125 -1.96196 2.361464 -4.090929
29240 1.7744131800000003 -2.15371683 -5.11785738 -1.167708 -0.8894860000000001 -2.452177
29260 1.12850316 -0.9306158400000001 -1.70180937 -3.892648 1.394238 -1.1004040000000002
29280 2.15043048 -0.35386632 -1.17760221 -4.209444 -1.899176 -0.132723
29300 5.41528677 2.66146281 -0.71221581 -4.163196 -2.055707 0.343159
29320 5.963145840000001 8.218955339999999 1.2000573 -2.315016 1.801879 0.815802
29340 6.21118188 17.44636887 2.4550407900000004 -1.2206780000000002 4.2034129999999985 1.630081
29360 9.80581113 40.629557070000004 -7.426503540000001 -1.7145720000000002 0.590494 0.603631
29380 6.0376920300000005 39.872882340000004 -2.05043715 -1.175638 0.140691 -0.596982
29400 3.79340928 24.5281392 -0.58753071 -0.963787 -0.595513 -0.755861
29420 11.28907332 17.804129760000002 -2.1980286 -0.181468 -1.712432 -0.507547
29440 19.13844672 12.297972960000001 -3.8107729800000003 1.532439 -2.542868 -0.24882
29460 15.72240852 10.02854718 -5.79505149 1.841073 -2.010202 -0.256961
29480 5.04586179 5.63473647 0.71281422 1.935889 -3.104004 -0.132051
