time Ax Ay Az Gx Gy Gz
20 7.728278760000001 8.178989399999999 10.18482048 -4.370181 0.642752 -2.432712
40 6.597381960000001 -1.4569223400000002 -1.55107872 -5.045685 0.460229 -2.821757
60 -8.02286325 -4.5218017800000005 -0.9544149000000001 -4.48246 -0.946469 -3.973973
80 -21.60322884 4.728518100000001 3.4516681200000003 -4.0366019999999985 -0.037469 -4.705892
100 -8.766216 3.7422207 2.1442894200000007 -4.484513 1.0299040000000002 -5.107767
120 -0.68452218 2.11735116 3.2768343 -3.5471190000000004 -2.135144 -5.0928900000000015
140 5.726489399999999 -1.48131981 8.76711852 -4.279044 -7.586436 -4.124276
160 0.5843817000000001 -2.36687832 -1.4223420900000001 -3.729636 -7.494764 -1.15624
180 -5.274729090000001 -0.42317397000000007 -0.09475478999999999 -1.148383 -5.8982480000000015 -0.115831
200 -4.80380985 5.49372753 2.80576791 0.801829 -3.730888 0.177024
220 -1.13898024 12.351113730000002 -1.75390047 1.711728 -0.771162 0.089857
240 -0.8416980000000001 22.894891920000003 -0.42391953000000004 2.116791 1.196636 0.478997
260 -3.10020525 48.90001491 15.99004494 3.618308 3.195473 1.212247
280 -2.50713189 66.10538151 11.42005644 5.43173 3.657881 1.750954
300 3.13328457 28.388462490000002 9.2575008 5.881191 3.158354 2.138226
320 -3.7167735600000014 18.448686000000002 -0.31598991000000004 2.140909 3.126332 0.603811
340 -9.067539960000001 12.165949980000002 -5.4586960200000005 -0.611866 1.080874 -0.705344
360 -1.0352493 -8.440651529999998 -1.06009803 0.17668499999999998 1.4350379999999998 -2.043045
380 10.969492950000001 -4.934488860000001 -3.4500298500000004 -6.580369 0.478064 -2.222545
400 2.51851149 -1.6170902100000002 -4.667598 3.778454 -1.428101 -4.1773669999999985
420 2.63736945 -3.04212024 -6.3758427300000005 -0.018323 4.042918 0.764879
440 8.13349062 -10.10742939 -11.229202890000002 2.688597 9.414334 2.071589
460 7.33070889 -14.848975170000001 -9.731412090000001 4.088066 -2.988408 6.380827
480 1.8058444200000001 -6.45457779 -5.03073477 5.023899 1.543711 7.323728999999998
500 -1.49658417 1.10051523 -1.90119762 3.89628 -1.046699 1.830647
520 -8.455170330000001 15.093862200000002 8.25264288 5.723107 1.497533 1.224852
540 -5.65778016 29.30396112 17.712514170000002 4.1574290000000005 0.15979200000000002 1.188924
560 2.59590258 36.54949959 15.129335160000002 2.824887 -0.183478 1.0753700000000002
580 10.25068482 77.03235792000001 -5.91001488 1.7333419999999995 -0.162491 1.833634
600 2.76011217 -22.50210933 -23.26956525 1.109565 0.430861 2.109459
620 22.86195975 -47.363307840000004 12.14604549 0.28075700000000003 1.894967 1.392494
640 10.840903470000002 -14.191842509999999 -21.09158829 -0.16281099999999998 -1.075322 0.255546
660 1.42593255 26.63695566 0.58453866 -0.563475 -1.512018 -1.0104
680 -11.70026928 60.59100393000001 -4.09279086 -2.309991 1.226493 -2.080444
700 -10.03692492 35.75045547 3.05754156 -2.908656 -0.184782 -1.084029
720 -7.580981610000001 22.361551650000003 10.74899358 -3.718352 -0.005997 -1.401835
740 -9.05586606 26.776022219999998 7.79039568 -4.275827 0.830858 -1.87041
760 -1.9251438300000001 18.71602812 10.716218370000002 -4.802275 1.049334 -2.502481
780 4.812491700000001 4.5693999 5.2573653899999995 -5.755338 0.340415 -3.145959
800 2.61056853 -4.1574583800000005 6.75200718 -4.397156 -1.039849 -3.34087
820 -4.56835023 -2.0998305 4.71130155 -4.848808 -2.112634 -2.670738
840 -10.28914983 2.67313671 0.98704296 -5.185923000000002 -0.496734 -3.678224
860 -8.91097236 5.57126577 -2.43004491 -3.447795 0.069368 -2.898757
880 -6.772961340000001 1.44389466 8.02151928 -2.901427 -4.476642 -2.720336
900 5.920639110000001 -3.4405926300000003 2.34457038 -2.296103 -5.2750650000000014 -0.983497
920 2.99557179 0.018413370000000002 0.96115437 -0.74298 -3.93227 0.195334
940 -2.43423378 2.68212267 3.77634969 0.7804810000000001 -4.014627 1.087364
960 -1.80959184 10.331519220000002 -2.5614694800000004 1.557443 -2.250328 0.896114
980 -2.03202378 18.694926810000002 0.34458605999999997 2.347414 0.5331899999999999 0.490004
1000 -1.10140794 35.55062577 10.18751823 3.397232 2.916774 0.504965
1020 0.72509634 57.34364868 10.47566736 5.134003 2.493876 0.593482
1040 0.48888135 27.69331608 5.04001503 5.142767 1.305209 0.540587
1060 -0.5536960200000001 11.180398140000001 5.4607953600000005 2.931659 1.975011 0.124769
1080 -7.924518 10.06387299 -0.00987867 0.304331 3.536401 -1.515008
1100 -9.067991220000001 2.2088097900000006 1.6374459600000002 0.626031 1.804152 -1.233872
1120 5.7293343000000005 -4.14383229 2.9987109899999997 -0.159593 2.937123 -0.96521
1140 7.16844168 -4.25236032 -5.090909310000001 -2.8018490000000003 -1.366868 0.327216
1160 -3.72156084 -2.06151264 -6.483321090000001 1.898135 1.796121 -2.989678
1180 -0.58348899 -3.99429846 -5.39523513 1.431417 3.837398 -1.307764
1200 4.8497697 -9.39805848 -4.50518364 3.1192990000000003 8.14381 1.345562
1220 4.6678923 -9.4279986 -6.10370352 2.077716 0.793379 5.71246
1240 2.51551944 -1.41396435 -4.900212720000001 4.245979 -2.472127 7.136502
1260 0.30955455000000004 3.98710773 -0.44157753 2.983221 0.265817 2.863036
1280 -4.6288288799999995 16.88638464 12.68507556 4.718043 -0.066316 1.569144
1300 -0.6562399500000001 22.29748254 10.2062259 3.284783 -0.947442 1.249409
1320 -0.99452799 8.59078377 1.4690475 2.15784 1.7159950000000002 1.365243
1340 14.9173803 18.219514590000003 -16.042891410000003 1.6335 0.973418 2.63692
1360 -9.51406173 56.36603313000002 17.18830701 1.080548 1.4669370000000002 2.243593
1380 -0.30596409 -12.8724858 -4.71189996 -0.193672 0.275186 0.8795780000000001
1400 11.46840012 -14.799719160000002 -1.2440649600000002 -0.927588 0.404712 0.028253
1420 6.3876637800000005 -1.1229605100000002 -11.3137749 -1.6660119999999998 1.1332870000000002 -0.644409
1440 -9.22501989 31.795230240000002 -3.3124642200000003 -1.978792 0.861643 -0.639836
1460 -18.08912988 53.03860866 -2.57134815 -3.067802 0.572731 -1.237799
1480 -12.56741442 33.01250409 9.409133970000001 -3.729173 0.203657 -1.873265
1500 1.0734200100000002 21.76039485 7.14014964 -4.2109260000000015 -0.704255 -2.17991
1520 7.3507605300000005 18.760035780000003 10.44976896 -6.091757 -3.316495 -3.166055
1540 9.918822330000001 4.26777183 6.03245349 -4.111401 -2.307506 -3.85961
1560 -1.11682926 -3.09241611 3.2067810900000002 -4.543636 -1.6840580000000005 -2.4864900000000003
1580 -11.82241359 0.32976315 5.24269944 -5.8104010000000015 -0.305581 -2.456512
1600 -9.36078048 1.47084273 5.73517125 -4.365939 0.367043 -4.613639
1620 -3.66033663 1.0734200100000002 -0.94094577 -3.626551 -4.666715 -4.905399
1640 0.82059669 1.82919222 2.24174196 -2.502716 -5.918269 -2.190139
1660 -1.0178856 0.26509562999999997 -0.032932170000000004 -1.308946 -4.883436 -0.409878
1680 -6.45068322 0.9090632700000001 2.51985546 0.4724060000000001 -3.788832 0.300848
1700 -4.86697644 5.24179692 -3.9420504 1.666968 -1.20872 0.593237
1720 -3.0895712100000003 12.84493932 -10.67953878 2.480089 1.807851 0.49357
1740 -6.518195639999999 22.43235042 9.68919966 3.26841 3.090407 0.618142
1760 -0.6478524 41.353603740000004 13.377082770000001 4.12274 2.5156650000000003 0.816058
1780 8.842115970000002 57.21671709 4.358789010000001 4.252471 2.158552 1.031066
1800 11.028764970000003 26.901609840000003 8.768766600000001 2.668002 3.321892 0.792045
1820 -1.49030577 17.26300035 2.46462516 0.568483 2.93756 -0.108752
1840 -10.454409090000002 14.449600260000002 -0.49576797 0.527228 0.8126399999999999 -0.415033
1860 -4.3436718 -1.88562915 -0.59097402 2.444281 4.562917 -1.137112
1880 6.68644695 -7.23760218 -0.5999501700000001 -0.090823 -2.374631 -0.686595
1900 1.26322389 -9.34491771 -3.21756228 0.575091 -0.94223 -1.430466
1920 0.027095220000000003 -6.428385090000001 -3.50271936 1.347356 2.797182 0.221608
1940 6.56010396 -7.6215557700000005 -7.77737781 6.476168 10.932719 2.159125
1960 9.633665250000002 -9.57303945 -10.637032050000002 2.217198 0.03128 5.964375
1980 2.85262047 -0.1013373 -6.008654430000001 4.713273 -5.472963 6.986583
2000 -0.36808101 3.87304686 2.33588853 4.816008 1.331657 0.8694200000000001
2020 -3.39464259 11.45822715 13.41106461 4.312352 -1.000412 1.882633
2040 -2.54754909 16.54224984 11.06633727 2.859039 0.213119 1.233198
2060 -2.7738854100000006 7.23265794 3.02131323 1.7169880000000002 2.714557 2.179142
2080 0.45250587000000003 -2.41133724 -18.15574959 1.262016 1.11648 2.347859
2100 11.65012056 48.40408998 4.613701860000002 0.004389 2.367926 1.637785
2120 -2.5518949200000005 12.491073000000002 -24.516171 -0.01806 0.030901 0.013721
2140 10.34364438 -18.046476 22.80372759 -0.718785 -1.371128 -1.2103549999999998
2160 13.67316819 -12.203071020000001 -12.6183087 -2.3945220000000003 0.8299690000000001 -1.946998
2180 2.83645359 18.59867109 -18.5352102 -3.282198 1.003226 -0.816833
2200 -8.93417301 74.00370681 -10.901676420000001 -3.253382 -0.441298 -0.839349
2220 -16.23209688 39.478451670000005 11.685152070000001 -4.779948 0.19372 -1.674425
2240 1.24915635 18.984125610000003 6.880292550000001 -5.20747 -0.696721 -2.400525
2260 6.940015830000001 16.90434675 14.21937918 -4.617243 -3.050994 -2.908268
2280 5.94129897 5.6934100800000005 1.89086769 -6.649041 -2.334928 -0.667293
2300 -0.92238525 -1.31770863 3.55675284 -6.942172 1.1870040000000002 -1.244285
2320 -10.762168410000001 -0.14250006 3.9754338300000005 -5.967738 1.920661 -4.402492
2340 -15.46074639 3.95268444 2.8238771700000003 -4.633179 -1.926896 -5.612421
2360 -5.55315651 4.0757214600000005 -1.0583028 -4.88621 -6.144234 -4.0855
2380 -3.9480443100000002 0.45385965 12.55334688 -3.850337 -6.176299 -1.2314120000000002
2400 5.536685520000001 -2.5283901600000003 2.90036574 -1.799961 -5.541677 -0.541719
2420 -0.31479309 0.7514361900000001 -2.39082453 0.274904 -3.434431 -0.508562
2440 -6.18484203 6.24306438 0.8033801400000001 2.057932 -0.699959 -0.433382
2460 -6.95632986 15.33874923 -6.8978034 2.905792 0.755149 -0.088561
2480 -5.18461443 33.65601066 3.66602643 3.755101 2.764219 0.250219
2500 8.736285689999999 62.41959774000001 9.43622919 4.709728 3.764074 0.597437
2520 12.66142365 41.14089351 8.92534401 5.111054 3.490268 0.523679
2540 14.05756323 27.46788228 3.4416423000000003 3.125357 4.122309 -0.23448400000000005
2560 0.0056898 20.871844290000002 -2.6271866700000004 0.497355 1.765525 0.5428
2580 -11.62811673 12.575801970000002 -3.05125335 -0.869374 0.350718 -0.637841
2600 -8.13782664 -4.11464754 -3.25677285 3.082186 4.672132 -0.76426
2620 5.72918715 -9.58936329 -5.04241848 -5.189575 -2.3065130000000003 -1.577943
2640 1.69043958 -6.23498094 -5.22593415 2.003967 3.37164 -1.213437
2660 2.49351561 -4.520153700000001 -4.54619925 6.952321 6.942553 1.658022
2680 6.99705117 -7.68022938 -9.313633620000001 3.414859 3.708855 3.802742
2700 6.33138381 -11.43262305 -8.47762542 4.288693 -0.331382 6.416212000000002
2720 2.24473401 -7.948474020000001 -5.506451100000001 3.21849 -3.504928 4.438729
2740 -1.97050527 0.14220576000000001 0.72598905 4.920212 -1.676389 1.504253
2760 -8.108190630000001 9.89157996 15.427068660000002 5.051593 -0.786119 0.933599
2780 0.40416219000000003 20.434602780000002 13.288616190000003 3.328618 0.260318 1.011022
2800 -1.01623752 12.562774290000002 0.17109621 2.0333360000000003 2.16647 1.506937
2820 6.780446370000001 6.869815470000001 -19.82567646 1.027366 1.019632 1.995967
2840 7.75986696 48.1303125 21.731062950000002 -0.058895 2.778126 1.409286
2860 1.17834777 -2.1056674500000003 -10.3366008 -0.002217 1.663994 0.259567
2880 11.756853360000001 -15.71731713 3.26785815 -0.7226779999999999 -1.5328959999999998 -0.979438
2900 8.49678435 -2.828223 -12.25980225 -1.973288 0.243944 -2.014876
2920 -4.072876560000001 31.37909985 -9.72992097 -3.15938 1.146772 -1.654713
2940 -13.44414393 47.09386638 -15.292799190000002 -3.17628 -0.218718 -1.156358
2960 -10.95062832 37.08059337 12.605133870000001 -4.283899 -0.449522 -1.3518059999999998
2980 1.46799783 21.958439130000002 7.1958410100000005 -4.8396040000000005 0.586252 -2.016108
3000 7.38923535 18.06458526 9.935293320000001 -5.323449 0.429357 -2.054538
3020 5.93905248 14.72727231 10.53509634 -4.24819 -0.604322 -2.096977
3040 2.6948462400000004 3.0401778600000005 4.29053103 -4.998762 -1.3469209999999998 -2.485828
3060 -7.0048305 -0.75428109 3.56199138 -5.858117 -1.6959110000000002 -3.443169
3080 -12.048740100000002 0.8234415900000001 -0.20178189000000002 -4.09315 0.423418 -3.764706
3100 -12.155767200000001 2.8313622 0.79903431 -3.276027 -3.445869 -3.0906740000000004
3120 -5.300029080000001 2.8488730500000004 3.75973155 -2.722864 -4.533661 -1.6710900000000002
3140 0.06107706 -0.94783239 9.76568823 -1.658023 -4.131869 -1.042462
3160 5.24898765 -1.83308679 -0.9515699999999999 0.347185 -3.357358 -0.132142
3180 0.23232042000000003 0.82089099 -0.20387142 1.762998 -1.671752 -0.11266199999999997
3200 -4.24442403 5.449268610000001 3.3277285800000005 2.547784 0.384724 0.148695
3220 -4.37689827 13.74187743 -3.63503664 2.9906080000000004 1.053581 0.33146
3240 -2.98584027 27.04321719 4.59484704 4.428106 1.685437 0.646203
3260 3.0954081600000007 63.46592253000001 12.74898771 4.923425 1.694907 1.3108799999999998
3280 4.00896441 33.87635307 5.03238285 4.06415 2.219303 1.452689
3300 3.4943318100000007 17.906516730000003 7.47994842 0.858562 2.938682 0.158192
3320 -5.38594506 16.105312440000002 4.3957629 0.427447 2.160368 -0.367251
3340 -8.935664130000001 13.907283840000002 0.69545052 -0.074995 -0.717366 -0.890502
3360 -0.40191570000000004 2.4628299300000003 -1.98127665 -0.5734199999999999 4.572697 -1.498966
3380 10.336306500000001 -4.728518100000001 -5.208119190000001 -2.855703 -2.4279490000000004 -2.535703
3400 4.41760977 -6.74317818 -4.99720419 1.882453 1.876256 -2.50385
3420 0.15762708 -5.279074919999999 -4.44141864 4.132504 6.86137 -0.101704
3440 3.99354309 -7.334299350000001 -6.29022105 2.848065 6.5320550000000015 2.642554
3460 5.276377169999999 -10.400375610000001 -7.3691739 4.4343910000000015 -3.457011 7.913541
3480 2.9147373900000004 -5.69355723 -5.877082710000001 2.743244 -4.640666 4.3567480000000005
3500 -0.68078457 0.65323809 -1.91661894 5.2333690000000015 -0.883892 0.984133
3520 -3.75255063 8.844362460000001 6.20505063 3.88417 -0.645307 1.363235
3540 -4.45173876 23.975188740000004 13.35477483 2.969628 0.553832 1.181191
3560 0.86685084 16.22970324 8.45666145 1.616741 2.993768 1.972985
3580 0.7499450700000001 3.9191538599999998 1.64178198 1.23106 0.8079310000000001 2.279672
3600 15.785575110000002 23.38092837 -19.56551526 0.738741 1.503294 1.175073
3620 -15.884813070000002 28.61434755 -3.21426612 0.07019199999999999 0.310214 -0.115275
3640 1.52622999 -15.17738454 12.14873343 -1.202496 -0.645367 -0.868559
3660 9.39655755 -14.615006670000001 -9.549093240000001 -2.218228 1.135264 -1.457981
3680 6.70754826 7.55493606 -10.69630407 -2.852129 1.9064330000000005 -0.8865569999999999
3700 -4.8499168500000005 42.56069481 -16.64494092 -3.092351 0.881668 -0.686096
3720 -11.427688620000001 56.96389377 9.10166895 -3.888871 -0.00535 -1.681833
3740 -4.56251328 26.629176330000004 7.958951100000001 -4.067054 -3.269639 -3.052628
3760 5.310359010000001 20.475922500000003 8.15923206 -3.202502 -0.653455 -2.171863
3780 5.8905518400000005 14.255460359999999 11.05720416 -5.014377 -0.157216 0.771683
3800 4.27241196 3.88412235 3.27817827 -5.497642 -0.926013 -0.489072
3820 -3.0576887100000003 -0.61642116 0.2863539 -3.71995 0.690288 -1.299121
3840 -8.24141043 2.3305028400000003 4.39411482 -3.18185 -1.446708 -2.8159080000000003
3860 -8.76037905 3.2218983000000003 5.104084139999999 -3.3131120000000003 -3.863111 -2.612903
3880 -3.51903339 1.31636466 0.98105886 -2.816387 -4.2997 -1.756433
3900 -2.1731798700000002 -2.16270279 9.42635052 -1.901919 -4.370106 -0.6614369999999999
3920 2.1218343300000004 0.85412727 5.18731218 -0.349693 -2.840747 -0.049009
3940 -3.0320944200000004 3.30138873 -3.1635189900000005 1.157247 -0.694697 0.096568
3960 -6.75679446 10.230329070000002 -8.57506815 2.041943 0.7681020000000001 0.08485
3980 -8.743613759999999 25.181681400000002 3.46948308 3.071231 1.54465 -0.264674
4000 3.81825801 38.555624970000004 7.78875741 4.2783370000000005 1.0298969999999998 0.07663500000000001
4020 9.55463589 28.431126180000003 -0.6140275199999999 3.827254 1.61319 0.8525379999999999
4040 7.61466915 24.804467280000004 8.78747427 0.632897 1.97803 0.030728
4060 7.383996810000001 28.485316620000003 9.04239693 -0.476944 3.154236 -0.6397609999999999
4080 -2.58557265 22.645060649999998 -2.40340095 -0.5977819999999999 0.441558 -0.679858
4100 -3.9686943600000006 16.613352719999998 -2.27422287 -0.509024 2.664207 -0.8775700000000001
4120 -1.69147944 7.27008309 -0.72658746 -3.271609 -3.077989 -1.322139
4140 1.55122587 -4.6092186900000005 -3.8896650000000004 2.613589 2.740621 -2.179384
4160 1.41021693 -10.28615778 -3.96435834 2.8666970000000003 1.69619 -0.421189
4180 0.21794877000000001 -8.1730053 -3.66018948 5.896915 6.638927000000002 0.4492890000000001
4200 4.024532880000001 -9.02024595 -7.91374662 2.1997400000000003 -0.867675 5.147147
4220 2.25939996 -8.02182339 -8.56982961 3.854858 -6.454617 7.331153
4240 1.28941659 -2.22782157 -7.562578050000001 4.514928 -2.763669 -0.098449
4260 0.93869928 0.17064495 -0.07244685 4.560422 0.466558 0.848447
4280 -3.71991276 12.320428049999999 14.216838390000001 3.41614 -0.060158 1.158391
4300 -3.24225405 21.418810649999998 18.8161686 2.099057 2.8501 2.051314
4320 -0.033383430000000006 6.08289651 5.204675879999999 1.519342 1.482769 2.4325080000000003
4340 6.07885479 -3.5049658500000005 -6.9048371699999995 1.18386 1.614526 1.477142
4360 19.89078543 30.225591000000005 -4.36761801 0.678891 0.088249 0.252456
4380 -19.08291231 25.0828947 -10.603197360000001 -1.221046 -0.130459 -1.213316
4400 0.2484873 -13.533356070000002 11.68500492 -1.81663 0.803345 -1.651303
4420 5.35945806 -10.237058730000001 -16.65645786 -3.45252 1.817619 -0.799838
4440 1.3409092800000002 12.123590400000001 -13.43905254 -3.4654050000000005 0.422073 -0.513992
4460 -2.0474451 47.545773839999995 -11.09133315 -3.864902 -0.125399 -0.720112
4480 -0.62135559 46.74868191 15.292347930000002 -4.389511 1.18839 -1.13993
4500 3.2980925700000006 19.443812400000002 10.412343810000001 -4.631533 0.925918 -2.157163
4520 3.9817220400000006 17.23365864 7.3688796000000005 -3.591184 -1.220884 -2.192011
4540 5.409449820000001 8.613533160000001 11.08624176 -4.851164 -1.787612 -1.100885
4560 3.8288920500000003 1.54314243 -1.02581208 -4.875968 -0.371352 -2.004452
4580 -6.255640800000001 -0.21599658 -0.66911067 -3.564621 0.294011 -3.031252
4600 -10.507245750000001 2.1625556400000003 4.794382440000001 -2.611578 -3.404874 -2.996355
4620 -7.6031424 3.5354945700000004 7.37396118 -2.240701 -4.30984 -2.38265
4640 -1.1972124 1.2710032199999999 0.15552774 -1.2024549999999998 -2.818455 -1.153126
4660 3.12415146 0.22842585 11.07456786 0.227393 -2.8057060000000003 0.011593
4680 1.60257141 -1.3816305900000003 -0.04715667 1.604062 -1.343214 0.4487600000000001
4700 -1.4373121500000001 1.97319321 -0.6026479200000002 2.50699 0.71249 0.534686
4720 -2.51791308 7.974362610000001 1.7491131900000003 3.821809 0.918153 0.178275
4740 -3.48251076 18.33821559 -0.88765785 4.859987 0.701588 0.4218810000000001
4760 -3.7374236100000005 34.473615300000006 1.2234051000000001 4.282494 0.505131 0.767407
4780 5.23536156 56.667955500000005 10.01941407 1.494668 1.723553 0.318016
4800 4.293974340000001 25.709635980000005 5.807323800000001 -0.779222 3.5154980000000005 -0.677586
4820 4.952598120000001 19.880906760000002 8.486748720000001 0.810027 2.009459 -1.852418
4840 -1.22998761 18.70540389 -0.99438084 -0.438893 -1.992678 -2.393329
4860 -3.99429846 14.437023840000002 -2.96414055 0.160994 2.008313 -1.536484
4880 0.47780586 1.1544015600000002 0.84633813 -0.060395 0.505265 -2.688716
4900 8.23722156 -7.0302776399999996 -2.5896143700000005 3.176531 2.206035 -1.91412
4920 1.73938167 -8.083940310000001 -4.72402512 5.591056 7.655453 0.916936
4940 -1.8465559200000001 -9.199121490000001 -5.30332524 2.511416 0.192701 6.898781
4960 1.0500624 -11.820471210000001 -7.052732730000001 3.297032 -4.970455 6.159925
4980 -0.24384717000000003 -7.52500575 -8.74870515 4.230915 -3.3391940000000004 1.280447
5000 1.53326376 -2.03501583 -5.7175132500000005 4.89984 0.967256 1.08198
5020 -0.44771859 3.67620921 5.472322110000001 3.136445 -0.083742 1.171422
5040 -4.8359964600000005 23.50651599 20.855079000000003 2.183405 3.574094 1.810625
5060 0.41119596 23.199060780000003 13.09192569 1.519304 1.6490939999999998 2.131056
5080 0.21929274 5.03582616 -4.651431120000001 0.755161 1.288444 1.343174
5100 10.73178684 4.59798624 -21.17452203 -0.085879 0.15144200000000002 0.031253
5120 1.13898024 45.63964179 24.69729303 -1.309353 0.07472999999999999 -1.300722
5140 -4.15461348 -2.98943073 -9.81194238 -2.127653 1.401897 -1.880705
5160 8.406963990000001 -8.23243428 0.22123512000000004 -3.230922 1.101561 -1.209706
5180 10.877278950000001 4.8538016100000005 -11.924506260000001 -3.661293 -0.066104 -1.338334
5200 0.6460571700000001 30.363912000000003 -15.22843578 -4.345555 -0.5945739999999999 -1.786817
5220 -3.183129180000001 55.06104807 1.9811295 -4.588501 0.455329 -1.99389
5240 -5.0049933300000005 28.9150731 13.25807766 -5.640742 -0.496804 -1.936995
5260 3.17160243 19.658621970000002 8.10714096 -4.831957 -2.273507 -1.35116
5280 5.383708380000001 14.559325110000001 13.84051698 -5.3007550000000005 -1.212025 -1.859996
5300 5.801781149999999 6.50382399 0.77943393 -5.458635 1.233689 -2.747652
5320 -3.2247432000000003 -1.23687423 0.4366431 -3.803463 -0.361358 -2.76823
5340 -12.43285065 -0.6730052400000001 3.7658726099999997 -3.332244 -4.77226 -3.543361
5360 -11.44878993 2.7542752200000002 6.1309458900000005 -2.842944 -3.3193550000000003 -1.27397
5380 -2.94243102 2.24174196 0.7126670700000001 -1.272381 -3.762041 0.175394
5400 0.6563871 2.4596809200000003 8.36475156 0.730668 -3.299697 0.299888
5420 0.22304016000000004 -0.29952873 2.54979558 1.702477 -2.003048 0.204602
5440 -3.4373062800000005 1.84775274 0.021552570000000004 2.127621 -0.308277 0.123147
5460 -2.9036619000000004 7.237749330000001 0.38110869 2.442459 1.596475 0.106882
5480 -1.9031399999999998 14.743144890000002 -4.12257402 4.007242 2.905726 0.075542
5500 -0.9322639200000001 26.276055570000004 3.03314409 5.220148 2.3661220000000003 0.765163
5520 7.00992189 54.10543634999999 11.519147250000001 4.819584 1.910118 1.128281
5540 6.919512930000001 36.05956857 8.0198712 0.91078 2.601891 -0.644315
5560 8.904831300000001 18.792075240000003 6.674616090000001 -1.253111 1.957844 -1.010049
5580 -0.20582361000000002 15.284264490000002 1.5962832 -0.544251 -1.442149 -1.183407
5600 -8.415949950000002 13.17575214 -1.0355436 -1.20855 4.405174 -0.880415
5620 -8.012984580000001 -3.01802688 5.45285907 -3.947873 0.293443 -2.025527
5640 5.24000169 -4.16404089 -1.17565983 2.3980200000000003 2.065241 -3.32409
5660 1.5676870500000002 -4.13814249 -3.0725116199999998 3.017025 5.107298 -0.30914200000000003
5680 -2.4777999900000003 -1.47278511 -3.51604134 3.2354830000000003 7.917128 3.051546
5700 1.28986785 -4.79123343 -5.915694870000001 3.864116000000001 -2.586703 6.284745
5720 6.406224300000001 -11.341164420000002 -5.751936540000001 3.509832 -1.434817 4.116577
5740 1.46036565 -9.28728396 -6.37613703 3.416809 -2.2727880000000003 1.170845
5760 1.05156333 -2.3586477300000004 -4.47524352 4.442734 0.61192 0.8292790000000001
5780 -0.52391286 3.33880407 0.81610371 2.550024 -1.08348 1.274361
5800 -8.4881025 22.23536562 15.07530168 1.730741 1.69723 1.898531
5820 0.15297714 24.748638570000004 12.199029300000001 1.1123809999999998 1.727461 2.067225
5840 1.2957048 6.27345576 -0.39098736000000006 1.183049 2.104832 1.674129
5860 13.969852020000001 19.11914064 -9.731412090000001 0.591902 0.776524 0.833148
5880 0.13905675 56.801479410000006 15.574365810000002 -1.074649 0.7272649999999999 -1.118321
5900 -0.17394111 -11.977038810000002 -13.61163987 -1.938097 1.469891 -1.733122
5920 12.03601653 -16.629970860000004 6.597234810000001 -3.248603 0.899596 -1.037587
5940 7.293735000000001 2.11375089 -15.342790950000001 -3.639749 -0.597122 -0.963626
5960 -5.8188505500000005 32.166009 -7.32112452 -4.422471 -0.21551 -1.14477
5980 -10.043213130000002 54.44643195 -1.7130418200000002 -5.04021 0.361255 -1.520497
6000 -12.985045740000002 28.240125480000003 12.72189249 -4.467752 -1.194127 -2.262261
6020 -0.96429357 19.2613464 11.369005200000002 -3.990185 -0.665423 -1.161471
6040 2.05013304 15.520479480000002 5.69730465 -4.41927 -0.98219 -0.9611
6060 7.14119931 10.02899844 9.60088023 -4.344848000000002 1.256415 -2.47071
6080 8.85034656 1.25184429 1.25947647 -2.993325 -1.340591 -2.876684
6100 -1.66049946 -3.5221725900000003 1.40183919 -2.743539 -4.45715 -2.936107
6120 -10.798848000000001 -2.51642196 0.013469130000000001 -1.484037 -3.742495 -1.86214
6140 -11.485165410000002 1.15619679 7.070243580000001 -0.052216 -2.645878 -0.287531
6160 -4.17482208 4.64633973 2.8449882900000003 1.746686 -1.920979 0.421655
6180 0.7262931600000001 1.8133294500000001 5.25901347 2.745731 -0.104983 0.961485
6200 -1.65990105 0.7253906400000001 1.5212857499999999 3.085057 1.915072 0.594867
6220 -1.8947622600000003 4.07318067 -0.16375833 4.596316000000002 1.221092 0.737704
6240 -1.9130186700000003 11.582166690000001 -1.51694973 3.995357 0.263357 1.270981
6260 -4.67418051 23.825203650000002 3.8425083300000002 2.218148 0.630147 0.863923
6280 4.5435015000000005 47.187277200000004 10.399473089999999 -1.873397 0.0666 -0.910478
6300 7.57110294 36.93853476 7.085066490000001 0.411394 2.856587 -1.565732
6320 9.09418392 20.220705539999997 8.093514870000002 0.28733600000000004 1.960422 -1.923305
6340 1.13029839 17.01735795 1.00949805 1.5081129999999998 4.208267 -1.146402
6360 -5.37022944 15.35730975 -1.68938991 -5.572552 -5.379991 -0.143125
6380 -7.563922020000001 5.236264080000001 2.03591835 3.719461 3.163164 -3.309857
6400 2.50877997 -6.2128299600000005 2.0480435100000003 2.047953 2.383612 -0.590158
6420 8.512499970000002 -7.219787220000001 -2.05268364 2.890995 3.556374 2.696874
6440 0.9178922700000001 -6.67656828 -4.649331780000001 3.044491 -1.832268 6.141321
6460 -0.5074418700000001 -8.964260280000001 -4.76534484 3.776132 -4.243941 2.819874
6480 -3.1373262900000003 -8.852445900000001 -9.54400185 4.0088050000000015 -0.29727600000000004 0.801775
6500 2.29412736 -0.76984956 -8.64317898 3.334566 -0.004406 0.607615
6520 3.6815949000000003 4.15251414 -2.18470662 2.151342 0.083591 0.938932
6540 0.0230535 15.59861613 11.720772179999999 1.318414 2.482072 2.321934
6560 -0.46268865000000003 21.755607570000002 21.60442566 1.094192 1.333002 2.15947
6580 -1.1934649800000001 7.3922274 8.531207640000002 1.02884 2.4577310000000003 1.202582
6600 5.63203872 -4.68195984 -18.13942575 -0.131575 0.5387 -0.335963
6620 22.466930670000004 26.68844835 -3.4037757 -1.494425 0.1477 -2.071228
6640 -22.35047616 30.3812757 0.22378572 -2.865201 0.700204 -1.323073
6660 -3.46948308 -7.419018510000001 8.020322460000001 -3.62682 -0.296899 -0.928669
6680 3.97228482 -4.247720190000001 -10.79165727 -4.054985 -1.174854 -0.7820520000000001
6700 -0.11765133000000001 14.95420704 -3.33281997 -4.6462080000000014 0.511161 -0.72318
6720 -3.6561477600000005 48.961386270000006 -10.527307200000001 -5.2108050000000015 1.010949 -1.607979
6740 -8.74676277 36.395168670000004 13.736786040000002 -3.90642 -0.413142 -1.984808
6760 0.18980388 20.208129120000002 9.41243013 -3.879245 -0.673875 -0.211036
6780 4.45907664 15.065118900000002 6.9368766299999995 -3.5283010000000004 0.729482 -1.4099959999999998
6800 8.46145854 7.91074476 9.80191656 -2.731141 1.36474 -2.720223
6820 8.14665564 4.80575223 2.42735697 -2.15583 -1.586153 -2.400502
6840 -5.26035744 3.2474925900000002 3.09226896 -1.606276 -3.07133 -1.766646
6860 -11.6323056 -0.15478218000000002 -3.6866862900000004 -0.76325 -2.641938 -0.655698
6880 -12.989234609999999 -1.9976004900000002 6.96022443 0.22762 -1.83183 0.223991
6900 -6.377039550000001 -0.7471001700000001 3.38460696 1.740824 -0.692163 0.820622
6920 1.87500492 1.62367272 4.066146900000001 3.013547 2.323889 1.2508
6940 1.3959924300000002 2.36448468 1.7392345200000001 4.73922 1.780644 1.075543
6960 1.1064993300000001 5.09750163 -0.20372427 3.662298 -0.223609 1.060975
6980 0.51807591 12.635221140000002 -1.02327129 1.364269 -0.960518 0.058829999999999986
7000 -1.8505976400000002 26.39700306 0.47436255000000005 -1.805114 -1.419556 -1.211471
7020 6.00955695 52.27144704 11.56031001 -1.608486 3.2728080000000004 -1.337888
7040 6.47493354 31.827564000000002 7.091649 1.313073 6.8803740000000015 -1.608387
7060 7.25436747 18.2605302 6.963216480000001 2.0354400000000004 0.607387 -1.008849
7080 -0.19788732 16.75764801 1.2317926500000003 -4.671353 -3.63172 -0.6956140000000001
7100 -4.95439335 13.126800240000003 -0.76715181 -0.407605 1.850422 -3.3808
7120 -4.3932123 5.367384540000001 -0.51073803 1.605534 1.343873 -0.997841
7140 3.3781716000000004 -2.3724209700000003 -0.10733121 0.951297 -0.54885 2.160884
7160 6.28917138 -4.70876076 -1.35109206 4.1059980000000005 0.811476 4.757728
7180 4.0080618900000005 -9.91852803 -0.18891117000000002 2.2385900000000003 -3.05115 4.762452
7200 0.53049537 -14.05232469 -1.16172963 3.135318 -3.037815 0.124069
7220 -3.1901629500000004 -7.924518 -7.336997100000001 3.289375 1.557506 0.592479
7240 0.8348113800000001 -1.33177617 -6.258632850000001 1.266467 -0.15244000000000002 0.792048
7260 -1.5712873200000002 3.3653008800000004 2.3309541 0.393165 1.063638 1.664605
7280 -4.32495432 15.422879790000001 15.13368099 0.444906 1.523347 2.0083450000000003
7300 -4.22392113 12.30097482 21.506227560000003 0.404583 3.208527 1.266694
7320 2.6882637300000005 4.979242080000001 -1.7630335800000003 0.010861 1.891358 0.665291
7340 13.1272515 29.5341822 -15.74905248 -0.641955 0.520903 -0.504011
7360 -10.9178433 37.79340759 -8.503670970000002 -1.281718 -0.314738 -1.430353
7380 1.12386303 -10.29962691 8.63524269 -2.196126 0.25823 -0.601057
7400 6.09277518 -12.65229054 -4.617743580000001 -2.908754 0.370145 -0.265415
7420 3.0478100400000003 -3.00275271 10.63598238 -3.472303 -0.59117 -0.466809
7440 -4.01853897 19.23724323 -8.93207367 -3.684849 -1.093775 -1.3980709999999998
7460 2.6634150000000005 66.74964345000001 -10.829229569999999 -1.828166 0.421711 -1.841038
7480 -3.9936902400000003 20.43356292 17.272584719999998 -1.912985 -0.056222 -0.531378
7500 1.5679911599999998 13.70894526 7.18520697 -1.748822 0.112301 -1.523894
7520 6.06523851 9.015301710000001 7.483087620000001 -0.971713 0.796114 -1.6411189999999998
7540 7.71435837 7.82183673 13.97703294 -0.482073 -1.057064 -1.101213
7560 -0.37287810000000005 8.43869934 1.9443027600000002 -0.28231 -1.659744 -0.808489
7580 -6.62208354 3.68533251 -0.58138965 0.32346 -1.597217 -0.453961
7600 -8.57537226 -2.85831027 -3.4055709300000006 1.115835 -1.774996 0.15962
7620 -9.00692397 -1.3162175100000002 0.24324876 2.391082 -0.317407 0.844981
7640 -6.942262320000001 -0.02544714 0.7038380700000001 3.271545 1.500249 2.137077
7660 -1.9970020800000001 0.5954571900000001 4.20939252 1.319611 0.220262 2.644239
7680 2.5761452400000002 6.118075170000001 0.8381075400000001 -0.312356 -2.216575 1.534625
7700 0.6099857999999999 10.648705950000002 -2.23455123 -0.777297 -2.929579 -0.905391
7720 -2.41103313 20.94145605 4.825068120000002 -1.580509 1.7010610000000002 -1.7779220000000002
7740 3.91002075 34.53797871 7.968084210000001 -0.071226 4.594643 -2.359678
7760 3.999537 29.11116519 5.01831531 1.234158 2.756181 -1.944416
7780 3.0740027400000005 12.744494730000001 2.24278182 -8.816608 -12.789826 -0.050536000000000005
7800 1.95448554 12.27716595 3.4991190899999998 2.4258330000000004 3.714119 -1.443801
7820 -1.8390708900000001 12.6757953 0.0811287 1.966641 1.82114 -1.582384
7840 -1.67815746 11.881842570000002 1.01384388 -1.000754 -1.494018 -0.07237400000000001
7860 2.89079118 7.73337015 1.9579288500000003 2.169575 -3.812334 1.7740599999999995
7880 7.05392955 1.43985294 1.6816007700000002 1.475928 -2.0367610000000003 -0.225294
7900 6.438116610000001 -6.83224317 3.63144618 1.711909 -2.301266 0.181549
7920 0.6800390100000001 -7.81135965 -1.4106681900000002 0.693601 -2.784737 0.756169
7940 -1.62501669 -2.24428275 -5.362901370000001 0.239334 -1.214495 0.611046
7960 -3.18343329 1.9446068699999999 -0.022602240000000003 -0.437435 -1.665298 0.712651
7980 -8.05938588 9.25690239 11.89905912 -0.620691 -1.111875 0.7352310000000001
8000 -9.103169880000001 9.34821387 17.46478224 -0.770982 0.180203 0.09266
8020 -6.40278099 2.45190159 3.54807099 -0.7787810000000001 0.003808 -0.010786
8040 7.901170200000001 7.051683060000001 -26.38637883 -0.915574 -0.319529 -0.284792
8060 10.43898777 33.51051855000001 19.50054363 -1.263623 -0.769355 -0.445812
8080 -3.24061578 16.18808922 9.998754210000001 -1.7995880000000002 -1.091554 -0.924501
8100 -2.81235042 -4.4420170500000005 -19.49142033 -2.086611 -2.896819 -1.302343
8120 -2.7981357300000003 6.9129206100000005 -5.416640550000001 -0.638509 -1.093302 -1.227241
8140 -0.6855718500000001 36.89302617 1.94700051 -0.403912 1.47656 -1.002433
8160 -1.3028857200000001 22.78052694 3.25707696 -0.450455 0.18203 -1.43907
8180 2.23919136 10.196641529999999 4.312976310000001 -0.649729 -1.465106 -1.477875
8200 3.64297293 10.93161654 7.21454868 -0.361862 -2.461063 -1.47993
8220 -1.91227311 12.28106052 9.881848440000002 -0.164864 -2.281821 -1.4531459999999998
8240 -0.8300241 10.15248672 9.711654750000001 -0.139045 -2.563621 -1.068045
8260 2.69903511 8.51040063 5.49776925 0.214463 -2.594119 -0.940554
8280 0.21360294000000002 6.7060571399999995 2.0926495800000002 0.539274 -2.927759 -0.903675
8300 -1.66095072 2.06526006 -0.05149269000000001 0.888999 -3.284383 -0.735201
8320 -3.1642743600000003 -2.17078623 -0.99348813 1.408667 -3.594638 -0.5880310000000001
8340 -4.203859680000001 -0.66282246 -4.2628374 1.859504 -3.909389 -0.322764
8360 -2.5225532100000003 8.720570069999999 -5.976624780000001 1.410623 -5.210792 -0.02513
8380 -2.1900923100000007 15.395637420000002 3.03314409 0.702064 -5.766331 -0.07743799999999999
8400 -0.29683098 24.01950051 9.983342700000001 -0.42369 -5.033162 -0.4975060000000001
8420 2.76549786 19.738406700000002 4.20071067 -0.320459 -2.712413 -0.731563
8440 4.14173295 13.333526370000001 3.0606807600000003 -0.964308 0.17823 -0.577395
8460 4.3204613400000005 13.47542802 4.55847156 -0.627905 1.989008 -0.022958000000000003
8480 -2.36253249 14.35799448 4.5229986 -0.081716 -0.347963 0.5072810000000001
8500 -4.10057019 12.6069291 3.05844408 -0.438733 -5.959215 1.45949
8520 -2.47914396 11.8255626 0.19504242000000002 1.223883 2.109493 -0.057179
8540 2.23170633 9.36093744 0.14340258 1.5420969999999998 -0.910541 -2.200349
8560 4.00762044 6.628813200000001 0.56717496 -0.12781199999999998 -0.843625 -2.567817
8580 2.20266873 5.54387625 1.84461354 -0.884733 -3.175917 -0.747729
8600 0.81730053 4.76399106 2.10881646 0.6812779999999999 -3.186386 0.244919
8620 0.38948643000000005 3.42547542 1.1567952000000001 1.085281 -3.470436 -0.19948
8640 1.63160901 3.17399607 -0.69845238 0.595691 -4.074985 0.358691
8660 1.08210186 4.917723570000001 -0.32751666 0.7351770000000001 -3.163798 0.143785
8680 -0.37331955 6.61878738 2.6941006800000005 0.6558 -3.135365 0.028895
8700 -0.9834525000000001 7.71151347 9.15736032 0.071484 -3.167938 0.156246
8720 0.79709193 5.88770694 9.8358984 -0.17796099999999998 -3.024712 0.252597
8740 4.04204373 5.210659980000001 2.07019449 0.036596 -2.688068 0.32844
8760 7.21724643 3.30887376 -10.22463927 0.161856 -1.92558 0.282404
8780 11.00840922 7.53757236 -0.12065319 0.224216 -1.6464330000000005 0.21732
8800 5.21739945 14.866181910000002 7.0307289 0.046244 -1.408083 0.173043
8820 -8.980427160000001 35.43102225 -12.374765640000001 0.018042 -1.256782 0.189744
8840 -12.245881859999999 29.62219752 -1.90478808 0.163026 -1.718706 0.228736
8860 -8.39903751 11.0160414 6.90753492 0.123092 -2.3479330000000003 0.175852
8880 4.778362710000001 5.35212018 -2.12527764 -0.051274 -2.28419 0.10405
8900 6.823561320000001 9.949812120000002 -6.913675980000001 -0.123099 -1.853698 0.13611199999999998
8920 5.779934280000001 11.486666340000001 -3.63024936 0.015937 -1.185662 0.254799
8940 4.34726226 12.175230240000001 4.26209184 0.276558 -0.477767 0.423423
8960 0.05283666000000001 11.890524420000002 -0.08442486000000002 0.490918 -0.195408 0.488652
8980 1.5331166100000002 8.54782578 -0.37451637000000004 0.648066 -0.386545 0.465426
9000 1.61618769 6.5824119 0.83496834 0.765508 -0.790902 0.518039
9020 2.32182099 5.841904050000001 2.1375597600000003 0.792149 -1.323319 0.705846
9040 2.5882704000000003 6.907682070000001 2.57315319 0.504312 -1.555323 0.8985489999999999
9060 1.6730660700000002 7.932150180000001 2.04324642 0.154851 -1.106157 0.764141
9080 0.59171958 7.9197307200000004 1.22041305 -0.471696 -0.443665 0.535658
9100 0.50145777 8.05774761 0.27303192 -1.208944 -0.547338 0.195219
9120 1.40378157 8.637489180000001 -1.35977391 -1.998741 -0.7529279999999999 -0.187117
9140 1.4055768 9.63621585 -1.75435173 -2.695569 -0.239783 -0.834643
9160 0.8184973500000001 10.690015859999999 -1.0398894300000001 -2.365273 0.794297 -1.843131
9180 1.85659155 11.07516627 -0.22453128 -2.265638 0.651929 -2.555825
9200 2.70262557 9.87227388 0.94183848 -2.151383 -1.631741 -2.725152
9220 2.5008534900000003 8.51922963 1.90897695 -2.446248 -2.814503 -2.393479
9240 2.44546623 9.2170836 1.64687337 -3.502377 -2.15198 -1.9915080000000005
9260 1.37070225 11.041341390000001 0.008681849999999998 -3.863514 -2.0325830000000003 -2.232397
9280 0.283509 11.99680596 -1.1798487 -4.488133 -1.926465 -3.451464
9300 1.50197967 11.28233385 -1.41875163 -4.765448 -1.422628 -3.201947
9320 2.4200190900000003 11.007065250000002 -0.25416729000000005 -4.539863 -1.896089 -3.543732
9340 2.42765127 11.016943920000001 1.8731998800000003 -4.291791 -3.223008 -3.3298589999999995
9360 1.5760746 10.431806850000001 3.33791136 -3.4402410000000003 -3.575071 -1.808721
9380 0.5998030200000001 10.0328832 4.16074473 -2.043155 -3.881183 -0.795509
9400 -1.17805347 9.60552036 4.62014703 -0.649596 -3.09232 -0.279381
9420 -2.8677376800000003 8.737776810000002 6.11149266 0.338538 -2.523915 -0.224069
9440 -5.1224975100000005 8.528814 7.01111871 0.853115 -1.322659 -0.043621
9460 -6.48436095 9.46406997 4.76279424 1.239993 0.332163 0.041351
9480 -5.6179711800000005 10.68433587 -3.66348564 1.543199 1.399182 -0.124541
9500 -1.6881930900000002 13.955176260000002 -2.10088017 1.731499 2.857116 -0.446629
9520 0.25312743 17.06885064 3.49507737 0.986983 2.868343 -0.477481
9540 2.8442329200000005 23.83627914 5.954915250000001 -1.143145 2.212062 -1.009607
9560 3.58370091 29.308454100000002 6.338868840000001 2.917745 1.666675 -1.607589
9580 3.37113783 27.7007913 5.15528253 2.179163 0.313261 -0.041796
9600 8.03873583 19.816837650000004 7.183264590000001 1.466195 1.204711 1.153832
9620 4.02049116 18.25993179 7.6451978700000005 3.782091 2.819691 0.473594
9640 -3.8694564000000002 12.98384892 4.65411906 2.789995 2.18209 1.473747
9660 -8.73449046 5.40047367 5.776186860000001 3.681237 1.149871 2.023952
9680 -1.5705319500000001 -0.74200878 2.87611542 4.3149 0.398242 2.957626
9700 2.11539897 -6.1390293300000005 0.24488703 4.726636 -0.692368 3.0751310000000003
9720 2.3875381800000004 -2.50997679 -4.09533165 4.666691 -1.374345 2.91108
9740 4.31177949 -3.1263979500000003 -5.606591580000001 4.61459 -0.686286 1.653605
9760 4.183651080000001 -4.3496559 -3.5417827800000006 3.332809 -1.663663 0.764621
9780 1.45273347 -4.32569988 -0.7846724700000001 1.903993 -0.229237 1.0625870000000002
9800 0.10104300000000001 -1.85927949 2.26523691 1.544514 1.892249 1.509216
9820 1.00681011 1.71962433 7.3227726 0.637821 1.512738 1.564257
9840 -3.50451459 11.5565724 15.256129410000002 -0.014243 2.169767 0.594256
9860 -6.723420840000001 13.31975313 -10.15248672 -0.050015 -0.661669 -0.455632
9880 14.90614785 6.9668167500000004 -5.57860365 -1.376663 -1.0706790000000002 -1.7152630000000002
9900 10.608887160000002 15.851733750000001 6.06523851 -2.265083 0.600759 -2.015235
9920 3.2606674200000003 9.756260820000001 -7.249727340000001 -3.32896 0.337348 -1.28846
9940 0.7909508700000001 13.28651685 2.7473886 -3.771743 -0.196615 -1.106066
9960 -1.6651395900000001 19.10806515 5.47785495 -4.405613 -0.174378 -1.056043
9980 -6.22615194 15.83287893 -0.3305087100000001 -4.869838 -0.083131 -1.892616
10000 -6.72686415 20.386857510000002 -1.43072964 -3.906544 0.175061 -2.559198
10020 -5.12354718 24.95865105 -1.0145894400000002 -4.207212 0.609168 -2.16768
10040 -1.09212768 33.4093284 4.55218335 -6.339316 -2.123648 -3.152221
10060 3.1139784900000005 22.6477584 6.057155070000001 -5.4463550000000005 -0.526807 -3.923559
10080 6.997502430000001 13.1733585 11.74862277 -4.605791 -3.865294000000001 -4.1409410000000015
10100 5.05708443 6.4414029600000005 10.95332607 -3.175005 -3.767783 -2.8620240000000003
10120 -2.2538671200000002 4.066598160000001 1.5001844400000002 -1.864909 -4.208958999999999 -2.096007
10140 -9.80925444 2.3047614000000003 1.60346412 -0.26654 -4.014563 -1.21449
10160 -11.821815180000002 2.93898771 -2.09009898 0.968493 -2.782537 -0.829292
10180 -7.663464090000001 1.66827879 2.4818417100000003 2.230251 -1.214326 -0.356743
10200 -3.96166059 -0.5185173599999999 4.57433433 2.792983 -0.081965 -0.039138
10220 2.22257322 -1.7950632300000002 7.075187820000001 3.166936 1.106387 0.559087
10240 4.812491700000001 0.49741605 4.3385804100000005 3.517494 2.7328650000000003 1.103177
10260 0.92267955 3.78173538 -0.15133887000000001 2.85168 2.970653 1.3556629999999998
10280 -0.24743763 13.092524100000002 -0.8704413 1.702878 3.64878 0.069176
10300 -0.45924534000000006 22.816598310000003 5.36888547 -0.609658 4.801625 0.15516300000000002
10320 0.33485454 36.43812666 4.219271190000001 -1.107335 2.930775 -0.421688
10340 -2.6972398800000006 36.86443983 -2.24562672 2.324278 0.190648 -0.407025
10360 -0.14998509000000002 27.24469497 6.7237151399999995 0.547734 -0.634975 -3.116705
10380 -0.7056333 23.999439060000004 2.8038157200000002 -1.227775 2.7159150000000003 -0.66474
10400 -4.38363774 15.86311335 5.3349036299999995 5.146688 6.318615 2.078839
10420 -4.6509798600000005 5.6311362 2.8765666800000007 3.227897 0.106056 4.771726
10440 1.8106317000000003 -3.7094356800000003 -0.20597076000000003 4.571053 -0.7780130000000001 4.379521
10460 4.40024607 -2.70742266 -3.39569226 3.636295 -1.518676 3.666778
10480 2.56880736 -1.19331783 -3.80433762 4.770636 -0.57792 2.65548
10500 4.645741320000001 -3.96989118 -4.3066979100000005 5.374715 -0.996497 0.517383
10520 5.61168297 -8.20294542 -3.21142122 3.295094 -0.839902 0.721642
10540 3.70793475 -9.318273750000001 -3.0353905800000005 2.106811 0.956982 1.277196
10560 1.10874582 -4.01061249 -1.05994107 1.319317 0.373411 1.909104
10580 -3.57127164 5.62589766 3.8883112200000003 0.028342000000000006 1.703132 1.100421
10600 -1.08823311 17.75771865 15.44713011 0.267666 0.713641 -0.208416
10620 3.971088 12.80811258 9.0030294 -0.519392 -1.7231150000000002 -1.537523
10640 6.10999173 1.7762084100000002 -6.869962620000002 -2.141896 -1.193464 -1.781339
10660 5.5402759800000005 21.37599981 -5.33370681 -3.280276 1.331723 -0.916585
10680 -7.70103639 16.614255240000002 -9.700579260000001 -3.504685 0.781954 -0.434611
10700 7.93051191 -5.75373177 11.664639359999999 -4.3068800000000005 0.912998 -0.807851
10720 6.799311000000001 -2.4736013100000003 -7.956400500000001 -5.259861 0.271837 -1.878703
10740 -1.56904083 27.62654922 -5.07639051 -4.623257 -1.497535 -1.910445
10760 -10.202635440000002 38.36132811 -7.647444360000001 -5.668085 -0.753009 -2.044748
10780 -6.8632231500000005 28.11288978 1.0741655700000001 -6.887647 -0.340086 -3.282251
10800 -4.13335521 29.499454800000002 6.7060571399999995 -5.822282 -0.403935 -3.955185
10820 -0.54636795 24.310798650000002 6.9928623 -4.603815 -2.734114 -4.6391
10840 2.3812499700000003 18.49628412 8.90947143 -4.176126 -4.901714 -3.206191
10860 2.9903332500000004 6.467301360000001 6.8912208900000005 -2.939605 -4.939418 -2.043825
10880 1.4976338400000002 -0.68841675 1.73533995 -1.080663 -4.528414 -1.47696
10900 -6.420900060000001 3.53534742 3.3455435400000004 0.251997 -2.816779 -0.968849
10920 -10.08437589 5.03717994 -2.62778508 1.658187 -0.844578 -0.417829
10940 -7.65971667 2.06405343 4.06060425 2.01432 0.361094 0.126839
10960 -0.27527841000000003 -2.10626586 11.789628570000001 2.586787 2.442921 0.891949
10980 5.203479060000001 -2.13471486 6.587503290000001 3.66125 3.911522 1.395363
11000 4.33334187 0.58932594 0.45999090000000004 4.4828980000000005 3.744558 1.676918
11020 -1.11967416 7.17922287 -2.9532122100000002 3.892383 3.5070879999999995 0.8366790000000001
11040 -3.49388055 18.55122012 1.36261881 -0.5210130000000001 3.041115 0.512688
11060 -2.97296955 31.72278339 6.7036635 -2.395282 4.210464 -1.242036
11080 0.9749178000000001 46.557386910000005 3.66064074 -0.235504 -0.868332 -1.891285
11100 1.76722245 42.578362619999986 6.246958950000001 1.558801 0.588897 -1.565494
11120 -1.93427694 24.05602314 6.57193482 5.61869 9.284638 1.862554
11140 -6.239179620000001 21.51251577 1.18389042 2.3529560000000003 2.958403 4.314374
11160 -8.56504233 10.32148359 -0.9015782400000001 4.655556 -0.630413 4.956762
11180 2.4490566900000004 -4.22032086 -0.33095997000000005 3.272427 -0.556195 4.645767
11200 6.32868606 -5.589227879999999 -3.9128656500000005 4.183467 -1.376733 3.127761
11220 2.52929268 -2.62254654 -4.07827206 5.002682 -0.127027 1.320178
11240 4.57404003 -2.96278677 -6.24021948 3.464336 -0.2488 1.40466
11260 6.63749505 -6.25549365 -10.514730779999999 1.923258 1.262927 1.117425
11280 6.41042298 -9.114990930000001 -7.4323404900000005 1.841074 1.1593129999999998 1.259058
11300 3.56947641 -7.05961935 -3.91975227 0.526692 1.59562 1.446939
11320 -0.26839179 -1.7078032800000003 1.4441987699999999 0.373078 0.851345 0.693723
11340 -8.143810740000001 5.801634000000001 11.195966610000001 -0.527943 -1.186123 -0.755264
11360 -2.9653373700000003 18.48715101 16.05021948 -1.122324 0.153835 -1.531321
11380 4.7624999400000005 34.27212771000001 10.711274130000001 -3.12609 1.6422290000000002 -1.443607
11400 -5.148847170000001 28.472141790000002 -14.946123600000002 -3.319776 -0.182404 -0.5239510000000001
11420 16.6873005 -16.35393708 15.96519621 -4.066738 -0.6117630000000001 -0.928133
11440 6.579272700000001 -12.91259889 -19.531533420000002 -5.024355 -0.399673 -2.252212
11460 2.6035347600000005 13.85923446 -8.18677854 -4.811 -0.4769350000000001 -2.562543
11480 -8.0864811 42.07031253 -4.2171816600000005 -4.245059 -0.136602 -1.849727
11500 -8.78687586 30.429766530000002 -3.72620097 -5.812417 -0.780989 -1.051205
11520 -2.79543798 30.249998280000003 6.84795879 -6.770728999999998 -0.417494 -3.738534
11540 -4.138897860000001 28.039844520000003 3.9348694800000006 -4.750022 -2.070844 -4.679428
11560 -1.44075546 21.11314086 9.183248910000001 -3.811525 -4.655603 -4.327729
11580 0.7716447900000001 15.48754731 8.26640631 -3.073572 -4.844002 -1.813079
11600 3.5182878300000002 2.4288480900000002 4.559217120000001 -1.375129 -4.875077 -1.110036
11620 0.8273263500000001 -1.29929526 2.5102809 0.768672 -3.692979 -0.482349
11640 -10.1367711 -0.40775265 1.3825233000000001 2.387649 -1.133624 -0.162399
11660 -13.29115698 2.72837682 5.11515963 3.074761 0.647868 -0.046651
11680 -7.3688796000000005 4.2745113 5.45974569 4.359669 1.961913 -0.234844
11700 -2.92476321 1.4691946500000002 10.02075804 4.765001 2.327754 0.63171
11720 3.15782919 -0.9812060100000001 -0.6255444600000001 4.291447 2.282109 1.267257
11740 -1.15649109 1.58834691 -0.73885977 1.7384 3.142105 0.205737
11760 -4.772820060000001 8.75858382 -3.46603977 0.336415 3.897754 0.263342
11780 -5.20527429 18.12685914 4.56026679 -0.19039 0.961797 -0.596494
11800 -1.9513463400000002 36.7092162 7.7745329100000005 1.379216 4.972486 -1.138667
11820 5.5781523900000005 52.7142312 3.6271101600000004 -1.6714639999999998 -3.845296 -1.566352
11840 9.51362028 36.121979790000005 5.09435262 1.884983 1.806901 -1.946131
11860 0.9424368900000001 19.72568313 2.7864520200000005 2.268682 4.927951 -0.630333
11880 -6.748563870000001 16.1524593 -0.79888716 3.920907 6.245921 2.937766
11900 -9.44431263 5.35121766 0.33081282000000006 3.575904 -1.113601 6.843797
11920 5.23057428 -1.90134477 -1.7148370499999999 3.215245 -0.984666 5.550701
11940 7.6179555 -9.32260977 -3.6751595400000006 3.724912 -0.981541 2.99907
11960 0.20791314000000002 -6.952445100000001 -5.4943259399999995 4.3784410000000005 -0.299915 1.4068379999999998
11980 2.97146862 -7.14988116 -8.41624425 3.227805 -0.518033 1.539017
12000 4.07691828 -10.85288148 -10.71606141 1.981943 1.470795 1.564086
12020 4.63256649 -7.93544634 -8.149206240000002 1.416941 0.054298 1.707232
12040 4.29352308 -1.5491265300000001 -1.1684691 0.368798 1.658664 1.269498
12060 -2.3105983500000002 8.42642703 10.32013962 -0.118054 1.428416 0.397928
12080 -1.2448105200000001 26.23579533 17.85307185 -1.041375 -1.257889 -1.010859
12100 -0.11420802000000001 19.24204032 6.8591814300000005 -2.03534 1.384991 -2.261394
12120 1.56844242 0.36673704 -6.95409318 -3.149086 1.568463 -1.624203
12140 21.9481092 20.55360789 -12.58058925 -3.056096 -0.583285 -1.199917
12160 -19.610121330000002 25.308917100000002 -1.8844323300000003 -4.174396 -0.184153 -1.475295
12180 0.76461102 -6.91652088 12.39347331 -4.711711 0.575922 -2.473468
12200 9.85130991 -6.545889270000001 -6.7835953799999995 -4.215404 -0.108688 -2.727634
12220 6.4990367099999995 16.17101982 -9.306148590000001 -3.577942 -0.251216 -2.270073
12240 -3.6989586 36.64170378 -7.32127167 -5.398024 -0.893141 -2.931442
12260 -7.90655589 43.179509610000004 -0.47376414 -5.5708449999999985 -0.373399 -4.0837910000000015
12280 -7.95730302 31.156962210000003 7.287741090000001 -3.517612 -1.397332 -4.746457
12300 -1.95642792 19.638707670000002 6.80095908 -2.906278 -4.969996 -4.279342
12320 1.63565073 17.13531339 10.50650019 -2.031113 -4.76689 -1.754622
12340 0.8978308200000001 7.74638802 3.40541397 -0.5614819999999999 -4.336295 -0.954424
12360 2.2403881800000005 -2.2203365400000004 5.645959110000001 0.8687440000000001 -4.341464 -0.369724
12380 -6.4321227 0.51223896 7.01261964 1.480964 -2.989281 0.0772
12400 -12.27552768 3.3132097800000007 -0.9505203300000001 2.27213 -0.403733 0.15953
12420 -7.9038679499999995 3.2527311300000004 2.68286823 2.909311 1.385766 0.7128899999999999
12440 -3.2509359000000004 -0.8604154800000001 12.485540160000001 4.423034 2.667961 1.097835
12460 4.17272274 -2.60862615 -0.31913892 4.16325 3.205257 1.755493
12480 -0.44577621000000006 0.2604555 -0.40296537000000004 3.254257 3.044907 1.35197
12500 -4.48242444 6.066435330000001 1.7850374100000002 -0.058855 4.3681410000000005 -0.342498
12520 -6.116878350000001 16.090793639999998 -1.3681516500000002 -0.596437 0.524778 -0.181095
12540 -4.67627985 33.79118265 4.478088420000001 1.023721 5.216492 -0.845566
12560 3.6697640400000004 58.69489769999999 7.45479558 -0.235107 -1.43167 -0.87575
12580 7.331307300000001 29.720994030000004 4.40084448 -0.26019499999999995 0.282263 -1.8940000000000001
12600 4.32690651 21.314177190000002 6.5367561599999995 0.989803 -0.162204 -1.052554
12620 -5.690270880000001 21.78464517 2.25131652 6.010912 8.645261999999999 1.30957
12640 -10.0556424 11.737537470000001 0.52795458 2.985485 0.509251 6.181705
12660 -0.33664977 -3.8568799800000004 0.88914897 3.246253 -3.013839 7.075734
12680 5.2115625 -4.89796623 -1.55945646 3.549509 -1.810697 2.977543
12700 0.99408654 -3.9603166200000004 -6.38362206 4.867619 0.048784 1.1609120000000002
12720 -0.08487612 -2.8743201899999997 -5.5152801 3.228129 -0.875194 1.346129
12740 7.13027097 -7.265894220000001 -5.954316840000001 2.400377 1.665601 1.2366780000000002
12760 9.066941550000001 -11.952494190000001 -6.006260790000001 1.507674 0.646799 1.576784
12780 4.07093418 -5.098845600000001 -5.52561003 0.6733180000000001 0.344193 1.517933
12800 2.75172462 2.46027933 -1.48775517 0.035596 1.7736759999999998 0.5032449999999999
12820 -0.34083863999999997 12.323272950000002 6.33183507 -0.640139 -0.873001 -0.641081
12840 -0.036071370000000005 27.312805800000003 19.917282240000002 -1.076578 -0.12951 -1.309517
12860 -3.86585613 5.99757894 3.25901934 -2.537745 1.690489 -1.501516
12880 1.55571885 -2.3830452 -17.646051420000003 -2.770889 -0.074684 -0.764878
12900 5.9376987 47.88706374 3.9188497500000006 -3.303605 -0.887659 -0.793195
12920 -9.150620850000001 10.631636550000001 -22.38819561 -4.245996 0.17567 -1.087423
12940 10.05369021 -13.862824920000001 16.07910993 -4.952807 -0.761228 -1.675477
12960 14.73131403 -7.999211340000001 -8.44977483 -3.618154 -2.017025 -3.403611
12980 3.98471409 21.820275090000003 -14.186751120000002 -4.298504 -0.934054 -1.913172
13000 -6.25923126 45.54608382 -8.8293924 -5.305957 -1.249758 -1.211573
13020 -9.30839508 42.60156327 10.148445 -5.375079 0.324639 -3.259718
13040 -3.9585213900000005 23.746468590000003 5.536685520000001 -3.152921 -2.4187950000000003 -4.298221
13060 0.7925989500000001 17.5144797 8.37433593 -3.247199 -5.63001 -4.098212
13080 -0.33650262000000003 13.507614629999999 8.57641212 -2.684836 -4.593548 -1.646179
13100 2.19697893 1.82979063 1.8483609600000002 -1.312382 -4.587832 -0.537399
13120 -2.2350024900000003 -0.7682014800000001 5.5919256299999995 0.465791 -3.109442 -0.16154100000000002
13140 -9.66554775 0.95261967 5.256168570000001 1.935445 -0.734146 -0.036815
13160 -9.17546958 3.46139964 2.7075698100000003 2.6134880000000003 0.726587 0.114532
13180 -5.0569372800000005 1.6205335200000002 2.11854798 3.549022 1.882356 0.116381
13200 -2.09009898 -2.65069143 10.30995684 4.379695 2.783902 0.646594
13220 1.26472482 -1.7919240300000001 -0.43888959000000005 3.801059 2.391313 1.2893290000000002
13240 -1.3512392100000001 1.18613691 0.15956946 1.340839 2.351481 -0.200883
13260 -2.6976911400000003 6.34965003 -2.2528174499999998 -0.131948 4.28515 -0.304447
13280 -3.6121401 15.508501470000002 -6.805295100000001 -1.59474 2.399037 -0.756628
13300 -2.24862858 30.74770863 8.418343590000001 -0.5177390000000001 -1.654477 -1.122061
13320 5.795502750000001 54.08462934 6.71937912 2.922214 1.023028 -1.822514
13340 6.60052116 29.920676580000002 2.433193920000001 0.907623 2.235052 -0.5455899999999999
13360 9.13894695 21.72447063 7.54521435 4.253324 6.012955000000002 2.567577
13380 -1.37010384 18.82410489 1.38267045 2.7280990000000003 -0.4309850000000001 5.7719830000000005
13400 -6.45996348 17.96698557 -2.0574709200000005 4.115438 -0.300197 4.631032
13420 -6.390057420000001 2.1157030800000003 1.27370097 3.416005 -1.36463 3.69602
13440 5.636531700000001 -3.9243924000000003 -1.25633727 4.008628 -0.378694 1.7141400000000002
13460 3.5892337500000004 -6.1827426899999995 -2.79723321 4.009241 -0.7815479999999999 0.694508
13480 -0.22857300000000003 -5.096147850000001 -3.51169551 3.039712 0.040939 0.978307
13500 5.01427359 -6.282588870000001 -5.807323800000001 1.920392 1.89856 1.204185
13520 5.54701545 -10.64660661 -6.84466263 1.454684 0.547674 1.636361
13540 4.054473 -7.98903837 -5.73083523 0.452313 1.602515 1.385522
13560 2.76684183 -0.80053524 -2.2041696600000003 -0.152125 0.158168 0.537119
13580 -5.400169560000001 10.73777094 11.712992850000001 -1.164985 -0.186041 -0.6830149999999999
13600 -3.8438523000000004 25.19635716 14.33075211 -1.688894 1.6735080000000002 -1.187917
13620 -0.0058369500000000005 14.838792390000002 6.82415973 -2.643711 1.227437 -0.697292
13640 9.098676900000001 17.543821410000003 -19.15850817 -2.709975 -0.210504 -0.68523
13660 -11.97420372 8.40921048 -4.19233293 -3.132647 -0.33132399999999995 -1.006358
13680 4.39486038 -4.1008743 10.95242355 -3.756796 0.8839600000000001 -1.215237
13700 10.903775759999998 -4.51671039 -10.794502170000001 -4.250305 0.391548 -2.054471
13720 6.61384314 21.91068405 -4.16509056 -3.805144 -1.823201 -2.429879
13740 -3.8019439800000003 36.12737529 -2.70966915 -4.534879 -1.682176 -1.102016
13760 -6.292908990000001 31.360235220000003 -6.042489120000001 -5.005763 0.024009 -1.927885
13780 -4.52240019 28.95039891 5.79400182 -4.719461 0.40327 -3.7776
13800 -4.86937008 27.10683504 5.43400425 -3.613672 -3.13376 -3.858279
13820 -1.13419296 18.242263980000004 11.712688740000003 -3.1541330000000003 -4.498241 -3.492262
13840 1.2347847 11.39370678 9.88648857 -2.278074 -3.873449 -1.459458
13860 3.70914138 0.96848244 0.5709125700000002 -0.925991 -4.627212 -0.614766
13880 -0.97088589 -3.6486627300000003 4.54305024 0.370557 -3.380979 -0.372298
13900 -8.59692483 -1.14945732 5.021758620000001 1.277043 -2.017477 -0.346349
13920 -8.99329788 3.9751297200000004 3.5408900700000006 1.888105 -0.663466 -0.354498
13940 -4.344868620000001 2.4146334 3.05454951 2.889273 1.105611 -0.336953
13960 -0.37616445 -1.98517122 7.170393870000001 4.6001379999999985 2.1291990000000003 0.07961
13980 -0.28650105 -2.4801936300000005 0.93255822 4.5669629999999986 2.091354 0.78018
14000 -2.122884 1.0557522 -0.17198892 1.246194 2.846076 -0.727743
14020 -1.9863680400000001 6.13933344 2.40010479 -2.22559 4.498844999999998 -0.247774
14040 -1.34300862 14.3017047 -3.71856879 -4.425506 3.463635 -1.06298
14060 -2.6268825600000003 24.87018447 -1.67186925 1.55847 -0.047999 -2.1319060000000003
14080 2.9536536600000005 46.414877039999986 8.40083274 3.767524 1.439705 -0.996749
14100 6.81038649 39.36888378 7.51915899 5.50231 8.105453 1.412463
14120 9.023532300000001 27.776387160000002 7.550148780000001 0.765008 1.587126 4.691736
14140 1.60346412 19.751728680000003 1.96421706 4.8919440000000005 -0.995788 4.216467
14160 -6.23617776 14.956600680000001 -0.90306936 3.532592 -0.465367 3.818528
14180 -8.34918309 3.27803112 2.15222571 3.923042 -1.534229 2.514053
14200 2.9184848100000003 -4.2351437700000005 -0.69724575 4.141026 -0.4759390000000001 0.877703
14220 3.5325025200000004 -4.64559417 -3.90911823 3.592479 0.154665 0.830335
14240 -1.19975319 -2.8777635000000004 -5.263055189999999 2.423407 1.569636 1.239099
14260 1.98531837 -2.66566149 -7.653281310000001 1.997752 0.572224 1.420069
14280 8.67580704 -7.671998790000001 -6.299197200000001 1.103853 0.966866 1.53937
14300 2.8547100000000003 -6.84945972 -3.2277352500000003 0.329698 1.594413 1.120825
14320 1.61738451 -3.7217079900000005 -2.2568591700000002 -0.943442 -0.107347 -0.042772
14340 0.87417891 3.27713841 2.5723978200000004 -1.29947 1.7029330000000005 -1.158529
14360 -6.27001245 20.9706408 17.381259900000003 -2.527278 1.669272 -1.00042
14380 10.93505985 27.6717537 20.07610614 -2.884736 -0.565038 -0.8505030000000001
14400 5.72768622 64.01138796000002 -17.53617942 -3.3519879999999995 -0.792552 -1.091688
14420 0.64995174 -19.678232160000004 -13.8471093 -3.939318 0.306381 -1.539443
14440 13.74336855 -25.47507888 9.53891046 -4.788895 -1.175092 -2.481378
14460 2.43977643 4.48766298 -21.5111718 -3.548544 -1.165048 -2.605186
14480 -3.79505736 44.55904086 2.33454456 -4.694847 -0.628422 -1.012616
14500 -5.240600100000001 28.969852140000004 -1.65002238 -5.405496 -0.599003 -2.157411
14520 -2.10417633 24.1922448 4.42061163 -4.441654 -0.315405 -4.114433
14540 -2.30715504 26.09553195 4.49949384 -3.700162 -3.383811 -3.855358
14560 -6.139627740000001 23.712938010000002 6.528819870000001 -3.627913 -4.92923 -3.19378
14580 -0.722997 13.913562240000001 9.94067901 -2.43653 -4.715396 -1.227682
14600 0.9961760700000001 7.94548197 5.282665379999999 -0.8686299999999999 -4.5013760000000005 -0.431861
14620 3.2906075400000003 -0.59157243 2.06615277 0.8822959999999999 -2.982243 -0.363893
14640 -1.8329396400000002 -0.8678907000000001 8.22239865 2.00261 -1.291232 -0.108271
14660 -9.56421045 0.50579379 3.6512035200000006 2.317302 0.065179 0.072719
14680 -8.426731140000001 2.36388627 3.03224157 3.645249 1.397655 0.299272
14700 -3.3958394100000002 1.3082812199999998 5.10752745 4.540678 1.40671 0.721054
14720 0.29369178 0.07543890000000002 4.78689741 4.177605000000002 2.502087 0.701091
14740 -1.16113122 1.15664805 -2.7036752400000004 1.636065 4.6854260000000005 -0.171901
14760 -2.46821562 2.8279188900000003 -0.07035732 -0.182033 4.305536 -0.297345
14780 -1.2394248300000001 9.89203122 -4.6707372000000005 -0.701773 -2.080506 -0.7168760000000001
14800 -3.6751595400000006 23.51834685 1.9160107200000003 -0.8973409999999999 0.788261 -1.340419
14820 1.31636466 38.07976149 6.61908168 0.031917 3.242368 -3.403014
14840 5.67245592 42.97922865 4.717442610000002 0.5763159999999999 0.560368 -2.103226
14860 6.99390216 30.314655990000002 7.303309560000001 1.0406959999999998 2.047705 -0.430121
14880 3.5232222600000003 25.079147280000004 6.13005318 5.448601 8.663947 3.248714
14900 -3.0304463400000006 20.07610614 -0.67524192 3.110393 -0.425527 5.940221
14920 -4.52867859 11.12696307 0.9605559600000001 4.364142 -0.443753 5.415959
14940 -1.5079637700000004 -2.19757734 0.12020193000000001 3.493758 -1.679618 2.215343
14960 3.8028465000000002 -6.0993675000000005 -2.21689323 5.547078 0.208298 0.642025
14980 0.05433759 -5.55315651 -3.4320677400000004 3.893644 -0.482386 0.839664
15000 2.19862701 -5.57186418 -4.604127300000001 2.336682 1.3403770000000002 0.838203
15020 4.446657180000001 -8.69467167 -7.232059530000001 1.570263 1.853031 1.437875
15040 5.096147850000001 -11.747121840000002 -8.9250399 0.8847280000000001 1.7360509999999998 1.44926
15060 3.10484538 -2.97955206 -6.952592250000001 0.394236 2.7123 0.695759
15080 -0.7896069 2.8783619100000006 1.0388397600000001 -0.290649 -0.598755 -0.262977
15100 -3.24719829 11.76149349 13.086088740000001 -0.8706879999999999 -0.363663 -1.539582
15120 4.366872450000001 24.355551870000003 15.33336354 -2.095564 1.857763 -2.156667
15140 3.52382067 9.86942898 2.4757006500000003 -2.79415 0.469444 -1.219732
15160 1.8401205600000001 4.0023819000000005 -0.39577464 -3.090369 -1.299244 -1.412883
15180 0.6026479200000002 34.30790478 -10.7094789 -4.118296 -0.455192 -1.409394
15200 -7.363641060000001 13.29834771 -20.762276400000005 -4.319381 1.488999 -1.25092
15220 14.742242370000001 -7.017112620000001 21.412522440000004 -6.062743 0.24769 -1.538177
15240 14.71918887 -5.358261240000001 -16.53237117 -5.290753 -1.113982 -1.612224
15260 3.06038646 19.309248630000003 -8.65635381 -4.750556 0.168569 -2.06943
15280 -7.334299350000001 39.50075961 -8.796460230000001 -5.046305 1.391646 -3.178673
15300 -11.51659665 42.57461519999999 1.9318833 -4.276218 -0.990499 -4.33033
15320 -6.547978800000001 24.768543060000002 9.9340965 -3.624102 -4.978893 -4.0963379999999985
15340 -1.2202659 18.75165804 7.94068488 -2.550903 -4.996683999999999 -2.1788380000000003
15360 3.5103515400000007 14.6597697 11.01080286 -0.98862 -4.553719999999998 -1.089588
15380 5.003198100000001 6.21028917 3.1572307800000003 0.92674 -3.4185769999999995 -0.243383
15400 1.9917537300000001 -2.6637093000000003 3.0677243400000003 1.903565 -1.656559 -0.037992000000000005
15420 -7.31409075 -1.11472992 5.99952132 2.671069 0.174963 0.283352
15440 -11.94366519 1.8131823 1.11592674 4.571957 1.698462 0.46132
15460 -7.461829350000001 1.7063023499999999 2.30041557 5.369552 2.749721 1.1427969999999998
15480 -5.51168964 3.1094855100000003 8.30637225 4.629877 2.409517 1.34637
15500 0.96444072 0.5860297800000001 4.2486129 0.817145 1.831854 0.19564
15520 1.2451146300000002 2.9047115700000004 -2.2837974300000004 -0.796176 1.309972 -0.29566
15540 -0.29189655000000003 5.53249665 4.312534860000001 -0.17529 2.228184 -0.553146
15560 -0.49951539 9.96942231 -0.22184334 3.91576 6.318633 -0.8502780000000001
15580 -1.74836763 19.201171860000002 -7.3506133799999995 -1.987461 0.128101 0.323511
15600 -1.03943817 38.65097817 10.23571476 0.8431649999999999 1.420573 -0.071775
15620 7.806562560000001 59.15637972000002 14.551840080000002 3.306354 0.990789 0.04319
15640 7.209908550000001 29.146039740000003 6.17301117 7.552477 8.731809 0.708136
15660 4.63675536 21.417760980000004 2.14608465 0.104842 1.123007 4.646058999999998
15680 -5.62725144 17.144152200000004 -2.4587882100000003 3.308209 -5.593692 5.8969510000000005
15700 -9.926611470000001 6.090087240000001 0.5051953800000001 4.502504 -2.946079 1.304273
15720 4.93867773 -7.96583772 3.1094855100000003 4.478774 -1.073476 1.096609
15740 5.79070566 -6.55127496 -3.1184616600000004 3.187991 -1.033845 1.096088
15760 -2.7735813000000005 -3.84894369 -6.036043950000001 2.132172 2.6704950000000003 1.384136
15780 3.2967486000000004 -5.7754413 -7.42934844 1.401702 1.005365 1.7764099999999998
15800 5.026251600000001 -10.8310248 -9.239234580000002 0.457989 1.1764940000000002 1.358333
15820 6.154597800000001 -9.18819315 -6.1531066800000005 0.023577 1.915422 0.231651
15840 5.14300041 -1.3678573500000002 -3.0350864700000004 -1.347256 -0.8621790000000001 -1.401267
15860 1.53745263 7.49671371 4.058210610000001 -2.30283 1.481677 -2.2324080000000004
15880 -4.127067 25.625063970000003 18.609746580000003 -3.373375 0.6678270000000001 -1.044571
15900 -4.0618010700000005 13.78064655 10.37297628 -3.308142 -1.488085 -0.6204729999999999
15920 -7.126533360000001 -3.3410505600000007 -0.15942230999999998 -4.419995 -0.125979 -0.892767
15940 17.35940322 -4.3698645 -34.37915481 -4.73072 0.398241 -1.979855
15960 -0.91070154 77.1296535 48.15157077 -3.771708 -0.6499590000000001 -2.28587
15980 -3.33581202 3.0280527000000004 -11.68350399 -5.372927 -2.051616 -0.163088
16000 7.237896480000001 -16.92261297 -3.72889872 -5.692193 -0.31402 -0.983666
16020 0.9394448400000001 -5.741763570000001 -17.85562245 -5.075474 1.048937 -2.964793
16040 -7.733066040000001 36.03800619 -14.512168440000002 -3.725619 -2.520151 -3.49772
16060 -12.304712430000002 57.728053530000004 4.85470413 -3.234582 -4.2936830000000015 -3.428992
16080 -5.61512628 23.489897850000002 10.042467570000001 -2.276032 -3.519381 -1.56031
16100 6.4494864 16.493454900000003 7.594303590000001 -0.980295 -3.762754 -0.963425
16120 7.06739868 14.27012631 11.32110297 0.524274 -2.990036 -0.236061
16140 7.7170561200000005 5.9721318000000005 2.77552368 1.802718 -1.086106 0.182763
16160 4.083961860000001 -3.66796881 1.6808552100000003 2.38876 0.541192 0.318299
16180 -9.38638458 4.9279063500000015 10.870990740000002 3.696024 1.811615 0.097203
16200 -13.2949044 3.86585613 -2.01960432 4.411647 1.723284 0.785977
16220 -7.713308700000001 0.09116433 1.2094847100000001 4.138574 1.571711 1.098321
16240 -2.0977409700000003 -1.9752925500000003 13.27094838 0.855693 2.476608 0.096807
16260 2.16913815 0.82253907 -0.19219751999999998 -0.42071 3.272705 -0.212231
16280 -0.6478524 2.9401845300000002 -1.11427866 -0.98743 -0.669854 -0.79225
16300 -3.6929745 9.61465347 0.27273762 -0.8282079999999999 2.415816 -1.087785
16320 -3.84131151 21.4938081 0.77119353 -0.541933 -0.016250999999999998 -2.655091
16340 1.80988614 38.071226790000004 2.83899438 2.640701 1.800354 -2.029507
16360 7.419469770000001 46.615010850000004 5.08088349 3.3529910000000003 3.991686 0.265065
16380 10.311006510000002 29.3520105 7.293578040000001 3.193971 3.649325 4.2285650000000015
16400 7.71510393 21.58316739 6.28767045 3.855173 -2.26343 6.700875
16420 -3.0147307199999998 18.88862526 -3.0353905800000005 3.696971 -1.812906 3.4015910000000003
16440 -5.95970253 12.37356882 -0.07918631999999999 4.145335 -0.6699729999999999 0.912165
16460 -0.28141947 0.5803399800000001 0.6441147900000002 4.4304169999999985 0.892175 0.286177
16480 6.8931632700000005 -4.96427202 -2.7761319 3.5044480000000005 0.559351 0.404049
16500 2.22437826 -8.35352892 -3.28477059 2.335938 1.608994 0.797261
16520 -1.46230803 -8.13034161 -4.36297788 1.4494280000000002 0.8498209999999999 1.206512
16540 0.50549949 -9.446107860000001 -6.22256148 0.6126590000000001 1.943662 1.182174
16560 1.33148187 -10.21012047 -8.052352110000001 -0.263258 2.631566 0.676315
16580 3.1531890600000008 -3.47547699 -5.335953300000001 -1.059749 -0.327646 -0.261219
16600 0.9365999400000001 2.24248752 1.5926927400000002 -2.423771 1.2879200000000002 -1.626255
16620 -3.80388636 18.301094550000002 15.44548203 -3.384718 1.148633 -1.126451
16640 2.11030758 22.235964030000005 14.350509450000002 -3.685909 -0.653339 -0.7181850000000001
16660 1.7801029800000001 8.43271524 3.5681324400000003 -4.5892550000000005 -0.00315 -1.092796
16680 8.99119854 17.8039728 -13.33936332 -5.046871 0.533554 -2.243951
16700 -15.473626920000001 29.174184630000003 2.3333477400000002 -4.0408050000000015 -0.616676 -2.915907
16720 2.60862615 -4.448148300000001 -10.11266793 -4.480867 0.010722 -1.458457
16740 11.53756062 -10.0647657 1.12116528 -5.399203 0.399174 -1.368161
16760 9.68695317 10.52685594 -9.262592190000001 -4.970661 0.932827 -3.854809
16780 -1.8482040000000002 33.950448 -6.60412143 -3.774216000000001 -2.253679 -4.29209
16800 0.5698629000000001 43.34491602 -3.0680186400000005 -3.378353 -5.3078970000000005 -3.552611
16820 -0.5397756300000001 30.097462590000003 10.048451670000002 -2.057226 -4.498818 -1.371656
16840 -1.1304455400000002 20.88112455 7.32621591 -0.363274 -3.558742 -0.835463
16860 -2.8987176600000004 15.39324378 9.09493929 1.234664 -2.725488 -0.408763
16880 -0.8915426100000001 9.521703720000001 8.42073723 2.399404 -1.552525 -0.110505
16900 1.4894032499999998 1.5703848 4.111949790000001 2.92702 -0.29264 0.314581
16920 -0.25597233 0.64560591 10.873688490000001 3.327344 0.619382 0.463624
16940 -7.4961153000000005 2.32705953 3.40017543 3.956845 1.156 0.520744
16960 -9.38249001 3.22998174 -4.1817087 3.541929 1.916885 0.5446449999999999
16980 -6.65800776 1.6242711300000001 7.2554171400000005 1.680865 3.250378 -0.180431
17000 1.08045378 1.5877485 6.689439 -0.35822800000000005 3.123424 -0.496819
17020 1.5405918300000003 1.16906751 -3.54687417 -0.7044050000000001 1.2024 -0.6463260000000001
17040 -1.31935671 3.4902900900000002 -0.40385808000000006 3.619087 3.70754 -0.8340489999999999
17060 -1.56844242 14.0643027 -0.6566814000000001 3.770342 -0.019607 -0.230012
17080 -1.5639494400000002 21.70846071 6.08169969 -1.426085 1.892974 -0.090367
17100 4.538861370000001 38.57343993 7.189395840000001 0.537198 2.322604 -1.604761
17120 8.77429944 38.79527346000001 5.44732623 6.42992 5.759452 0.143287
17140 8.058944430000002 24.018303690000003 8.177792580000002 3.077627 4.327336 4.205519000000002
17160 -1.8047947500000001 20.73817323 3.5802576000000004 3.325839 -1.124664 7.162531
17180 -6.8198139 15.238765710000001 1.03060917 2.973959 -3.949374 2.844872
17200 -6.892113600000001 1.3355235900000002 1.81617435 4.799688 -0.461963 0.807511
17220 6.255640800000001 -3.1290956999999997 2.14773273 3.583886 0.158887 0.847361
17240 4.68376488 -3.5603433 -1.06204041 2.795211 1.185058 1.452628
17260 0.8747773200000001 -5.400169560000001 -2.8864453500000002 1.3697549999999998 2.404448 1.976288
17280 1.94250753 -6.53196888 -3.2019938100000003 0.881358 1.551624 2.017766
17300 2.3523595200000003 -9.54370755 -4.485720600000001 0.457744 1.572874 1.334323
17320 0.9141448500000001 -6.503372730000001 -5.362146 0.297587 0.560171 0.5814050000000001
17340 0.9156457800000001 -0.6652161000000001 -3.66363279 -0.962271 -0.919457 -0.465947
17360 -0.34233957000000004 7.59161565 6.36042141 -1.6820419999999998 1.142541 -1.345286
17380 -2.03052285 21.021387930000003 14.347517400000001 -2.603901 1.305051 -0.693909
17400 -0.26884305000000003 10.39169376 10.05653511 -3.302947 0.11843 -0.644928
17420 -0.39592179 -4.25879568 -5.166956429999999 -3.968043 -0.575657 -1.251162
17440 13.08474477 -8.79226155 -20.45540979 -4.377197 0.248922 -1.975058
17460 -0.5146326 63.89807265 40.90483548 -4.964705 -0.763998 -2.835646
17480 -6.34515705 11.90369925 -27.823985280000002 -3.337422 -1.405568 -2.579902
17500 3.4789203 -8.18243271 16.08450543 -4.968707 -0.944307 -1.16688
17520 11.073076740000001 -1.96002819 -4.23619344 -6.055306 0.491014 -2.7188220000000003
17540 -0.49366863 21.87521109 -12.22088598 -4.644245 -0.124568 -3.711237
17560 -3.0270030300000004 52.27070148 -11.365120440000002 -4.312977 -3.982369 -3.888782
17580 -8.462204100000001 33.334478100000005 12.210408900000001 -3.898907 -5.0470169999999985 -3.073745
17600 0.15223158 19.984794660000002 8.78627745 -2.785022 -4.749811 -1.110431
17620 3.95956125 16.253796599999998 9.892629629999998 -0.846598 -3.980098 -0.540265
17640 4.2659766 10.008789839999999 8.35757064 1.149053 -2.200553 -0.539288
17660 1.7872839 1.55691567 1.4479363800000002 2.538478 -0.568495 -0.159933
17680 -2.85262047 -1.3883602500000003 5.97737034 2.927172 0.493263 0.115954
17700 -10.144403279999999 3.5266655700000005 1.7612383500000002 4.220618 1.889087 0.248182
17720 -11.707303049999998 4.0460854500000005 1.13015124 4.250209 2.840126 0.551614
17740 -7.671998790000001 3.18762216 4.537958850000001 3.241699 3.533529 0.11746
17760 0.12798126 1.0150407000000001 6.82685748 0.8633120000000001 3.960188 -0.354762
17780 3.8913032700000003 -0.52286319 3.19061421 -0.96125 1.822102 -0.085961
17800 -1.53071316 1.80254826 0.11256975000000001 -1.173002 3.604732 -0.806502
17820 -2.97505908 6.00416145 -2.0995362 1.144042 -1.129723 -1.921906
17840 -3.3389610300000006 15.28905177 -4.78554363 1.889355 0.166151 -2.425766
17860 -3.3555693600000005 28.55506572 2.8334615400000005 4.311552 8.418024 1.268081
17880 3.88816407 50.83878483000001 8.665928370000001 3.0997220000000003 3.047741 3.704180000000001
17900 7.6493965500000005 34.57390293 4.59080532 4.908251 -0.353558 5.032948
17920 8.53435665 25.988357699999998 4.64229801 3.304532 0.442374 3.718563
17940 -1.44898605 17.42347233 -0.45310428 3.696967 -0.157664 2.91877
17960 -3.3353607600000004 17.99513046 -1.3222016099999998 4.398172 -0.769538 0.816851
17980 -4.35759219 7.972273080000001 2.23784739 3.727448 -0.10728 0.685267
18000 6.030207000000001 -2.5523461800000002 -0.79350147 2.035825 0.926902 1.135734
18020 4.3322922 -7.58622015 -1.1798487 1.752868 0.378514 1.589523
18040 0.14744430000000003 -5.349579390000001 -2.06256231 0.992726 1.454944 1.590311
18060 2.7190965600000006 -6.975498600000001 -4.801563360000001 0.307257 2.62733 0.974066
18080 2.47540635 -10.130335740000003 -6.61668804 -0.213034 -0.575812 0.05907
18100 3.9451994100000003 -8.3062251 -6.02916714 -1.531913 0.245529 -1.4627290000000002
18120 2.42615034 -1.5864045300000003 -1.2214627199999997 -2.686039 1.687825 -1.505753
18140 -3.2648562900000004 9.79562835 11.82391452 -3.229621 -0.073063 -0.772357
18160 1.7414810100000002 16.344058410000002 16.61125338 -3.88055 -0.621359 -0.821067
18180 2.4059515500000006 14.21444475 11.40688161 -4.491097 -0.025034 -1.831292
18200 4.79333277 47.97853218 -24.19583526 -4.315149 -1.0974469999999998 -3.127647
18220 -4.63765788 2.9216240100000004 -21.03500421 -4.1418599999999985 -0.298055 -0.992085
18240 16.045883460000002 -20.36290149 20.19315906 -5.804131 -0.432794 0.309321
18260 11.79247347 -11.34535329 -13.198050270000001 -5.836964 1.110394 -2.489491
18280 0.9786652200000001 29.4473637 -6.149359260000001 -3.644722 -0.084564 -3.393454
18300 -6.96651264 41.4437184 -4.95499176 -3.698646 -4.25099 -4.111678
18320 -8.12854638 28.559107440000005 2.43723564 -2.935133 -4.609714 -2.712924
18340 -2.7208917900000005 24.948173970000003 5.8148088300000005 -1.596174 -3.853067 -0.755035
18360 -7.62574464 26.250912539999998 5.820047370000001 0.100483 -3.609135 -0.091881
18380 -2.9005227000000002 17.84319318 10.53029925 1.7389849999999998 -1.483293 0.197782
18400 2.36657421 9.39895119 6.96995595 2.64432 0.882459 0.534359
18420 3.11802021 0.2977335 4.03156665 3.856873 2.099316 0.20478
18440 0.16241436 -1.0220744700000002 8.831334779999999 4.439947 1.7385400000000002 0.676128
18460 -8.82160326 0.7126670700000001 2.51671626 4.068315 1.2421209999999998 0.7318520000000001
18480 -12.20606307 3.9537243 -1.30005063 1.380543 2.5000880000000003 -0.102519
18500 -7.547009580000001 3.2355243900000006 7.47455292 -0.5337970000000001 2.755549 -0.256155
18520 2.28903597 0.42301701 8.095162950000002 0.508444 1.951944 -0.7958430000000001
18540 3.6188697600000004 0.7018858800000001 -2.0847132900000003 0.961857 3.675846 -0.727587
18560 -0.41913225000000004 3.4247298600000002 -2.27527254 -3.107037 -2.924582 -1.466464
18580 -1.070271 14.314428270000002 -4.8532032 1.423731 0.452876 -1.798067
18600 -1.42399017 25.8380685 3.41499834 2.749607 2.845357 -0.5196189999999999
18620 5.7708011699999995 49.03502994 5.87917224 4.531643 5.702786 1.5722
18640 10.408154940000001 33.68549952 3.3093152100000003 3.153755 -1.487319 6.6287509999999985
18660 14.79957201 23.005509480000004 8.16477471 3.507356 -3.750195 4.2519860000000005
18680 0.39502908 18.021774420000003 4.18604472 4.35288 -1.627727 1.016323
18700 -4.42884222 17.53049943 -4.0399443900000005 4.03758 -0.982485 0.8359690000000001
18720 -7.93424952 6.4973886300000006 -0.38305107000000005 3.26005 0.075794 1.128284
18740 1.47653253 -3.63144618 0.28560834 2.1344950000000003 3.05463 1.489414
18760 6.9177177 -7.741600740000001 -3.86825958 1.329577 0.8500260000000001 1.525073
18780 -0.03577707 -8.58360285 -4.313878830000001 0.641971 2.274827 0.924513
18800 0.31614687 -9.2085489 -4.49844417 -0.363666 0.790559 0.283798
18820 1.3578217199999998 -10.04696055 -7.2254770200000005 -1.22377 -0.7659729999999999 -0.526722
18840 3.2609715300000004 -5.75208369 -8.09082693 -2.044588 1.037875 -1.496167
18860 2.4954579900000002 -0.028144890000000002 -4.1396434200000005 -2.992237 0.8672639999999999 -0.900091
18880 -2.56491279 9.71000667 11.28877902 -3.353872 -0.8451549999999999 -0.7230979999999999
18900 -3.33611613 25.724753190000005 20.081040570000003 -3.971296 -0.7653939999999999 -0.952907
18920 -0.09325386000000001 12.82099311 8.05490271 -4.238703 0.4639720000000001 -0.996943
18940 5.697903060000001 4.01420295 -5.759274420000001 -4.594492 1.089025 -1.687096
18960 14.10022692 36.508925430000005 -5.901931439999999 -4.734469 -2.0491 -2.408307
18980 -10.602598950000003 10.06626663 -14.133463200000001 -3.591852 -1.543695 -1.651081
19000 1.1088929699999999 -10.911555090000002 11.14597485 -4.229881 -0.636062 -2.167311
19020 9.38488365 -5.789812950000001 -11.63110878 -3.641895 0.04984 -3.174621
19040 3.4868467800000005 21.09278511 -7.390726470000001 -2.174931 -3.4686220000000003 -2.884264
19060 -2.09324799 44.90287155 -10.602598950000003 -1.306268 -5.013274 -2.571774
19080 -4.83329871 36.156108780000004 5.8823212499999995 -0.572529 -3.1012880000000003 -1.298983
19100 2.19697893 22.700447910000005 8.27135055 0.664011 -2.862271 -0.339934
19120 5.52171546 18.9926505 10.444226310000001 1.554248 -1.4720799999999998 0.483829
19140 4.72208274 11.50298037 13.09192569 2.209129 0.5130359999999999 0.8543959999999999
19160 0.05883057 5.419632600000001 1.0359948600000002 3.106505 2.119869 0.776352
19180 -5.67499671 3.0855294900000003 7.03222983 4.311067 2.38405 0.7993819999999999
19200 -10.34348742 1.39285323 4.24157913 3.476145 2.177493 0.963662
19220 -8.82669465 1.9109291400000001 0.6020495100000001 1.262017 2.382855 0.279227
19240 -5.95402254 0.6481565100000001 2.4596809200000003 -2.091329 1.680125 -0.895908
19260 -0.51313167 -0.21450546 8.508752549999999 -0.6291640000000001 1.356265 -1.093583
19280 2.36418057 0.41808258000000004 -0.32272938000000007 -0.023962 4.175262 -1.4209120000000002
19300 0.35251254000000004 2.5963538400000004 0.33829785 -2.254833 -0.396448 -1.730807
19320 1.01758149 6.09817068 2.91877911 1.089425 0.104637 -2.067011
19340 0.36419625 11.559260340000002 -2.4716589300000007 3.553425 4.771109 -0.350898
19360 -0.71027343 23.63270202 -1.34270451 4.72261 5.863716 2.452474
19380 3.23536743 51.267334680000005 12.350064060000001 3.367481 -0.953222 6.6114
19400 2.9877826500000007 33.21907326 4.91473152 3.390667 -1.493419 4.222642
19420 2.5950000600000007 15.937512390000002 5.58548046 3.44009 -2.52066 2.396575
19440 -2.8572606000000005 16.00486785 3.5331009300000003 4.589747 -0.653908 1.038094
19460 -6.31701216 13.85264214 1.77860205 3.462273 0.364095 1.0502790000000002
19480 -4.6828623600000014 0.17378415000000003 2.5845229800000005 2.332368 2.373442 1.171203
19500 8.52267294 -3.1261036500000006 -1.3421060999999999 1.5250290000000002 0.8166439999999999 1.445296
19520 7.59610863 -4.41760977 -4.87551114 0.916425 1.299701 1.318649
19540 0.28441152000000003 -4.79527515 -3.97199052 0.091118 1.509442 0.466583
19560 2.21868846 -6.96052854 -2.9163854700000003 -0.894431 -0.885182 -0.571271
19580 2.2330601100000003 -8.14755816 -5.93860122 -1.638281 0.312919 -1.706044
19600 3.99040389 -2.61700389 -6.00910569 -2.854404 1.434059 -1.568561
19620 1.1811926700000002 3.7217079900000005 -1.1223621000000001 -3.096278 0.16178199999999998 -1.008872
19640 -5.14944558 17.05329198 11.47813164 -3.628229 -0.8265309999999999 -1.145917
19660 -4.86024678 21.86473401 19.01914731 -4.0727730000000015 -0.570144 -1.207035
19680 -3.88277838 8.5809051 7.73112366 -4.141687 1.037139 -1.359127
19700 8.86756311 19.26359289 -28.59443325 -4.934656 1.022348 -2.033354
19720 -2.8177361100000002 23.23587771 7.526202570000001 -4.146791 -1.841002 -1.6791459999999998
19740 2.3275107900000007 -13.37423787 10.48179861 -4.062354 -1.409875 -2.472797
