time Ax Ay Az Gx Gy Gz
20 1.17865188 10.257865740000002 -3.1213065600000003 2.182337 -1.181618 -1.30036
40 5.13866439 32.637977910000004 -1.57547619 1.656773 -1.072047 -0.8074479999999999
60 0.8207438400000001 16.34286159 -0.20567646 2.168123 0.295883 -0.214902
80 -1.0759608 7.57559592 -5.730236820000001 1.771379 -0.7490640000000001 0.372256
100 -1.26472482 10.773548009999999 -1.19630988 1.663929 -1.258324 0.746035
120 0.78122916 11.899951830000001 -1.42473573 1.47297 -1.36353 1.113373
140 2.91308931 14.915585070000002 2.00164221 1.372765 -1.481833 1.214306
160 4.0163022900000005 19.535722290000002 5.60060748 1.453594 -1.177099 0.861966
180 -0.25088094 16.04617776 4.13634726 1.031457 -1.399191 0.558064
200 -2.82208194 13.182785910000002 -7.4341357200000004 0.25416500000000003 -1.304826 0.543968
220 -2.39307102 14.43238371 -6.34965003 -0.394241 -1.13375 0.4153060000000001
240 -2.6060853600000002 12.84134886 0.2080701 -0.957777 -0.968702 0.388725
260 -3.58519203 11.54579121 2.36343501 -1.553297 -0.950894 0.447568
280 -4.52523528 9.61450632 0.70159158 -1.969347 -1.224108 0.401215
300 -4.25864853 8.73553032 -0.0925083 -1.885559 -1.464628 0.270717
320 -1.97694063 7.638016950000001 0.32677110000000004 -0.105158 -0.450773 0.397222
340 -0.5803399800000001 6.73779249 0.57914316 2.417244 0.15588 0.480293
360 -0.06900354 4.673582100000002 0.9259757100000001 4.054746 -2.485464 0.257971
380 0.25057683000000003 2.66700546 -0.07110288000000001 1.752163 -2.778896 0.243331
400 -1.0204263900000001 2.1576114 -1.8691581600000002 -0.720042 -0.902955 0.257842
420 -1.41949719 1.9968451200000001 -1.6096051800000002 -0.580922 1.170956 -0.615513
440 -2.11914639 2.13979644 -1.4798188800000003 0.459179 -0.292563 0.5697399999999999
460 -1.95254316 3.01278834 -2.05761807 -0.357522 1.152001 0.466044
480 -1.77081291 4.115991510000001 -3.34733877 -1.056677 -1.19015 -0.62222
500 -0.7170129000000001 6.018238800000001 -5.411549160000001 -1.072943 -1.073399 0.031269
520 0.7207505100000001 10.57775022 -9.879160500000001 -3.562045 2.451853 -0.00559
540 2.5836302700000005 23.23079613 -10.5096492 -3.38597 4.5731449999999985 -0.505938
560 -3.2346218700000002 23.99539734 -15.422575680000001 -2.063542 3.3724510000000003 -1.352945
580 -0.95501331 5.06756151 -14.45633973 -2.037273 0.7164470000000001 -1.307697
600 0.38275677 -4.312976310000001 -3.02655177 -2.380965 0.13757 -0.902363
620 -2.8581533100000005 10.936256670000002 4.94766369 -2.381473 -1.140628 -0.402938
640 -4.33588266 31.32191736 11.18548953 -2.525018 -0.993169 -0.125323
660 -1.23433344 14.63282163 -5.76016713 -2.322869 0.225238 0.032624
680 1.10231046 1.16697798 3.19944321 -2.09408 1.348986 -0.135997
700 -9.30000753 0.51642783 -3.5748621000000003 -2.081067 1.732994 -0.274199
720 -1.3997398499999998 12.14155251 -3.2108228100000002 -1.960161 1.3394700000000002 -0.269645
740 4.096234170000001 15.15358548 8.10324639 -1.6990490000000005 0.021095 -0.338771
760 4.168985129999999 12.523112460000002 7.152274800000001 -1.287312 -0.7801859999999999 -0.6467890000000001
780 -0.5177718 11.18639205 -4.36073139 -1.417453 -0.35118 -0.459172
800 -3.18178521 10.909161450000003 -0.7342196400000001 -1.7998869999999998 1.59483 -0.06589099999999999
820 -3.78173538 9.52544133 -2.2248197100000002 -1.222118 2.089784 0.065698
840 -3.0810463200000004 8.685234450000001 -2.13935499 -0.322671 0.8797280000000001 -0.205275
860 -1.9591256700000002 7.70208606 -0.02470158 0.169348 0.077452 -0.334338
880 -1.99504989 5.92213023 1.01308851 0.6636310000000001 0.182115 -0.296836
900 -1.6676803800000002 5.05469079 0.68767119 1.044951 0.7634569999999999 -0.286372
920 -0.8577177300000002 5.586235830000001 1.3415076900000003 1.616961 1.384203 -0.172077
940 -0.15373251000000002 6.9666597900000005 2.34277515 2.372085 0.8491850000000001 0.300696
960 -0.6122224800000001 7.491171060000001 0.45310428 2.822338 0.733382 0.896853
980 -0.00987867 8.809478100000002 -0.3013239600000001 3.085951 0.317806 0.698401
1000 0.98719992 10.66068396 -2.5545828600000005 2.710885 2.401305 0.536083
1020 1.06338438 12.057578910000002 -1.80120429 2.495823 2.193544 0.464344
1040 0.025143030000000004 12.851521830000001 -1.18389042 2.730784 0.399662 0.516354
1060 0.25476570000000004 12.39303186 -1.31756148 2.93952 0.00391 0.203194
1080 -0.22498254 13.781539259999999 -2.3596974 2.291186 0.321469 0.205736
1100 -1.38701628 12.2132538 -0.60130395 2.016341 0.5955779999999999 0.62648
1120 -0.8963397000000001 12.771442799999999 -1.82320812 1.7257 0.310995 0.91644
1140 0.48229884 12.39063822 0.99737289 1.6399990000000002 -0.345453 1.05021
1160 -0.81670212 13.08025179 3.8221525800000005 1.67144 -0.862558 1.134413
1180 -5.077587330000001 14.738053500000001 1.1921210100000001 1.629936 -1.239929 0.970101
1200 -7.81390044 13.90279086 -0.57165813 1.334155 -1.005924 0.782933
1220 -6.31042965 13.62945483 6.545889270000001 0.957378 -0.918931 0.6669579999999999
1240 -5.71496265 13.879590210000002 2.12722983 0.509995 -0.8902180000000001 0.5345409999999999
1260 -4.71804102 13.46973822 -2.3881365900000002 -0.109018 -0.81304 0.419023
1280 -3.23672121 13.064977620000002 -3.69955701 -0.739771 -0.723094 0.317294
1300 -2.7610048799999998 11.683651140000002 -1.7069007600000001 -1.348568 -0.8807280000000001 0.305766
1320 -1.30813407 10.69450884 -1.1843416800000002 -1.998145 -1.1519620000000002 0.23321
1340 -1.5178424400000001 9.56270952 -0.21630069000000005 -2.14631 -1.271222 0.082777
1360 -2.24234037 7.925420520000001 1.4314752 -0.28291700000000003 -0.567559 0.186758
1380 -2.1183910200000002 5.9577601499999995 1.61005644 1.810189 0.833633 0.680283
1400 -1.6193367 4.692142620000001 1.0716247800000003 2.716013 -0.5894020000000001 0.917033
1420 -1.6110963 2.5563879 0.12498921000000002 1.055601 -1.0656290000000002 0.504394
1440 -1.34449974 2.4697165500000002 -0.39292974 -0.048587 -1.532843 0.019785
1460 -0.91265373 2.36941911 -0.97926363 -0.7359859999999999 -1.068909 -1.11579
1480 -1.32249591 1.9142154900000001 -1.61245008 0.411864 0.776216 0.533857
1500 -1.3974933600000001 1.8971559000000002 -1.9124202600000002 -0.954204 0.342582 0.66908
1520 -1.11458277 2.59590258 -2.92432176 -0.833735 -0.7446020000000001 -0.880812
1540 -1.0891356300000001 4.09473324 -4.25580363 -0.024228 -1.380957 -1.219377
1560 -0.80802027 6.44769117 -6.27824304 -2.419236 1.952657 -0.30141100000000004
1580 -0.0085347 13.27170375 -9.92480643 -3.442221 2.864245 -0.142014
1600 -0.5480062200000001 24.14344005 -11.94651009 -2.516757 -0.204492 -0.225621
1620 -3.1554355500000004 17.48693322 -19.309248630000003 -2.168616 -0.8671409999999999 -0.249046
1640 1.80914058 4.31926452 -13.219014240000002 -2.255808 0.273566 -0.12293
1660 -1.2350790000000003 7.023989429999999 -6.38527014 -2.287362 -0.093871 -0.11627
1680 -2.00762631 16.46860617 1.4335647300000003 -2.326714 -0.581577 -0.395794
1700 -3.82170132 22.24404747 9.93469491 -2.168128 -0.060781 -0.5021760000000001
1720 -2.79214182 6.83867853 1.7322007500000003 -2.289802 1.043558 -0.574943
1740 -2.65009302 1.32863697 2.33035569 -2.381165 1.575568 -0.605105
1760 -5.36364693 6.521786100000001 -5.5600333200000005 -2.4459 1.021523 -0.523663
1780 2.01989862 16.041841740000002 -2.20056939 -1.839269 0.068702 -0.666687
1800 0.8559225 13.55775354 5.74969005 -1.560827 -1.0087620000000002 -0.7904800000000001
1820 -2.91368772 10.261014750000001 0.89678115 -1.666264 -0.33365100000000003 -0.63078
1840 -2.37496176 10.336453650000001 -1.2919671900000003 -1.580572 1.494872 -0.300308
1860 -0.28979721 10.35097245 -0.62958618 -0.946004 1.573098 -0.166721
1880 -0.87852474 8.42044293 -1.14421878 -0.067712 1.055896 -0.259268
1900 -2.5930576800000003 6.03245349 -1.34195895 0.386543 0.664826 -0.358143
1920 -2.4848337600000003 5.9579073000000005 -0.38649438 0.5968680000000001 -0.411086 -0.278383
1940 -1.45362618 6.442599780000001 -0.14519781 1.290016 0.009336 -0.25592
1960 -0.62001162 6.125707350000001 0.8514295199999999 1.743202 0.671517 -0.011117
1980 -0.5402268900000001 6.590348189999999 1.8769473 2.866395 0.612338 0.22754
2000 -0.6611743800000001 7.573055129999999 1.3398596100000002 3.171935 0.450588 0.452072
2020 -0.96414642 8.976679740000002 -0.6536893500000001 3.2757560000000003 0.548137 0.476173
2040 -1.26472482 9.780511140000002 -2.5712010000000003 2.377196 1.7462490000000002 0.536728
2060 0.08935929000000001 10.75992192 -2.22182766 2.326261 2.61849 0.635667
2080 -0.20627487000000003 12.58372845 -0.05403348 2.715392 1.323006 0.591975
2100 -0.5935148100000001 14.07223899 -1.91497086 2.752479 0.129458 0.40362
2120 0.9705817800000001 12.069252810000002 -1.0011203100000001 2.134336 -1.079778 0.709568
2140 0.37512459000000004 13.45043214 0.12424365 2.287046 -0.646228 1.113867
2160 -0.86265216 13.6276596 -1.052613 2.051413 -0.774501 1.427511
2180 -1.2331366200000002 13.73558922 0.21989115 1.894079 -1.125485 1.424725
2200 -1.45257651 12.10787478 3.1482546300000003 1.743297 -1.301401 1.325621
2220 -4.03874757 12.362346180000001 2.26659069 1.481081 -1.208079 1.126049
2240 -6.22285578 11.976293250000001 -1.90433682 1.052219 -1.219407 0.867763
2260 -6.838384230000001 13.468541400000001 1.6328058300000001 0.543308 -1.200776 0.646267
2280 -5.848035300000001 15.03114687 4.54096071 0.12686 -1.126552 0.56101
2300 -4.454289360000001 13.520485350000001 1.6762150800000002 -0.406818 -0.943585 0.555979
2320 -4.42240686 13.651909920000001 -1.6301080800000003 -0.919252 -1.000453 0.5695640000000001
2340 -3.0835871100000003 11.910428910000002 -3.13328457 -1.494665 -1.134584 0.512306
2360 -1.57741857 11.55462021 -1.25543475 -2.282705 -1.074314 0.242873
2380 -0.8352626400000002 10.654542900000001 -0.95711265 -2.496275 -0.963617 -0.081363
2400 -1.4266879200000002 8.71068159 -0.01406754 -0.489738 -0.14475 -0.139968
2420 -1.66334436 6.87594672 1.13568408 2.149034 0.7894180000000001 0.255418
2440 -2.20761297 5.42606796 1.11742767 2.923546 -1.268232 1.065699
2460 -1.9766365200000002 2.91324627 0.50804028 0.851275 -1.6402560000000002 0.5261359999999999
2480 -1.76932179 1.85045049 0.022307940000000002 0.398442 -1.87073 -0.318491
2500 -1.0355436 1.7208211500000001 -0.70413237 0.200402 -0.738466 -1.180176
2520 -1.15275348 2.37765951 -1.24122006 0.511664 -0.176802 0.878674
2540 -1.9127243700000003 2.3546060100000004 -1.8450648 -0.7399140000000001 0.864557 0.752161
2560 -1.9959524100000001 2.2836502800000003 -2.22557508 -0.49717 -1.407177 -1.17885
2580 -1.93412979 2.059119 -3.5004728700000003 -0.566968 -1.126062 -0.556925
2600 -1.7504571599999998 3.2638164300000003 -5.345380710000001 -2.794912 1.659212 0.14712999999999998
2620 -1.4906000700000002 9.565260120000001 -7.449557040000001 -3.673155 2.726793 0.06592
2640 -0.7306291800000001 23.26222737 -7.87737114 -1.962734 -0.086248 -0.172764
2660 -6.051916530000001 25.23797118 -14.327603100000001 -1.61273 -0.95381 -0.102978
2680 -2.7732870000000003 6.75740268 -17.79574221 -1.711831 -0.498298 0.089094
2700 1.65062079 2.57808762 -10.65365019 -1.787375 -0.312285 -0.008879999999999999
2720 -2.36373912 14.39377155 -2.0119623300000002 -2.0832900000000003 -0.072034 -0.15973800000000002
2740 -2.7378042300000005 24.96493926 12.3925806 -1.903084 0.476525 -0.301255
2760 -1.6733701800000003 9.0090135 3.0686170500000003 -1.913413 0.990172 -0.338305
2780 -0.24533829000000001 -0.56687085 5.4106466399999995 -2.103893 1.556571 -0.357453
2800 -7.407050310000001 5.68083366 -3.7196184600000004 -2.342046 1.726838 -0.373222
2820 0.36958194 14.6919465 -2.22377985 -2.23773 1.371996 -0.4372
2840 2.15057763 17.10223407 2.90949885 -1.942625 -0.218135 -0.507877
2860 -2.2129986600000002 10.22478642 4.01958864 -1.508384 -1.6800849999999998 -0.786049
2880 -3.38341014 10.604698290000002 -0.18381978000000002 -1.4345 -1.268541 -0.670692
2900 -2.58407172 11.00630988 0.12678444 -1.542548 0.8940879999999999 -0.340933
2920 -2.4180669 9.361683000000001 -0.96534324 -0.597708 1.043104 -0.330251
2940 -2.48498091 7.26454044 -2.2537101600000002 0.079436 0.5896399999999999 -0.470218
2960 -2.58303186 6.32120103 -1.49793795 0.58213 0.06945 -0.555771
2980 -1.3793841 6.29710767 -0.75652758 1.041718 -0.33108000000000004 -0.424929
3000 -0.7021899899999999 5.80253652 -0.7249393800000001 1.7720330000000002 0.68194 -0.244869
3020 -0.18022932 6.246811800000001 0.13082616000000002 2.578262 1.146631 0.063542
3040 -0.20192904000000003 6.583608720000001 0.55744344 3.255176 1.031423 0.315177
3060 0.21330864 9.24162822 1.92110211 3.187214 0.462621 0.6262840000000001
3080 -0.02994012 9.13655331 0.48289725 2.571419 2.207047 0.751138
3100 -0.9699833700000001 9.01200555 -2.4128283600000002 1.919694 3.693129 0.777796
3120 -1.21187835 9.52574544 -3.5055642600000003 2.205352 1.772352 0.817504
3140 -0.58962024 11.410472069999999 -0.21495672000000002 2.555829 0.134188 0.722707
3160 -0.19310004 12.21250824 -0.5263065 2.054523 -1.7504970000000002 0.943811
3180 -0.38649438 12.23989776 -2.02049703 2.237328 -1.089909 1.288209
3200 -1.4599143900000002 12.00188754 -1.17640539 1.9702 -0.96945 1.498764
3220 -2.09848653 13.311522540000002 -1.5066198 1.821693 -1.085722 1.666655
3240 -0.5373819900000001 13.27799196 0.67599729 1.90248 -1.557244 1.497976
3260 -0.9253773000000001 12.88475811 2.65607712 1.670726 -1.453953 1.176827
3280 -4.9570911 13.59487458 1.89221166 1.05616 -1.279127 0.8806860000000001
3300 -6.2944099200000005 13.40312832 -1.21682259 0.7135670000000001 -0.682199 0.55172
3320 -5.88141873 15.19445394 2.86623675 0.341522 -0.497195 0.430311
3340 -5.324132250000001 14.72802768 5.16860451 -0.044325 -0.672606 0.408613
3360 -4.13096157 14.33494098 1.66633641 -0.509124 -0.906101 0.328754
3380 -2.89632402 13.89710106 -1.32953949 -0.976298 -0.7856449999999999 0.181126
3400 -1.82605302 13.33786239 -3.6612391500000006 -1.452124 -0.4139140000000001 0.073709
3420 -1.6118516699999998 12.221788499999999 -0.85741362 -2.05073 -0.090642 -0.063346
3440 -2.6479936800000003 10.44407916 -0.73167885 -2.333475 -0.354819 -0.087416
3460 -3.5298145800000005 7.8817071599999995 1.10080953 -0.962405 -0.446369 0.039783
3480 -2.87866602 5.89818402 1.81677276 1.546825 -0.697808 0.536196
3500 -1.96137216 3.843558 1.0930302 2.16636 -1.445375 1.531723
3520 -0.6792836400000001 2.1622515300000003 -0.82837602 1.280288 -1.1862469999999998 1.434403
3540 -0.16181595000000001 1.99624671 -0.27677934 -0.996874 -1.545088 0.440465
3560 -0.94214259 3.67501239 -1.5242778 -2.0940950000000003 -0.354454 -0.6519020000000001
3580 -1.3563306 3.6847341 -1.8377269200000002 0.961224 1.434283 1.45659
3600 -2.27975571 2.89079118 -1.50721821 -1.070839 -0.838407 1.467741
3620 -2.65128984 2.50923123 -1.1832920100000002 -0.513456 -1.428048 0.05699600000000001
3640 -2.4128283600000002 3.10828869 -1.9134699300000002 0.418341 -2.918451 -1.527305
3660 -2.274968430000001 3.9193010100000003 -3.68862867 -2.054476 2.404961 -0.773734
3680 -2.1026754000000003 6.733152360000001 -6.880586850000001 -4.20924 4.590234 -0.336522
3700 0.01257642 14.421906629999999 -10.49647437 -3.323846 2.775618 -0.458336
3720 -0.41808258000000004 27.200540160000003 -11.60072721 -1.308531 -1.20302 -0.382544
3740 1.3584299400000002 14.68146942 -15.16706442 -1.03854 -1.608873 -0.088514
3760 4.77671463 7.31064744 -14.89836852 -1.379035 -1.096754 -0.25605500000000003
3780 4.69603719 5.4768150900000006 -7.55569143 -1.934413 -0.466618 -0.446612
3800 -1.3627659600000002 15.495777900000002 2.1933884700000004 -2.262938 0.320468 -0.390095
3820 -7.15662063 26.15391126 17.148939480000003 -2.3647970000000003 0.844181 -0.467321
3840 -0.01241946 8.03843172 4.22870841 -2.297307 1.2630709999999998 -0.5848909999999999
3860 -3.3410505600000007 -3.1466065500000004 0.5996558700000001 -1.840066 0.8622489999999999 -0.645277
3880 -9.08475651 2.6027892 -4.8954156300000005 -1.404871 -0.160658 -0.6954060000000001
3900 -1.50841503 14.152769280000001 -3.27922794 -1.213003 -0.621736 -0.6422
3920 1.15619679 16.12088091 2.03546709 -1.705312 -0.041358 -0.432738
3940 -2.00059254 9.864033480000002 7.3667802600000005 -1.638146 0.880051 -0.21126
3960 -3.0166731 9.87211692 0.43843833 -0.626318 0.410286 -0.294389
3980 -0.52480557 10.97053281 2.17452384 -0.190507 0.93846 -0.355047
4000 0.30326634 8.415949950000002 -0.72194733 0.117948 0.83363 -0.248072
4020 -1.17834777 7.579941750000001 -1.08853722 0.355167 -0.26010500000000003 0.002814
4040 -2.35085859 7.2178448400000015 0.14804271000000002 0.723817 0.141138 0.041195
4060 -2.0330734500000003 7.019506260000001 0.31404753 1.258 1.080616 -0.131466
4080 -1.35393696 6.464603610000001 1.47667968 2.065178 1.037088 -0.06915700000000001
4100 -0.9575541000000001 6.874749899999999 1.83502917 3.1558900000000003 1.906601 0.25461
4120 -0.7165616400000001 7.7044797 0.07648857 3.08085 1.559813 0.462833
4140 0.08801532 9.57214674 -0.5578947 2.77646 2.08757 0.348936
4160 1.10455695 10.68972156 -1.78578297 2.2345580000000003 3.3367160000000005 0.39162
4180 1.7435705400000001 11.759247000000002 -1.6810023600000001 2.5693330000000003 2.264173 0.32055700000000004
4200 0.09805095000000001 11.88798363 -1.5715816200000001 2.654771 0.286053 0.222208
4220 0.07963758 12.04754328 -2.1874043700000003 2.436472 -0.228249 0.088882
4240 1.61125326 12.057578910000002 1.5308701200000001 2.233094 0.470952 0.701861
4260 1.4633577 12.33510381 1.13524263 1.945176 0.406514 1.081288
4280 -2.68302519 12.78266544 -1.6762150800000002 1.759435 -0.142205 1.267633
4300 -4.438416780000001 12.761416980000002 -0.09789399 1.729148 -0.61875 1.119549
4320 -3.2828282100000004 11.484272700000002 1.4299742700000002 1.811894 -1.034311 0.80767
4340 -3.12804603 11.09821977 2.67134148 1.405999 -0.636839 0.596023
4360 -4.85680347 12.20935923 2.68601724 0.672829 -0.340807 0.461267
4380 -6.746621490000001 12.90676194 0.53678358 0.128372 -0.186548 0.451925
4400 -7.693551360000001 14.265633330000002 5.144501340000001 -0.394913 -0.255211 0.494292
4420 -6.646932270000001 13.680054810000001 2.48902263 -0.82815 -0.311073 0.453949
4440 -5.172940530000001 13.298494860000002 -0.89019864 -1.406869 -0.472872 0.39243
4460 -3.74610546 12.68342748 -3.22354638 -2.037344 -0.726225 0.360577
4480 -2.2260165300000003 12.523112460000002 -2.6250873300000004 -2.676922 -0.8360850000000001 -0.115903
4500 -0.7580285100000002 12.717703620000002 -1.4488389000000002 -2.016359 -1.0832190000000002 -0.157974
4520 -1.23462774 10.460246040000001 -0.54441576 0.210199 1.1848379999999998 -0.244673
4540 -2.0311310700000003 8.28721332 1.3156092899999998 3.3441910000000004 -0.8802629999999999 0.915384
4560 -1.7209683 5.3831099700000005 1.88892531 2.210553 -0.926622 1.236538
4580 -0.36389214000000003 4.41985626 0.9744763500000001 0.4497140000000001 -1.902684 -0.364025
4600 -0.7619132700000001 2.29427451 -0.5450141700000001 -0.068987 -1.100978 -1.6654970000000002
4620 -1.41710355 1.5081109199999998 -1.85240268 0.737191 0.164536 1.369058
4640 -1.90957536 2.19847986 -1.9646683200000001 -0.968533 0.18201 0.610434
4660 -2.01960432 2.37271527 -2.32930602 -0.081398 -1.469488 -1.40767
4680 -1.9976004900000002 1.67516541 -2.53692486 -0.467434 1.111391 -1.002409
4700 -1.76782086 1.97813745 -3.3275814300000004 -3.216964 2.127691 0.041033
4720 -0.59306355 2.22661494 -4.73495346 -3.529439 2.372916 0.258589
4740 0.34488036 4.52972826 -6.18124176 -2.253659 -0.357289 0.194087
4760 0.58543137 10.700502750000002 -7.232363640000001 -2.021427 -0.7656149999999999 0.340443
4780 -0.6409657799999999 28.755052380000002 -8.42896782 -1.94771 0.181042 -0.16232
4800 -5.0331382200000006 22.233119130000002 -19.950665670000003 -2.017243 -0.369542 -0.6748460000000001
4820 1.83308679 6.5764278 -16.102467540000003 -2.035938 -0.661642 -0.605168
4840 -2.36493594 9.71404839 -4.707259830000001 -2.019485 -0.070537 -0.588719
4860 -5.2518325500000005 30.78109206 15.726450240000002 -2.028822 1.054912 -0.709867
4880 1.05350571 2.29891464 7.84204533 -2.342552 1.505591 -0.721182
4900 -1.66184343 -3.93262299 2.48677614 -2.101975 1.172288 -0.695574
4920 -4.585409820000001 4.46342247 -2.94377499 -1.411787 -0.789942 -0.4970270000000001
4940 0.55639377 18.78084279 -1.15859043 -1.1026790000000002 -2.017357 -0.710144
4960 1.01069487 18.23283657 2.24562672 -1.435619 -1.7691599999999998 -0.685014
4980 -2.40804108 8.927433540000001 2.5210620900000005 -1.603905 0.326396 -0.31286
5000 -1.99519704 10.327026240000002 -1.61768862 -0.860022 1.213901 -0.191297
5020 -0.74186163 10.368189 -0.34832367 0.029547000000000007 0.727971 -0.388491
5040 -2.7054704700000003 6.46520202 -0.9328623300000001 0.5550649999999999 0.445632 -0.567124
5060 -3.5600490000000002 5.234910300000001 -0.8647515000000001 0.54884 -0.525523 -0.389667
5080 -1.7877351600000002 7.45509969 -0.7430584500000001 1.015362 0.181541 -0.457817
5100 -0.6542877600000001 7.23760218 -1.16502579 1.485932 1.258684 -0.104465
5120 -0.06675705 7.19643942 -0.10733121 2.459076 1.510181 0.360277
5140 0.23022108 7.32351816 0.8433460799999999 2.865925 1.197376 0.443637
5160 1.20783663 9.393418350000001 2.5506981000000004 3.062053 0.8666709999999999 0.3909510000000001
5180 0.59426037 9.61974486 0.7845155100000001 2.674056 2.253458 0.511446
5200 -1.08958689 9.65387385 -1.2463114499999999 2.32781 2.461995 0.609173
5220 -2.00283903 9.89427771 -2.82672207 2.417937 0.121591 0.5294800000000001
5240 -0.56477151 10.801840050000001 -1.99205784 2.769549 -0.486826 0.261387
5260 -0.347274 12.44916468 -1.12625667 2.150691 -0.885466 0.5876560000000001
5280 -1.12431429 12.71096415 -0.5477119200000001 2.177822 -0.286744 1.087006
5300 -0.28006569000000003 11.745620910000001 0.55100808 1.926748 -0.25955500000000004 1.431322
5320 -2.08621422 12.85840845 -0.14250006 1.811173 -0.786568 1.456827
5340 -2.9570969700000003 14.21294382 -1.05874425 1.9085330000000005 -1.118648 1.300904
5360 -1.2361286699999998 13.29385473 0.31194819 1.496834 -0.8170649999999999 1.097884
5380 -1.17011718 13.4104662 2.1026754000000003 0.906295 -0.510262 0.810287
5400 -4.79766879 12.23271684 1.2513930300000002 0.400252 -0.676445 0.716167
5420 -4.796324820000001 10.89509391 0.0230535 -0.098735 -0.8865209999999999 0.670222
5440 -5.3292138300000005 11.941869960000002 3.6528516000000004 -0.4829100000000001 -1.02108 0.5544789999999999
5460 -4.8559009500000005 12.930561 3.7330875900000002 -0.964547 -0.923385 0.516806
5480 -4.7244763800000005 11.952945450000001 -0.1070271 -1.457654 -0.967477 0.515555
5500 -3.2073795000000005 12.431496870000002 -2.4667245 -2.252615 -0.6775180000000001 0.354738
5520 -2.7840583800000003 12.104578620000002 -3.0570903000000005 -2.726396 -0.632554 0.177251
5540 -1.8546393600000002 11.96072478 -1.1231174700000002 -1.094123 -0.348737 0.247041
5560 -1.3469031900000001 10.212965370000001 -0.1070271 1.132958 1.670667 0.270692
5580 -1.4430019500000002 7.81659819 0.7960422600000001 3.405596 -1.35155 1.5028709999999998
5600 -1.8190192500000002 6.074214660000001 1.97275176 1.2470450000000002 -1.847179 1.046185
5620 -1.53520614 4.430784600000002 1.22101146 -0.512629 -1.876851 0.136625
5640 -1.6585472700000001 2.69993763 -0.42017211000000004 -2.671807 -0.794403 -1.218326
5660 -1.99624671 2.65473315 -1.09841589 0.829349 1.550329 0.52403
5680 -1.5920845200000002 3.16935594 -1.7943176699999999 -0.033904000000000004 -1.601649 0.962147
5700 -1.12027257 3.3771317400000003 -2.50040223 -1.529824 1.043683 0.065957
5720 -1.40588091 2.90980296 -2.6313755400000005 -0.812018 -0.421059 -1.356433
5740 -2.25146367 3.0198221100000002 -2.70802107 -1.780882 0.340589 -1.04371
5760 -2.1171942 2.78660898 -3.71557674 -3.887976 3.014626 0.199715
5780 -1.3084283700000001 4.277356200000001 -5.26230963 -4.038518 4.909021 -0.019545
5800 -0.16181595000000001 10.76187411 -6.5689427700000005 -2.214067 1.342376 -0.509636
5820 -0.5351355 28.527224940000004 -6.75769698 -1.142493 -1.4734459999999998 -0.564772
5840 -4.88284902 26.498497320000002 -16.732799280000002 -1.251563 -1.2335 -0.268876
5860 0.09714843000000001 5.52051864 -19.09833363 -1.95706 0.167397 -0.471084
5880 1.22998761 -0.00958437 -5.73412158 -2.2626150000000003 0.949603 -0.545791
5900 -1.00681011 11.402535780000001 1.8407189700000002 -1.961798 0.7405609999999999 -0.7442479999999999
5920 -5.71661073 26.14702464 16.77172536 -1.303605 -0.538588 -0.577778
5940 0.34712685000000004 11.11768281 4.070787030000001 -0.971561 -0.85867 -0.474635
5960 1.1855385 1.07327286 -4.53017952 -1.165232 -0.264665 -0.468204
5980 -1.38447549 2.7821160000000003 2.97969921 -1.546215 0.42589 -0.468545
6000 -6.196064669999999 7.97720751 -8.03574378 -1.678332 0.6990770000000001 -0.473023
6020 0.7750881000000001 16.03869273 0.15433092 -1.34221 0.554829 -0.389305
6040 -0.10927359 13.301339760000001 4.10910489 -0.659446 0.07412300000000001 -0.381784
6060 -1.8251505000000001 8.72026596 5.14360863 -0.111525 0.491749 -0.33362600000000003
6080 -4.31433009 7.366034699999999 0.6240533400000001 0.147444 1.025124 -0.209655
6100 -2.18695311 7.95536064 1.65944979 0.461789 -0.602069 -0.086802
6120 0.16046217000000002 8.72340516 -0.49921128000000003 1.1786370000000002 -0.8846450000000001 -0.106002
6140 -0.22199049 8.49439071 -0.20671632 2.13736 1.049242 0.025335
6160 -0.33739533 8.28541809 1.03374837 2.501552 0.763454 0.8475719999999999
6180 -0.47346984000000003 8.2945512 1.2769971300000003 3.029151 0.322971 0.521741
6200 -0.30416886 8.59527675 0.14445225 3.132475 1.047647 0.094245
6220 -0.41882814000000007 8.236024740000001 -0.41598324 2.479881 3.031411 0.338177
6240 -0.36823797 8.968154850000001 -1.5940367100000001 2.415156 4.095703 0.373749
6260 0.33186249000000007 9.82796211 -1.78489026 2.510423 2.1337770000000003 0.479478
6280 0.66132153 10.59690915 -1.66947561 2.1224990000000004 -1.3525040000000002 0.4577350000000001
6300 -0.20881566000000004 10.30172625 -1.4480933400000002 2.792425 -1.471504 0.5982310000000001
6320 -0.6231508200000001 11.7305037 -1.90105047 2.867651 -0.5378149999999999 0.938322
6340 0.7831715400000001 10.917244890000001 -0.18306441 2.411785 -0.938406 1.078793
6360 1.1485646100000002 11.57513292 1.9532887200000002 2.168907 -1.09521 1.075161
6380 -1.7090001000000001 13.72915386 0.79888716 2.004287 -1.252061 0.749473
6400 -2.89079118 13.921204230000003 0.15118191 1.53368 -0.978064 0.569578
6420 0.17423541000000003 14.85182007 5.18327046 1.071186 -0.763888 0.423999
6440 -4.86472995 14.22088011 2.5075831500000003 0.629426 -0.652179 0.310744
6460 -8.98626411 11.471549130000001 -0.99168309 0.114467 -0.520638 0.362526
6480 -8.183786490000001 9.628573860000001 1.31830704 -0.400561 -0.5513819999999999 0.505314
6500 -5.80747095 12.10412736 3.8441564100000005 -1.043649 -0.771522 0.702998
6520 -4.086502650000001 14.603931180000002 1.7317494900000001 -1.7144529999999998 -0.877066 0.772155
6540 -4.57882731 14.57159742 -1.5832555200000002 -2.428528 -0.438071 0.566847
6560 -4.012702020000001 13.25238786 -1.55242269 -2.79847 -0.270188 0.19658
6580 -2.4138780300000002 13.026365460000001 1.4642504099999998 -0.818569 0.097987 -0.084892
6600 -1.0150407000000001 12.035418120000001 -1.13254488 1.260163 2.180351 -0.225796
6620 -0.5161237200000001 8.92144944 -0.07753824000000002 3.714764 -0.396457 1.083996
6640 -0.73077633 6.466398840000001 0.79020531 0.659115 -1.670247 0.999122
6660 -0.9324110700000001 4.83479964 0.94169133 -0.252511 -1.827226 -0.244045
6680 -1.60420968 3.55285827 0.050295870000000006 -0.713917 -1.971762 -0.99377
6700 -1.8004587300000001 2.38484043 -0.52301034 0.831131 -0.486791 -0.729576
6720 -1.4564710800000003 2.02080114 -0.88960023 0.562116 -0.529907 0.693609
6740 -1.5810090300000001 2.8108593 -1.3115773800000001 -0.639235 0.598244 0.397488
6760 -1.6151380200000003 2.7505278000000004 -1.83413646 -1.248218 -0.125397 -0.8577950000000001
6780 -1.67815746 2.55593664 -2.3620910400000006 -1.297453 -0.6566029999999999 -0.640609
6800 -1.1512525500000002 1.8696094200000002 -3.43386297 -2.734105 2.86397 0.643803
6820 -0.7982887500000001 1.75674537 -4.67777097 -4.152695 4.660499 0.689276
6840 -0.8885505600000001 5.345684820000001 -5.1404596200000015 -2.583124 2.737568 0.155774
6860 -0.67449636 13.80773196 -8.05086099 -2.155264 0.939538 0.012583
6880 -2.90995011 35.165622510000006 -9.055267650000001 -1.943201 0.545057 -0.089047
6900 -5.87498337 17.55878166 -18.92395107 -1.995404 -0.183387 -0.360875
6920 -2.40968916 -0.32736951 -14.86603476 -2.370315 0.126063 -0.432257
6940 -0.9726811200000001 1.1308968 -4.69228977 -2.461023 1.694928 -0.282145
6960 -2.5924592700000004 14.229709110000002 0.74485368 -2.500103 2.172541 -0.606701
6980 -1.95822315 22.88425788 12.27087774 -2.094406 0.747108 -0.66827
7000 -1.18793214 10.01118348 2.98584027 -1.186573 -1.430201 -0.684776
7020 0.50535234 1.9995428700000002 1.62996093 -0.945234 -2.146691 -0.7377199999999999
7040 -2.8198354500000002 4.5463464 -0.27003987 -1.340417 -0.8295459999999999 -0.511432
7060 -2.71430928 10.930272570000001 -4.76534484 -1.9762 1.226076 -0.137152
7080 0.84004992 17.8845129 -0.19250163000000003 -1.484722 2.063928 -0.16684000000000002
7100 0.26105391000000006 11.873611980000002 3.2542320600000005 -0.289516 0.261338 -0.367689
7120 -2.8139985000000003 8.665035660000001 -0.52705206 0.035257 -0.10841 -0.358537
7140 -3.0683227500000005 9.333695070000001 0.27917298 0.048996 0.443991 -0.251259
7160 -1.7875782 7.644001050000001 1.4141115 0.271477 -0.074778 -0.18281
7180 -1.17909333 6.58196064 -0.5522049 0.8306680000000001 -0.022592 -0.397957
7200 -0.16540641000000003 6.790325040000001 -0.70264125 1.201655 0.788263 -0.231898
7220 0.5718150900000001 7.64011629 0.7695454500000001 2.264525 1.248343 -0.058421
7240 0.7244979300000001 7.83410904 2.0134632600000004 2.869072 1.4093 0.191287
7260 0.32751666 7.852522410000001 2.2432330800000004 3.290507 1.127962 0.384734
7280 -1.12371588 7.88679855 1.2829812299999999 2.672812 2.140837 0.437874
7300 -1.3503465000000001 8.287664580000001 -0.27857457 2.123187 3.823515 0.495972
7320 -0.5252568299999999 10.15906923 -2.08007316 2.176401 3.465874 0.6431479999999999
7340 0.68497344 11.718976950000002 -4.00911156 2.331776 -0.175804 0.649968
7360 0.98076456 11.23593255 -0.50714757 2.921625 -3.068966 0.639636
7380 0.35985042 12.49137711 -1.2115840500000001 3.741107 -1.509726 0.276962
7400 0.83540979 13.20703623 -0.384552 2.8166990000000003 -1.493044 0.6358159999999999
7420 0.78690915 11.686643190000002 1.5864045300000003 2.137867 -1.1333879999999998 1.05897
7440 -2.52180765 12.62564658 0.36419625 1.905526 -1.060218 1.07755
7460 -3.3983802 14.092741890000001 -0.7743425400000001 1.6986720000000002 -0.995839 0.8751959999999999
7480 -2.83241187 13.426780230000002 0.6965001900000001 1.477618 -0.636965 0.565545
7500 -0.87417891 12.134813040000001 1.95553521 1.010101 -0.404456 0.368633
7520 -3.1584276000000004 11.840679810000001 1.949247 0.395205 -0.444029 0.408186
7540 -5.043909600000001 10.726391340000001 0.0056898 -0.194523 -0.57002 0.458707
7560 -5.72663655 10.364294430000001 2.4373827900000005 -0.7749550000000001 -0.793929 0.479509
7580 -5.403161610000001 13.57018281 4.59169803 -1.365465 -0.700145 0.448558
7600 -4.0043242800000005 15.128442450000001 1.92125907 -2.028054 -0.584361 0.573037
7620 -2.98270107 14.5644165 -2.2568591700000002 -2.81881 -0.288107 0.432538
7640 -3.256929810000001 13.498932780000002 -0.49636638 -2.376242 -0.725777 0.275956
7660 -2.0332206 11.88004734 2.23590501 0.228885 1.007123 -0.30734
7680 -0.33889626 10.26445806 -2.10642282 2.783204 0.435681 0.520947
7700 -0.9726811200000001 8.82310419 -0.70473078 2.209954 -1.316324 1.456018
7720 -1.18193823 7.981102080000001 0.22842585 0.5500079999999999 -2.717114 0.486955
7740 -1.03465089 5.435201070000001 0.70922376 -0.508233 -2.613823 0.083121
7760 -1.28582613 3.7450656 0.85173363 -1.217172 -0.990535 -0.319153
7780 -1.2073853700000001 2.0568725100000003 -0.36733545 0.569754 1.470399 0.757328
7800 -1.8227568600000001 2.3376935700000003 -1.67202621 -0.7919430000000001 -0.973949 0.757359
7820 -1.76767371 2.9153358000000003 -2.00657664 -1.251445 0.5397310000000001 -0.421767
7840 -1.69238196 2.75712012 -2.12094162 -0.267279 -1.889106 -1.537686
7860 -1.62068067 2.52090513 -2.14189578 -1.617275 -0.270239 -0.547198
7880 -1.81646865 2.6749417500000003 -3.30019191 -4.513522 3.880986 0.6685260000000001
7900 -1.55811249 2.61850482 -5.31185013 -4.0776629999999985 4.610575 0.322395
7920 -2.01779928 5.5640750400000005 -7.76046537 -2.2854970000000003 1.885796 -0.213865
7940 0.43888959000000005 15.55550118 -9.41033079 -2.036487 -0.300437 -0.35780700000000004
7960 -1.64852145 31.35349575 -8.11956042 -1.4662540000000002 -1.082421 -0.301548
7980 -4.57194069 17.43694146 -15.93092007 -1.752559 -0.955615 -0.329347
8000 0.61058421 3.2651604000000005 -15.543081720000002 -2.259785 0.478503 -0.220428
8020 2.56491279 0.44936667 -5.736220919999999 -2.303216 1.368678 -0.350059
8040 -0.9592021800000001 7.973921160000001 -0.23830452000000002 -1.781367 0.8016949999999999 -0.471737
8060 -2.36747673 20.46918303 11.052711180000001 -1.0387620000000002 -0.598588 -0.455142
8080 -1.6703781300000002 15.80293881 4.48751583 -1.070601 -1.27386 -0.455567
8100 0.6502460400000001 3.5663372100000004 0.9488722500000001 -1.539535 -0.443471 -0.4502930000000001
8120 -3.1014020700000002 4.6071193500000005 1.78862787 -1.843441 0.413628 -0.341351
8140 -4.559668379999999 8.06178933 -6.48586188 -1.572376 0.547501 -0.222124
8160 -0.20551950000000002 17.64081288 -2.70771696 -0.8508700000000001 0.043617 -0.312579
8180 0.26255484 11.64293964 4.90889457 -0.270435 0.51145 -0.327284
8200 -1.77725808 9.21753486 2.97326385 -0.009239 1.247442 -0.25910500000000003
8220 -2.09040309 8.38526427 1.3350723300000003 0.157198 0.021 -0.059818
8240 -2.4231582900000004 8.41564584 2.11480056 0.5949300000000001 -0.260241 -0.170699
8260 -1.3841713800000002 7.86269538 0.05328792 1.091667 1.153324 -0.320728
8280 -0.87762222 7.8638922 -0.9081607500000001 1.831803 1.547206 -0.09601
8300 -0.30565998000000005 7.54745103 0.12498921000000002 3.005896 1.822741 0.310285
8320 -0.19399275000000002 7.64026344 1.20304935 3.16719 1.317752 0.7147789999999999
8340 -0.41808258000000004 8.63150508 1.6886345399999998 3.145798 0.819434 0.941731
8360 -0.39143862 8.62806177 -0.36673704 2.110632 2.765444 0.569879
8380 -0.55100808 8.79900102 -0.72733302 2.222364 3.927001 0.37155
8400 0.004188870000000001 9.64309266 -0.49562082 2.873253 2.135777 0.46385
8420 0.45790137000000003 10.333461600000001 -1.7504571599999998 2.559961 -3.710341000000001 0.706298
8440 -0.91339929 10.6368849 -1.19391624 3.975074 -1.914169 0.51626
8460 -1.51334946 11.87660403 -1.76841927 2.93605 -0.7841 0.664583
8480 0.30821058 11.87301357 -0.10283823 1.950377 -0.730582 0.922548
8500 0.89873334 11.944410750000001 1.7841447000000001 1.853202 -1.127982 1.019587
8520 -1.93817151 12.58822143 -0.35925201 2.105986 -1.278522 0.884813
8540 -3.7482048 12.62010393 -1.67786316 1.954467 -0.803122 0.41206
8560 -2.4438181500000002 12.223279620000001 0.21151341 1.286066 -0.458895 0.156986
8580 -2.10851235 11.28458034 1.7185746599999998 0.4739890000000001 -0.229284 0.184134
8600 -1.62606636 12.140355690000002 2.91518865 -0.134551 -0.478889 0.261388
8620 -3.0713148000000006 14.451248340000001 1.74267783 -0.728222 -0.709508 0.372905
8640 -4.89631815 13.92479469 2.6203000500000004 -1.410465 -0.6895479999999999 0.501642
8660 -6.167321370000001 15.545926620000001 5.98110795 -2.160448 -0.431315 0.509959
8680 -5.92198308 13.96880235 1.64687337 -2.902392 -0.264909 0.298396
8700 -4.6970868600000015 12.645256770000001 -2.23574805 -2.551771 -0.421486 -0.009807
8720 -3.5810031600000003 12.733419240000002 -0.6917129100000001 0.11115 1.682619 -0.499171
8740 -1.711845 12.33300447 0.66222405 2.724049 0.26347 0.215243
8760 0.62180685 10.43525016 -2.8382488200000004 1.901695 -0.838065 1.203288
8780 -0.56462436 8.35113528 -0.59920461 0.197712 -1.559189 0.26723
8800 -1.52278668 7.055283330000001 1.9998371700000002 -0.324498 -1.519219 -1.015131
8820 -1.37548953 4.51251171 3.14196642 0.472321 -0.5787760000000001 0.205935
8840 -1.0270187100000001 2.4658219800000003 1.7914727700000002 -0.588507 0.505657 1.128625
8860 -1.38911562 1.03853565 -0.9717786 -1.424533 0.8468459999999999 0.181244
8880 -1.91002662 2.38978467 -2.30460444 -1.039239 0.964879 -1.163243
8900 -1.5296733000000002 3.2135205600000005 -2.71190583 -0.790261 -0.011323 -1.27669
8920 -1.7588447100000002 2.6131191300000003 -2.51642196 -2.380988 0.414689 -0.141076
8940 -2.24114355 2.3534091900000003 -2.63691819 -3.627105 1.193448 0.395083
8960 -2.12378652 2.20476807 -3.82784238 -2.572712 0.8686860000000001 0.243699
8980 -1.44104976 3.0090409200000003 -5.08702455 -1.698122 0.7995260000000001 -0.002204
9000 -1.54747845 7.5459599100000005 -6.3860157 -1.770748 0.523958 -0.023722
9020 -0.67165146 20.320394760000003 -9.38578617 -1.993323 -0.442108 -0.13193
9040 -4.973405130000001 34.10298369 -13.33052451 -1.943602 -0.686689 -0.282956
9060 -5.21290647 14.042298870000002 -19.249672500000003 -1.87695 0.249961 -0.408673
9080 -2.10926772 3.43460853 -10.261309050000001 -2.101225 1.308873 -0.48744
9100 -1.8826371000000002 11.28517875 -0.40385808000000006 -2.228738 1.602502 -0.546391
9120 -0.3010198500000001 20.307219930000002 11.87629992 -1.6517529999999998 0.082785 -0.355611
9140 1.7079504300000001 5.753584620000001 4.56744771 -1.083703 -1.551956 -0.429665
9160 -1.4862640500000002 -0.5989005000000001 0.27707364 -1.008742 -1.869098 -0.5718770000000001
9180 -1.4825166300000001 3.97034244 3.48939738 -1.472643 -0.943506 -0.403251
9200 -1.75105557 12.219385050000001 -3.23626995 -1.7698200000000002 0.76446 -0.228054
9220 -0.36599148000000004 15.48394704 -2.46163311 -1.253038 1.347425 -0.2081
9240 -1.2376296 11.47768038 -0.42661728 -0.31450900000000004 0.172956 -0.354932
9260 -0.6999435 8.0258553 1.10979549 0.154847 0.51799 -0.466395
9280 -0.7132654800000001 9.095832000000001 0.27333603 0.398555 0.458244 -0.388773
9300 -0.8843616900000001 8.71966755 0.39292974 0.8373959999999999 -0.847348 -0.345578
9320 -2.4101404200000003 7.46258472 0.23081949000000002 1.5317379999999998 0.365425 -0.27071100000000003
9340 -2.63691819 7.241486940000001 -0.45370269 2.573416 1.685856 0.01902
9360 -1.2057471000000002 7.67738448 -0.87852474 3.119128 1.593516 0.5260819999999999
9380 -0.060174540000000006 7.94921958 -0.28905165000000005 3.342621 0.857297 0.6268630000000001
9400 0.96429357 8.773857990000002 1.0583028 3.072277 1.614981 0.526796
9420 1.10425284 9.75731049 2.15102889 2.502421 3.911759 0.477143
9440 -0.09669717 8.793016920000001 1.5998736599999999 2.690824 2.012282 0.336683
9460 -1.85344254 8.66727234 0.045204480000000005 2.55787 -3.226914 0.228169
9480 -1.6098994800000002 9.541009800000001 -2.4462117900000004 3.839567 -3.147112 0.472028
9500 -0.20207619000000002 10.269539640000001 -2.56012551 3.319989 -1.128154 0.5907939999999999
9520 -0.0290376 10.992987900000001 -0.35042301000000003 2.44256 -0.745775 0.832002
9540 -1.69013547 11.860133040000001 -1.3867121699999998 2.192632 -0.978356 1.136066
9560 -0.4192794 12.286299060000001 -0.9035206200000001 2.168463 -1.003406 1.028039
9580 0.7337781900000001 11.49235614 1.82215845 1.92857 -0.907052 0.849983
9600 -1.6048080900000001 12.43374336 0.89229798 1.507823 -0.777778 0.5883689999999999
9620 -3.2343275700000005 14.25365532 -0.56897019 0.979069 -0.656841 0.374081
9640 -0.53034822 13.59831789 -0.03967164 0.389459 -0.5801850000000001 0.363455
9660 -0.87388461 13.64442489 2.7442395900000003 -0.150858 -0.6179859999999999 0.428095
9680 -4.25325303 12.17044296 1.08434835 -0.769911 -0.5852970000000001 0.515596
9700 -5.22667971 12.333151620000002 1.11368025 -1.47545 -0.355131 0.577671
9720 -4.724927640000001 14.213247930000003 5.044056750000001 -2.221626 -0.129152 0.656559
9740 -4.8002193900000005 13.83243354 2.0538804600000002 -2.932852 -0.038381 0.418602
9760 -4.810696470000001 12.795840270000001 -0.8678907000000001 -2.02781 -0.484628 0.141349
9780 -3.80928186 13.353734970000001 -0.70173873 0.750599 1.616018 -0.648443
9800 -0.68272695 14.82247836 -0.18561501000000002 2.915125 -0.771988 0.584304
9820 -0.9457330500000001 10.69345917 -2.0399600700000002 1.602926 -1.170001 1.354383
9840 -1.78189821 8.59093092 -0.4864877100000001 0.367691 -1.519045 0.47026
9860 -1.33117776 7.5438605700000005 1.50347079 -0.098681 -2.131873 -0.11653
9880 -1.4030360100000001 5.98545378 1.8086893200000003 -1.069391 -0.600217 -0.287643
9900 -1.5533154000000002 3.69281754 0.7643069100000002 0.41076 -0.335309 0.379313
9920 -1.24107291 1.8462616200000002 -0.06811083000000001 -0.192332 0.325292 0.868841
9940 -1.95089508 2.10702123 -1.13538978 -1.182603 1.251817 -0.069685
9960 -1.9243982700000002 2.6102742300000004 -1.6367004000000003 -0.970428 -0.449503 -1.032764
9980 -1.8679613400000001 2.48976819 -1.58999499 -0.260884 -1.867588 -0.798459
10000 -2.00373174 1.98412155 -2.02573557 -2.593536 1.068685 0.329823
10020 -2.01705372 1.92889125 -2.96233551 -3.540067 2.169387 0.283345
10040 -1.9446068699999999 1.9746941400000002 -4.42989189 -2.021328 0.379703 0.037737
10060 -1.4831150400000002 4.4300390400000005 -6.43511475 -1.523809 -1.005669 0.001327
10080 0.17603064 13.990060620000001 -9.56421045 -2.019175 0.169852 0.299736
10100 -0.97926363 34.819839630000004 -10.42791228 -2.452868 0.44334 0.215171
10120 -6.16164138 17.36224812 -16.1783577 -2.638205 0.115342 -0.183082
10140 0.5709125700000002 5.0524443 -17.64231381 -2.270082 0.170228 -0.374997
10160 0.15193728 4.1137450200000005 -5.1563322 -2.007726 0.555217 -0.442024
10180 -3.6961137 10.448424990000001 0.8880993 -2.044549 1.172032 -0.415298
10200 -2.7184981500000003 17.69156001 5.682933 -2.1853580000000004 1.440864 -0.388852
10220 -2.89617687 10.930125420000001 4.505929200000001 -1.903388 0.160185 -0.312603
10240 1.67650938 3.59821971 -1.87111035 -1.337621 -1.7208330000000005 -0.60107
10260 -2.04833781 0.82478556 -0.036071370000000005 -1.032258 -2.29441 -0.750957
10280 -4.301459370000002 4.73345253 -0.63213678 -1.378821 -1.455075 -0.425441
10300 -1.9856224800000002 16.655418 -4.03321473 -1.7014939999999998 1.474918 -0.000956
10320 0.92777094 16.222963770000003 -2.7211959000000006 -0.91099 1.6417700000000002 -0.054401
10340 0.23800041000000002 8.975639880000001 3.3175556100000003 0.249444 0.001913 -0.427685
10360 -1.08014967 8.084685870000001 0.18157329000000003 0.5938100000000001 0.014297 -0.360134
10380 -1.40647932 10.35576954 -1.4135130900000004 0.92292 -0.331952 -0.104223
10400 -1.01429514 9.019343430000001 -1.0930302 1.914637 0.146705 0.014254
10420 -1.22086431 7.32860955 -0.7857123300000001 2.491638 1.130942 0.332149
10440 -1.1943675 7.033720949999999 0.09355797 2.925068 0.784011 0.401851
10460 -0.70773264 7.49760642 0.90651267 3.368472 0.476418 -0.049721
10480 -0.20207619000000002 7.74953703 0.9274668300000001 2.818737 1.954224 -0.172959
10500 0.4391838900000001 8.463852180000002 0.7478457300000001 2.45278 3.176152 -0.136488
10520 0.5698629000000001 8.96560425 1.47233385 2.725319 1.100233 -0.182131
10540 -0.83496834 9.30749256 1.8106317000000003 2.637957 -1.939834 -0.16389
10560 -2.1314187 8.57656908 0.83361456 3.089626 -2.099048 -0.166941
10580 -2.74215006 8.89465833 -0.5174775 3.051944 -0.533834 0.050844
10600 -0.37451637000000004 10.885666500000001 -3.3662034000000003 2.328934 0.091681 0.361186
10620 0.9577110600000001 12.288094290000002 -1.8820386900000001 1.835385 0.019718 0.669751
10640 -0.7481400300000001 12.40305768 -0.76311009 1.774042 -0.579791 0.662614
10660 -0.7292852099999999 11.67018201 -0.3873969 1.598729 -0.617794 0.46168
10680 0.06196977000000001 12.316533480000002 2.88195237 1.038087 -0.543216 0.412803
10700 -1.70016129 14.17327218 0.7387126199999999 0.429781 -0.3801 0.37523
10720 -2.65263381 14.9492628 0.8169964200000002 -0.049974 -0.421518 0.492641
10740 -0.80472411 15.1052418 3.8811303 -0.506494 -0.667894 0.6959350000000001
10760 -5.18401602 13.05899352 0.66626577 -1.016694 -0.968492 0.91922
10780 -6.612950430000001 9.58786236 -1.31217579 -1.583593 -1.139698 1.068235
10800 -5.04615609 8.348143230000002 1.8952135200000002 -1.989269 -0.964734 0.822691
10820 -2.9294131500000002 12.18481461 4.52284164 -1.405088 -0.793507 0.387513
10840 -4.154309370000001 13.76926695 2.34980892 0.259948 1.184313 -0.15673
10860 -5.21890038 13.68529335 -1.12371588 2.339438 -0.64367 -0.102475
10880 -4.18664313 13.43830698 -0.07484049000000001 2.148702 -1.671097 0.72004
10900 -3.0469173300000003 12.417576480000001 0.33739533 0.6744720000000001 -3.116807 0.166802
10920 -2.5848270899999997 9.2925225 -1.60271856 0.476729 -2.407182 -0.231799
10940 -1.38790899 7.838602020000001 -1.22684841 0.752464 -0.914583 -0.507387
10960 -0.6965001900000001 7.06755564 -0.04176117000000001 1.095141 -2.779526 0.437432
10980 -0.6453116099999999 4.86563247 0.39682431 0.1136 -2.2429810000000003 -0.220659
11000 -1.13988276 2.8036685700000006 -0.6041390400000001 -1.318756 -3.379738 -0.283687
11020 -1.09212768 1.9592728200000002 -1.2982455900000003 -1.471669 -3.293468 0.118923
11040 -1.2819315599999999 2.23380567 -1.57098321 -1.352618 -1.46554 1.101244
11060 -1.3897140300000002 3.0772989000000006 -2.16689166 -2.565276 1.023131 1.8384080000000005
11080 -1.7262068400000001 3.2474925900000002 -3.13298046 -2.712442 0.8402540000000001 1.878207
11100 -1.40512554 2.6429022900000003 -4.24681767 -2.278389 -0.488176 1.7761189999999998
11120 -1.37548953 2.4610347 -5.3789112900000005 -2.1227400000000003 -0.30135 1.274903
11140 -1.08344583 5.153781600000001 -6.91262631 -2.450817 -0.273435 0.706418
11160 -1.90703457 13.62825801 -9.09493929 -2.624901 -0.017616999999999997 0.287199
11180 -5.0548379400000005 26.75401839 -10.96574553 -2.245075 0.869761 0.22355300000000006
11200 -5.203479060000001 13.019478840000001 -12.56652171 -2.005554 1.572746 0.572566
11220 -2.01241359 4.609817100000002 -11.38277844 -1.976712 1.130348 0.358622
11240 -3.62546208 5.843248020000001 -3.46603977 -1.203176 -0.325331 0.082812
11260 -6.165074880000001 19.52913978 5.37696891 -0.338491 -1.790462 -0.305581
11280 -1.5238265400000002 17.69081445 1.25454204 -0.612494 -2.313152 -0.158343
11300 0.44442243000000003 5.60958363 -4.15655586 -1.221139 -0.617732 0.227271
11320 2.65188825 2.4481541700000005 1.86736293 -1.577192 2.6461 0.5784560000000001
11340 1.4756300100000002 4.635107280000001 2.4908178600000004 -1.6839849999999998 3.80434 0.333739
11360 1.3966006500000003 14.030320860000002 1.1976636600000001 -0.828728 1.569544 0.087272
11380 -0.40849821 15.74396109 0.49038228 0.5583140000000001 -0.184136 -0.25651
11400 -2.11480056 11.737243170000001 0.35790804000000004 0.8854549999999999 0.12408 -0.095455
11420 -2.23634646 10.96859043 -1.7036045999999998 1.104157 1.958085 0.08104700000000001
11440 -1.53670707 9.604480500000001 -0.48199473000000004 1.967456 3.016773 -0.085195
11460 -1.7443259100000001 6.634650150000001 -0.14354973000000004 3.513086 2.23577 -0.320157
11480 -2.71026756 6.03799614 -0.21330864 4.150688 0.592482 -0.448193
11500 -1.3840242299999999 7.190749620000001 -0.16750575 3.239978 0.17065999999999998 -0.730684
11520 1.27684017 7.988587110000001 1.55720997 2.495759 -1.12106 -0.467171
11540 1.7970154200000001 7.17458274 4.6270238400000006 3.084807 -1.786746 -0.206899
11560 -1.13284899 7.146585000000001 6.1869315600000006 3.90701 -0.08682899999999999 -0.320838
11580 -4.22795304 8.454120660000001 2.1285738000000003 3.753023 -0.969148 -0.651932
11600 -4.81443408 8.845559280000002 -1.5609573900000002 2.901207 -1.0482790000000002 -0.6374850000000001
11620 -3.47307354 9.85266369 -3.44224071 2.008041 -0.170228 -0.196195
11640 -2.338733430000001 10.213406820000001 -3.3959865600000008 1.514415 -0.279395 0.092121
11660 -2.262990420000001 11.380080690000002 -1.4775822 1.362633 -0.5136029999999999 -0.080623
11680 -3.5354945700000004 11.89561581 1.29121182 0.9838 -0.22505100000000006 -0.250281
11700 -2.49456528 11.64862944 2.1814104600000004 0.463392 0.066618 -0.011804
11720 -1.56259566 11.9354346 0.7925989500000001 0.145012 0.081118 0.101322
11740 -2.16180027 13.692179970000002 -2.6179064100000002 -0.26832399999999995 0.200984 0.320471
11760 -3.1620278699999997 15.630341670000002 -1.32698889 -0.830299 0.295598 0.589889
11780 -2.70622584 14.27012631 0.55429443 -1.665832 0.425787 0.990879
11800 -1.63190331 13.17575214 0.85277349 -2.586503 0.4896180000000001 1.277059
11820 -1.3980917700000002 12.50290386 2.5228573200000004 -3.008961 0.8145 1.117731
11840 -2.0531349000000003 13.96789983 5.12967843 -0.953645 0.60822 0.572604
11860 -2.24847162 13.698311220000003 2.38888215 1.29549 1.275735 -0.207298
11880 -0.70982217 13.41300699 0.94528179 2.983391 0.029336 0.200263
11900 -0.5490558900000001 13.46779584 2.9124909 1.487985 -1.803938 0.414357
11920 -2.14174863 11.14581789 -1.8952135200000002 0.13836800000000002 -1.860901 0.11231
11940 -3.23012889 8.584201259999999 -1.5865516800000001 -0.773047 -0.837857 0.008493
11960 -2.70307683 7.0723429200000005 -1.27489779 -0.325255 0.942995 -0.040868
11980 -1.6462749600000002 5.24868354 0.3094074 0.112748 1.4374790000000002 0.32902600000000004
12000 -0.45610614000000005 3.60914805 1.1249127 -0.7495729999999999 0.671218 0.093249
12020 0.6453116099999999 3.12834033 -0.47226321000000004 -1.659245 0.550474 -0.357331
12040 -0.0011968200000000001 4.62403179 -0.8339186700000001 -1.87891 -0.410446 -0.156808
12060 -0.33485454 4.035157110000001 -0.40490775 -2.108369 0.608735 0.645722
12080 -1.3980917700000002 3.0740027400000005 -0.83660661 -3.169434 2.575059 1.075898
12100 -2.2444299 2.79364275 -1.79357211 -2.995632 2.617649 0.664724
12120 -3.65928696 2.0736378 -3.91406247 -2.192218 1.062136 0.287769
12140 -4.595141340000001 2.23590501 -5.7869680500000005 -1.977035 0.468322 0.481245
12160 -4.686001560000001 5.99952132 -7.13850156 -2.375617 0.288771 0.440235
12180 -4.67627985 15.410156220000001 -11.24671374 -2.392458 1.099205 0.248936
12200 -4.833602820000001 33.06893121 -9.90624591 -2.528054 2.149434 0.133411
12220 -5.934412350000001 18.207389430000003 -12.465773010000001 -2.739525 2.062854 -0.142488
12240 -3.86616024 2.46372264 -14.23779255 -1.878175 0.8076939999999999 -0.28975500000000004
12260 -4.80485952 3.41799039 -5.682628889999999 -1.184404 -0.93798 -0.436496
12280 -3.91061916 12.732075270000001 2.04295212 -1.063068 -1.455151 -0.4136220000000001
12300 -1.14316911 15.24520107 10.889708220000001 -1.378064 -0.441361 -0.052857000000000015
12320 -0.54606384 6.930588419999999 3.04572051 -1.820307 2.407279 0.306803
12340 -1.4027319 4.177510020000001 -1.5094647 -0.93795 2.590769 0.009356
12360 -0.8599642200000001 6.267618810000001 2.3755601700000004 0.056987 0.136957 -0.199535
12380 -2.26628658 11.30554431 -1.32923538 0.262548 0.246168 -0.249514
12400 0.10612458 16.502431050000002 -1.31606055 0.405169 0.949546 -0.181053
12420 0.8590617000000002 11.121420420000002 1.03674042 0.8091430000000001 0.997565 -0.285115
12440 -0.4767561900000001 8.00325306 0.4801995 1.3433700000000002 0.922138 -0.533387
12460 -1.16203374 8.61069807 -1.4784749099999999 2.0548900000000003 1.553845 -0.350833
12480 -0.37781253 9.11349981 -0.06706116000000001 3.316657 1.947859 -0.344661
12500 -0.34383069000000005 7.275468780000001 -0.051796800000000004 3.699858 1.348726 -0.0325
12520 -0.47900268000000007 6.26522517 0.12678444 3.114392 1.63735 -0.041233
12540 0.038621970000000005 6.34724658 0.6418683000000001 2.932337 2.385052 0.146681
12560 0.07634141999999998 7.177574790000001 1.6013745900000003 2.772056 2.021573 0.074456
12580 0.01826622 8.22180024 2.7000847800000005 2.6856310000000003 -2.42496 -0.098842
12600 -1.1103939 8.12061009 1.50466761 3.988688 -3.926623 -0.256595
12620 -1.6055634600000002 9.54010728 0.44816985000000004 3.37624 -1.538159 0.24454
12640 0.05283666000000001 11.31676695 -4.41237123 2.209629 -0.23197 0.948289
12660 1.15485282 11.945313270000002 -4.08275523 1.980386 -0.815336 1.045712
12680 -0.2282787 11.971800270000001 0.5951628900000002 1.965249 -1.111483 0.792817
12700 -1.00530918 13.1531499 -1.3498952400000002 1.813018 -0.858355 0.494464
12720 1.20230379 13.001359770000002 0.49891698 1.324976 -0.25593 0.248865
12740 0.58453866 13.60984464 1.64103642 0.8026479999999999 -0.339549 0.300871
12760 -3.8925099 13.894256160000001 -0.9574069500000001 0.375563 -0.8155939999999999 0.371137
12780 -3.4387974000000003 13.515845220000003 -2.0718425700000003 -0.17715699999999998 -1.234739 0.4404520000000001
12800 -0.93405915 14.69808756 -0.48783168000000005 -0.817075 -1.271473 0.5909220000000001
12820 -0.60968169 11.750565150000002 0.8834591700000001 -1.41365 -1.297043 0.8420920000000001
12840 -2.5253981100000003 10.55769858 1.8208144800000001 -1.808039 -1.091639 0.966193
12860 -4.11030171 10.766357280000001 3.6295037999999997 -0.892547 -0.948527 0.61455
12880 -4.68346077 14.15606544 4.4917047000000005 0.066085 0.222417 -0.000892
12900 -3.9128656500000005 14.51950632 1.6281657 1.089005 0.031926 -0.13664400000000002
12920 -2.78615772 14.34197475 -1.82215845 0.884489 -1.361312 0.5366920000000001
12940 -2.58078537 13.59113697 0.7471001700000001 0.492642 -2.66895 0.480084
12960 -0.71221581 13.668822360000002 -2.18320569 0.312769 -2.292564 0.283928
12980 -0.5402268900000001 10.26250587 -3.77170956 0.441691 -2.106646 0.03249
13000 -1.57442652 7.93319985 -0.7608636000000001 0.432999 -1.035687 -0.049059
13020 -1.7200755900000002 5.46199218 2.16629325 -0.043024 -2.087236 0.127356
13040 -0.74904255 3.03553773 2.28395439 -0.566006 -1.700786 -0.156666
13060 -0.12065319 1.7188787700000001 0.5544513900000002 -1.798555 -2.170709 0.146179
13080 -0.17947395 1.7149842000000002 -0.86909733 -1.754588 -1.899044 0.369396
13100 -0.5351355 3.01607469 -1.17296208 -1.95736 -0.234118 1.101851
13120 -1.11907575 2.7081682199999997 -1.74237372 -2.570903 1.0693549999999998 1.472978
13140 -1.97139798 2.6529379200000003 -2.63691819 -2.688749 0.908165 1.658232
13160 -2.82358287 3.39449544 -4.14966924 -2.761647 0.393628 1.457556
13180 -3.06696897 4.758752520000001 -6.40278099 -2.642203 0.286853 0.8838239999999999
13200 -2.2656881700000002 7.015464540000001 -9.91568313 -2.495525 -0.096219 0.384343
13220 -2.22751746 14.321314890000002 -13.306284000000002 -2.1731580000000004 -0.075018 0.13126300000000002
13240 -3.52382067 21.752017110000004 -11.02651848 -1.826409 0.475291 0.206687
13260 -6.80304861 13.445340750000002 -12.008175750000001 -1.906375 0.67296 0.393882
13280 -4.730911740000001 7.5163239 -9.44371422 -1.947796 0.8133239999999999 0.492758
13300 -3.88067904 6.02527257 -5.17518702 -1.441153 -0.105992 0.315877
13320 -3.83083443 7.021595790000001 -1.21711689 -0.902099 -1.296567 0.014588
13340 -2.8725249600000002 11.30224815 1.0124901 -1.045631 -1.614769 0.059927
13360 -2.09654415 13.836024000000002 -0.7756865100000001 -1.468058 0.61611 0.377789
13380 0.2689902 8.79031917 -1.78353648 -1.2673370000000002 2.913648 0.269425
13400 2.47285575 5.785467120000001 2.8776163500000003 -0.6769390000000001 1.789856 0.005797
13420 0.91010313 6.527171790000001 1.22879079 0.183929 0.7484810000000001 -0.05735800000000001
13440 0.023946210000000002 13.076504370000002 -0.61102566 0.479346 0.974302 -0.042766000000000005
13460 -0.51298452 14.43044133 -0.83915721 0.769705 1.802928 0.277599
13480 -0.42466509 11.673919620000001 -0.34114275 1.361217 1.637042 0.489178
13500 -0.5029587000000001 9.77257485 -0.5266008 2.363 1.876293 0.262997
13520 -1.02327129 7.74818325 -0.37048446 3.328614 1.1717959999999998 -0.219669
13540 -1.84027752 6.27824304 0.15088761 3.768707 0.8153100000000001 -0.69577
13560 -2.38139712 6.551873370000001 0.11630736000000001 3.106525 3.676975 -1.004233
13580 -1.90583775 7.932454290000001 0.38544471 2.864168 3.4496550000000004 -0.956496
13600 -0.40371093 9.05990778 0.45984375 1.815125 -1.397485 -0.28036
13620 1.26187992 8.0312508 1.2650191200000003 2.749256 -2.6558740000000003 -0.482662
13640 0.06466752 7.20751491 3.90387969 3.109842 -1.187358 -0.670032
13660 -2.4251104800000003 7.6609233 2.99961351 2.500581 -0.197944 -0.617872
13680 -4.076476830000002 9.23489856 0.16016787000000002 2.2289220000000003 -0.348261 -0.620645
13700 -3.6139353300000003 10.59811578 -3.2772855600000006 1.608911 0.263619 -0.452708
13720 -1.85943645 10.32298452 -1.92454542 0.959787 0.462704 -0.392336
13740 -2.31583689 10.74944484 1.5549634799999998 0.531954 0.431398 -0.184844
13760 -1.21472325 12.231510210000001 1.65526092 0.003296 0.652373 0.15728399999999998
13780 1.57472082 13.548924540000002 1.27998918 -0.258332 0.675457 0.471621
13800 1.96915149 15.171106140000001 0.99408654 -0.5018729999999999 0.360082 0.6957180000000001
13820 -0.9630967500000001 17.76595905 1.51694973 -1.021475 0.023729 1.07708
13840 -1.32040638 16.5427011 1.2261028499999997 -1.818608 -0.03285 1.53092
13860 -2.81549943 13.18412988 1.36097073 -2.29032 0.312205 1.431043
13880 -5.52022434 9.37949796 -2.65652838 -0.929599 1.023502 0.861728
13900 -6.593340240000001 6.749162280000001 -1.4895504000000002 0.392079 3.080972 -0.121918
13920 -5.669012610000001 10.9670895 4.462068690000001 1.617403 0.791931 0.088263
13940 -2.4011544600000003 14.0958909 3.22789221 1.388696 -2.125982 0.582855
13960 -3.36724326 14.578631190000001 1.8618300900000002 0.34379 -2.852591 0.180177
13980 -2.8735746300000002 12.994473150000001 0.13367106 -0.177071 -1.8458 -0.193288
14000 -2.2547598300000002 11.101515930000001 0.8866081800000001 -0.629807 -0.174572 -0.8181609999999999
14020 -2.59200801 8.58824298 0.17289144 0.410843 0.115364 0.097794
14040 -1.38641787 5.61826548 0.43948800000000005 -0.278976 0.067241 -0.056514
14060 0.29309337 4.6360098 -1.34959113 -1.685604 -0.810829 -0.364316
14080 -0.93899358 4.05012717 -1.2952535399999998 -1.810896 -0.891228 0.135908
14100 -0.80187921 3.36724326 -0.61432182 -1.882204 0.714036 0.7561260000000001
14120 -0.42975648 3.26291391 -0.80802027 -3.349966 2.8724540000000003 1.18642
14140 -0.13412232000000002 3.21441327 -0.84992859 -3.345451 3.895874 0.727941
14160 -0.15297714 3.0413746800000006 -1.77365781 -2.4680310000000003 1.849427 0.247446
14180 -1.09257894 2.78974818 -3.52771524 -2.066701 0.027322000000000003 0.286768
14200 -2.1019298400000004 2.63332773 -5.94847989 -2.424402 -0.443626 0.35430700000000004
14220 -1.6913322899999998 4.23155331 -8.124504660000001 -2.484848 0.643895 0.17196199999999998
14240 -4.73495346 9.07592751 -11.136988890000001 -2.260765 1.893419 -0.01074
14260 -4.49320563 22.584287700000004 -11.069476470000001 -1.9751 1.82535 -0.01934
14280 -6.0336503100000005 21.307437720000003 -14.731166880000002 -1.549911 0.189184 0.120323
14300 -2.36582865 7.5914586900000005 -12.910950810000001 -1.043151 -0.895435 -0.010412
14320 -6.362520750000001 4.46686578 -4.922510850000001 -0.993727 -1.1296700000000002 -0.08454199999999999
14340 -6.5048736599999994 10.23077052 0.5568450300000001 -1.348593 -0.213815 0.027174
14360 -3.72186495 18.635644980000002 5.8998321 -1.625542 1.358233 0.075567
14380 -2.7683427600000003 13.1534442 1.8682654500000002 -1.347193 2.190682 -0.01649
14400 0.14340258 4.066146900000001 -2.82117942 -0.6571359999999999 1.210171 -0.233672
14420 -1.26157581 4.39500753 1.0509649200000002 -0.198521 0.375887 -0.321267
14440 -1.09602225 7.721990550000001 2.4319971000000002 0.080552 1.489084 -0.29297
14460 1.79641701 15.78138624 -0.49921128000000003 0.431778 1.401167 -0.189991
14480 2.4092379 13.78872999 0.25492266 0.57206 1.03001 -0.201354
14500 0.7656606900000001 8.76577455 1.6001679600000003 1.182926 1.100468 -0.501621
14520 -1.3611178800000001 8.08319475 -0.81999828 1.978303 1.737542 -0.933784
14540 -2.2760181 7.79938164 -0.69336099 2.850012 2.4058580000000003 -0.987304
14560 -2.08052442 7.07772861 0.97357383 3.3846730000000003 2.93888 -0.482188
14580 -0.85786488 6.99734547 1.1078433 2.929006 3.245203 0.56323
14600 0.72254574 8.44543881 1.6154421300000001 1.939693 2.619516 0.71415
14620 1.2777426900000002 9.476940690000001 1.7958186 1.845565 1.163306 0.25816
14640 0.12109464000000002 9.30330369 1.3421060999999999 2.665589 -2.2535380000000003 0.738284
14660 -0.74230308 8.42717259 0.30746502000000003 3.457447 -2.534177 0.17054
14680 -0.7500922200000001 8.83193319 -0.28889469 3.813308 -1.377879 0.010242
14700 -0.82059669 9.971060580000001 -1.61917974 2.761718 -1.3683809999999998 0.410945
14720 -0.5536960200000001 10.343791529999999 -2.5572806100000003 1.514872 -0.555257 1.144676
14740 -0.6773412600000002 10.815309180000002 -0.48498678000000006 1.149991 -0.318452 1.382174
14760 -2.08186839 10.788959520000002 0.50160492 1.200163 -0.756577 1.412996
14780 -1.69687494 12.043501560000001 -1.8509017500000002 1.722575 -1.35606 0.893985
14800 0.65653425 11.370653279999999 0.5376861000000001 1.502254 -1.114306 0.302478
14820 0.08576883000000002 11.669730750000001 1.57308255 0.640332 -0.907598 0.239576
14840 -1.9464021 12.42865197 -0.49831857 -0.033656 -1.13184 0.424231
14860 -4.04668386 11.291918220000001 -2.91308931 -0.851301 -1.253393 0.628047
14880 -3.1856797800000005 8.811724589999999 -2.7098163000000004 -1.628788 -0.802813 0.776931
14900 -1.9866721500000002 7.5194631 -0.22228479 -2.412414 -0.097447 0.8848530000000001
14920 -2.8614494699999997 8.37672957 0.67210272 -2.995775 0.16355799999999998 0.854807
14940 -1.8372756600000002 13.83872175 3.70584522 -1.864049 -0.545938 0.678819
14960 -0.06706116000000001 20.950432199999998 5.992487550000001 1.262769 2.107663 -0.165864
14980 -5.2027335 19.76610033 5.6317346100000005 2.561935 0.31098200000000004 0.7278640000000001
15000 -6.37673544 13.949790570000001 -0.7059276 1.861174 -3.208269 0.963556
15020 -4.31897022 13.580061480000001 -1.10709774 0.39443 -3.795011 0.315266
15040 -0.36015453000000003 12.98729223 -0.05837931 -1.031577 -2.384614 -0.039401
15060 -0.18980388 10.40980302 -2.6680551300000004 0.472707 1.184926 -0.493872
15080 -0.6072880500000001 9.46975977 -4.12287813 -0.138297 -0.8354239999999999 0.979664
15100 -0.9108585 9.245974050000001 -2.12872095 -0.277903 1.500331 0.66698
15120 -2.04280497 7.733968560000001 1.1817910800000002 -1.478094 -0.301058 -0.6861229999999999
15140 -2.35355634 4.190832 2.8074159900000004 -1.079544 -4.666301 -1.627395
15160 -0.5116405499999999 1.1280519 2.7598080600000006 -1.881448 -0.278064 0.305544
15180 -0.029184750000000002 0.7758336600000001 0.36194976 -4.851204 4.597959 1.7484259999999998
15200 -0.49366863 1.7384889600000002 -1.69252911 -4.495019 5.660224 1.659822
15220 -1.6040625300000002 1.47443319 -2.2975706700000007 -2.647126 4.075507 1.021008
15240 -2.8192370400000004 1.06338438 -2.7331641 -1.42196 -0.029894 -0.08253300000000001
15260 -3.35377413 1.16442738 -2.7683427600000003 -1.27991 -1.07289 -0.448741
15280 -2.5047382500000004 2.351457 -3.75359049 -1.904562 -0.454962 -0.191113
15300 -1.64657907 6.708902040000001 -5.36544216 -2.058834 0.71888 -0.30051700000000003
15320 0.21824307 17.4188322 -10.030195260000001 -1.698363 1.309219 -0.390623
15340 -3.1246027200000004 33.50138544 -13.58245512 -1.209991 0.6826840000000001 -0.243267
15360 -3.59342262 14.23569321 -17.6126778 -1.080902 0.07460399999999999 -0.136901
15380 1.5040692000000002 0.21240612000000003 -12.331807650000002 -1.332921 -0.002183 -0.163132
15400 -0.12498921000000002 2.14069896 -2.9283634800000002 -1.5054299999999998 0.29780300000000004 -0.174335
15420 -0.42377238 15.29818488 5.1421077 -1.435075 0.813996 -0.118958
15440 -0.39352815 33.10530669 8.7630768 -0.943364 0.961669 -0.17873699999999998
15460 2.12303115 8.350684020000001 2.7351162900000006 -0.188481 0.866317 -0.164796
15480 1.8853250400000001 2.3114910600000007 8.68269366 0.108336 1.320437 -0.233808
15500 -7.28220825 1.77081291 1.0324044 0.236317 1.302976 -0.240369
15520 -5.8865101200000005 11.34625581 -6.724313550000001 0.545303 0.140281 -0.122421
15540 1.12431429 17.51297877 3.33296712 1.164381 1.056668 -0.454693
15560 1.9839744000000001 14.515170300000001 2.82088512 1.564281 2.071121 -0.346377
15580 -0.5322906000000001 9.80954874 3.5862417000000004 2.567995 2.356976 -0.241456
15600 -2.62464588 6.684494760000001 1.6357978800000001 3.032526 2.07162 -0.145979
15620 -4.20610617 5.442087689999999 0.90890631 3.0574380000000003 1.639196 -0.186911
15640 -1.8196176600000002 7.81404759 0.9517171500000001 2.887658 2.561232 -0.182869
15660 0.5427676800000001 8.10280494 -0.89229798 2.560608 2.883114 -0.207999
15680 2.06734959 7.93948806 0.20103633 2.296093 0.8659899999999999 -0.10578
15700 1.4636520000000002 8.09546706 1.78833357 2.625798 -2.605091 -0.022118
15720 0.33425613 8.07795621 0.61432182 3.311264 -1.599487 -0.07950700000000001
15740 -0.30790647 8.452325430000002 0.22034241 2.551096 -0.186633 0.5041
15760 0.00329616 9.34237692 -1.04393115 1.796786 0.215967 0.90958
15780 0.32093415000000003 9.84922038 -1.5320669400000002 1.514159 -0.27399 0.8708459999999999
15800 -0.44398098 10.670709780000001 -1.9775390400000001 1.58493 -0.800067 0.501342
15820 -1.3605194699999998 12.57864687 -1.41904593 1.283335 -0.202764 0.309394
15840 -0.22902426 13.237869060000001 -1.1677235400000001 0.442597 0.282777 0.561409
15860 1.7670753 12.55050198 1.2088863 -0.07838400000000001 0.177231 0.7672770000000001
15880 -0.11420802000000001 13.73019372 1.7368408800000001 -0.34820100000000004 -0.332815 0.945507
15900 -3.54448053 13.953537990000001 -1.29181023 -0.6496890000000001 -0.480866 0.935045
15920 -3.2470511400000004 13.281876720000001 -1.1473677899999999 -1.059669 -0.409788 0.831678
15940 -0.8098155 12.77113869 -0.18561501000000002 -1.868885 -0.28447 0.8301370000000001
15960 -1.2686095800000001 10.822490100000001 2.29218498 -2.772899 0.061787 0.5381640000000001
15980 -3.59462925 11.487559050000002 2.57928444 -2.082821 -0.384068 0.6151260000000001
16000 -5.46947721 11.002425120000002 2.41268121 0.422462 1.186398 0.246053
16020 -6.627616379999999 12.56247999 4.87924875 2.290366 -0.936848 0.794864
16040 -5.384601090000001 12.636417960000001 2.9024650800000003 2.222761 -3.163028 0.7919039999999999
16060 -4.3167237300000005 12.569062500000001 0.12364524000000002 0.08136499999999999 -2.471813 0.554938
16080 -3.5971700400000004 13.17111201 -0.98390376 -1.821963 -0.618024 0.022249
16100 -1.75375332 13.551916590000001 -0.20387142 0.295363 1.86543 0.243227
16120 0.47855142 11.67721578 -2.8193841900000005 -0.115188 -0.7860699999999999 0.871872
16140 0.21929274 8.91949725 -2.18276424 -0.762315 0.185704 0.30742600000000003
16160 -0.17633475 6.27615351 0.52106796 -1.6633349999999998 -0.040333 -0.991126
16180 0.07858791000000001 4.23424125 1.22385636 -0.5235479999999999 -2.612747 -1.502229
16200 -0.6589278900000001 3.3465932100000004 0.07648857 -2.684435 0.8672200000000001 0.174554
16220 -2.0776795200000002 2.98389789 -2.0764827 -4.1949260000000015 4.027951 0.669495
16240 -2.7279255600000005 4.04324055 -2.57899014 -2.558718 3.336504 0.071855
16260 -2.2478732100000003 3.7312923600000003 -2.88883899 -1.604826 -0.766712 -0.012364
16280 -1.72710936 2.7689411700000006 -2.7395994600000004 -1.240056 -2.315532 -0.35073000000000004
16300 -1.84176864 2.53393281 -2.26943559 -1.519608 -1.847962 -0.35328200000000004
16320 -1.24211277 1.92155337 -3.57710859 -2.080156 -0.221706 -0.295188
16340 -1.31217579 3.5700748200000003 -4.89002994 -2.216313 0.770731 -0.343345
16360 -1.49554431 8.82504657 -8.03589093 -1.955402 1.063079 -0.418809
16380 1.4317695000000001 21.398297940000003 -11.59114284 -1.5664209999999998 0.766491 -0.379392
16400 -1.36950543 26.62782255 -12.88804446 -1.331246 -0.157613 -0.455614
16420 1.1199684600000002 8.32090086 -12.24004491 -1.581401 -0.968534 -0.443503
16440 1.43267202 1.3355235900000002 -6.82685748 -1.701043 -0.8154680000000001 -0.25652800000000003
16460 -0.6822855 9.28459602 -0.04445892 -1.516091 0.56511 -0.14590999999999998
16480 -1.9375731 21.723872220000004 10.057731930000001 -0.91716 1.145666 -0.12751500000000002
16500 0.76475817 14.421906629999999 1.55795553 -0.05817000000000001 0.797034 -0.267415
16520 0.7232913 1.8958119300000003 -0.9472339800000001 0.240299 0.797779 -0.445861
16540 -4.03934598 2.7622017 6.47059752 0.48395 0.288335 -0.330274
16560 -7.72019532 7.00408494 -5.07624336 0.947724 -0.170638 -0.239921
16580 -0.23201631 15.700100579999999 -1.18717677 1.877854 0.674323 -0.29646300000000003
16600 3.9674975400000005 14.43627828 1.04467671 2.754176 1.601816 -0.166549
16620 1.9898113499999999 9.67154166 2.30041557 3.195896 1.360738 0.064377
16640 -0.39816828 8.86336443 -1.49554431 3.432689 0.961037 -0.08514400000000001
16660 -0.94783239 7.75282338 1.0767063600000002 3.126707 2.15962 -0.123001
16680 -1.06503246 6.91007571 0.51253326 3.011723 2.964146 -0.084242
16700 -1.6616962800000001 7.8703373700000006 -0.8496342900000001 2.640302 0.35325500000000004 -0.053581
16720 -0.7912549800000002 7.99427691 -0.93031173 2.725864 -3.588751 -0.006271
16740 0.09609875999999999 8.57731464 0.19699461000000001 3.309863 -2.467246 0.077556
16760 0.11152008000000001 8.756337330000001 1.9742428800000003 2.668746 -0.322481 0.541415
16780 -0.5824393200000001 8.94539565 0.9939295800000001 1.827071 0.440101 1.043032
16800 -0.7146094500000001 8.88837012 0.31808925000000005 1.434917 -0.452116 0.995503
16820 -0.5610339 10.121801040000001 -0.73646613 1.529444 -1.041572 0.737341
16840 -0.017363700000000003 10.57131486 -2.35295793 1.267575 -0.717813 0.453086
16860 -0.5870794500000001 11.77137216 -1.30349394 0.697774 -0.232308 0.479462
16880 -1.52532747 13.016928240000002 -1.47997584 0.271677 -0.044566 0.5189739999999999
16900 0.40849821 11.84561424 0.36494181 -0.192096 -0.35120100000000004 0.613336
16920 1.0972190700000002 12.052340370000001 2.3354470800000002 -0.657998 -0.6259939999999999 0.7386199999999999
16940 -1.17475731 14.014153980000001 0.5953100400000001 -1.201376 -0.58939 0.8469409999999999
16960 -2.98629153 14.316831720000001 -0.77808015 -1.827642 -0.301915 0.894541
16980 -0.66147849 12.606781950000002 1.2428681400000001 -2.552418 -0.145982 0.889279
17000 -1.81048455 13.30867764 3.12879159 -2.307845 -0.522089 0.6938479999999999
17020 -4.41147852 11.625870240000003 1.31112612 0.480509 0.608556 0.045305
17040 -6.02721495 10.68986871 2.43663723 2.506437 1.728847 0.248165
17060 -4.74737292 12.610225260000002 4.597839090000001 2.745362 -2.689777 1.070549
17080 -4.08320649 13.179793860000002 2.17557351 1.004213 -3.86535 0.59308
17100 -4.665047400000001 13.325138820000001 -1.0235754000000001 -0.754918 -2.609773 0.615503
17120 -3.25827378 13.379623560000002 -0.39548034000000004 -2.935643 0.585537 0.238322
17140 -0.39113451 14.29916391 -0.94962762 -0.114241 2.843673 0.251931
17160 -0.00045126000000000004 11.224709910000001 -2.8615966200000003 0.530328 -1.022859 0.387439
17180 -1.27444653 7.03118016 -1.12880727 -0.291527 0.421775 0.004901
17200 -0.82897443 5.3810106300000005 1.33267869 -2.093641 0.92911 -0.894961
17220 -0.07215255 4.04278929 1.5320669400000002 -1.116523 -3.262687 -1.490583
17240 -0.34832367 2.8340599500000003 -0.059428980000000006 -2.228285 0.518369 0.171778
17260 -1.7775523800000002 2.245332420000001 -0.8496342900000001 -4.547569 5.036294 1.093028
17280 -2.25176778 2.7485854200000004 -1.02731301 -3.653901 5.288222 0.720797
17300 -1.5994224000000004 3.12175782 -1.67561667 -2.1372 1.276809 0.367995
17320 -1.5965775000000002 2.78660898 -1.93817151 -1.625043 -1.364782 -0.148471
17340 -2.14773273 2.13770691 -2.6114710500000005 -1.238928 -1.371624 -0.370092
17360 -2.63661408 2.28843756 -3.64312008 -1.560194 -0.443745 -0.363911
17380 -1.9597240800000002 4.639305960000001 -4.47493941 -2.066933 0.305725 -0.336364
17400 -0.36209691 11.514801420000001 -7.564667580000001 -1.923518 0.8115100000000001 -0.405445
17420 0.17767872 27.71142534 -9.49040982 -1.161744 -0.039488 -0.306098
17440 -3.4328133000000003 25.531957260000002 -14.714254440000001 -1.079983 -0.783666 -0.489376
17460 -1.4076761400000002 6.10654842 -16.373547270000003 -1.533122 -0.146511 -0.392945
17480 1.03060917 -0.9948321 -7.032828240000001 -1.877245 1.048307 -0.255874
17500 -0.54860463 4.19472657 -0.8616123 -1.417025 1.238039 -0.150353
17520 -0.21840003000000002 15.275435490000001 8.405168759999999 -0.567004 0.628153 -0.217342
17540 -1.8377269200000002 22.80642534 8.47418211 -0.044359 0.8192149999999999 -0.232096
17560 -0.03248091 11.164986630000001 -3.0287982600000003 0.162142 1.145706 -0.2738
17580 1.1570895 1.8526969800000002 0.77658903 0.403326 0.420698 -0.061815
17600 -5.10977394 0.7599708900000002 4.31433009 1.10782 0.272143 -0.28530300000000003
17620 -5.7471492600000005 10.3912425 -7.62888384 1.954078 0.8558049999999999 -0.458533
17640 1.63190331 16.756755300000002 1.0553009400000002 2.90831 1.426772 -0.215454
17660 3.3087168000000005 13.78753317 3.4317636300000003 3.157808 1.213785 0.083527
17680 0.6963530400000001 10.48464351 2.9794049100000004 3.291847 0.697434 -0.109291
17700 -1.5176952900000003 8.270604990000002 -0.44233290000000003 3.064552 1.719491 -0.026731
17720 -1.12715919 7.46003412 1.8503033400000002 3.081951 3.117472 -0.126677
17740 0.04431177000000001 8.364604410000002 1.5429952800000002 3.004261 1.536721 -0.088875
17760 0.7750881000000001 7.64490357 -0.25492266 2.205451 -3.772197 0.232815
17780 1.09571814 8.420285970000002 -0.5815367999999999 3.265908 -2.687862 0.141625
17800 0.33200964 8.24231295 1.5323612400000002 2.673285 -0.818477 0.6980430000000001
17820 -1.0837499400000001 8.053853040000002 0.8911011600000001 2.009512 -0.355955 0.958801
17840 -2.2667378400000002 8.03558682 -0.8840575800000001 1.734322 -0.5585439999999999 0.977434
17860 -0.850527 8.89929846 -1.1268550800000001 1.5747719999999998 -0.912776 0.989593
17880 0.48184758000000005 10.57535658 -1.5497249400000002 1.385973 -0.8347399999999999 0.8193950000000001
17900 0.6674625900000001 11.08714428 -1.69747335 0.963958 -0.749142 0.558896
17920 -0.44173449000000004 11.9474028 -1.5190392600000002 0.556841 -0.912748 0.533829
17940 0.20342997 12.36338604 -0.42152589 0.128702 -1.104539 0.6485890000000001
17960 1.6247223900000003 12.31114779 1.16997003 -0.458988 -1.138315 0.8133060000000001
17980 -0.58109535 12.996121230000002 0.84260052 -1.148872 -0.72613 0.89769
18000 -3.38775597 13.530364020000002 -0.5772007800000001 -1.914127 -0.112925 0.8605799999999999
18020 -2.03800788 12.63581955 0.0170694 -2.708418 0.415295 0.789193
18040 0.45939249000000004 11.980639080000001 2.6716455900000002 -2.482648 0.47239 0.700967
18060 -2.9912259600000004 14.229709110000002 2.16659736 0.219373 0.741251 0.121292
18080 -6.299197200000001 12.72758229 0.74949381 1.845485 1.330547 -0.271893
18100 -6.953641920000001 11.83080114 4.15416222 2.107775 -2.124238 0.5889439999999999
18120 -4.23035649 14.387483340000001 3.7479105 0.746472 -3.24805 0.157859
18140 -3.3094721700000003 13.502376090000002 1.04512797 -0.225884 -2.617261 0.165214
18160 -2.63527011 14.6834118 -2.2073088600000004 -1.660351 -0.792025 -0.027674
18180 -1.23433344 13.98706857 -0.16016787000000002 0.207963 0.87739 0.185131
18200 0.8884034100000001 11.99006649 -1.4733835200000003 0.038387 -0.16936800000000002 1.028115
18220 -0.04235958 9.10376829 -1.3470503400000002 -0.635632 2.516123 0.5649029999999999
18240 -0.99976653 6.506374590000001 1.02477222 -2.454796 1.83649 -1.055675
18260 -1.6962765300000002 4.448599560000001 2.12318811 -1.102974 -2.743455 -1.612931
18280 -1.14646527 3.49762797 1.48282074 -1.83639 0.373974 -0.28784
18300 -0.55175364 2.86339185 -0.07858791000000001 -4.029761 4.307192 0.757885
18320 -0.55175364 2.5791372900000002 -0.9442321200000001 -3.253763 5.381201 0.565376
18340 -1.17475731 2.87701794 -1.63175616 -1.8005810000000002 2.732343 0.516964
18360 -1.5829612199999998 2.5268990400000004 -1.9597240800000002 -1.469467 -0.031294 0.042119
18380 -2.2598512200000003 1.7699202 -2.30400603 -1.174423 -0.92791 -0.03372
18400 -3.1626262800000005 1.8468600300000002 -2.7764262 -1.299349 -0.259461 -0.055745
18420 -2.7520287299999997 3.3337126800000005 -3.3621616800000007 -1.622723 0.881602 -0.079762
18440 -2.59889463 7.253916210000001 -4.227511590000001 -1.669855 1.453151 -0.179101
18460 -0.7159632300000001 14.90705037 -8.39215089 -1.468601 1.2759790000000002 -0.269335
18480 -1.74102975 30.97673289 -13.392798390000001 -1.4827 0.595938 -0.424522
18500 -4.6689419700000006 18.547335359999998 -14.960338290000001 -1.630931 0.119278 -0.442038
18520 -1.01129328 3.67905411 -12.97142946 -1.384708 -0.18618 -0.458087
18540 -1.06847577 2.77088355 -5.6393766 -1.187545 -0.051245000000000006 -0.274217
18560 -0.27153099 11.05631145 -0.30177522 -1.134613 0.741508 -0.100743
18580 0.36419625 20.6580942 7.94053773 -0.684213 1.449582 -0.141233
18600 1.0809050400000002 16.01818983 3.92543226 -0.162999 1.401598 -0.314855
18620 1.4636520000000002 3.7941646500000004 1.8010571400000002 0.202548 1.305438 -0.560006
18640 -1.00770282 0.46194309 8.05490271 0.488542 1.047851 -0.5939979999999999
18660 -7.628432580000001 5.4922266 0.88166394 0.7467010000000001 0.945183 -0.451058
18680 -4.87041975 15.247290600000001 -3.42248337 1.293387 2.301215 -0.376338
18700 1.92320145 15.37602723 1.34674623 1.722847 3.033278 -0.004671
18720 3.3175556100000003 12.312795870000002 3.33686169 2.11223 1.6723439999999998 0.068159
18740 1.4834191500000002 9.74803023 1.9543383900000002 2.969384 0.21142800000000006 -0.302133
18760 -0.56732211 9.04479057 0.95276682 3.04176 0.90247 -0.284353
18780 -1.37130066 7.73965836 1.8925157700000002 2.530163 2.709875 -0.015709
18800 -0.20611791 7.70837427 0.43724151 1.730905 3.341467 0.17338299999999998
18820 0.35236539 7.48323477 -1.32908823 1.250796 0.98264 0.665502
18840 0.28725642 7.1021358900000005 -0.7231441500000001 1.491379 -2.848212 0.7532770000000001
18860 0.21465261000000002 7.048995120000001 -0.10253412 2.870623 -2.866059 0.5578350000000001
18880 -0.06601149 7.685467920000001 -0.11181438 3.027907 -2.206477 0.643546
18900 -0.27857457 9.02877084 0.7006890600000001 2.323338 -1.015567 0.73858
18920 -0.15223158 10.078087680000001 1.08150345 1.539476 -0.277518 0.931916
18940 -0.22588506000000003 10.624906890000002 0.4379870700000001 1.231307 -0.14474 1.02787
18960 0.10238697000000001 11.915225999999999 -2.3343974100000002 0.939171 -0.428855 0.936463
18980 -1.21711689 12.78491193 -2.79079785 0.519947 -0.555724 0.792692
19000 0.09295956000000001 12.3000723 -0.9035206200000001 0.167113 -0.4746510000000001 0.80401
19020 2.0202027300000003 11.969710740000002 1.4780236500000004 -0.0916 -0.616396 0.777816
19040 1.0373388300000002 12.902573069999999 2.06734959 -0.220378 -1.085474 0.712356
19060 -1.3542312600000002 12.90346578 -0.25387299 -0.5407029999999999 -1.405967 0.6848920000000001
19080 -1.69986699 13.23607383 -1.77785649 -1.114378 -0.8819020000000001 0.662053
19100 0.3008727 12.72174534 0.83167218 -1.75626 -0.4275600000000001 0.5523020000000001
19120 -0.45025938000000004 11.953543860000002 3.0937698900000004 -1.998429 -0.098012 0.401705
19140 -5.328321120000001 9.070983270000001 1.51290801 -1.047004 -0.169434 0.388146
19160 -7.58442492 10.071053910000002 0.99019197 0.527105 -0.06851 0.158662
19180 -5.65254162 11.132201610000001 -0.03847482 1.563731 -0.85398 0.415805
19200 -2.8629504 13.12455375 1.18343916 1.49455 -2.278927 0.377623
19220 -2.28903597 14.39571393 1.2910646700000001 0.076961 -1.955321 0.866167
19240 -2.5174618200000003 12.43464588 -0.6450075000000001 -2.246944 0.697278 0.468384
19260 -2.4977044800000003 12.284807940000002 0.3010198500000001 -1.287426 3.298588 -0.339027
19280 -1.63355139 10.608141600000002 2.18560914 0.796998 -1.173324 0.48777
19300 -1.16053281 9.18864441 0.03562992 -0.589893 -2.136711 0.452612
19320 -1.96840593 7.637712840000001 -1.5224825700000002 -2.057292 0.112622 -0.5390119999999999
19340 -2.75277429 6.68570139 -0.93451041 -2.84254 0.417393 -0.948675
19360 -2.8867494600000003 5.801781149999999 -0.7511418900000002 -2.033773 -0.425127 -0.612934
19380 -2.00942154 4.91263218 -1.5313115700000002 -2.581145 2.260298 0.426659
19400 -1.2882197700000002 4.14533322 -2.47076622 -3.151794 4.558602 0.794674
19420 -0.6441147900000002 4.1276654100000005 -3.19391037 -2.664565 2.793765 0.291865
19440 -1.0568018700000001 4.11149853 -3.31021773 -1.608789 -1.241647 -0.319431
19460 -1.46096406 3.69701622 -2.39741685 -1.080015 -2.606687 -0.405855
19480 -1.5898478400000002 3.35572632 -2.00492856 -0.9003129999999999 -1.348982 -0.198976
19500 -1.68848739 3.41934417 -2.4966548100000003 -1.113069 0.364118 -0.048834
19520 -1.82455209 4.81294296 -3.33611613 -1.1969379999999998 1.62789 -0.064926
19540 -2.44666305 6.28558092 -5.65598493 -1.118508 1.7340970000000002 -0.318751
19560 -1.4263838100000001 12.38899014 -10.53269289 -1.302636 1.495454 -0.420144
19580 -0.07005321 23.206987260000002 -12.050241030000002 -1.522697 0.8415459999999999 -0.5383479999999999
19600 -0.48094506000000004 17.26165638 -10.50470496 -1.258467 0.652619 -0.408074
19620 -2.30759649 6.13215252 -9.16873011 -0.530158 0.860786 -0.349842
19640 -1.84117023 5.622611310000001 -5.53010301 -0.175101 1.190283 -0.206779
19660 1.5157431 12.78536319 2.08112283 0.07623300000000001 0.51761 -0.303506
19680 -1.6355035800000002 21.64334193 11.93139288 0.125322 -0.652292 -0.288845
19700 -1.5370013700000003 11.939319359999999 2.24308593 0.5589930000000001 -0.407295 -0.39402
19720 2.02453875 2.8053166500000004 -3.2757846300000004 1.229128 0.341356 -0.382821
19740 -3.62127321 2.9660829300000007 0.70982217 1.731984 0.556368 -0.242852
19760 -5.74550118 6.221511810000001 3.0975075 2.76065 0.607073 -0.228254
19780 -2.69110863 14.3478117 -0.14115609 2.799858 0.593015 0.056185
19800 2.5274974500000003 15.069160620000002 1.5491265300000001 2.896368 0.475454 0.067692
19820 2.93958612 10.76276682 4.163589630000001 2.482057 1.65162 0.13486199999999998
19840 -0.47900268000000007 6.32389878 4.24726893 2.319378 1.918992 0.278661
19860 -4.260738060000001 7.29328374 2.8180402200000003 2.772533 0.274334 0.120496
19880 -1.4880592800000003 9.30136131 1.66648356 3.060549 -4.144992 -0.254253
19900 0.9607031100000001 9.41047794 -0.58767786 3.912905 -3.737641 -0.29795900000000003
19920 0.42197715 9.01859787 -3.41409582 2.926376 -1.109858 0.353012
19940 -0.31524435000000006 7.73621505 -1.9224558900000002 1.60385 0.18719 1.080253
19960 -0.49621923000000007 7.693551360000001 0.00673947 1.308953 -0.4325350000000001 1.269131
19980 0.01961019 8.42822226 0.77403843 1.373296 -0.955321 1.147405
20000 0.71311833 10.277475930000001 -0.01287072 1.128454 -0.6571229999999999 0.8472790000000001
20020 1.11173787 10.95706368 -0.93091014 0.6943729999999999 -0.528277 0.704144
20040 0.94333941 11.091186 -2.29188087 0.359366 -0.844248 0.624229
20060 1.8312915600000002 12.32941401 -1.2253474800000002 -0.097761 -1.164481 0.650288
20080 2.4373827900000005 12.11999994 0.8646043500000001 -0.695033 -1.217305 0.791462
20100 1.78189821 12.5311959 0.7279314299999999 -1.284848 -0.883115 0.846734
20120 -1.74836763 13.42618182 -2.9981125800000004 -2.086211 -0.33637100000000003 0.944054
20140 -0.45415395000000003 11.845918350000002 -1.90464093 -2.422637 0.046222000000000006 0.929463
20160 -0.05972328000000001 12.02898276 -0.34832367 -0.350686 0.44182 0.370862
20180 -1.12955283 10.870549290000001 1.31665896 1.886758 2.677876 -0.512613
20200 -2.9960230500000007 12.3029172 2.37780666 2.52701 -1.180931 0.357791
20220 -4.38363774 13.10434515 1.44045135 0.8468120000000001 -3.3097800000000004 0.323145
20240 -5.69550942 14.093046000000001 4.492312920000001 -0.030346 -2.903927 0.288724
20260 -5.02998921 13.141623150000001 3.0861279000000006 -0.5681470000000001 -1.722957 0.061264
20280 -4.76549199 12.554092440000002 0.7815234600000001 0.415424 0.324537 -0.000719
20300 -5.509590300000001 13.390100640000002 0.03128409 -0.473943 0.390925 0.6841229999999999
20320 -3.57666714 12.59300871 0.95381649 -0.5519689999999999 2.8479970000000003 0.083294
20340 -0.42646032 12.42656244 -1.7491131900000003 -1.692157 1.500738 -0.8704569999999999
20360 0.74005659 10.83222162 -3.1196584800000005 -0.6018680000000001 -3.3347550000000004 -0.698548
20380 -1.4156026200000003 8.53001082 -0.0287433 -1.421188 -1.614427 0.29979
20400 -1.5648421500000003 5.61871674 2.08322217 -3.672909 3.183678 1.425183
20420 -0.54352305 3.53505312 1.39524687 -3.218189 5.052821 0.8694209999999999
20440 -0.37751823000000007 2.62194813 -0.08741691000000001 -2.013791 3.541281 0.337114
20460 -0.6709058999999999 2.31658245 -0.48215169 -1.758475 0.929697 0.264263
20480 -1.1560496400000002 2.16913815 -0.65847663 -1.852997 -1.103723 0.032268
20500 -1.52817237 2.1165957900000003 -1.2530411099999998 -1.831597 -1.507766 0.089551
20520 -1.8076396500000003 1.37848158 -1.5203930399999999 -1.815944 0.177039 0.191119
20540 -2.8755170100000003 1.6151380200000003 -2.72777841 -2.11004 2.0788330000000004 0.110784
20560 -2.6403615 4.330948230000001 -4.451140350000001 -2.21857 2.227902 -0.043989
20580 -1.42203798 10.810521900000001 -6.80559921 -1.7805419999999998 1.233195 -0.222321
20600 -0.9695321100000001 24.63008472 -11.29835358 -1.539806 -0.193424 -0.376908
20620 -5.36319567 27.753039360000002 -13.15150182 -1.729077 -0.2653 -0.353569
20640 -4.452190020000001 8.482707000000001 -13.47437835 -2.031182 0.906504 -0.092261
20660 -2.5691114699999997 -0.25012557 -7.384448070000001 -1.408771 1.581415 0.019112
20680 -0.30850488000000004 9.03685428 -2.67358797 -0.257793 0.7127439999999999 -0.327453
20700 2.7134067600000003 15.816712050000001 3.2121667800000004 0.096709 1.011931 -0.32963400000000004
20720 1.2769971300000003 19.21614192 4.90545126 0.417425 0.836549 -0.172276
20740 0.33395202000000007 5.28460776 2.3571468 1.0462 0.223783 -0.392494
20760 -0.40940073 3.7077876000000005 5.10603633 1.9143330000000005 1.025353 -0.466506
20780 -4.01420295 5.65523937 -1.77066576 2.820204 1.7138369999999998 -0.26557600000000003
20800 -1.4473379700000002 16.631618940000003 -3.71617515 3.472189 1.278054 -0.010499
20820 1.2081407400000002 14.019549480000002 0.75712599 3.383386 1.200684 -0.032385000000000004
20840 1.51664562 9.60971904 2.58467994 3.003802 2.15243 -0.083258
20860 1.6816007700000002 9.61405506 1.8516473100000002 2.810755 2.923114 -0.038592
20880 -0.71027343 8.955578430000001 0.7171600499999999 2.835121 -0.29267 -0.130441
20900 -3.4007738400000003 8.48091177 0.22976981999999999 3.106143 -5.088199 -0.184359
20920 -3.0740027400000005 7.528596210000001 0.93255822 3.894151 -2.889869 -0.501071
20940 -1.2650191200000003 7.421117850000001 0.06151851 2.615875 -0.016633000000000002 0.026839
20960 0.45894123000000003 7.099134030000001 -0.93031173 1.660855 0.575403 0.6517970000000001
20980 0.88630407 6.634650150000001 -0.14789556 1.532545 -0.260039 0.8292959999999999
21000 0.71761131 7.5049443 0.5427676800000001 1.503189 -0.586156 0.62441
21020 -0.043114950000000006 7.945923420000001 0.4263131700000001 1.048681 -0.422474 0.31231
21040 0.14220576000000001 8.781784470000002 -0.3010198500000001 0.627426 -0.08781699999999999 0.370895
21060 1.19422035 10.439743140000001 -1.02057354 0.317789 -0.253424 0.494995
21080 1.42129242 11.710147950000001 -2.78391123 -0.207035 -0.5229239999999999 0.6796810000000001
21100 -0.35925201 11.89067157 -2.0718425700000003 -0.5884119999999999 -1.031108 0.755649
21120 0.34877493 12.55439655 -1.8503033400000002 -1.177548 -1.102352 0.967406
21140 1.5477825600000001 13.39160157 0.32093415000000003 -1.910341 -0.7496430000000001 1.044088
21160 -0.42391953000000004 13.790966670000001 0.09310671 -2.5476400000000003 -0.206972 0.952415
21180 -2.21763879 13.39489773 -1.07237034 -1.218838 -0.004549 0.32905
21200 -1.15649109 14.15142531 -0.06002739000000001 1.300023 3.640686 -0.752954
21220 -0.81206199 12.58762302 2.1371085 2.489771 0.6031340000000001 0.457794
21240 -3.17729223 13.26451302 2.1225897000000002 1.228418 -2.880642 0.832666
21260 -5.26949055 12.79509471 2.168991 -0.118758 -2.993573 0.405726
21280 -5.82648273 13.93077879 3.8218484700000004 -0.759347 -2.350283 0.196397
21300 -4.84047963 13.76312589 2.8611453600000005 -0.483519 -0.213899 -0.168678
21320 -3.00350808 14.246170290000002 0.48110202 0.338428 0.666287 0.382865
21340 -2.01690657 14.53701717 0.00164808 -0.006179 1.146838 0.38732
21360 -0.5382845100000001 14.53342671 -0.00509139 -1.448826 2.081176 -0.7808390000000001
21380 -0.43753581 10.78821396 -3.2512400100000005 -0.770986 -2.032618 -1.176757
21400 -2.01675942 8.32253913 -0.6800390100000001 -0.946274 -1.906768 -0.263744
21420 -1.3534857000000002 5.972426100000001 1.85704281 -4.189628 3.593542 1.6731490000000002
21440 -0.35446473 3.85702713 1.7208211500000001 -4.244162 4.794976 1.23753
21460 0.39637305000000006 2.34712098 -0.33919056000000003 -2.78677 3.134145 0.524516
21480 -0.11256975000000001 2.58377742 -0.69096735 -2.308555 1.499415 0.259691
21500 -0.84813336 2.5376704200000004 -0.6825798 -2.372057 0.046109 0.115832
21520 -1.09631655 2.21105628 -1.47173544 -2.068192 -1.045398 0.01894
21540 -0.37676286000000003 1.6293625200000001 -1.66423707 -1.7743209999999998 -0.604834 -0.120577
21560 -0.92267955 1.57682016 -2.6337691800000003 -1.877966 0.736901 -0.168954
21580 -1.5432895800000002 0.64964763 -3.9472889400000004 -1.876975 1.828058 -0.248326
21600 -1.13164236 3.27219417 -5.025800340000001 -1.3124870000000002 1.551499 -0.308122
21620 -0.90411903 11.274250410000002 -6.6362982299999995 -1.246331 0.570285 -0.34165300000000004
21640 -1.04707035 28.06124994 -10.01537235 -1.3029700000000002 -0.327836 -0.269327
21660 -5.980813650000001 24.832759320000005 -16.35050358 -1.559192 0.045207 -0.096407
21680 -5.128187310000001 6.17391369 -13.57032996 -1.531615 1.447067 0.156226
21700 -2.74319973 -1.85764122 -4.36776516 -0.781469 0.929034 -0.149791
21720 -3.4531690500000005 8.68658823 -1.77201954 -0.110789 0.557234 -0.193768
21740 0.75547791 18.33537069 5.709724110000001 0.304054 1.145227 -0.277081
21760 0.9981282600000001 21.28079376 5.3332555500000005 0.739757 0.386961 -0.17479
21780 0.26389881000000004 7.06560345 0.39981636000000004 1.592504 0.137165 -0.250766
21800 -0.27572967000000004 2.1734839800000003 5.26530168 2.598885 1.179656 -0.220504
21820 -5.19300198 5.6476071899999996 -2.99437497 3.652422 1.53603 -0.211465
21840 -1.07536239 17.48035071 -5.920639110000001 3.406068 1.098997 -0.196602
21860 4.23993105 14.041396350000001 0.5060979 3.112867 1.551957 -0.263324
21880 2.4548936400000003 9.19357884 2.8538172900000003 2.742482 1.520305 -0.019111000000000003
21900 1.9740957300000002 8.86276602 0.32677110000000004 2.413695 -1.033368 0.317286
21920 0.71940654 9.41243013 1.05306426 3.890268 -3.845883 -0.116381
21940 -0.8408052900000001 7.20675954 2.07947475 4.5924559999999985 -4.363813 -0.672697
21960 -2.1146534100000003 7.5734965800000005 0.9993250800000001 3.945963 -1.661305 -0.354868
21980 -0.6999435 8.18767125 -0.30835773000000005 2.002959 0.315002 0.473991
22000 1.19870352 7.751028150000001 -1.3721933700000002 1.3453 -0.168733 0.802234
22020 1.3790799900000001 7.053036840000001 0.44726733 1.36034 -1.127513 0.531171
22040 0.6905160899999999 7.015464540000001 0.86699799 1.368707 -1.033481 0.186073
22060 -0.31120263000000004 7.874379090000001 0.5450141700000001 0.985705 -0.483929 0.018188
22080 0.3671883 9.39865689 -0.32916474 0.60582 -0.333073 0.18412
22100 1.55811249 10.104741450000002 -2.3156799300000004 0.174571 -0.443074 0.36071
22120 1.32773445 11.240121420000001 -2.42615034 -0.49247 -0.5193720000000001 0.571929
22140 0.00748503 11.430827820000001 -1.45152684 -1.252035 -0.441241 0.872035
22160 -0.03173535 13.1443209 -2.2369448700000003 -2.125963 -0.138073 1.205236
22180 1.46290644 12.726385470000002 0.6159699000000001 -2.746903 0.071921 1.177129
22200 0.25641378000000004 14.3648811 2.01735783 -1.407301 -0.467951 0.4939020000000001
22220 -2.2071617100000003 14.725781190000001 -0.81670212 1.615022 2.264363 -0.762877
22240 -1.62217179 15.278427540000001 -0.89708526 2.55548 0.92272 0.400159
22260 -0.38200140000000005 14.050529460000002 1.1335945500000002 1.326064 -2.557937 1.032692
22280 -1.72471572 12.370272660000003 0.47825712 -0.13939 -3.303527 0.413457
22300 -3.3115617 11.76852726 3.120561 -0.747258 -2.84305 0.338118
22320 -3.09841002 14.552438490000002 4.224068280000001 -1.056718 -0.532255 0.287062
22340 -3.7242585900000003 14.988179070000001 3.1165192800000003 -0.8785069999999999 1.581496 -0.460021
22360 -2.75891535 14.848975170000001 1.82889792 0.380007 -0.354351 -0.159261
22380 -2.5824334500000004 14.61186747 3.23297379 -0.8425819999999999 2.020206 -0.17939000000000002
22400 -1.44389466 13.73648193 0.18905832000000003 -2.644196 0.370478 0.220337
22420 -0.42705873000000005 10.545867720000002 -4.76908245 -2.059118 -3.136376 -0.294511
22440 -0.44846415 7.48533411 -3.09032658 -2.307078 0.235931 0.807182
22460 -0.16810416000000003 5.77708938 0.93331359 -3.926442 4.533112 1.978227
22480 0.30192237 2.9840450400000003 1.97648937 -3.942158 4.482277 1.385319
22500 0.7845155100000001 1.35872424 0.79484544 -2.9525740000000003 2.7727470000000003 0.735329
22520 -0.3101529600000001 1.4714411400000003 -0.05792805 -1.880862 0.495601 0.236191
22540 -1.28762136 2.0646518400000002 -0.22527684 -1.174185 -1.110082 -0.031348
22560 -1.14706368 1.18403757 -0.66267531 -0.94278 -0.492746 -0.101026
22580 -1.50227397 1.1972124 -1.54149435 -1.56039 1.42905 -0.107802
22600 -2.30835186 0.8478390600000001 -2.75875839 -1.968766 2.146534 -0.158576
22620 -3.30811839 0.5978606400000002 -4.75336683 -1.888185 1.370539 -0.110017
22640 -2.4128283600000002 5.3554163400000006 -5.2775739900000005 -1.779611 0.029377 -0.209021
22660 -0.36913068000000004 16.52414058 -9.3471642 -1.543359 -0.4174890000000001 -0.28477800000000003
22680 -2.32631397 35.500329900000004 -13.10599323 -1.824549 0.723097 0.03974
22700 -7.888142520000001 18.39465252 -17.632582290000002 -1.34579 1.957774 0.151529
22720 -3.59582607 0.54845748 -12.001446089999998 -0.629901 1.245701 -0.08504500000000001
22740 -2.37586428 -2.23619931 -2.6499360600000004 -0.033424 0.991188 -0.357222
22760 -1.67576382 7.462427760000001 2.53872009 0.210861 0.728352 -0.374406
22780 -1.98067824 13.4192952 5.31244854 0.310298 0.408103 -0.028266000000000006
22800 0.06287229000000001 23.832541530000004 3.0876288300000003 1.00833 1.093138 -0.116135
22820 0.8213422499999999 16.453037700000003 -2.60099397 1.940566 0.970868 -0.184242
22840 3.6748554300000005 3.76706943 6.0475707 3.107181 1.303497 -0.195747
22860 -2.65757805 2.21868846 0.54517113 3.551639 1.077803 -0.084463
22880 -2.45264715 12.62189916 -5.50659825 3.228463 1.099275 0.153602
22900 0.58109535 14.568458220000002 2.69933922 2.758357 2.3102560000000003 0.087878
22920 3.2786295300000003 12.01102065 1.2614286599999998 2.487603 2.921266 0.17066099999999998
22940 1.4111194500000002 10.049805450000001 1.02132891 1.548871 -1.423293 0.542481
22960 -0.28336185 8.25772446 0.98854389 2.553933 -4.886313 0.15656
22980 -1.6064561700000002 7.91463933 2.52958698 3.76331 -4.02358 -0.057220000000000014
23000 -1.62097497 7.05138876 1.1599344 3.801383 -1.329091 0.340177
23020 0.51657498 5.9679429299999995 -0.5772007800000001 2.994281 -0.704283 0.367922
23040 1.64852145 5.98545378 -0.5911211700000002 2.3893310000000003 -0.464757 0.133721
23060 1.5488322300000001 5.74116516 0.7619132700000001 1.923668 -0.5188659999999999 -0.049992
23080 0.5730119100000002 5.773793220000001 1.3931573400000001 1.305346 -0.519371 0.079218
23100 -0.13217994000000002 7.731417960000001 1.91990529 0.860297 -0.572076 0.05908500000000001
23120 -0.26150517 9.37216008 0.15642045 0.555601 -0.8515780000000001 0.15666
23140 -0.00045126000000000004 11.261830950000002 -3.06547785 0.174996 -1.064117 0.357236
23160 -0.78841008 13.543538850000001 -2.3297572800000004 -0.491153 -0.930605 0.579943
23180 -0.04101561 15.132935430000002 -3.01263138 -1.139189 -0.773836 0.8315889999999999
23200 2.9978182800000006 14.75182674 -0.054936000000000006 -1.820552 -0.341535 0.939507
23220 3.48460029 14.671885050000002 -0.19878984000000002 -2.4306520000000003 0.299124 0.82867
23240 0.42781410000000003 14.67682929 -0.8990276400000001 -1.049158 1.08719 0.224151
23260 -2.3831923500000003 14.517858240000002 -0.41613039 1.105601 3.16815 -0.696022
23280 -2.336791050000001 13.7201679 0.77972823 2.08374 -1.406903 0.242821
23300 -1.43760645 10.72549863 3.5693292600000004 1.182332 -2.817227 0.465863
23320 -3.2989852800000006 11.52108963 2.7500765400000002 -0.008333 -2.41768 0.149386
23340 -3.78967167 11.978088480000002 2.9570969700000003 -0.8241139999999999 -1.78236 0.219786
23360 -4.27974984 14.37206202 4.496796090000001 0.188954 0.28273400000000004 0.259467
23380 -4.86773181 14.538518100000001 3.1750457400000003 -0.214873 0.29097 0.14874600000000002
23400 -2.9370453300000006 15.03997587 -0.7352693100000001 -0.827936 2.267001 -0.104828
23420 -0.99213435 15.24654504 0.57330621 -2.107903 0.448611 -0.33576500000000004
23440 0.43484787 13.34804517 2.49021945 -1.415284 -3.476517 -0.5064270000000001
23460 1.72800207 10.258022700000001 1.7548029900000002 -2.393904 -0.399564 0.497605
23480 1.8088364700000001 7.79923449 0.63438327 -3.580738 3.523035 1.195724
23500 0.8134059600000001 5.544916110000001 1.3492968300000001 -3.2033150000000004 3.184206 1.152861
23520 -0.9572598 2.9244689100000003 1.4784749099999999 -2.815419 1.674254 0.931043
23540 -1.45048698 1.5819115499999998 0.12678444 -1.988195 0.4285560000000001 0.312439
23560 -0.7951495500000001 2.42360955 -0.42990363000000004 -1.43118 -0.16203800000000002 -0.062132000000000014
23580 -0.4263131700000001 3.67291305 -0.6761444400000001 -1.466344 0.6472319999999999 -0.212966
23600 -0.40146444000000003 3.7205111700000004 -1.35258318 -1.7873400000000002 1.793809 -0.286112
23620 -1.4826637800000002 2.3842420200000003 -2.25760473 -2.068912 2.024993 -0.312944
23640 -2.95350651 2.2667378400000002 -2.2119489900000002 -1.551003 0.392661 -0.147001
23660 -2.87866602 1.9842785100000002 -3.1701113100000002 -1.644759 -0.526461 -0.384692
23680 -1.74297213 4.45323969 -4.878208890000001 -1.641887 0.163622 -0.33321300000000004
23700 -2.07662985 12.18465765 -7.756865100000001 -1.482487 1.191241 -0.112295
23720 -2.53962261 25.45980471 -12.65932431 -1.057241 2.182032 0.030411
23740 -7.83410904 24.3863847 -17.046248400000003 -0.410247 1.0644559999999998 -0.23817
23760 -4.40504316 6.772519890000001 -11.183988600000001 -0.131414 0.259909 -0.413585
23780 -1.7850374100000002 0.6041390400000001 -5.6872690200000005 -0.095131 -0.258822 -0.459668
23800 0.11780829000000001 7.16739201 0.01601973 0.148229 -0.251082 -0.47507
23820 0.94498749 14.390024130000002 2.7271800000000006 0.308121 0.336767 -0.567642
23840 1.03614201 21.545742240000003 1.8794880900000002 0.938871 0.534022 -0.892501
23860 3.34868274 8.993003580000002 4.109850450000001 1.722677 0.418624 -0.686052
23880 1.51035741 2.2686802200000002 5.088819780000001 2.925506 -0.026315 -0.7497199999999999
23900 -3.50705538 6.989860439999999 -2.16389961 3.225014 0.14968499999999998 -0.268221
23920 0.10747836000000001 14.607972900000002 -2.57344749 2.648715 0.420069 0.279677
23940 3.9053806200000003 12.68567397 1.69671798 2.4221060000000003 0.8299120000000001 0.54783
23960 2.24473401 10.04096664 0.5577377400000001 2.17604 2.355228 0.800529
23980 -0.18681183 9.12801861 0.35730963 1.842399 -0.707064 0.995471
24000 -3.5295104700000004 7.27217262 1.2939095699999998 1.530119 -6.362362999999998 1.203499
24020 -4.02393447 5.934412350000001 1.1829879 2.771954 -6.481394 0.856608
24040 -1.04003658 6.0128433 -0.8855585100000001 3.480801 -3.723938 0.910369
24060 1.79462178 7.37636463 -0.12393954 3.4428620000000003 -2.580061 1.000505
24080 2.45459934 8.621616600000001 2.3981624100000003 3.068018 -1.939955 0.29204
24100 0.76490532 7.79189661 2.13216426 2.261663 -0.899848 0.092795
24120 0.1588239 8.03873583 -1.1150340300000001 1.105983 -0.827926 0.690312
24140 -0.42317397000000007 9.739348380000001 0.07484049000000001 0.808538 -1.694055 0.962809
24160 0.51148359 12.386145240000001 -2.87072973 0.810668 -2.401538 0.7297899999999999
24180 3.10020525 12.724884540000001 -3.32279415 0.444101 -2.072129 0.7214659999999999
24200 1.5632038799999999 13.13069481 -2.1595635900000003 -0.115281 -1.650543 0.739451
24220 0.07364366999999998 13.970303280000001 -1.67186925 -0.718699 -0.716929 0.621877
24240 1.64822715 12.92053518 0.85920885 -1.2782 0.785169 0.5594279999999999
24260 1.49359212 12.53448225 0.41104881000000004 -1.938581 1.484235 0.537896
24280 -0.87582699 13.405521960000002 0.01092834 -1.727585 1.6741529999999998 0.546604
24300 -1.8336852000000001 13.38710859 -0.6837766200000001 -0.35683200000000004 0.982855 0.141526
24320 -0.8795744100000001 14.0036769 -0.04086846000000001 0.997134 -1.263862 -0.220015
24340 0.25267617 10.948381829999999 0.15373251000000002 1.670354 -1.941612 0.05368
24360 -0.40505490000000005 9.82272357 0.85951296 1.295277 -2.754197 0.323429
24380 -0.7315317000000001 9.68530509 2.3572939500000003 0.424396 -2.208425 0.4576520000000001
24400 0.50564664 11.83558842 3.8311287300000005 -1.3227 -0.116879 0.53784
24420 -0.6798820499999999 13.870152990000001 4.52254734 0.679466 1.250341 0.8149930000000001
24440 -3.1711511700000004 14.794480620000002 3.2449518000000004 -0.582259 0.6805640000000001 1.338884
24460 -3.4816082400000004 14.921569170000001 -2.05447887 -1.28213 1.0642 0.048433
24480 -0.55983708 14.617704419999999 -0.10552617 -1.89187 -1.647672 -1.365609
24500 0.7005419100000001 12.262195890000001 2.1106116900000003 -0.432572 -4.58657 -1.880419
24520 1.7028590399999999 8.931475260000001 1.82291382 -2.685519 1.74327 0.343271
24540 2.5408194300000004 7.32427353 1.1030560200000001 -4.502309 4.68132 1.113027
24560 2.1612018600000003 5.250478770000001 0.5322906000000001 -3.5194050000000003 3.644023 0.7238439999999999
24580 -0.13247424000000002 4.060908360000001 -0.98270694 -2.037888 1.418829 0.7295659999999999
24600 -2.7015857100000003 3.4531690500000005 -1.35498663 -1.887975 0.226666 0.363604
24620 -0.8614553400000001 4.03231221 0.30311919 -1.817604 -0.655093 -0.035357
24640 0.5252568299999999 4.56985116 0.51432849 -1.6651080000000005 -0.424495 -0.026042000000000003
24660 -0.8006823900000002 4.692888180000001 -0.5926221000000002 -1.667947 0.355348 -0.038812
24680 -2.28230631 4.47029928 -0.50549949 -1.888008 1.371758 -0.148473
24700 -3.62725731 4.0917411900000005 -0.7207505100000001 -1.745624 1.631536 -0.234338
24720 -5.475010050000001 4.925807010000001 -1.5473313000000002 -1.561312 0.7174659999999999 -0.378225
24740 -4.22586351 6.9322365 -3.4233858900000005 -1.554119 -0.461034 -0.308299
24760 -3.27503907 9.91088604 -6.5852568 -1.486634 -1.461008 -0.180496
24780 -0.7693983000000001 18.51409908 -12.50694558 -1.622357 0.242577 0.150727
24800 0.40789980000000003 22.49342748 -16.325949150000003 -1.023191 2.428939 0.060243
24820 0.26869590000000004 12.00264291 -11.02666563 -0.409303 1.296594 -0.21602800000000005
24840 1.2777426900000002 6.03694647 -10.601706240000002 0.07535399999999999 -0.144068 -0.5334
24860 -0.2083644 6.883883010000001 -4.346811 -0.020846 -0.442879 -0.31684
24880 1.47203955 15.28381323 4.03575552 0.251275 0.608313 -0.227624
24900 2.24368434 19.830758040000003 4.32420876 1.075367 0.527342 -0.406566
24920 2.15521776 5.9288697 3.6330942600000005 2.024316 0.705911 -0.330732
24940 -0.41688576 0.9999234900000001 5.567224050000001 3.048725 0.424763 -0.174733
24960 -6.76891962 3.09092499 0.48962690999999997 3.365025 0.364913 0.131996
24980 -3.72275766 12.763653660000001 -4.619097360000001 2.790331 0.880755 0.5674279999999999
25000 1.42488288 14.840440470000003 2.70038889 2.373631 1.82339 0.695769
25020 3.1246027200000004 12.24393948 1.49778099 2.72907 2.707914 0.833851
25040 1.8845794800000002 10.429266060000002 0.19339434 2.433697 -0.721743 0.690904
25060 0.5496543 9.57813084 0.25402014 1.989568 -7.030608 0.618974
25080 -0.10657584 7.69639626 1.73818485 3.584813 -6.613022999999999 0.036719
25100 -0.6905160899999999 6.8831374499999995 1.6416348300000003 4.722569999999998 -1.819721 0.225463
25120 -0.04730382 8.36101395 0.71581608 4.330188 0.700642 0.318837
25140 1.04991525 8.08917885 -1.25184429 2.800089 -0.009212 -0.123571
25160 0.90426618 6.993755010000001 -0.7940998800000001 1.406986 -0.376234 0.159861
25180 0.70787979 5.83112286 0.6342263100000001 1.030125 -0.4430520000000001 0.14663199999999998
25200 0.28905165000000005 7.34926941 1.7289045900000002 0.8163779999999999 -0.334416 0.33728
25220 -0.6441147900000002 10.09650105 2.6709000300000003 0.759496 -0.416326 0.091296
25240 -0.5897772000000001 11.331884160000001 -0.81670212 0.331387 -0.529683 0.039313
25260 0.7289811 12.178820700000001 -5.47246926 -0.371576 -0.583263 0.194705
25280 1.21726404 12.68701794 -1.4359681800000001 -1.082375 -0.427173 0.404252
25300 0.5643300600000001 13.459859550000001 -0.51298452 -1.734243 -0.08114199999999999 0.748564
25320 1.27444653 13.0145346 0.36479466 -2.210773 0.292084 0.800305
25340 0.7370645400000001 13.06468332 0.81416133 -0.8316399999999999 0.459596 0.338638
25360 -1.6128915300000002 13.90757814 0.06675705 1.060925 1.1918030000000002 -0.326334
25380 -2.53692486 12.50439498 -2.3613356700000003 1.628328 -0.914161 0.225122
25400 -0.51418134 11.08145448 1.0806009300000001 1.014534 -2.413836 0.6981149999999999
25420 -0.07380063 10.74375504 1.96331454 0.136036 -2.326523 0.404515
25440 -0.64321227 12.64375584 2.34637542 -0.241336 -1.983514 0.201682
25460 -0.54352305 13.06183842 4.54754322 0.614459 -1.286307 0.395841
25480 -2.6845163100000007 14.32625913 6.226897500000001 -0.559079 0.719154 0.726905
25500 -5.612281380000001 14.03196894 4.748726700000001 -0.567859 1.117685 0.704969
25520 -6.480623340000001 15.638277960000002 1.4465924099999998 -1.500777 0.705228 -0.566862
25540 -3.4646958000000003 17.51283162 -2.00103399 -1.419377 -1.399992 -0.8445379999999999
25560 -0.94498749 15.1775415 1.48401756 -1.30999 -2.199211 -0.341754
25580 1.21218246 10.17673704 2.8681889400000005 -3.18997 1.7041369999999998 0.97539
25600 3.29823972 7.103175750000001 3.2446575 -3.322146 2.642192 0.936945
25620 2.47315986 5.1582745800000005 0.6822855 -2.518812 1.726284 0.982186
25640 -1.7771011200000002 1.2310372800000002 -2.53991691 -2.708169 1.340493 1.186456
25660 -0.95890788 2.71311246 -0.9172938600000001 -2.9341310000000003 1.3710719999999998 0.928466
25680 -0.47226321000000004 4.17302685 -0.73885977 -2.408649 0.400219 0.304197
25700 -0.12304683000000001 3.20079699 0.45999090000000004 -1.663582 0.66088 0.007829000000000001
25720 -0.90950472 2.42870094 -0.5126804100000001 -1.684604 1.648594 -0.024562
25740 -2.1814104600000004 2.29847319 -1.6829545500000003 -2.086162 2.371731 -0.162889
25760 -2.97146862 2.48857137 -2.5634216700000003 -2.235945 2.1182990000000004 -0.324912
25780 -3.0671259300000004 3.0093450300000004 -3.7426719600000005 -1.663055 0.559493 -0.212091
25800 -2.21838435 4.52853144 -5.970483720000001 -1.349662 -0.802561 -0.32566100000000003
25820 -1.6122931200000001 10.08677934 -9.95295132 -1.373051 -1.054707 -0.120403
25840 0.04355640000000001 22.56557022 -14.51935917 -1.774693 2.09506 0.290431
25860 -3.30318396 22.145398110000002 -13.907283840000002 -1.21789 2.97948 0.014381
25880 -1.8405718200000003 9.87780672 -13.771807740000002 -0.134464 0.532623 -0.411819
25900 -0.54591669 2.9024650800000003 -9.14867847 0.129188 -0.236016 -0.496587
25920 -1.9489428900000003 4.71534327 -1.35618345 0.229098 0.872674 -0.251618
25940 -0.73452375 10.541826 1.80225396 0.309894 1.365395 0.069849
25960 0.30462012 20.712431790000004 0.96219423 0.967684 0.944646 -0.242279
25980 0.01317483 12.96498429 2.40999327 1.712812 0.512853 -0.5324180000000001
26000 3.34853559 5.44238199 6.5768692500000006 2.989577 0.76894 -0.67872
26020 -2.65727394 4.783002840000001 1.34719749 3.427031 1.5217120000000002 -0.164951
26040 -2.23859295 10.32403419 -3.4355012400000002 3.1267560000000003 1.97124 0.631406
26060 1.6401437100000003 14.7642462 -0.22108797000000002 2.375526 2.2026830000000004 0.414354
26080 1.7474651099999998 11.073371040000001 0.98285409 2.1556990000000003 0.7336159999999999 0.617663
26100 0.61327215 8.99479881 -0.25806186000000003 2.50317 -2.924705 0.357722
26120 0.19968255000000001 8.561442060000001 -1.65885138 3.192784 -4.982201 -0.127274
26140 -0.46118772 7.857309690000001 -0.25387299 4.213558 -3.240637 -0.704557
26160 -1.14780924 5.214260250000001 -0.46986957000000007 4.253483 -1.432126 -0.657457
26180 -1.2452617800000003 5.401670490000001 0.063765 2.711821 -0.984231 0.025545
26200 0.7568218800000002 6.77536479 0.04595004000000001 1.609542 -0.533884 0.513991
26220 1.8465559200000001 7.33475061 0.04415481 1.2735610000000002 -0.372426 0.654579
26240 2.14399512 8.86921119 0.98285409 1.15562 -0.77561 0.6179520000000001
26260 1.44104976 9.90939492 1.27744839 1.241155 -0.714422 0.161273
26280 0.027095220000000003 10.650648330000001 0.78302439 0.979058 -0.30185 -0.221374
26300 -0.32242527000000004 11.250304200000002 0.21854718 0.405815 0.029714 -0.057024
26320 1.13134806 11.76343587 -4.02393447 -0.19116 -0.35578200000000004 0.160422
26340 0.37032750000000003 12.34842579 -0.7614620100000001 -0.816242 -0.431915 0.293954
26360 -1.2614286599999998 12.400516890000002 0.38814245999999997 -1.537348 0.022567 0.483819
26380 -1.6540640999999998 13.187426040000002 -1.33073631 -2.294531 0.663026 0.816336
26400 1.51290801 11.56300776 1.46230803 -2.559887 1.209352 0.820192
26420 1.16861625 12.239299350000001 0.80532252 -1.184577 0.684765 0.279268
26440 -1.3443525900000002 12.854817990000003 -1.14302196 1.475872 1.291093 -0.208194
26460 -2.14938081 12.082270680000002 -0.7023371400000001 2.49 -0.21309 0.779308
26480 -1.38447549 11.791727910000002 -0.55040967 1.341843 -2.555118 0.846928
26500 0.43050204000000003 11.327548140000001 1.29031911 -0.207847 -2.800749 0.480701
26520 1.0484241300000001 13.84950294 3.24509895 -0.6730010000000001 -1.7226419999999998 0.605325
26540 1.7130418200000002 14.25635307 4.74887385 -0.80614 0.000216 0.37786
26560 -2.6158070700000002 16.73400591 5.1452469 0.28161 1.530741 0.835355
26580 -5.432052060000001 15.57630819 1.4855086800000001 -0.861607 0.415271 0.7924800000000001
26600 -3.0084425100000005 14.88818574 -1.2620270700000003 -1.1029719999999998 0.975117 -0.738549
26620 -0.6095345400000001 14.71934583 2.6343675900000005 -1.115018 -3.222935 -1.310094
26640 0.34922619 11.965070610000001 3.46978719 -0.8551030000000001 -3.189078 -0.945126
26660 0.06122421 9.56645694 0.08712261 -3.044641 1.138542 0.8329200000000001
26680 -1.1455725600000002 8.5430385 -3.2386635900000003 -3.702474 3.985630000000001 0.968887
26700 -1.06503246 7.2672381900000005 -1.3882131 -2.279641 3.0350900000000003 0.347656
26720 -1.10994264 5.907611429999999 0.6271925400000001 -1.763899 -0.040746 0.263333
26740 -0.60489441 4.7644423200000015 1.09257894 -2.173945 -0.5592090000000001 0.536734
26760 0.31419467999999995 1.18389042 1.9685530800000002 -2.639617 -0.945203 0.498725
26780 0.18367263 0.1562733 0.24638796000000002 -2.007719 -0.776526 0.126908
26800 -1.8034507800000001 1.83383235 -1.0374957900000001 -1.622791 0.116884 -0.117239
26820 -1.4518309500000002 2.17991934 -0.89214102 -1.901781 1.4461620000000002 -0.095254
26840 -1.5051188700000002 1.8425141999999999 -1.03225725 -2.329134 3.008147 -0.063921
26860 -2.05672536 2.7167029200000004 -2.5542885600000003 -2.409235 2.929836 -0.124201
26880 -2.82657492 3.4450856100000005 -4.42569321 -1.740868 0.259561 -0.529512
26900 -2.9570969700000003 5.88725568 -5.855373180000001 -1.1429049999999998 -2.085793 -0.610992
26920 -1.08614358 15.434249580000001 -9.94995927 -1.311649 -1.413857 -0.135537
26940 0.79783749 32.91939738000001 -12.960952380000002 -0.715098 2.488134 0.174483
26960 -2.8806084000000003 19.3942719 -13.63978476 -0.254695 1.809284 -0.156853
26980 -0.11645451 5.89040469 -15.929723250000002 0.287976 -0.003415 -0.460524
27000 -0.44202879000000006 2.4358818600000003 -7.43309586 0.603485 -0.437441 -0.353078
27020 -1.1563439400000002 7.488630270000001 -0.49023513 1.056562 0.513127 -0.032802
27040 1.9148139000000002 13.92209694 4.2540084 1.91893 0.804208 -0.046379
27060 0.69515622 18.210234330000002 7.34462928 2.929143 0.6785680000000001 -0.138506
27080 -0.68587596 6.39365769 2.98793961 3.40061 0.04046 -0.278605
27100 -2.15686584 3.10529664 1.46530008 3.453608 -0.15525799999999998 -0.397625
27120 -3.6092952000000005 5.359301100000001 -1.94909985 2.838291 1.009551 -0.246387
27140 -0.6447132 14.96528253 -1.90523934 2.933517 1.976771 -0.050409
27160 0.7500922200000001 13.956225930000002 -0.8345170799999999 3.325654 0.4382430000000001 -0.056379999999999986
27180 1.3542312600000002 7.5577809600000005 3.17879316 2.544291 -4.141926 -0.041014
27200 1.43805771 7.387734419999999 0.81056106 3.347808 -3.337705 -0.455175
27220 0.93630564 9.087454260000001 -3.19555845 3.438236 -0.938396 -0.6103729999999999
27240 -0.13486788 8.45307099 -0.62809506 2.254928 -0.397534 -0.04356
27260 -1.14976143 5.81316075 -0.7725473100000001 1.577051 -0.37421 0.305256
27280 -2.1296234700000003 6.26372424 -1.49823225 1.4003 -0.409247 0.429049
27300 -0.39502908 6.519990870000001 -2.18889549 1.324497 -0.221343 0.390891
27320 1.53715833 7.941136139999999 -2.42615034 1.072907 -0.13764500000000002 0.191405
27340 2.8041198300000003 9.14208615 -0.01721655 0.717771 -0.086422 0.210223
27360 1.7145329400000002 9.42276006 2.6779338 0.207238 -0.193262 0.464235
27380 -0.44607051 10.1717928 2.16913815 -0.34075500000000003 -0.377531 0.6668109999999999
27400 -2.29952286 11.13938253 1.17610128 -1.033313 -0.413346 0.899164
27420 -0.95651424 13.12590753 -3.1996001700000005 -1.774816 -0.181607 1.131901
27440 0.9713273400000001 14.02089345 -2.7385596000000003 -2.496234 0.184534 1.30265
27460 0.69724575 12.570406470000002 0.66896352 -2.373444 0.438617 1.059627
27480 0.6366297600000002 11.351043090000001 0.6271925400000001 0.41245 1.089407 0.001485
27500 1.54568322 12.613070160000001 0.9279180900000001 1.939077 2.984362 -0.213538
27520 1.33148187 15.046862490000002 0.3844048500000001 2.367641 -1.184764 0.920704
27540 0.74679606 15.260014170000002 0.77239035 0.76197 -3.752204 0.480148
27560 -0.91894194 14.524744860000002 2.54350737 0.072337 -3.394016 0.215294
27580 -3.93427107 11.761346340000001 2.0710970100000003 -1.029162 -0.602758 -0.220061
27600 -5.340740580000001 10.218046950000002 0.68961357 0.7547649999999999 0.410533 0.310257
27620 -3.3952410000000004 11.72646198 3.5331009300000003 -0.244851 0.903179 0.787617
27640 -2.23784739 15.69471489 4.261483620000002 -0.84652 2.052452 0.018162
27660 -3.0377842200000003 16.415318250000002 1.11891879 -1.437409 -0.554433 -0.495371
27680 -3.22713684 14.6742885 -1.4822223300000001 -0.326223 -2.1019650000000003 -0.737727
27700 -3.26171709 12.90480975 1.18224234 -2.675835 0.8673559999999999 0.398941
27720 -0.99602892 11.229350040000002 0.57256065 -3.880613 3.609729 0.8217770000000001
27740 0.2817137700000001 9.238037760000001 -1.78623423 -2.295636 2.252459 0.27484000000000003
27760 -0.33590421000000004 7.652839860000001 -1.10035827 -1.459791 -0.198791 0.095812
27780 -0.6536893500000001 5.67679194 0.98839674 -2.183902 -0.083319 0.61724
27800 -0.8746301700000001 3.96899847 1.6872905700000003 -3.106762 -0.249657 0.922927
27820 -0.7095278700000001 2.46552768 0.77539221 -2.846419 -0.604916 0.562006
27840 -0.40280841 1.89326133 0.42272271 -2.024049 0.058875 0.085131
27860 -1.5256315800000002 2.0062823400000003 -0.33425613 -2.060573 1.323902 -0.019294
27880 -1.6256151 2.25416142 -0.5427676800000001 -2.843918 2.894861 -0.058826
27900 -1.69417719 1.94714766 -1.3214560499999999 -2.790671 2.584777 -0.348613
27920 -1.76363199 1.9808352 -2.75652171 -1.731926 0.351139 -0.5284989999999999
27940 -1.8685597500000002 2.04728814 -4.51311012 -0.996231 -1.222516 -0.5726180000000001
27960 -1.5443392500000002 3.72605382 -6.68853648 -1.229678 -2.0453810000000003 -0.252728
27980 -1.48161411 10.930272570000001 -9.72213183 -1.1644 2.631742 0.348485
28000 0.30192237 29.258158230000003 -12.54062331 -0.564796 3.265837 0.031394
28020 -6.318964350000001 27.317141820000003 -14.016547619999999 0.033686 0.195436 -0.41769
28040 -4.35728808 6.89555691 -14.633567190000003 0.258081 -0.963103 -0.465913
28060 -2.2013247600000003 1.93712184 -7.349867820000001 0.188748 0.246259 -0.208369
28080 -1.3742927100000002 10.321787700000002 -1.52607303 0.964236 1.064222 -0.305481
28100 2.60788059 18.611247510000002 6.5250822600000005 1.68093 0.798485 -0.273429
28120 0.34069149000000004 13.18338432 4.437975330000001 2.691599 0.39973 -0.26479
28140 -0.66596166 0.95231556 1.82246256 3.036522 0.687408 -0.044832
28160 -3.2183078400000005 2.1365100900000003 0.97791966 3.30744 0.36609 -0.111962
28180 -2.39067738 6.896155320000001 -2.90021859 3.097857 1.419427 -0.141482
28200 1.6949227500000001 17.63617275 -3.09571227 2.909764 2.66699 -0.009798
28220 2.04160815 12.50589591 -0.46508229 2.989131 1.26191 -0.083287
28240 1.894311 8.07570972 2.7466430400000004 2.823878 -2.839414 0.062888
28260 1.7007597 8.89405011 -0.7429014899999999 3.55841 -4.842857 -0.391954
28280 0.6506973 10.523716740000001 -0.8178989400000001 3.716649 -2.766531 -0.288824
28300 -0.78721326 7.65568476 0.3817071 2.714266 -0.229806 0.237171
28320 -1.26681435 6.75499923 -0.65323809 1.653266 -0.549858 0.74078
28340 -1.95987123 6.5250822600000005 -0.5837832900000002 1.381545 -0.535774 0.917257
28360 -0.7846724700000001 6.42822813 -0.28336185 1.242026 -0.671942 0.725245
28380 0.40311252 6.1574427 -0.25820901 1.213268 -0.630638 0.278475
28400 1.8176654700000001 7.494761520000001 1.87185591 0.784245 -0.241158 0.2205
28420 1.19870352 8.9455428 3.4019706600000004 0.246882 -0.389425 0.4679680000000001
28440 -0.32811507000000006 10.56368268 1.97619507 -0.274556 -0.804021 0.7041390000000001
28460 -0.68497344 11.05301529 0.5680676700000001 -0.846924 -0.993364 0.8648899999999999
28480 0.41882814000000007 13.06468332 -8.17704702 -1.45323 -0.6075649999999999 1.081282
28500 2.153569680000001 12.70588257 -1.51499754 -2.128876 -0.040193 1.239274
28520 1.25858376 12.338095860000001 0.66147849 -2.445178 0.4694100000000001 1.1466809999999998
28540 0.06466752 11.143129950000002 0.20507805 -0.05678 1.522935 0.151476
28560 1.9217005200000001 12.599895329999999 1.70390871 1.998356 3.528659 -0.5161279999999999
28580 0.57660237 13.53679938 0.06496182 2.269789 -1.726218 0.546836
28600 -0.6319896300000001 13.31121843 -1.49583861 0.3995260000000001 -3.389204 0.060545
28620 -0.8026345800000001 13.433961150000002 0.04295799 -0.389111 -2.941246 0.07582699999999999
28640 -0.42317397000000007 12.92517531 1.7125905600000002 -0.790142 -1.592709 0.44838
28660 -2.19668463 12.163850640000001 2.5747914599999997 -0.550026 0.203094 0.569533
28680 -3.4765168500000003 11.199861180000001 1.66334436 -0.363919 2.177582 0.541597
28700 -4.66549866 13.684842090000002 4.61445723 -0.060332 1.320308 0.742437
28720 -4.25789316 14.415471270000001 4.24128483 -1.637601 2.628415 -0.007329
28740 -3.52876491 15.35207121 0.98540469 -1.14565 -2.601867 -0.75456
28760 -3.1081317299999998 16.71289479 0.9666872100000001 -0.475412 -3.995479 -1.010875
28780 -1.7316023400000002 13.57676532 1.34105643 -2.863809 1.223266 0.80096
28800 -0.23007393000000004 12.339135720000002 -0.9729754200000001 -4.104156 4.774657 1.401972
28820 0.64156419 10.353670200000002 -2.81265453 -3.3408260000000003 3.304464 0.769323
28840 -0.5848329600000001 8.228392560000001 -1.43372169 -2.32525 1.671907 0.8265790000000001
28860 -1.4388032700000002 5.528150820000001 1.4322207599999999 -2.178967 0.929131 0.7698010000000001
28880 -0.5786919 2.66894784 2.09504322 -2.1600900000000003 -0.688713 0.409878
28900 -0.15792137999999997 0.77104638 1.3638156300000002 -1.704922 -0.293095 0.181815
28920 -0.82837602 0.7455992400000001 0.22363857000000004 -2.188275 1.52092 0.105611
28940 -1.81856799 1.63206027 -1.0792569600000002 -2.506394 2.611917 -0.189633
28960 -1.3109691599999997 2.12378652 -1.24915635 -1.786925 1.90123 -0.509505
28980 -1.3825233000000001 1.4931408600000002 -1.5500290500000002 -1.281162 0.684161 -0.550346
29000 -2.14503498 1.4507812800000002 -2.82956697 -1.165767 -0.134746 -0.456623
29020 -2.3640334200000006 1.6227800100000003 -3.8872615500000003 -1.523717 0.544836 -0.130982
29040 -2.59440165 5.522470830000001 -5.10723315 -1.2893 2.865312 0.121918
29060 -0.8890018199999999 16.782800849999997 -9.49984704 -0.5711189999999999 1.598685 -0.230364
29080 -1.7028590399999999 35.05784985 -14.05951542 -0.046806 -0.09107 -0.361269
29100 -6.88882725 17.907115140000002 -16.732799280000002 0.13605699999999998 0.164266 -0.437231
29120 -2.61820071 0.37227969 -11.22306183 0.258662 0.624129 -0.193409
29140 -0.4918734 -0.46897686000000005 -4.7626470900000015 1.008311 0.87031 -0.335903
29160 -0.38140299 8.54288154 0.04595004000000001 1.750441 0.8237450000000001 -0.52294
29180 1.46230803 12.139453170000001 4.59289485 3.206498 0.59778 -0.6876680000000001
29200 0.8163980100000001 22.09001085 5.2320654 3.4805040000000003 0.978625 -0.262158
29220 0.17348985 12.491073000000002 -0.31030011 3.1871240000000003 1.043426 0.036948
29240 0.8006823900000002 5.172047820000001 3.88876248 2.689843 2.022972 0.328117
29260 -5.12025102 4.717893870000001 -1.3058875799999998 2.5906990000000003 2.679819 0.255012
29280 -3.0659291100000003 11.928243870000001 -5.56588008 2.156835 -0.454215 0.36282
29300 -0.15538058999999999 13.04342505 -1.67831442 2.507566 -4.8251610000000005 0.08886000000000001
