time Ax Ay Az Gx Gy Gz
20 2.35819647 9.75027672 -3.6735114600000003 -1.6814380000000002 0.411748 -0.544247
40 0.51133644 9.12083769 -4.1037192000000005 -1.451851 -0.566674 -0.618302
60 -2.50025508 9.09314406 -2.93001156 -1.221593 -0.852944 -0.623804
80 -2.3628366 10.05384717 -1.60346412 -1.355939 -0.428112 -0.454371
100 -1.601973 9.81239364 -1.21068153 -1.185016 0.25137600000000004 -0.29701900000000003
120 -0.5513023800000001 10.441832670000002 -0.49337432999999997 -0.208446 0.340729 -0.04569
140 -0.0634707 7.993972800000001 0.67898934 0.702599 0.249541 0.123161
160 0.58348899 7.65358542 1.56080043 0.570163 0.039904 0.182325
180 0.45280998 8.58839013 1.3882131 0.08355800000000001 -0.154783 0.007191
200 0.67884219 9.15690906 0.73916388 0.014554 -1.120376 -0.08605700000000001
220 0.49352148 9.16289316 0.13741848 0.938306 -1.882029 -0.092515
240 -0.19295289 8.825350680000001 -0.34997175 2.8165310000000003 -2.2136150000000003 -0.051197
260 0.006582510000000001 9.486220950000002 0.01691244 4.017027 -2.481645 -0.131131
280 -0.08667135 10.37806767 0.020355750000000002 3.918406 -2.909085 0.020416
300 0.31194819 10.49812245 -0.6598304100000001 3.346939 -1.74953 0.381338
320 1.6543584000000002 9.94711437 -1.8356373900000003 3.459029 -0.073284 0.142828
340 2.5474019400000003 10.112972039999999 -0.53573391 3.036258 0.731518 -0.418768
360 2.4927700500000003 11.83903173 0.7202992500000001 2.148657 1.030665 -0.13372699999999998
380 1.4079704400000002 13.342502520000002 0.6421626 1.587289 1.12911 0.242513
400 1.7925224400000002 14.323865490000001 -0.06466752 1.873626 0.038207 0.009834
420 2.8776163500000003 13.98706857 -3.3588655200000006 2.334461 -0.8013140000000001 -0.102308
440 3.7862283600000004 14.432687820000002 -6.30983124 2.259141 -1.614023 -0.0612
460 2.4848337600000003 15.673309470000001 -5.698354320000001 1.637823 -1.5569309999999998 0.318947
480 0.27078543 14.47026012 -2.22017958 1.399883 -1.056611 0.34869
500 0.5824393200000001 14.039453970000002 4.71773691 1.177411 -1.729857 0.273224
520 0.07574300999999999 12.94897437 7.85865366 0.769489 -2.508282 0.287395
540 -2.35085859 14.313535560000002 6.50023353 0.04986 -2.377997 0.298225
560 -4.20415398 15.238765710000001 3.64132485 -0.290304 -2.10197 0.296563
580 -5.001550020000001 11.691440279999998 1.46829213 -0.494509 -1.996714 0.258682
600 -1.94161482 11.05720416 1.03644612 -0.827276 -1.754729 0.238956
620 -0.02110131 9.71419554 -0.10717425000000001 -1.004182 -1.491978 0.219224
640 0.8405011800000001 8.54093916 0.69664734 -1.222097 -1.256029 0.27722
660 1.48177107 7.95880395 1.6766663400000001 -1.6474509999999998 -1.835356 0.333744
680 0.74005659 7.60134717 2.7005360400000002 -1.317701 -2.714613 0.149167
700 -0.64321227 6.26312583 1.03046202 -0.091278 -2.225216 0.042806
720 -1.61259723 5.995185300000001 1.4995860300000001 0.515889 -1.805059 0.205674
740 -1.74701385 5.883518070000001 1.8690110100000001 0.974942 -1.487031 0.46271
760 -1.5971759099999998 6.2186669100000005 2.0228906700000007 1.168017 -1.057071 0.664333
780 -2.2120961400000003 6.217470090000001 1.64103642 1.019651 -0.404318 0.8579450000000001
800 -3.13103808 5.88366522 1.4760812700000003 0.535961 -1.4667370000000002 0.8292219999999999
820 -3.0979587600000005 5.91284997 0.68317821 0.905161 -0.187991 0.6720659999999999
840 -2.21479389 7.02668718 -0.48229884 1.318906 0.127409 0.5602520000000001
860 -2.08291806 8.922195 -2.2978747800000003 0.962037 -2.095985 0.111955
880 -2.6952975 11.17890702 -5.55165558 0.216802 -1.377191 -0.240275
900 -4.28798043 12.57535071 -10.230329070000002 -1.050162 -0.687373 -0.619614
920 -3.97917144 12.9248712 -9.731559240000001 -1.383772 0.6694939999999999 -0.52327
940 -2.06959608 10.04096664 -9.3474585 -1.5754860000000002 1.283929 0.49796
960 -2.03651676 10.40755653 -8.56968246 -1.756318 1.7782950000000002 0.6349319999999999
980 -2.69903511 10.86111207 -6.207885720000001 -1.576658 1.363414 0.601467
1000 -1.03479804 10.73372922 -4.47913809 -1.56694 0.265781 0.426685
1020 -0.7243409700000001 12.6527418 -6.5629488600000006 -1.339175 -0.6041340000000001 0.3920030000000001
1040 0.33351057 12.510830339999998 -1.19945889 -1.251996 -0.939879 0.362064
1060 -4.374504630000001 12.420568529999999 0.29952873 -1.33199 -0.7359760000000001 0.322788
1080 -9.18101223 8.05968999 4.16104884 -1.2136790000000002 -0.17543599999999998 0.435059
1100 -2.75456952 2.8228275000000003 8.55306432 -1.046198 -0.014873 0.363384
1120 -1.30438665 6.318513090000001 4.197571470000001 -0.946652 -0.283252 0.259738
1140 1.6712708400000003 13.898601990000001 4.32645525 -0.965788 -0.353152 0.174236
1160 2.8990217700000005 13.58455446 2.232756 -0.93407 -0.06514500000000001 0.051243
1180 1.5865516800000001 10.801683090000001 1.00036494 -0.849144 0.217252 -0.046802
1200 -0.93091014 9.810304109999999 0.6968043 -0.627574 0.390071 -0.033725
1220 -1.27684017 9.92181438 -0.38589597 -0.5150939999999999 0.547117 0.022407
1240 -0.42556761000000004 9.302401170000001 0.13965516000000006 -0.594497 0.45362 0.029449
1260 0.35939916000000005 9.72303435 -0.09430353000000001 -0.750501 0.15273299999999998 0.018063
1280 0.5269049100000001 10.361606490000002 -0.6855718500000001 -0.7037140000000001 -0.12226 0.015537
1300 -0.5382845100000001 10.158774930000002 -0.73646613 -0.611676 0.053802 0.129186
1320 -1.94909985 9.92929941 -0.58528422 -0.568225 0.306862 0.21035
1340 -2.6450016300000003 9.24387471 -0.36688419000000005 -0.46397 0.214986 0.185559
1360 -2.3812499700000003 8.82714591 -0.3305087100000001 -0.363963 0.109349 0.142596
1380 -1.78039728 9.489968370000001 -0.30910329 -0.373985 0.184232 0.072995
1400 -1.2338821800000002 10.6286445 -0.29697813 -0.370391 0.18457 -0.014574
1420 -0.52540398 10.13662395 0.7261362 -0.327956 0.127974 -0.01741
1440 -0.08262963000000001 9.56076714 1.85314824 -0.281752 0.034847 0.054603
1460 -0.11496339000000001 9.50987286 2.33184681 -0.268075 0.069641 0.132634
1480 0.07020036 9.79353882 2.4691181400000004 -0.264409 0.180388 0.139995
1500 0.1998297 9.91373094 2.5062391800000006 -0.23126 0.140022 0.082595
1520 -0.07050447000000001 9.963428400000002 2.21553945 -0.226563 -0.054727 0.029466000000000006
1540 -0.69905079 9.954295290000001 1.6679844900000003 -0.216635 0.021922 0.033710000000000004
1560 -1.29735288 9.852212430000002 1.34360703 -0.239493 0.133954 0.008838
1580 -1.53670707 9.775419750000001 1.46455452 -0.212399 0.188347 -0.030567
1600 -1.50526602 9.764942670000002 2.13575472 -0.173127 0.115882 -0.057974
1620 -0.6837766200000001 9.90340101 2.6144631000000005 -0.11401 0.023869 -0.009373
1640 0.18741024 10.23107463 2.51716752 -0.098295 0.02674 0.058030999999999985
1660 0.8273263500000001 10.19096154 2.29173372 -0.0585 0.160574 0.121163
1680 0.79154928 9.68291145 2.10896361 -0.026183 0.26365700000000003 0.15544000000000002
1700 -0.09100737 9.513021870000001 2.2324617 0.004255 0.377582 0.143756
1720 -0.6447132 9.67378815 2.160162 0.013231 0.435239 0.103152
1740 -0.68961357 9.64219995 2.0014852500000004 -0.019573 0.445142 0.052704
1760 -0.48304440000000004 9.88409493 2.2935289500000002 -0.07096000000000001 0.332697 -0.021218
1780 -0.35805518999999997 9.7664436 2.06854641 -0.122653 0.203003 -0.043846
1800 -0.38664153 9.780658290000002 1.87589763 -0.105982 0.162272 0.004393
1820 -0.14893542 9.88095573 1.51635132 -0.118741 0.235564 0.068303
1840 0.37331955 9.911043 1.41096249 -0.15909 0.343038 0.133045
1860 0.57225654 9.836045550000001 1.7573437800000002 -0.161921 0.4229520000000001 0.130787
1880 0.08053029000000002 9.91298538 2.05522443 -0.19153 0.436023 0.084629
1900 -0.61207533 9.88334937 2.06285661 -0.173369 0.39248 0.035674000000000004
1920 -1.336122 9.72497673 2.33724231 -0.14163599999999998 0.319977 0.024238
1940 -1.7006125500000002 9.39281994 2.53288314 -0.137326 0.336976 0.031724
1960 -1.91122344 9.3383352 2.64081276 -0.140105 0.4615 0.062523
1980 -1.8522457200000002 9.5321808 2.56955292 -0.137276 0.6435420000000001 0.090084
2000 -1.2710032199999999 9.656120340000001 2.4149277000000002 -0.13125599999999998 0.814954 0.109134
2020 -0.37632141 9.78215922 2.4010073100000002 -0.116864 0.92147 0.099484
2040 0.15762708 9.83634966 2.3656815 -0.132297 1.0302559999999998 0.081077
2060 -0.09086022 9.65461941 2.3483178000000002 -0.088994 1.219523 0.13134300000000002
2080 -0.6122224800000001 9.66899106 2.3881365900000002 0.06861 1.796633 0.06227000000000001
2100 -1.09872 9.437573160000001 2.2676305500000007 0.017018000000000002 1.623527 -0.026531
2120 -1.06787736 9.44880561 1.98531837 -0.209691 0.772185 -0.049456
2140 -0.62420049 9.665253450000002 1.62801855 -0.387024 -0.207336 -0.029143
2160 -0.31854051 9.71644203 1.5015284100000001 -0.417735 -0.414873 -0.050456
2180 -0.16151184 9.66913821 1.55885805 -0.5383600000000001 -0.641459 -0.025371
2200 -0.15133887000000001 9.592796790000001 1.80914058 -0.48236 -0.520234 -0.019794
2220 -0.33485454 9.51121683 1.91661894 -0.385645 -0.159317 -0.05056
2240 -0.48454533 9.61121016 1.95044382 -0.292419 0.16422 -0.054596000000000006
2260 -0.6601247100000001 9.50014134 2.0796219000000002 -0.256364 0.317635 -0.089792
2280 -0.7500922200000001 9.59400342 2.26478565 -0.190303 0.4816760000000001 -0.14402
2300 -0.93570723 9.333989370000001 2.76130899 -0.225912 0.361548 -0.175093
2320 -1.17041148 9.74234043 2.9512600200000003 -0.433894 0.127951 -0.185861
2340 -0.8614553400000001 9.57349071 1.7368408800000001 -0.5592159999999999 0.014417 -0.189795
2360 -0.30701375999999997 9.588313620000001 0.9365999400000001 -0.513259 -0.024928 -0.247108
2380 0.27093258000000003 9.441467730000001 1.46141532 -0.41711 0.211348 -0.276649
2400 0.11121597 9.75011976 1.57397526 -0.270391 0.194467 -0.178395
2420 -0.30192237 9.67842828 1.22594589 -0.363521 -0.488447 -0.079894
2440 -0.5445629100000001 9.42649767 1.15454871 -0.4780680000000001 -1.031412 -0.061838
2460 -0.63258804 9.42754734 1.2928599000000003 -0.304002 -1.042481 -0.108678
2480 -0.5833418400000001 9.37275849 1.17745506 -0.146351 -0.6508970000000001 -0.135852
2500 -0.78706611 9.501936570000002 1.17086274 -0.086188 -0.36225 -0.177463
2520 -0.8675963999999999 9.35075466 1.69207785 -0.013595 -0.705058 -0.292953
2540 -1.00066905 9.878562089999999 2.0648088000000007 0.125764 -1.097303 -0.357706
2560 -0.7762849200000002 9.51690663 2.4120828 0.414826 -1.087754 -0.332198
2580 -0.5806440900000001 9.24372756 1.88892531 0.677154 -1.045277 -0.259918
2600 -0.01018278 9.59250249 1.7612383500000002 0.988187 -1.388336 -0.253033
2620 0.8201454300000001 9.98258733 1.9696027500000002 1.384401 -1.938739 -0.416203
2640 1.32863697 10.14320646 2.00792061 1.749008 -1.710225 -0.601956
2660 0.8693916300000001 10.753633709999999 1.2049917300000001 2.162439 -0.677132 -0.637779
2680 0.31808925000000005 10.691369640000001 1.27205289 2.529499 0.22953 -0.451575
2700 0.29443734 10.132278120000002 1.61409816 2.601802 0.989474 -0.348426
2720 0.05538726 10.332716040000001 1.82156004 2.661254 1.3601379999999998 -0.386942
2740 -0.6873670799999999 10.744951859999999 1.4985363600000001 2.655265 1.12308 -0.240334
2760 -0.8795744100000001 11.07322389 0.8698428900000001 1.984643 -0.619729 -0.187237
2780 -0.22244175000000002 11.619287730000002 0.8602585199999999 1.19856 -1.166081 -0.072387
2800 0.40131729000000005 11.41181604 1.4142586500000003 0.387656 -0.737973 0.130772
2820 0.36778670999999996 11.21423283 1.16263215 0.6383840000000001 0.677059 0.359309
2840 -0.07260381 11.386673009999999 0.40985199 0.759942 0.6204529999999999 0.5567840000000001
2860 -1.39075389 11.69952372 -0.41553198 0.896043 -0.237395 0.513969
2880 -2.3611885200000002 11.41016796 0.02065986 1.186829 -0.677974 0.41722
2900 -2.1157030800000003 10.858424130000001 2.4776430300000003 0.953153 -0.744031 0.355852
2920 -2.03860629 10.56038652 3.9510363600000002 0.699338 -0.5044390000000001 0.333475
2940 -1.80060588 10.76800536 4.06404756 0.64528 -0.683137 0.313031
2960 -1.21606722 11.08609461 3.81062583 0.638047 -0.634095 0.309713
2980 -0.61776513 10.841953140000001 3.96061092 0.7090930000000001 -0.520252 0.283357
3000 0.02185668 9.462726 3.64208022 0.72772 -0.216541 0.240369
3020 -0.07215255 9.2720196 5.273679420000001 0.702998 -0.01832 0.242079
3040 1.72576539 8.876990520000001 2.6289819000000003 0.756029 -0.049553 0.28094600000000003
3060 1.2916630800000002 9.739642680000001 2.2270662000000003 0.784691 -0.047659 0.315327
3080 0.15822549 9.59520024 -0.13756563000000002 0.7133 -0.256239 0.323641
3100 -1.44389466 9.864190440000002 -0.43829118000000006 0.691474 -0.401957 0.286287
3120 -2.104029180000001 8.833434120000001 0.6162642 0.691656 -0.386941 0.26063200000000003
3140 -2.41193565 8.68299777 1.07715762 0.692411 -0.4487600000000001 0.268194
3160 -2.5572806100000003 8.638381890000002 1.5619972500000001 0.6767850000000001 -0.555421 0.315223
3180 -2.0839677300000004 9.06590169 1.21816656 0.665862 -0.507865 0.419772
3200 -1.3940500500000002 9.096136110000002 0.64381068 0.5854779999999999 -0.521706 0.487594
3220 -1.58939658 9.17891289 0.20238030000000004 0.4996930000000001 -0.5918220000000001 0.513791
3240 -1.8568858500000003 9.14418549 0.033383430000000006 0.495821 -0.7123010000000001 0.54276
3260 -2.19248595 9.69488946 -0.5897772000000001 0.5257149999999999 -0.931905 0.5560689999999999
3280 -2.1683925900000003 10.175991479999999 -1.6453822500000002 0.54099 -1.109796 0.54038
3300 -1.50466761 10.043213130000002 -2.2125474 0.491727 -1.16178 0.52942
3320 -0.6301943999999999 9.59115852 -2.39232546 0.390668 -1.110237 0.5147619999999999
3340 -0.28126251 9.12083769 -2.30012127 0.24181 -1.033937 0.477305
3360 0.25102809000000004 8.6879322 -1.8432695700000001 0.049293 -0.941496 0.437385
3380 0.5652227700000001 8.54632485 -1.7480635200000003 -0.168652 -0.839258 0.367366
3400 0.63079281 8.72865351 -2.1784184100000004 -0.378994 -0.741172 0.263222
3420 0.8273263500000001 9.20450718 -2.91997593 -0.5646979999999999 -0.6144350000000001 0.165622
3440 1.06039233 9.333538110000001 -3.74102388 -0.752895 -0.490132 0.145988
3460 1.21861782 9.25121259 -4.249515420000001 -0.769066 -0.4446020000000001 0.229138
3480 1.3796784000000002 9.23894028 -3.96989118 -0.453813 -0.438649 0.597733
3500 1.00066905 9.20091672 -3.4829620200000004 0.008109 -0.649306 0.397199
3520 0.51791895 9.00197973 -3.03149601 0.291541 -0.017738 -0.079126
3540 -0.24294465 8.61129648 -2.8853956800000002 -0.608352 -0.146847 -0.577696
3560 -0.45610614000000005 8.479116540000001 -2.9238705 -1.640888 -0.168535 -0.652179
3580 -0.92686842 8.109387450000002 -3.17759634 -2.019795 0.649282 -0.511664
3600 -1.10619522 7.8317154 -3.1870237500000003 -1.678354 1.357613 -0.521937
3620 -1.03958532 7.805071440000001 -2.9861443800000003 -1.69182 1.592501 -0.375985
3640 -1.1843416800000002 7.931110320000001 -2.8342071 -1.871114 1.803044 -0.391394
3660 -1.5203930399999999 8.16222411 -2.8092112200000003 -1.943804 1.714045 -0.449472
3680 -1.7911784700000002 8.60410575 -3.0320944200000004 -1.707198 1.320544 -0.550933
3700 -2.0549301300000002 10.187214120000002 -4.191430410000001 -1.348657 0.691571 -0.480324
3720 -0.71027343 13.48111782 -7.205866830000001 -0.886986 0.36515 -0.502319
3740 2.25506394 16.875162 -10.10114118 -0.5741689999999999 0.048297 -0.390769
3760 -1.07715762 10.596762000000002 -3.7441630800000003 -0.519634 -0.332464 -0.32367
3780 -8.70320637 3.44943144 -0.8915426100000001 -0.422542 -0.511998 -0.266146
3800 -8.247698640000001 4.4364744 -1.18822644 -0.508356 -0.515296 -0.166329
3820 -2.7578656800000005 8.09965593 0.49846572000000006 -0.492921 -0.34938800000000003 -0.11088599999999997
3840 0.51358293 11.45343006 -0.7132654800000001 -0.456217 -0.161334 -0.017935
3860 2.4954579900000002 11.62287819 0.5884234200000001 -0.426145 -0.325608 0.011327
3880 1.47937743 10.85243022 1.33537644 -0.4231720000000001 -0.563377 0.061859
3900 0.46328706 10.11506157 1.37175192 -0.313921 -0.5633739999999999 -0.033517
3920 0.10523187 10.27627911 1.0409391000000001 -0.379435 -0.692976 -0.066924
3940 0.06301944 10.88102637 0.6843750300000001 -0.62027 -0.805307 -0.005437
3960 0.08636724000000001 10.85078214 0.01406754 -0.665369 -0.590134 0.036701
3980 0.11121597 10.19709279 -0.31494024000000004 -0.615498 -0.402861 0.047492
4000 0.10882233000000001 9.63500922 -0.062273880000000004 -0.54573 -0.300872 0.056394000000000014
4020 -0.29293641 9.51721074 -0.16630893 -0.388311 -0.147051 0.08079700000000001
4040 -0.5812425 9.61840089 -0.63842499 -0.264891 0.318842 0.14836
4060 -0.91325214 9.6941439 -0.45071064 -0.315794 0.817747 0.103568
4080 -0.6333336 9.92436498 -0.14250006 -0.516173 0.903498 0.144788
4100 -0.12529332 10.06626663 0.00777933 -0.8697950000000001 0.4778810000000001 0.061678
4120 -0.29548701 9.55373337 0.033530580000000004 -0.864856 -0.40916 -0.025813
4140 -0.68303106 9.780815250000002 0.40789980000000003 -0.74595 -0.439913 -0.163812
4160 -0.31479309 9.974660850000001 1.03180599 -0.7853479999999999 -0.02189 -0.23833
4180 -0.37182843 9.65133306 1.05740028 -0.7011350000000001 0.230164 -0.207086
4200 0.02754648 9.51900597 1.03389552 -0.46813 0.161937 -0.130596
4220 -0.13037490000000002 9.66899106 1.07491113 -0.28733400000000003 0.034537 -0.12917
4240 -0.39756987000000005 9.62677863 0.91160406 -0.239504 -0.278677 -0.16475399999999998
4260 -0.24324876 9.80535987 1.17789651 -0.133806 -0.589741 -0.255484
4280 -0.44862111000000005 9.54280503 1.46500578 0.007684000000000002 -0.749745 -0.324793
4300 -1.09063656 8.67595419 2.24368434 0.254568 -0.843476 -0.275947
4320 -1.3078299600000003 9.24417882 2.04295212 0.654714 -1.19154 -0.16054300000000002
4340 -1.6325017199999998 10.10637972 1.8841282200000002 1.009633 -1.905757 -0.081304
4360 -1.61259723 9.647732790000001 1.03764294 1.336386 -2.923703 -0.212314
4380 -1.4672522700000001 9.53966583 0.66282246 2.133835 -2.667375 -0.536084
4400 -1.02746016 10.034982540000001 1.09736622 2.926135 -0.693752 -0.6067859999999999
4420 -0.38215836 10.28017368 0.9813629700000001 2.750966 1.171051 -0.597581
4440 0.26210358 10.118808990000002 0.91774512 2.626174 1.608539 -0.404597
4460 0.6692578200000001 10.127039580000002 0.5929164 2.317112 0.524098 -0.139379
4480 0.27363033000000003 10.481357160000002 0.5902186500000001 1.885788 0.037484 -0.08622
4500 0.033530580000000004 11.0678382 0.24055101 1.209369 0.236108 0.112831
4520 0.21420135 11.044931850000001 0.19908414 0.866359 0.911399 0.433241
4540 0.69784416 11.02367358 0.21061089 0.7290840000000001 0.70233 0.620557
4560 0.9404945100000001 11.59817661 0.21510387 0.783984 -0.168072 0.5910770000000001
4580 0.621954 12.745397250000002 0.31419467999999995 0.783644 -0.245828 0.5890380000000001
4600 -0.27722079 12.766655520000002 -0.83780343 0.420076 -0.237875 0.779836
4620 -1.8476055900000001 12.633425910000001 -2.71280835 0.218336 -0.000767 0.800556
4640 -2.98584027 11.813731740000001 -3.74401593 0.310017 -0.29493800000000003 0.7599130000000001
4660 -2.84243769 10.935805409999999 -2.7093650400000007 0.470347 -1.100205 0.600763
4680 -2.27661651 10.99478313 1.8914661000000002 0.6199720000000001 -1.648813 0.468983
4700 -1.57203288 11.93362956 5.136722010000001 0.618228 -1.45016 0.342667
4720 0.28889469 11.69532504 5.52142116 0.488411 -0.8660690000000001 0.375194
4740 1.7441689500000002 10.01297871 4.91532993 0.217314 -0.243802 0.307342
4760 2.3156799300000004 9.3847365 3.4118591400000002 -0.012548 0.272948 0.21748
4780 2.11615434 10.24394535 1.4756300100000002 -0.050713 0.028315 0.15557
4800 0.11451213 10.485840330000002 -0.8840575800000001 0.083688 -0.472751 0.135786
4820 -1.30933089 9.102865770000001 -1.38132648 0.063753 -0.386441 0.147287
4840 -1.7082447299999999 8.78522778 0.58198806 -0.044575 -0.099262 0.086342
4860 -1.4209981200000001 8.248601160000002 1.4606599500000002 0.086004 -0.436522 0.131483
4880 -0.7280883900000001 8.45756397 0.7220944800000001 0.222558 -0.762514 0.283474
4900 -0.45101475 8.43615855 -0.50235048 0.344912 -1.201217 0.395986
4920 -0.8352626400000002 8.66817486 -0.38275677 0.432858 -1.238137 0.494924
4940 -1.4778765 8.70619842 -0.18202455 0.293504 -0.8883280000000001 0.515935
4960 -1.95089508 8.773857990000002 -0.22527684 0.15978399999999998 -0.770521 0.475326
4980 -2.9482679700000003 8.06282919 -0.38964339 0.014724 -0.8580479999999999 0.378285
5000 -2.92596984 7.515568530000001 -0.8420021099999999 -0.155192 -1.204547 0.33054
5020 -3.0292495200000005 7.55658414 -1.3686029100000001 -0.282156 -1.545644 0.226473
5040 -2.5047382500000004 8.18542476 -2.37615858 -0.181979 -1.088064 -0.00415
5060 -0.7279314299999999 8.753649390000001 -2.85037398 -0.056413 0.545343 -0.197646
5080 0.53064252 8.58509397 -2.92521447 0.125888 1.808758 -0.089033
5100 0.82418715 8.77415229 -2.1318699600000004 -0.426785 1.294165 -0.126417
5120 0.5041555199999999 9.66659742 -2.91308931 -1.136731 1.499602 -0.5354270000000001
5140 0.83540979 9.66061332 -3.51663975 -1.710812 2.20335 -1.002879
5160 1.71034407 9.98483382 -4.69648845 -1.749551 2.874368 -1.209108
5180 2.95934346 10.910662380000002 -5.64805845 -1.452231 2.67378 -0.8553290000000001
5200 2.9183278500000003 10.937600640000003 -5.37218163 -1.236585 2.015765 -0.5912649999999999
5220 0.99168309 10.284509700000001 -5.52725811 -1.102747 1.342424 -0.41962
5240 -1.2816372600000001 9.53546715 -5.47217496 -1.100001 0.486215 -0.224087
5260 -3.04795719 9.08954379 -5.589227879999999 -0.990732 0.095051 -0.000633
5280 -3.39449544 9.34805691 -4.10266953 -0.848767 0.16358399999999998 0.053682000000000014
5300 -3.50391618 11.08729143 -2.16270279 -0.7450899999999999 0.172942 0.021279
5320 -2.89213515 12.50858385 -2.04340338 -0.7004560000000001 -0.117976 0.0070090000000000005
5340 -3.3670961100000003 12.09275757 0.32527017 -0.7067260000000001 0.109109 -0.03285
5360 -5.85552033 8.737335360000001 -1.02970665 -0.806376 0.5035470000000001 -0.018028
5380 -7.01456202 6.296803560000001 1.85614029 -0.911928 0.5092810000000001 -0.028387
5400 -3.85073892 6.67701954 3.9640542300000003 -0.961904 -0.089536 0.047875
5420 -1.0027683900000002 9.62648433 4.781060460000001 -0.993363 -0.333812 0.156927
5440 0.78226902 11.984082390000001 3.8785797000000004 -0.904682 0.048909 0.27456
5460 2.22287733 11.927645459999999 1.8363829500000002 -0.70612 0.781154 0.2686
5480 3.10185333 11.674518030000002 0.5730119100000002 -0.5239739999999999 1.10471 0.182931
5500 3.3326728200000004 10.840462020000002 -0.09879651 -0.489449 0.929977 0.159896
5520 2.27407572 9.919872000000002 -0.21570228000000002 -0.5857180000000001 0.6490319999999999 0.171334
5540 -0.02439747 9.69534072 -0.029184750000000002 -0.518146 1.347039 0.316189
5560 -1.5200889300000002 10.01223315 -0.01018278 -0.917494 2.101006 0.191725
5580 -1.4693418 9.56211111 -0.39038895 -1.214993 1.741553 0.030942
5600 -1.12955283 8.861274900000002 0.39008484000000004 -1.1336389999999998 0.8749979999999999 -0.184228
5620 -0.8599642200000001 9.067392810000001 1.01204865 -0.973746 -0.07283099999999999 -0.389132
5640 -0.69336099 9.689346810000002 0.9601047 -0.718965 -0.31676 -0.348584
5660 -0.22512969000000002 9.986334750000001 0.3010198500000001 -0.877244 -0.292146 -0.239694
5680 0.52496253 10.25068482 -0.32093415000000003 -1.00959 0.092242 -0.08087799999999999
5700 0.20702043 10.22239278 -0.73736865 -0.851484 0.702797 0.010243
5720 -0.12917808 9.66929517 -0.26121087000000004 -0.488408 0.945756 -0.056966
5740 -0.27617112 9.29162979 0.4016115900000001 0.053265 0.7717189999999999 -0.16085
5760 0.08487612 9.42335847 0.21390705000000002 0.435512 0.146056 -0.139219
5780 0.37841094 8.96665392 0.17977806 0.450459 -0.610047 0.053066
5800 0.7173072 8.62551117 0.7517402999999999 0.320523 -1.3654540000000002 0.197337
5820 -0.37632141 8.730448740000002 2.4789968100000004 0.638837 -1.828599 0.125378
5840 -1.03764294 9.26827218 0.9773212500000001 1.476712 -1.526891 -0.12659700000000002
5860 -1.80959184 9.52708941 1.2621742200000001 2.321344 -0.832426 -0.302117
5880 -2.4435140400000006 9.6420528 1.02581208 2.661133 0.126628 -0.406726
5900 -1.7465724 10.00819143 1.0084483800000001 2.641718 0.552813 -0.408476
5920 -0.37886220000000004 10.28570652 0.9563572800000001 2.537721 0.728738 -0.357085
5940 0.72105462 10.666373759999999 0.2951829 2.207119 0.877484 -0.23887600000000006
5960 0.18905832000000003 10.76381649 0.9048645900000001 1.996701 1.747587 -0.26603000000000004
5980 -0.2630061000000001 11.419752330000001 0.11570895 1.668391 1.863575 -0.216129
6000 -0.29398608000000004 11.399994990000001 -0.46478799 1.351128 1.595998 -0.15925
6020 1.2573869400000002 11.69757153 -0.6867686700000001 1.186549 1.093623 -0.125573
6040 2.3363397900000002 12.78177273 0.07844076 1.392809 0.190742 -0.15609
6060 2.26838592 12.430604160000001 0.25177365 1.483068 0.320442 -0.168444
6080 0.4784042700000001 12.500951670000001 -0.29189655000000003 1.266761 0.191041 -0.12172
6100 -1.57682016 12.13032006 -1.8077868000000001 1.19946 -0.100469 -0.157067
6120 -2.77178607 11.54863611 -3.0241581300000004 1.2488549999999998 -0.8257559999999999 -0.241251
6140 -3.7071891900000002 11.528123400000002 -1.90478808 1.027209 -1.046389 -0.285245
6160 -3.78383472 11.475590850000001 0.19369845 0.721658 -0.897273 -0.281161
6180 -3.0662234100000005 11.3169141 2.21854131 0.573203 -0.535204 -0.121361
6200 -3.20064003 11.11034493 4.07467179 0.483651 -0.178446 -0.016689
6220 -2.9361428100000007 11.383082550000001 5.022052919999999 0.483617 0.331649 0.026454
6240 -2.59186086 11.442952980000001 4.86068823 0.242467 0.7195050000000001 -0.054776
6260 -2.1312715500000006 9.89412075 3.0407762700000003 -0.09446 0.787706 -0.034783999999999995
6280 -1.72860048 9.59744673 1.46769372 -0.094949 0.616449 -0.097593
6300 -1.3512392100000001 10.12105548 -0.47242017000000003 0.01646 0.269737 -0.06966499999999999
6320 -0.5319963 9.24403167 -0.7837699500000002 0.077301 -0.063387 0.066851
6340 -1.0976703300000001 8.63598825 0.60982884 0.060366 -0.327179 0.248668
6360 -1.27085607 8.274195450000002 0.90277506 0.135641 -0.484783 0.435267
6380 -1.3964436900000001 8.03199636 0.81744768 0.34815100000000004 -0.5414680000000001 0.5735560000000001
6400 -1.2952535399999998 8.120315790000001 0.42451794000000004 0.563477 -0.3844010000000001 0.535335
6420 -1.79476893 8.22284991 0.6298902900000001 0.538047 -0.078696 0.5646760000000001
6440 -1.91002662 8.05070403 0.36015453000000003 0.337584 0.16708399999999998 0.546937
6460 -2.2522190400000004 8.27015373 0.034874550000000004 0.08838700000000001 -0.060713 0.453621
6480 -2.5655112 8.528814 -1.5064628400000002 -0.259891 -0.435412 0.4196220000000001
6500 -3.11606802 7.96284567 -2.3373894600000003 -0.799933 -0.356367 0.301449
6520 -2.8518651000000004 7.6830742800000005 -1.96885719 -1.212934 0.00761 0.213708
6540 -2.07318654 7.271878320000001 -1.79970336 -1.365371 0.418644 0.120249
6560 -1.4106681900000002 7.73052525 -2.6647589700000003 -0.455312 1.711487 0.230704
6580 -0.80053524 7.945030710000001 -2.9283634800000002 -0.112622 1.826033 0.059898
6600 -0.31090833 7.9873902900000004 -3.0647224800000004 -0.6164970000000001 3.629176 -0.209783
6620 0.00987867 8.33482125 -3.8669058 -2.220342 3.64486 -0.609838
6640 -0.058977720000000004 8.680898430000001 -5.51228805 -3.187073 3.264019 -0.968616
6660 0.0953532 9.418267080000001 -7.5935580300000005 -2.3902330000000003 2.680035 -0.8074100000000001
6680 -0.30625839 10.145305800000001 -9.230101470000001 -1.414531 1.7852849999999998 -0.874223
6700 -0.70428933 9.69758721 -8.61608376 -0.996063 0.544284 -0.981873
6720 -1.5865516800000001 8.42523021 -7.089853770000001 -1.326411 0.165095 -0.974081
6740 -2.4804879300000002 7.913295360000001 -6.371202600000001 -2.180299 0.451012 -0.606534
6760 -3.00035907 7.155423810000001 -5.46244344 -1.577678 -0.096154 -0.160448
6780 -2.9038090500000004 5.56183836 -4.14667719 -1.054189 -0.382418 0.110631
6800 -4.808597130000001 8.02166643 -2.6917070400000003 -1.012145 -0.019313 0.378583
6820 -5.783377590000001 11.452978800000002 -4.5952983000000005 -1.254455 0.662253 0.374949
6840 -4.337383590000002 17.86115529 -4.00207779 -1.528324 0.237295 0.590429
6860 -3.23253234 15.76746585 -4.0359026700000005 -1.810519 -0.7242069999999999 0.458299
6880 -5.84594577 5.616774360000001 7.45838604 -1.935611 -0.803585 0.437231
6900 -3.8981898900000003 5.035679010000001 6.02092674 -1.823629 0.17061500000000002 0.472016
6920 -2.24518527 7.307508240000001 5.516781030000001 -1.249997 1.251047 0.446865
6940 -1.9752925500000003 12.40559847 6.451438590000001 -0.8237639999999999 2.304254 0.431401
6960 0.08756406 12.76425207 5.297929740000001 -0.870534 3.062752 0.200434
6980 1.8103374 12.9100581 2.9541049200000002 -1.184389 3.358414 0.061131
7000 2.16689166 11.057959530000002 1.09931841 -1.505449 3.09127 0.013297
7020 2.5014519 9.51436584 -3.6368416800000003 -1.874961 1.88736 -0.16186199999999998
7040 0.30326634 10.090664100000001 -2.48543217 -1.994592 -0.184677 -0.30532
7060 0.44786574 8.94165804 -0.18935262 -0.8867940000000001 -1.584884 -0.357745
7080 1.36830861 8.20833111 0.27872172 0.17995999999999998 -0.6733899999999999 -0.121794
7100 1.5486752700000002 9.020540250000002 1.1060480700000002 0.490322 1.206897 0.122587
7120 1.43896023 9.69338853 0.16301277 0.778412 0.344934 0.444034
7140 1.2380710499999998 9.55193814 -1.5471841500000003 1.1014700000000002 -1.796499 0.487491
7160 0.36913068000000004 9.70656336 -1.08614358 2.257586 -1.775508 0.36308
7180 -0.1790325 7.942332960000001 0.32198382000000003 3.321616000000001 -0.751221 0.367063
7200 -0.42556761000000004 8.77879242 1.7178290999999999 4.067942 -0.23363 0.286156
7220 -0.36164565000000004 7.379209530000001 2.19429099 4.049711 -0.13932999999999998 0.16306199999999998
7240 -0.34458605999999997 8.00879571 1.9130186700000003 3.789657 0.24450700000000006 -0.228079
7260 -0.5469663599999999 9.23325048 1.4124634200000001 3.277387 1.022031 -1.082958
7280 -0.6655202100000001 9.985137929999999 1.23418629 2.011343 0.23673200000000005 -1.003201
7300 -0.78586929 10.95496434 0.8075690100000001 1.894164 0.6278560000000001 -0.411658
7320 -1.1900216700000001 12.18301938 -1.1337417 2.004667 2.905122 -0.168113
7340 1.10994264 13.45057929 -2.4716589300000007 2.130484 3.629908 -0.376466
7360 3.43999422 14.01326127 -2.4559433100000008 3.69199 1.834525 -1.364182
7380 3.6646824600000003 12.80856384 -1.7396857800000003 2.989064 -2.030523 -1.230612
7400 3.8696035500000003 14.387179230000001 -1.2916630800000002 1.447079 -1.355752 -0.008451
7420 3.2945021100000003 14.17522437 -2.36613276 1.569797 -0.6962119999999999 0.649586
7440 1.51305516 12.78237114 -4.67253243 1.13026 -0.867392 0.947973
7460 0.5502527100000001 14.40185499 -3.37053942 0.641101 -1.42297 0.981588
7480 -1.72306764 14.16609126 -2.8110064500000003 0.206195 -1.938668 0.852093
7500 -2.7381083399999997 14.99117112 2.5746443100000005 -0.261338 -1.946912 0.655489
7520 -1.88622756 15.091615710000001 6.975645750000001 -0.949798 -1.405081 0.55171
7540 -4.53676203 17.465076540000002 6.632560620000001 -1.907997 -0.774085 0.49507
7560 -6.89227056 17.03562417 2.88075555 -2.887718 0.545086 0.455558
7580 -8.374483080000001 12.210703200000001 -1.437165 0.148886 0.978144 0.6140140000000001
7600 -7.26484455 9.286842510000001 1.16757639 1.280653 -2.473763 0.5355439999999999
7620 -3.47876334 8.01223902 3.00186 0.836501 -1.324099 0.330143
7640 -0.37257399 6.3301869900000005 2.3613356700000003 0.475871 -0.15111 0.08043
7660 1.8839810700000001 7.96882977 1.4286302999999998 0.67389 0.183945 0.03545
7680 4.322864790000001 6.80514795 3.24045882 0.970043 0.531265 -0.23105
7700 6.390361530000001 4.66954038 3.41066232 3.273215 3.670476 -0.589658
7720 2.20776012 4.63974741 1.5070612500000002 -1.041442 4.185159 0.180711
7740 -0.6632737200000001 3.47906745 2.14563339 -4.163515 3.438017 -0.744924
7760 -2.8940775300000006 2.85367014 2.63706534 -4.367411 6.596326 -1.839981
7780 -3.07640619 2.9416854600000004 2.72029338 -3.597452 4.47657 -1.744293
7800 -2.5885647 2.5243484400000002 2.4029496900000002 -2.037286 -0.024771 -1.095239
7820 -1.8194705100000002 2.5578790200000006 1.63206027 -1.304873 -3.064032 -0.923859
7840 -1.75300776 5.63697315 -1.67023098 -2.921075 -1.325055 -0.168257
7860 -3.63488949 12.612775860000001 -12.263843970000002 -4.060143 3.864812 -1.005395
7880 -1.2873270600000002 28.632309660000004 -34.3694331 -1.764066 2.656991 0.148779
7900 0.9574069500000001 16.87246425 -14.20052436 -1.12575 -0.114868 0.39714
7920 -2.59545132 9.2000142 -7.57425195 -1.44053 -2.068375 0.351511
7940 -4.57568811 12.76335936 -5.34283992 -1.616905 -1.811411 0.44609
7960 -10.523863890000001 18.210234330000002 -2.84169213 -1.317907 -0.838643 0.410612
7980 -8.21311839 26.49340593 -11.59878483 -0.493079 1.805668 0.420463
8000 -6.684494760000001 -0.22348161 18.6308577 -1.311705 3.878212 0.185626
8020 -6.27211179 -8.104148910000001 13.880188620000002 -2.35075 3.650506 -0.31058600000000003
8040 -6.97385052 2.5225532100000003 2.5379745300000005 -2.197737 1.747588 -0.891396
8060 -6.27615351 10.977125130000001 8.07375753 -1.460857 0.08904400000000001 -1.285775
8080 -5.9879945700000015 15.85742355 6.51056346 -1.827925 -2.467674 -1.219901
8100 -1.4769739800000001 18.066831750000002 7.11919548 -1.981458 -2.932507 -0.993915
8120 3.1478033700000005 15.357908160000001 5.2750332 -1.545762 -0.369132 -0.6533939999999999
8140 6.311626470000001 11.20450131 2.5721035199999998 0.319222 1.272593 -0.439508
8160 8.15429763 10.057290479999999 -2.7675972 1.100719 0.141258 0.216879
8180 4.7635398 7.91463933 -3.7083860100000003 0.4926180000000001 -0.086627 0.456478
8200 2.45938662 8.573272919999999 -4.4698578300000005 0.6156149999999999 -1.503629 0.396128
8220 1.4030360100000001 9.76584519 -2.02453875 2.042613 -2.232417 0.259615
8240 0.13187583 9.46631646 0.57569985 3.202677 -1.492691 0.213359
8260 -0.39323385000000005 8.800501950000001 1.00157157 4.000819 -0.8876280000000001 0.323913
8280 -1.3665035700000001 5.61242853 4.3704629100000005 4.391943 -0.968831 0.577781
8300 -2.3126878800000004 5.78965599 1.3983958800000003 4.178731 -1.063324 0.683235
8320 -3.44912733 8.339304420000001 0.41239278 3.318517 -1.6843669999999995 0.36076
8340 -3.8007471600000002 8.76652011 0.27049113 2.421277 -1.451546 -0.606137
8360 -2.38768533 9.07337691 0.54546543 2.110917 -0.8726729999999999 -1.242502
8380 -0.14220576000000001 11.42334279 -3.1069349100000005 2.307505 -0.093377 -0.7592909999999999
8400 0.88795215 14.41771776 -1.0298538000000002 2.360733 2.899287 -0.349353
8420 2.1953308500000004 13.385764620000002 -1.28388375 2.190571 3.480511 -0.364105
8440 5.53384062 13.63035735 -3.1097798100000005 3.017656 0.869941 -0.653016
8460 5.79235374 14.04050364 -2.4905235600000006 2.601673 -1.482641 -0.17968499999999998
8480 4.50997092 13.361514300000001 0.50160492 1.696902 -0.7527560000000001 0.560815
8500 1.8841282200000002 14.09573394 -2.9093517 1.472265 -1.482147 0.674481
8520 0.24938001 13.091180130000001 -6.37898193 0.832882 -2.15468 0.781971
8540 0.41164722000000004 14.34855726 -4.95589428 0.302398 -2.183822 0.803941
8560 -0.6152243399999999 14.34242601 -2.43468504 -0.189954 -1.931332 0.6933560000000001
8580 -0.4770603 14.766943950000002 4.257598860000002 -0.829192 -1.466886 0.718206
8600 -0.41149026 14.97501405 7.2372980700000005 -1.728042 -0.535235 0.814351
8620 -3.3979387500000002 16.75046709 4.00597236 -1.898888 0.517201 0.710328
8640 -5.80672539 19.961888310000003 3.0747581100000003 0.216302 0.398891 0.22532600000000005
8660 -8.534052540000001 16.48087848 2.4697165500000002 1.163354 -1.032053 0.539287
8680 -10.302030360000002 10.462796640000002 -0.64261386 0.302358 -1.118203 0.4521979999999999
8700 -5.776490969999999 7.62065325 2.2668849900000003 0.023415 -1.050932 0.388207
8720 -1.18958022 6.57702621 2.6399102400000003 -0.207299 -0.766346 0.016626
8740 1.4837134500000002 6.699023370000001 3.48026427 -0.726693 0.688431 -0.234558
8760 5.3157447 6.371202600000001 3.36664485 -1.404192 3.291034 -0.47977
8780 3.71362455 5.136722010000001 5.33430522 -2.769539 0.58891 0.31639
8800 0.81311166 3.93666471 2.28903597 0.691983 2.3237490000000003 -0.428638
8820 -0.13831119 3.1343342400000003 3.20034573 -0.433156 3.8234 -0.454442
8840 -1.28013633 2.40863949 3.70928853 -2.177992 2.786506 -0.445005
8860 -3.0389810400000004 2.18501073 3.4012251000000004 -3.212361 1.804368 -0.359104
8880 -3.9046350600000013 2.46342834 3.1889661300000003 -2.309342 1.353983 -0.665208
8900 -4.05971154 3.81092994 1.82021607 -0.946198 0.179095 -0.8090729999999999
8920 -4.24188324 7.73112366 -4.767434370000001 -0.982113 -0.399441 -0.7551720000000001
8940 -5.0169713400000004 14.84118603 -16.661254950000004 -3.883716 0.7086359999999999 -0.684992
8960 -1.48775517 21.12167556 -23.670578430000003 -2.556567 0.373376 -0.047178
8980 1.2501962100000001 12.418920450000002 -12.94238205 -1.353495 -0.39887 0.221793
9000 -0.07424208000000002 7.187002199999999 -8.816668830000001 -1.429549 -0.817756 0.345712
9020 0.45879408 6.74631738 -5.548663530000001 -1.964666 -0.395438 0.425823
9040 -3.3576687000000005 9.66465504 -1.6860937500000002 -1.371875 0.885307 0.373843
9060 -5.63742441 10.694655990000001 6.561752040000001 -1.123495 2.586301 0.221711
9080 -7.468117560000001 15.878828970000002 4.93029999 -1.7394459999999998 4.101302 -0.087908
9100 -13.76103636 24.533230590000002 -16.34421537 -2.710076 2.726126 -0.335412
9120 -4.77386973 5.56078869 10.31999247 -2.75188 0.15096099999999998 -0.732988
9140 -3.33042633 5.01501915 6.0394872600000005 -2.276755 -1.952405 -1.016462
9160 -1.81572309 5.858070929999999 6.85903428 -2.429732 -3.522933 -1.072134
9180 0.06960195000000002 8.03289888 8.64048123 -1.664368 -2.331928 -0.677344
9200 1.6464221100000003 13.513451580000002 9.25166385 0.122474 1.369434 -0.244454
9220 1.7875782 14.847474240000002 5.61766707 1.124871 1.7940619999999998 0.055765
9240 2.56371597 13.374090720000002 -1.0930302 1.135237 0.226356 0.218079
9260 2.6846634600000003 9.612711090000001 -4.3504014600000005 0.583789 -1.377207 0.244056
9280 0.5322906000000001 6.8687658 -2.46941244 0.885166 -2.721323 0.449778
9300 -1.06952544 8.44977483 -1.72560843 2.501851 -2.79347 0.307339
9320 -1.1921210100000001 9.70103052 -0.66088008 4.594802 -1.30797 -0.034595
9340 -0.33485454 9.811343970000001 0.26839179 4.756138 -0.572202 0.176029
9360 -1.72800207 6.160287600000001 3.73578534 4.275904 -0.723329 0.290372
9380 -0.41239278 5.46842754 1.9820320200000001 3.789259 -0.783415 0.021063
9400 -0.93645279 7.159906980000001 2.20566078 3.358807 0.497179 -0.969554
9420 -1.99475559 8.75529747 -1.7896775400000002 2.298133 1.228952 -1.629516
9440 -1.49389623 9.743537250000001 0.49876002 1.523509 0.474792 -0.7067439999999999
9460 -0.59426037 10.97172963 -2.39906493 1.610663 1.666435 -0.15005
9480 0.9442321200000001 13.122160110000001 -3.44343753 2.024887 2.335357 -0.490913
9500 1.9676603700000002 14.721435360000001 -4.404287790000001 3.061408 0.936314 -1.304411
9520 3.53369934 13.20194484 -2.6017395300000006 2.9290830000000003 -2.641336 -1.076424
9540 3.26052027 12.19933341 -0.60085269 1.64064 -1.273996 0.689277
9560 2.62733382 13.71538062 0.21015963000000001 1.74565 -1.331139 0.7691319999999999
9580 3.4370021700000004 15.635285910000002 -0.65967345 1.105546 -2.207075 0.5948680000000001
9600 2.49949971 13.72346406 -3.92678604 0.29280300000000004 -2.176464 0.570992
9620 -0.28201788000000005 14.65482546 -8.06373171 -0.628574 -1.51529 0.660917
9640 -3.55765536 14.542255710000001 -3.6600423300000005 -1.5264 -0.63673 0.71334
9660 -0.49023513 15.411048930000002 6.304739850000001 -2.317235 0.424003 0.40415
9680 -0.59815494 15.43634892 6.931638090000001 -1.521632 1.060434 0.39821
9700 -3.7214136900000003 17.12438505 5.463493110000001 1.596273 -1.310582 0.55335
9720 -6.70500747 19.431687240000002 5.334609330000001 1.37355 -1.56305 0.479478
9740 -8.32763052 14.631026400000001 2.18051775 0.85403 -0.558984 0.519428
9760 -8.374031819999999 8.524026720000002 0.7824259800000002 0.234801 -0.236064 0.221996
9780 -4.540058190000001 7.18475571 3.26111868 -0.619603 0.373516 -0.162903
9800 -1.0204263900000001 5.54851638 2.23081362 -0.971925 1.475294 -0.19455
9820 1.14631812 5.209620120000001 2.1941340300000003 -1.627047 2.66435 0.054655
9840 3.83397363 7.10797284 2.9544090300000003 0.904439 0.739716 -0.6206079999999999
9860 7.41767454 6.211485990000001 5.98455126 -0.266594 3.951208 -0.5923109999999999
9880 0.86625243 3.15828045 1.50497172 -2.216739 3.5444120000000003 -0.800896
9900 -2.1891996000000002 1.8347348700000001 3.2540849100000004 -4.1302970000000006 2.030733 -0.75998
9920 -3.27518622 1.02626334 4.116442770000001 -4.286585 0.722186 -0.527591
9940 -3.69910575 0.19893699 3.9790242900000004 -2.058877 0.288293 -0.246555
9960 -2.79873414 1.66349151 2.62285065 -0.8213729999999999 -0.483813 -0.042505
9980 -4.817583090000001 6.59767626 -3.53355219 -2.498564 0.911235 -0.070963
10000 -3.85583031 14.09184918 -18.201395520000002 -3.917502 2.255577 -0.16378199999999998
10020 -1.08538821 27.23586597 -26.04599145 -2.051471 0.35951700000000003 0.316359
10040 -2.17198305 15.453712620000001 -10.31519538 -1.330426 -0.6102310000000001 0.576875
10060 -2.36373912 6.430631580000001 -7.97780592 -1.7464669999999998 -0.238564 0.699542
10080 -1.2843252 4.708907910000001 -6.433770780000001 -1.835075 0.517753 0.517425
10100 -5.2135048799999995 8.24994513 -1.29675447 -0.784271 2.330659 0.454075
10120 -8.71592994 11.245811220000002 3.8757446100000004 -1.125105 3.3875050000000004 0.193967
10140 -10.60424703 18.23388624 1.2608302500000002 -2.010694 3.016934 -0.405675
10160 -10.943594550000002 19.52404839 -10.78836111 -2.212414 1.425544 -0.796014
10180 -3.8091249000000005 0.29533986 15.103446570000001 -1.681836 -0.213537 -1.083969
10200 -2.85680934 3.52726398 6.296352300000001 -1.875705 -2.291068 -0.85513
10220 -2.59545132 7.483087620000001 5.68682757 -1.885048 -2.466713 -0.612483
10240 -1.55691567 12.47385645 8.55830286 -1.794759 -0.8659190000000001 -0.34578000000000003
10260 2.15117604 15.542777610000002 10.49916231 -0.193094 1.001834 0.048642000000000005
10280 3.41035821 13.448636910000001 5.7809741400000005 1.216033 0.546133 0.365649
10300 2.8725249600000002 12.03916554 0.67270113 1.127178 -0.478323 0.357795
10320 3.3048320400000004 9.493558830000001 -6.22345419 1.256313 -1.521265 0.255348
10340 0.659232 8.34020694 -3.39643782 2.719358 -1.77633 0.168686
10360 0.052993620000000005 9.03416634 -2.7559233 4.420667 -1.341416 0.221673
10380 -0.24459273 9.011112840000001 -1.2452617800000003 5.041547 -0.691317 0.412115
10400 -0.9294190200000001 8.89959276 0.06122421 4.340522 -0.537229 0.581141
10420 -2.05567569 6.25578795 3.03180012 3.391856 -0.849233 0.307859
10440 -1.88667882 4.84886718 1.33462107 2.685873 -0.870185 -0.49928
10460 -2.4361859700000004 7.05811842 0.11256975000000001 1.833789 -0.567076 -1.234147
10480 -2.74514211 8.7371784 -0.4939727400000001 1.620948 0.34957 -0.911001
10500 -1.5462816300000002 10.451711340000001 0.20207619000000002 1.896848 1.888373 -0.222043
10520 0.01032993 10.49617026 -1.86047631 1.9193240000000005 3.452577 -0.33605300000000005
10540 0.8598072600000001 12.966033959999999 -0.96115437 2.274812 3.5904160000000003 -0.48223
10560 1.4768268300000003 14.73281496 -1.33762293 3.052752 0.867598 -0.6303350000000001
10580 3.9163089600000003 12.98534985 -3.1448113200000005 1.470504 -2.856542 -0.07472999999999999
10600 5.123095919999999 12.85467084 -3.64926114 0.83731 -1.925485 0.737912
10620 2.71819404 14.15486862 -2.8053166500000004 1.008983 -1.434079 0.776937
10640 1.8961062300000002 15.744559500000001 -3.00275271 0.528421 -2.2103200000000003 0.574817
10660 1.784439 14.011466040000002 -5.3931357900000005 -0.160499 -2.175838 0.5411189999999999
10680 0.44786574 14.320873440000002 -6.15040893 -1.069977 -1.483791 0.625747
10700 -1.78219251 15.27618105 0.40925358 -1.870079 -0.8414969999999999 0.537082
10720 -0.22558095000000003 15.30566991 7.510182840000001 -2.277264 -0.144064 0.4382720000000001
10740 -2.6090774100000003 15.2615151 6.073017840000001 0.765968 -0.831872 0.373885
10760 -5.325770520000001 17.047298070000004 3.83427774 1.369995 -1.088243 0.558962
10780 -8.12211102 19.89587682 2.93764374 0.7697430000000001 -0.172707 0.43075
10800 -9.556578270000001 14.47999164 1.33162902 -0.318002 0.355418 0.371201
10820 -8.14231962 8.64691659 1.14586686 -0.55825 0.242439 0.06202000000000001
10840 -3.3114145500000003 7.168745790000001 2.21689323 -1.472475 0.750304 -0.408625
10860 -1.53266535 5.95730889 3.0726587700000003 0.313791 4.671625 -0.103139
10880 0.5198711400000001 5.608386810000001 3.4645486500000002 0.219576 1.3397290000000002 0.438856
10900 3.50705538 4.0838049000000005 4.99990194 -1.080715 2.451498 0.06301699999999999
10920 4.92820065 5.91884388 6.90514128 -2.845702 2.489877 -0.5443600000000001
10940 2.6952975 3.0371858100000004 1.4135130900000004 -3.514349 2.095535 -1.248211
10960 -0.72194733 1.3542312600000002 1.31366691 -2.559672 1.283894 -1.301391
10980 -1.97768619 1.49614272 2.94542307 -0.8360200000000001 -1.039578 -0.905019
11000 -2.9582937900000004 1.2467529000000002 3.6763563599999998 -0.665254 -2.362206 -0.099896
11020 -3.76751088 2.49485958 3.37668048 -3.248726 -0.8847659999999999 0.298908
11040 -5.17953285 7.76749914 -2.2559566500000003 -3.988643 1.619853 -0.163464
11060 -5.572913850000001 16.70915718 -19.63092834 -2.445934 1.0559889999999998 0.712226
11080 -1.5111029699999998 25.46025597 -22.30047459 -1.677844 1.509382 0.948814
11100 -2.14743843 13.27544136 -12.21789393 -1.767928 1.3245559999999998 0.627955
11120 -2.3613356700000003 6.420900060000001 -7.39672038 -1.317972 1.57187 0.462002
11140 -4.45683015 8.98820649 -5.47036992 -1.056861 3.010687 0.062467
11160 -5.55899346 11.51240778 -2.09489607 -1.470577 3.316517 -0.401218
11180 -3.1097798100000005 16.76034576 1.72172367 -1.811887 1.4140469999999998 -0.666083
11200 -6.1213713300000006 16.75541133 0.9282222 -1.64107 -0.337397 -0.781219
11220 -6.60097242 4.321815120000001 2.13321393 -1.6921119999999998 -1.429359 -0.72356
11240 -4.7264187600000005 2.09399355 8.54797293 -2.1187080000000003 -2.19016 -0.5717409999999999
11260 -5.20003575 6.78149604 6.39215676 -2.17131 -1.545395 -0.328312
11280 -4.84707195 10.41654249 7.105726350000001 -1.006459 0.32866300000000004 -0.066204
11300 -2.67717843 12.34558089 7.12069641 0.751945 1.035487 0.137453
11320 0.34997175 13.63679271 5.2756316100000005 1.024228 0.629767 0.396248
11340 1.5467328900000001 12.16176111 2.8614494699999997 0.8664350000000001 -0.732326 0.434279
11360 5.12384148 10.38645522 -5.7133145700000005 1.692137 -1.995183 0.377572
11380 3.72784905 9.05332527 -1.67786316 3.261453 -1.71551 0.206577
11400 1.3042395000000002 8.80783002 -3.44463435 4.454815 -0.991614 0.094345
11420 -0.47481381 8.741377080000001 -2.56476564 4.445649 -0.320857 0.193834
11440 -1.5405918300000003 9.070983270000001 -0.8732862 3.873548 -0.354106 0.213381
11460 -1.8914661000000002 7.665710580000001 1.36037232 3.540478 -0.495412 -0.124186
11480 -1.7573437800000002 5.918539770000001 1.37518542 2.730639 -0.18976 -0.998699
11500 -1.40183919 6.961725360000001 0.86685084 1.716568 -0.08294800000000001 -1.255883
11520 -1.07940411 8.65260639 -0.6114769200000002 1.738164 0.897575 -0.327635
11540 -0.7608636000000001 10.292897250000001 0.53708769 1.704639 2.915506 -0.107197
11560 -0.4076055 10.870098030000001 -0.18650772000000002 1.885065 3.5608120000000003 -0.200767
11580 0.33006726 12.97277343 -1.10439999 3.171505 2.329839 -0.903776
11600 0.89888049 13.862226510000001 -1.79476893 3.489551 -3.101105 -1.137082
11620 2.58437583 13.57616691 -2.90126826 1.133196 -2.929684 0.127038
11640 3.4700814900000005 13.266013950000001 -2.8581533100000005 1.294804 -1.332357 0.665572
11660 2.7931914900000003 13.3757388 -2.2718292300000003 0.869519 -1.684677 0.696167
11680 2.43932517 15.34967757 -2.78869851 0.302095 -1.960437 0.61885
11700 1.71828036 13.13503083 -4.8518592300000005 -0.391953 -1.730529 0.735485
11720 -0.21300453 13.600564380000002 -6.22165896 -1.153674 -1.241068 0.738083
11740 -2.7470844899999998 14.754818790000002 -1.4105210400000001 -1.7597919999999998 -0.5891149999999999 0.463821
11760 0.27153099 14.979055770000002 7.371567540000001 -1.77383 0.034217000000000004 0.17343699999999998
11780 -1.43087679 15.656838480000001 6.887777580000001 0.8543280000000001 -0.837764 0.17261500000000002
11800 -4.38003747 17.54741187 4.59289485 0.972538 -0.806535 0.25245
11820 -6.8627817 19.35924039 3.0192237 -0.139042 0.16569 0.243439
11840 -8.163577890000001 14.578631190000001 0.9963232200000001 -0.658489 0.624682 0.196494
11860 -7.95026925 8.528814 1.6717220999999998 -0.962366 0.6937 -0.016156999999999998
11880 -3.97663065 7.23834774 1.7474651099999998 -0.508944 2.544712 -0.299509
11900 -1.9543383900000002 6.2507063700000005 2.08157409 1.579324 4.115172 0.491799
11920 -0.50654916 5.5760530500000005 2.71325961 -0.339287 3.331516 0.726161
11940 2.47510224 6.101908290000001 1.06653339 -2.804635 2.30061 -0.13577
11960 5.78831202 5.735024100000001 8.15818239 -3.806571 2.27288 -0.8563049999999999
11980 3.0684699 3.3894040500000004 2.8427418000000007 -3.21255 2.4929810000000003 -1.533964
12000 -0.36599148000000004 1.94939415 2.13935499 -0.897075 0.069464 -1.406794
12020 -2.39950638 1.5453889200000002 2.9385364500000004 -0.170521 -2.726105 -0.634358
12040 -2.87327052 1.34255736 3.2956989300000004 -2.950646 -2.741421 0.010676
12060 -3.3495852600000005 1.84640877 2.87627238 -3.772732 -0.384965 -0.358076
12080 -5.0584284 6.44843673 -1.1261095200000002 -1.705096 0.908432 0.474035
12100 -6.083946180000001 12.71875329 -13.09282821 -1.426095 0.757612 0.918421
12120 -3.12489702 25.80439077 -25.40172951 -1.810681 0.16126 0.668671
12140 -2.72987775 15.264055890000002 -12.699888660000001 -1.819225 0.008497 0.51712
12160 -3.28746834 7.3575 -7.295383080000001 -1.159758 2.02348 0.607807
12180 -5.705682390000001 9.341778510000001 -5.43534822 -1.691297 3.3536870000000003 0.084302
12200 -7.335349020000001 12.9857913 -3.0311919 -2.176662 2.835543 -0.454672
12220 -5.6396709000000005 21.08605545 -4.7544165000000005 -2.12974 0.663189 -0.963239
12240 -2.77792713 13.99470075 2.92880493 -1.377996 -0.8087340000000001 -1.153723
12260 -4.50473238 0.87881904 6.083946180000001 -1.501457 -2.379575 -0.890858
12280 -4.599938430000001 -0.9156457800000001 7.3944738899999995 -2.0984 -2.979258 -0.6571140000000001
12300 -5.66602056 5.6199135600000005 5.944585320000001 -1.7984939999999998 -1.114549 -0.237597
12320 -5.29688988 10.822647060000001 5.930517780000001 0.29504 0.921177 0.082065
12340 -3.0624858 13.898150730000001 6.0649344 1.730954 0.582196 0.490976
12360 0.034874550000000004 14.44855059 4.74378246 1.53559 -0.308043 0.577279
12380 2.26822896 13.505211180000002 1.85943645 1.781157 -1.70436 0.565828
12400 7.0853706 11.31302934 -4.69843083 3.297168 -2.068277 0.215825
12420 3.75074559 8.67415896 -1.0353964500000001 4.195863 -1.080522 0.174903
12440 0.07948062 8.38301778 -1.5268284 4.166899 -0.64683 0.168804
12460 -0.5610339 9.688306950000001 -1.6302552300000002 3.877767 -0.448593 0.129142
12480 -1.27460349 8.495136270000001 -0.50669631 3.5144370000000005 -0.805305 0.138812
12500 -2.56686498 6.661451070000001 2.2192868700000004 2.517436 -0.660575 -0.557341
12520 -2.2806582300000002 5.990241060000001 1.37998251 1.600614 -0.254861 -0.7885909999999999
12540 -2.40684426 7.2254770200000005 0.5724135 1.775641 0.770354 -0.247094
12560 -2.64125421 8.95138956 -1.21383054 2.106853 2.584244 -0.199035
12580 -1.5612516900000002 10.020463740000002 -0.04879494 2.6098220000000003 2.617815 -0.5053489999999999
12600 -0.31569561 10.26250587 -0.21135645000000003 2.735476 1.224613 -0.658646
12620 0.45385965 13.07845656 -2.5679146500000005 1.998056 -0.692331 -0.158208
12640 0.74095911 13.85533989 -1.8497049300000001 1.320114 -1.383746 0.441488
12660 3.0894240600000007 13.019027580000001 -3.9986344800000007 1.136659 -1.371284 0.6805399999999999
12680 5.015166300000001 12.75078294 -3.89191149 0.782037 -1.7628849999999998 0.616608
12700 4.1436851400000005 14.41008558 -2.6976911400000003 0.348984 -1.6765169999999998 0.439352
12720 3.39045372 15.429913560000001 -3.5670827700000003 -0.18744 -1.349899 0.476848
12740 1.52786826 12.92726484 -5.40391698 -0.695633 -1.189409 0.476297
12760 -1.97050527 13.07501325 -5.25138129 -1.205673 -1.055181 0.384968
12780 -2.5315391700000003 15.36390207 -0.06301944 -2.066785 -0.346117 0.168673
12800 -0.24234624000000002 15.319296000000001 7.84712691 0.102308 0.540437 0.091889
12820 -1.5632038799999999 15.68213847 5.92393527 1.091285 -1.330469 0.370387
12840 -4.95963189 17.922526650000002 4.25580363 0.47328 -0.6010479999999999 0.44632
12860 -7.60972491 19.74379239 1.06263882 -0.116297 -0.1649 0.312388
12880 -8.31775185 14.91618348 1.33432677 -0.674161 0.104298 0.076342
12900 -6.5411019900000005 9.824822910000002 0.8722365300000001 -1.404978 1.557418 -0.376073
12920 -2.42076465 8.83717173 1.87156161 -0.848842 4.8200949999999985 -0.259933
12940 -0.88017282 8.30457702 1.7937192600000003 -2.036093 2.085347 0.282208
12960 0.7511418900000002 6.9629221800000005 2.042206560000001 -1.02275 0.281779 -0.049166
12980 4.70336526 5.43609378 5.373829710000001 -0.8740450000000001 2.751287 -0.759523
13000 2.10357792 4.51700469 4.20670458 -2.411518 2.582545 -0.91746
13020 -0.49980969000000003 2.8240243200000004 2.79184752 -2.419119 1.619497 -0.901324
13040 -1.8348820200000002 1.5069141000000001 3.14376165 -1.413 -0.771079 -0.683998
13060 -2.6589220200000003 0.8678907000000001 2.9536536600000005 -0.860361 -2.592707 -0.362678
13080 -2.9574010800000003 1.1020063500000001 3.1385231100000004 -3.104696 -1.154978 -0.449632
13100 -2.6223993900000004 1.28642454 2.86130232 -2.74046 0.355631 0.020994
13120 -2.92851063 5.204224620000001 0.17453952 -1.258386 0.044438 0.633155
13140 -4.928651909999999 11.28278511 -8.71861788 -1.310211 -0.222133 0.741025
13160 -2.672244 27.16445898 -29.22297957 -1.924437 0.20127 0.618687
13180 -0.19145196 17.495163809999998 -14.059211310000002 -1.903925 0.869519 0.520766
13200 -1.3103707500000001 7.524848790000001 -7.984996649999999 -1.627953 2.677338 0.270413
13220 -3.3244324200000004 7.0166613600000005 -5.90088177 -1.724916 2.873744 -0.276377
13240 -4.90290066 8.44169139 -1.70914725 -1.598393 1.772981 -0.568912
13260 -4.05266796 10.82773845 1.08524106 -1.7845 0.00411 -0.8115
13280 -5.945036580000001 13.226793570000002 8.6822424 -1.660912 -1.138629 -0.727988
13300 -9.26482887 16.80195978 -10.88910981 -1.785729 -2.007774 -0.6497649999999999
13320 -5.32817397 6.705605879999999 6.43931343 -1.894173 -1.8509830000000005 -0.338803
13340 -1.71003996 4.38184251 6.81697881 -1.329919 -0.097752 0.023951
13360 -1.03419963 8.299495440000001 5.660782020000001 0.331937 0.731903 0.22998
13380 -0.24234624000000002 11.76283746 7.0879113899999995 1.220979 0.277335 0.182293
13400 2.1171942 12.906457829999999 5.93501076 1.450802 -0.508837 0.248999
13420 2.01690657 12.798832319999999 2.8853956800000002 1.936384 -1.884798 0.266973
13440 5.46828039 11.009900340000002 -6.23289141 3.5082089999999995 -1.394828 -0.015368
13460 1.9556823600000002 8.302938750000001 -2.07842508 4.332018 -0.8513379999999999 0.0196
13480 -0.35116857000000007 8.18333523 -1.8709632 4.231402 -0.855526 0.088337
13500 -1.2100831200000002 8.895698190000001 -1.6886345399999998 3.976677 -1.7452150000000002 0.088766
13520 -2.16734292 8.812323000000001 -0.22228479 3.724068 -1.325351 -0.260709
13540 -2.7476829 8.412359490000002 0.32242527000000004 2.70741 -0.12803399999999998 -1.229676
13560 -2.6806217400000003 5.604796350000001 1.50497172 1.503274 0.552021 -1.353258
13580 -1.4668010100000002 6.325998120000001 0.5978606400000002 1.455616 1.214784 -0.28835500000000003
13600 -0.79618941 7.791749460000001 0.07619427 1.775081 2.267231 -0.287472
13620 -1.0129413600000001 9.3847365 -0.36867942 2.2879110000000003 2.447417 -0.504174
13640 -1.15425441 9.87242103 0.0038945700000000004 3.0562150000000003 1.485949 -1.022073
13660 -0.54531828 12.35321307 -0.7952967000000001 2.461982 -2.469669 -0.71137
13680 0.14490351 14.021040600000001 -1.18777518 1.043305 -1.749154 0.419726
13700 1.66199058 13.121708850000001 -2.71610451 0.911711 -0.963038 0.81411
13720 3.46395024 13.461801930000002 -3.98411568 0.545296 -1.440591 0.6764979999999999
13740 2.4959092500000004 14.10995844 -4.12003323 0.001319 -1.6878080000000002 0.633491
13760 2.33454456 16.90943814 -2.95605711 -0.511837 -1.683888 0.63097
13780 2.75831694 14.53342671 -4.58631234 -1.0790110000000002 -1.204318 0.540936
13800 0.09924777 13.16886552 -6.94885464 -1.823723 -0.33758 0.220566
13820 -2.2873977 14.365773810000002 -1.21966749 -1.3461379999999998 0.473775 0.169451
13840 0.50624505 15.154488 6.993156600000001 1.114408 -1.201527 0.339404
13860 -0.1329255 16.086153510000003 5.758077600000001 1.0896549999999998 -1.401944 0.6631600000000001
13880 -3.25738107 17.8497855 4.95948474 0.217314 -0.15149400000000002 0.400159
13900 -6.06329613 19.31867604 4.22586351 -0.007593000000000002 0.112382 0.140808
13920 -7.77168801 14.963634450000002 1.43970579 -0.410016 0.395604 -0.007644
13940 -8.13483459 8.67356055 1.01473659 -0.916512 2.117576 -0.488747
13960 -3.84745257 6.93193239 0.93255822 0.763806 2.63925 0.528587
13980 -1.85494347 6.25040226 2.07858204 -0.459557 1.428561 0.657257
14000 -1.01997513 4.75141464 2.26269612 -2.341623 3.746602 -0.107683
14020 2.20821138 5.01157584 2.78555931 -3.4238800000000005 3.5777650000000003 -0.902306
14040 5.23356633 5.6118301200000005 6.6861428400000005 -3.373471 2.500175 -1.32893
14060 2.4180669 3.6613863 3.1883677200000005 -1.494194 0.245954 -1.06936
14080 -0.68272695 2.91009726 2.1664404000000004 -0.538193 -2.275772 -0.512521
14100 -2.59200801 2.7217943100000004 2.9322482400000003 -1.530455 -2.70589 0.017346
14120 -2.9840450400000003 1.8820386900000001 2.9192303699999997 -4.055086 -0.226625 -0.28334000000000004
14140 -3.65420538 2.22122925 2.4966548100000003 -2.341346 0.514653 0.399593
14160 -5.0686111799999995 6.0394872600000005 -0.97791966 -1.56932 0.416341 0.871924
14180 -5.463493110000001 12.279412440000002 -11.08639872 -1.769651 0.453329 0.8533860000000001
14200 -3.4587117000000003 22.99922127 -25.15563585 -1.76846 0.76197 0.658582
14220 -0.62749665 15.1226055 -15.490539360000001 -1.259767 1.7355919999999998 0.494245
14240 0.17423541000000003 8.88117939 -7.11709614 -1.391729 2.881577 0.139342
14260 -2.02948299 8.3958885 -5.737869 -2.169356 1.968969 -0.334938
14280 -4.8990159 10.983256380000002 -2.5963538400000004 -2.119749 0.4907760000000001 -0.746099
14300 -6.39694404 14.513070960000002 -2.2936761 -1.534295 -0.634663 -0.860208
14320 -8.11507725 18.64358127 3.9142096200000003 -1.685356 -1.93919 -0.8382280000000001
14340 -8.88821316 8.27224326 -1.60121763 -2.07476 -2.67479 -0.627429
14360 -5.32113039 0.95097159 11.315864430000003 -1.430398 -1.11581 -0.241434
14380 -4.518054360000001 3.5143932600000003 6.42987621 0.352543 0.982309 -0.070367
14400 -4.5137183400000005 8.83372842 6.27914556 1.387947 0.6634359999999999 0.452157
14420 -2.6846634600000003 12.82413231 6.964119 1.335333 -0.176669 0.398387
14440 0.7249393800000001 14.890883490000002 6.570139590000001 1.7437490000000002 -1.542174 0.266257
14460 1.8212657400000003 13.82315328 3.8711044800000005 3.303437 -1.711186 -0.111465
14480 5.68173618 11.05346655 -6.20624745 4.406821 -0.7264010000000001 -0.119975
14500 4.78779012 8.22494925 -2.34353052 4.320568 -0.830775 0.21497800000000006
14520 1.28223567 8.22165309 -2.05821648 3.868124 -1.7667700000000002 0.245064
14540 -0.05209110000000001 8.7775956 -1.82650428 3.669397 -1.461093 -0.100683
14560 -0.79364862 8.674610220000002 -0.47615778 3.0816 0.192737 -1.318272
14580 -1.44104976 8.720413109999999 0.74739447 1.682502 0.396483 -1.506699
14600 -2.44771272 6.12017451 3.3488397 1.319881 0.241476 -0.259214
14620 -2.3516139600000003 6.889572810000001 0.12768696000000002 1.518083 2.058371 -0.04865
14640 -2.20386555 8.092170900000001 -0.9714843000000001 1.80038 3.523614 -0.14896800000000002
14660 -1.91781576 9.43144191 0.0580752 3.758152 2.056168 -0.905737
14680 -1.35692901 10.46967345 -0.06151851 3.544586 -2.924503 -0.8602540000000001
14700 -0.7743425400000001 13.054206240000001 -2.71086597 1.328853 -2.043211 0.448803
14720 -0.5837832900000002 14.53701717 -2.4530984100000004 1.06785 -1.061812 0.870875
14740 1.4123162700000003 12.67668801 -4.22870841 0.529212 -1.292067 0.8439059999999999
14760 4.440368970000001 13.12919388 -3.77051274 0.103977 -1.4418 0.828309
14780 4.42030752 13.67601309 -3.5028665100000005 -0.5361279999999999 -1.577373 0.92122
14800 4.05926028 16.25515038 -3.5992693800000004 -1.150015 -1.293613 0.8214969999999999
14820 2.16165312 14.77352646 -5.311702980000001 -1.78256 -0.674241 0.459499
14840 -1.8486552600000001 13.702804200000003 -5.964499620000001 -2.251971 0.226702 0.403791
14860 -1.4567751899999999 16.58176452 1.78025013 1.134654 -0.71802 0.353881
14880 0.90442314 15.72509646 7.713455850000001 1.303305 -1.357881 0.647504
14900 -1.5482338199999999 15.30133389 5.3670902400000005 0.29804899999999995 -0.370544 0.497143
14920 -4.66923627 18.3880602 5.611977270000001 0.172389 -0.496159 0.31803400000000004
14940 -6.60651507 18.955078200000003 4.341121200000001 -0.697291 -0.373612 -0.003324
14960 -8.22134898 12.98983302 -0.02798793 -1.475912 1.665315 -0.390594
14980 -7.34926941 7.9996626000000015 0.9153416700000001 -1.23157 5.096369 -0.286462
15000 -3.2736951000000003 7.578892080000001 1.9134699300000002 -3.877973 0.318125 0.263061
15020 -1.408716 5.978714310000001 2.6607172500000003 -0.374322 -0.11198 0.089396
15040 0.7499450700000001 6.59573388 3.29823972 -0.285169 3.557358 -0.651756
15060 2.14399512 5.835762990000001 2.3346917100000004 -2.486344 2.645384 -0.5837100000000001
15080 4.68840501 4.2685272 6.5160963 -3.117383 1.4105370000000002 -0.521374
15100 0.6162642 2.0300814000000003 2.63541726 -1.451914 -0.223183 -0.736247
15120 -1.72605969 1.4780236500000004 2.36642706 -0.361902 -1.917756 -0.685869
15140 -3.0725116199999998 1.7836934400000002 2.9153358000000003 -0.890782 -2.58131 0.009904
15160 -2.9404886400000003 1.57382811 3.3229413000000005 -4.340212 -0.11871099999999997 -0.11669000000000003
15180 -3.26785815 2.63586852 3.3465932100000004 -2.918384 0.384164 0.232291
15200 -5.88620601 7.055724780000001 -1.38790899 -1.622019 0.350367 0.8994139999999999
15220 -4.2950142 12.96902601 -12.200078970000002 -1.628109 0.923389 0.928548
15240 -3.88741851 25.69421466 -28.816423739999998 -1.547551 1.613979 0.7861520000000001
15260 -1.4991347700000002 14.833249740000001 -13.88467179 -0.966572 4.372973 0.566621
15280 -0.68332536 7.69175613 -7.18146936 -2.0062900000000004 3.648228 -0.040053
15300 -1.71558261 6.85214766 -6.78733299 -2.463334 0.835583 -0.6293
15320 -1.8037450800000001 5.99937417 -1.6518176100000002 -1.5712780000000002 -0.025526 -1.043913
15340 -4.14038898 10.000549440000002 5.21859627 -1.352951 -1.7011889999999998 -0.970807
15360 -5.980666500000001 11.27485863 9.7724277 -1.514851 -3.009965 -0.676499
15380 -13.18458114 23.12676108 -12.24468504 -1.0655629999999998 -2.278477 -0.4446310000000001
15400 -8.33047542 11.380531950000002 5.22533574 -0.27484200000000003 -0.429225 -0.048372000000000005
15420 -2.3137375500000004 3.22519446 7.26693408 0.481483 1.080725 0.779644
15440 -0.61118262 5.0663646899999994 5.28161571 0.380802 1.302364 0.8512959999999999
15460 -0.7777858500000001 9.824371650000002 8.896296600000001 0.367079 -0.698699 0.715963
15480 0.97072893 11.889023490000001 9.12622338 1.414351 -2.426181 0.5086430000000001
15500 0.86011137 13.13443242 5.480258399999999 2.6560080000000004 -2.231531 0.039572
15520 0.8122091400000001 11.78439003 1.68683931 4.134377 -0.528672 -0.313343
15540 3.9273844500000004 8.59917132 -8.218955339999999 4.392791000000001 0.92992 -0.328362
15560 0.3646377 8.27584353 -2.6693991 4.3262550000000015 1.168421 -0.24047
15580 -0.64964763 7.96897692 -2.96653419 3.992280000000001 0.349826 -0.101817
15600 -0.42990363000000004 7.932601440000001 -1.69058673 2.910911 -0.658942 -0.5075930000000001
15620 -1.12431429 8.34903594 0.44487369000000004 1.576089 -0.882551 -0.706773
15640 -1.7431290900000003 5.0552892 5.11890705 1.428789 0.8668389999999999 -0.365008
15660 -1.8413173800000002 6.82999668 0.01886463 1.806877 1.838504 -0.193765
15680 -2.92057434 9.00497178 -3.11921703 2.630392 2.3433200000000003 -0.609539
15700 -2.10626586 9.917772660000002 1.11218913 4.128405 0.5732430000000001 -1.211035
15720 -1.15859043 10.04785326 -0.81115947 3.495154 -1.23322 -0.989885
15740 -0.00344331 11.363168250000001 -2.59949304 1.890319 -1.610334 -0.131079
15760 0.79574796 12.13301781 -0.4391838900000001 1.316215 -1.021601 0.723007
15780 2.7994797000000005 12.027638790000001 -0.65787822 0.822651 -0.656662 0.996829
15800 3.7473120900000003 13.61433762 0.6310871100000001 0.398347 -1.298716 0.7554069999999999
15820 3.53774106 15.51104226 0.8497814400000001 -0.166675 -1.504219 0.6886979999999999
15840 1.81168137 15.021258390000002 -1.6272631800000001 -0.83105 -1.308653 0.5769850000000001
15860 -0.30476727000000003 15.814014300000002 -4.058661870000002 -1.525748 -0.818643 0.384566
15880 -1.93562091 15.803233109999999 -6.000875100000001 -1.834859 0.535981 0.487493
15900 -5.09959116 14.08570812 -7.343873909999999 0.88485 -0.966624 0.136674
15920 -4.57913142 14.25081042 1.4323679100000002 0.913495 -1.628606 0.22318
15940 -0.82808172 13.726907370000001 7.32382227 0.433341 -0.32355900000000004 0.351682
15960 -2.4168700800000003 15.71985792 5.33176443 -0.117359 -0.5095 0.4420770000000001
15980 -5.399119890000001 17.51821731 3.2654547000000003 -0.079966 -0.4003 0.540475
16000 -6.067779300000001 15.32542725 0.8641530900000001 1.028642 2.103805 -0.063877
16020 -5.983511399999999 12.10472577 2.5852783500000003 1.428197 3.415032 0.42007
16040 -3.9333685500000004 8.8353765 1.22415066 -1.574156 2.316079 0.522284
16060 -1.25543475 7.796389590000001 1.06608213 -3.709273000000001 2.7246080000000004 -0.687426
16080 0.50789313 6.41057013 2.4984500400000003 -3.640865 4.000952 -1.580549
16100 1.4724908100000003 4.635411390000001 1.2249060300000003 -2.532657 2.566206 -1.520763
16120 1.8645180300000002 5.278319550000001 5.859120600000001 -1.495781 -1.101108 -0.39787
16140 2.33588853 4.11464754 3.24420624 -1.4287530000000002 -2.705715 0.417571
16160 0.80532252 4.00282335 2.6946990900000003 -3.604747 -1.201545 -0.093074
16180 -2.6676038699999998 3.0443667300000006 1.9483444800000003 -3.032842 -0.086684 0.064384
16200 -3.96989118 2.19353562 2.26209771 -1.459082 -0.8085359999999999 0.994973
16220 -3.04945812 1.5073653599999999 2.57015133 -1.286224 -0.39119 1.171902
16240 -1.90299285 2.29802193 2.0956416300000003 -1.991999 0.359283 0.855158
16260 -2.5912624500000003 7.85207115 -5.92123752 -2.277478 0.925753 0.368534
16280 -1.37458701 18.05171454 -21.341419560000002 -2.130672 1.336207 0.16072999999999998
16300 -1.75121253 20.842061129999998 -22.88755404 -1.64465 2.843028 -0.12409
16320 -1.97050527 10.76366934 -9.84098979 -1.67826 2.875339 -0.449105
16340 -3.31904673 6.56983548 -8.60245767 -1.906418 1.203722 -0.733772
16360 -7.4044997100000005 11.27694816 -6.29261469 -1.580501 -0.435546 -1.063749
16380 -8.228088450000001 17.16106464 -8.51683599 -1.348863 -1.479724 -0.946493
16400 -4.60876743 16.53715845 6.491551680000001 -2.071423 -1.973684 -0.668896
16420 -7.75552113 0.67958775 6.70350654 -2.166728 -0.334961 -0.136483
16440 -6.824454030000001 -0.77298876 8.26221744 -0.707707 0.956495 -0.154652
16460 -5.95671048 6.85035243 5.206019850000001 0.998108 0.507055 -0.328031
16480 -4.086502650000001 12.083320350000001 5.341338990000001 0.750836 0.211271 -0.204398
16500 -1.58700294 16.644636809999998 4.724623530000001 0.642949 -0.7291449999999999 -0.16655799999999998
16520 2.3195745 14.55497928 4.09743099 1.47916 -1.686722 -0.118898
16540 4.47330114 12.725041500000001 1.71842751 2.891114 -1.4388040000000002 -0.204425
16560 8.31626073 10.85422545 -4.213738350000002 4.1383410000000005 -0.108173 -0.777462
16580 4.60742346 8.048310390000001 -2.37001752 4.274065 0.05781 -1.377068
16600 1.12790475 8.41026015 -2.8102608900000003 3.148527 0.6685300000000001 -1.013971
16620 -1.0464719400000002 9.932742720000002 -0.92372922 2.231277 1.382723 -0.600414
16640 -2.94512877 9.69488946 0.23845167 1.7924919999999998 2.066101 -0.088403
16660 -4.57868016 8.660836980000001 -0.7385654700000001 1.7928529999999998 3.22365 0.278652
16680 -4.438573740000001 6.66982881 0.22708187999999999 1.73518 2.83887 0.38236
16700 -2.55503412 5.6953524600000005 2.35580283 2.285976 1.1044 0.487775
16720 -1.2775955399999999 6.05385891 1.15170381 2.318418 -0.029835000000000007 0.921016
16740 -1.0707222600000001 7.29822798 -0.06735546 2.147904 -0.08626 1.059835
16760 0.22617936000000002 9.90744273 0.24309180000000002 2.02523 -0.447402 1.169468
16780 1.0193767200000001 11.298059279999999 -0.67000338 1.947385 -0.8416819999999999 1.002786
16800 1.76587848 14.2148862 -1.58969088 1.596573 -1.320817 0.714666
16820 0.83212344 14.136308099999999 -1.35333855 1.283531 -1.538691 0.593118
16840 1.7425306800000002 14.225814540000002 -4.052373660000001 0.788898 -1.621385 0.655999
16860 2.8547100000000003 15.780032460000001 -2.9210256000000006 0.094582 -1.668638 0.5540010000000001
16880 3.08808009 15.332912279999999 -0.16810416000000003 -0.815134 -1.247466 0.180707
16900 2.7436411800000005 14.971717890000003 -1.14272766 -1.492756 -0.60059 -0.094047
16920 1.60735869 13.07246265 -3.99519117 -1.7812290000000002 0.0013050000000000002 -0.113925
16940 -1.38627072 14.23255401 -4.66355628 -1.224182 -0.33026700000000003 0.003623
16960 -4.58272188 16.42519692 -3.76183089 1.207042 -0.571996 0.536866
16980 -4.6009782900000005 17.7866091 5.6456550000000005 1.464505 -1.76545 0.932231
17000 -3.9709408500000003 16.02132903 11.31497172 1.132991 -1.620915 0.772702
17020 -4.559962680000001 12.21430347 6.91052697 0.531704 -0.519781 0.585493
17040 -4.52972826 12.547657080000002 0.64620432 -0.098715 0.820731 0.234336
17060 -6.14038311 13.727201670000001 0.82897443 -0.423276 2.587464 0.38897
17080 -5.212759320000001 13.861176840000002 2.10477474 -1.218415 3.466965 0.383357
17100 -2.5147738800000004 12.688214760000001 2.96009883 -1.235667 0.294383 -0.617895
17120 -0.49487526 8.78957361 2.7647523000000005 -1.658551 0.754368 -1.262371
17140 2.05537158 5.39672625 2.3406856200000004 -2.639436 1.970539 -1.384013
17160 0.86325057 3.8703491100000003 2.3742162 -3.437632 1.363414 -1.245669
17180 -1.2088863 2.15297127 3.2913531 -2.947673 0.177238 -1.53876
17200 -4.06375326 2.4698637 2.2403881800000005 -2.230189 -0.8543569999999999 -1.26003
17220 -4.19098896 3.39449544 1.6181398800000002 -1.814067 -0.062249 -0.708004
17240 -3.74550705 2.29697226 1.2762417600000002 -0.98359 -0.521708 -0.54779
17260 -4.08590424 0.57645522 0.18022932 -0.702701 -1.422557 -0.08640700000000001
17280 -4.95095004 0.07349652000000001 -0.7429014899999999 -0.965962 -1.6408189999999998 0.111792
17300 -3.5831025000000003 2.3656815 -2.2299111000000003 -1.553923 -1.158455 0.140181
17320 -1.63265868 5.24389626 -4.69543878 -2.22911 0.895135 0.257816
17340 0.7545852000000001 8.93342745 -10.50231132 -2.545127 2.96932 0.242268
17360 1.80120429 14.7727809 -14.84867106 -1.858766 3.126183 -0.15265399999999998
17380 4.02123672 18.015486210000002 -16.21742112 -1.057588 2.951359 -0.550621
17400 2.07483462 12.838199850000002 -8.22883401 -1.259706 1.387201 -0.8245620000000001
17420 -1.4910513300000003 9.09673452 -4.40892792 -1.360758 -0.8391959999999999 -0.744434
17440 -5.37412401 9.02218833 -2.07887634 -1.126986 -1.76667 -0.5098090000000001
17460 -6.12287226 10.373574690000002 1.1088929699999999 -2.268272 -1.871409 0.031419
17480 -3.8850248700000005 5.33669886 6.86292885 -2.403791 -0.307586 0.415165
17500 -13.61942901 18.56020608 -14.33075211 -0.570116 1.042986 -0.05873
17520 -5.88516615 8.44873497 4.0462326000000015 1.1861389999999998 0.469717 0.054685
17540 -0.9951264000000001 6.270159600000001 7.0462973700000004 1.755995 0.714964 0.03485
17560 -1.4923952999999999 8.80828128 7.070694840000001 1.7764380000000002 0.483967 0.241456
17580 -2.13411645 12.472061220000002 6.715190250000001 1.505444 -0.437624 0.5078
17600 -0.29967588 12.78012465 4.41177282 1.820682 -2.286616 0.685423
17620 2.2094082 13.727358630000001 -0.9804604500000001 2.275473 -3.201019 0.656656
17640 1.57816413 13.1127327 -2.98464345 3.219548 -1.657273 0.331192
17660 -1.6148437199999999 9.92541465 -1.7956616400000003 3.511954 1.522313 0.409277
17680 -3.92004657 8.10534573 -0.1038879 2.835696 2.901324 0.326942
17700 -3.1165192800000003 6.684798870000001 0.24923286000000003 1.624393 2.204191 0.421924
17720 -3.7519522200000006 6.7039578 0.6245046000000001 1.975125 0.071201 0.7272770000000001
17740 -4.20490935 7.700133870000001 1.27011051 2.456517 -0.127725 0.240581
17760 -2.43034902 9.74188917 0.35341506000000006 1.992728 0.969741 0.318188
17780 -0.14130323999999997 5.801182740000001 1.19630988 1.380465 0.23820500000000006 0.504992
17800 0.27527841000000003 7.152726060000001 -0.00404172 0.775763 0.043486 0.972104
17820 0.46957527000000004 9.24522849 -2.4691181400000004 0.863456 0.814499 1.223829
17840 0.34712685000000004 12.73941315 0.75982374 1.048947 0.27389 1.191634
17860 -0.19474812000000002 13.84695234 -0.6749476200000001 1.156239 -1.221306 0.985996
17880 -0.14309847 10.873384380000001 -1.6700740200000002 1.283582 -2.068821 0.764713
17900 -1.09781748 11.878693560000002 -2.9265682500000003 1.024265 -1.964107 0.644195
17920 -0.59501574 14.606324820000001 -4.5349668 0.616265 -1.619653 0.37278
17940 1.08284742 10.682982090000001 -2.55264048 0.200855 -1.314378 0.049021
17960 1.7950632300000002 13.7574459 0.37032750000000003 -0.305872 -1.412311 -0.06228400000000001
17980 0.8553240900000001 14.03631477 -1.02297699 -0.602615 -1.850559 -0.232574
18000 0.55429443 14.92950546 -1.46994021 -0.542148 -2.219028 -0.047945
18020 -0.7520346000000001 14.67892863 -5.435642520000001 1.456823 -1.0849950000000002 0.470902
18040 -2.8957256100000004 14.79253824 -4.55053527 0.944004 -1.98728 0.913924
18060 -1.7926695900000003 16.697326320000002 5.723801460000001 0.161436 -0.716737 0.8758520000000001
18080 -2.2674834 14.502446729999999 7.85776095 -0.083012 0.721845 0.4407390000000001
18100 -4.0140558 15.057633870000002 4.80560508 -0.7742399999999999 1.578864 -0.159119
18120 -4.29622083 14.81858379 -1.15050699 -0.608567 2.52677 0.010671
18140 -3.69132642 13.13937666 -0.6797349 -0.303036 1.562269 0.384714
18160 -4.057916310000001 11.89067157 1.13718501 -0.67901 -0.7701439999999999 0.043246
18180 -2.26119519 8.96964597 1.0355436 -0.325987 1.562486 -0.447591
18200 -0.8379603900000001 6.73614441 3.0258062100000003 -0.6940000000000001 1.608493 -0.178893
18220 0.02170953 5.9607522 3.0123370800000004 -1.339764 1.205494 0.195264
18240 -0.38230551 5.3271243 1.79596575 -1.869598 -0.420178 0.13703
18260 -2.05717662 4.40728965 1.21383054 -2.192296 -2.708275 -0.144302
18280 -2.1007330200000003 3.1599285300000006 1.5037749000000002 -2.1720770000000003 -3.963966000000001 0.036909
18300 -2.81653929 2.53872009 2.5215035400000003 -2.165817 -4.343844 -0.074724
18320 -3.0514005 2.5478532 2.09743686 -2.234792 -4.056908999999999 -0.108688
18340 -3.30467508 2.3722640100000003 1.7009166599999999 -2.171535 -2.280434 -0.062452
18360 -3.2886651600000003 3.00110463 0.6224052600000001 -2.055231 0.964318 -0.143778
18380 -2.67748254 5.18057271 -1.8666173700000002 -1.909706 3.278324 -0.060269
18400 -2.59949304 8.06402601 -5.83710696 -1.834298 4.047719 0.07386799999999999
18420 -1.3498952400000002 14.867084430000002 -14.34481965 -1.509273 4.637969 0.036926
18440 3.32368686 18.51724809 -17.18591337 -1.264062 4.496909 -0.06479800000000001
18460 2.7078641100000005 14.12358453 -12.274919460000001 -1.426365 2.380352 -0.492645
18480 0.028586340000000002 9.46421712 -6.48586188 -1.703404 0.07917 -0.738391
18500 1.0662292800000002 6.2863264800000005 -4.17901095 -1.784532 -0.964179 -0.8230780000000001
18520 -0.11795544000000001 11.45687337 -2.9409300900000006 -1.931775 -1.650882 -0.795453
18540 -1.5117111900000002 14.862895560000002 4.11733548 -1.720322 -2.159324 -0.636296
18560 -6.1330452300000005 15.26974569 -2.52061083 -0.950515 -1.758298 -0.359036
18580 -7.512429330000001 13.37737707 -3.68833437 0.024964 0.016209 -0.078895
18600 -2.4358818600000003 7.56961182 5.721554970000001 0.570523 1.304396 0.17963800000000002
18620 0.9939295800000001 9.24911325 5.22593415 0.927225 0.673461 -0.056343
18640 1.6163348400000004 9.81494424 6.38153253 1.700165 -0.957704 -0.136448
18660 1.12266621 9.59549454 4.679419050000001 2.669013 -1.203829 -0.165685
18680 -0.5840874 8.72191404 1.42069401 3.306057 -1.2270530000000002 0.02787
18700 -2.7328698 8.208625410000002 0.4573029600000001 3.862175 -1.613669 0.058955
18720 -3.7474592400000004 8.13797379 -0.68767119 4.131638 0.625795 0.028058
18740 -4.49110629 7.72528671 -1.67920713 3.47465 2.24861 -0.301214
18760 -4.09293801 6.254139870000001 -1.84356387 1.927924 0.690842 -0.7405149999999999
18780 -2.0187018 5.99442993 -1.7655743700000002 1.686967 -1.351752 -0.6829649999999999
18800 -0.87388461 7.5678165900000005 -1.0008162 1.790298 -0.152692 -0.396428
18820 -0.0005984100000000001 9.258246360000001 0.07050447000000001 1.896561 3.4186019999999995 0.18726
18840 1.38851721 8.63074971 2.39606307 1.602457 4.093679 0.7846810000000001
18860 1.0623445200000001 7.530989850000001 3.42681939 0.948238 2.215689 1.328379
18880 -0.30072555 8.492889779999999 1.3727917800000002 1.9568 -0.7920149999999999 1.094656
18900 -2.6027892 9.071287380000001 0.1963962 2.3352880000000003 -1.300501 1.120384
18920 -1.4388032700000002 10.508295420000001 0.025143030000000004 2.358366 -1.99461 0.987907
18940 0.41718006 11.80445148 -1.3247424000000003 2.04975 -2.243128 0.800199
18960 1.1651729400000002 14.475351510000001 -2.38663566 1.508134 -1.746714 0.738095
18980 0.99288972 15.057192420000002 -3.62276433 1.044729 -1.219509 0.63377
19000 2.19054357 15.14116602 -4.03126254 0.80316 -1.239341 0.475079
19020 1.47907332 13.974345000000001 -3.1403183400000003 0.495019 -1.290091 0.380057
19040 -0.47914983 13.257930510000001 -3.1145769000000003 0.243779 -1.430797 0.35391300000000003
19060 0.5448670200000001 15.566576670000002 -2.4189694200000003 0.7149369999999999 -1.627912 0.48778
19080 2.2053664800000004 14.626984680000001 -2.4457605300000003 1.384275 -2.382648 0.8363219999999999
19100 1.5947822700000003 13.04132571 -1.93083363 1.244637 -2.962203 0.702561
19120 -1.61828703 13.052558160000002 -1.93862277 0.762145 -1.935421 0.358181
19140 -1.39285323 12.08467413 5.97766464 0.406476 -0.658806 0.29637600000000003
19160 -2.1345579000000003 13.654901970000001 5.819743260000001 -0.001297 0.25019600000000003 0.303045
19180 -4.1435379900000004 16.80824799 1.555866 0.205543 -0.920604 -0.126639
19200 -4.29711354 15.42482217 -1.5881997600000002 0.16500399999999998 0.589863 0.198018
19220 -4.04579115 15.211964790000001 1.1798487 -1.861508 1.278362 0.273779
19240 -3.07610208 13.04088426 2.0622582 -3.4215379999999995 2.455212 -0.168051
19260 -1.56110454 9.71913978 2.406393 -3.4638760000000004 4.905271 -0.644709
19280 -0.73916388 7.70627493 1.21577292 -3.672674 3.182906 -0.77642
19300 1.9984932000000002 7.38579204 2.6753832 -2.977766 1.040803 -0.621406
19320 1.03494519 7.899070860000001 1.7010638100000002 -2.181662 -0.165473 -0.682666
19340 -0.5999501700000001 5.27727969 0.73601487 -2.007944 -1.608552 -0.659307
19360 -1.82710269 3.60345825 1.33133472 -2.100891 -1.838581 -0.8626229999999999
19380 -2.64828798 2.45055762 1.58056758 -2.270091 -1.237513 -1.311092
19400 -3.2141189700000004 2.3281092 0.79350147 -2.122935 -0.586961 -1.3557629999999998
19420 -3.1539444300000006 1.9604696400000001 0.7442552699999999 -1.402284 -2.43927 -0.701014
19440 -3.0647224800000004 2.45938662 -0.08248248000000001 -1.7766919999999995 -3.289347 -0.379936
19460 -1.8797922000000002 4.02677937 -2.18829708 -1.76666 -1.328918 0.06307
19480 -1.54104309 7.820787060000001 -9.023836410000001 -1.66474 1.789492 0.685764
19500 2.40564744 14.04170046 -15.72973659 -1.5763049999999998 3.251661 0.988951
19520 5.43953709 16.65346581 -14.730568470000001 -1.276465 3.885764 0.663357
19540 2.1860505900000002 10.81201302 -9.48172797 -1.2576 3.757967 0.372028
19560 -1.39719906 5.37771447 -7.164998370000001 -2.344015 2.816316 -0.030664
19580 -1.60420968 6.130504439999999 -12.868139970000001 -2.474163 0.952079 -0.714983
19600 -3.43011555 17.91623844 -11.0940309 -1.593297 -1.6658240000000002 -1.347477
19620 -13.70969082 10.321787700000002 0.49427685 -1.798132 -4.041725 -1.352272
19640 -8.73298953 1.4167994400000001 4.95828792 -2.033076 -3.95071 -0.7333930000000001
19660 -10.369238670000001 1.39045959 0.21914559000000003 -1.121109 -1.857017 0.232762
19680 -1.90224729 8.40951459 3.5369955 0.160779 1.317546 0.442747
19700 0.0318825 17.6909616 6.24949974 0.6952550000000001 1.529873 0.428048
19720 0.97342668 18.203494860000003 -0.42301701 1.441145 -0.088804 0.444947
19740 4.15655586 14.058760050000002 1.15380315 2.087581 -1.188731 0.5576939999999999
19760 2.9674269000000004 10.175834520000002 -0.08861373 2.682269 -1.348501 0.303543
19780 0.54517113 7.036565850000001 -0.45953963999999997 3.440907 -0.303446 -0.092012
19800 -1.8935654400000002 4.605471270000001 -0.15268283999999996 3.807347 1.600415 -0.196578
19820 -4.17257559 5.16875166 0.40445649000000006 4.059762 1.994903 0.299266
19840 -5.5083934800000005 9.71000667 0.8815167900000002 3.097147 0.6013069999999999 0.388331
19860 -0.61237944 12.78775683 -2.0417553 2.204648 -0.275574 -0.129526
19880 1.9145196 11.15090928 -2.56282326 1.810882 -0.308342 -0.384334
19900 1.87604478 9.119189610000001 -1.1111394600000002 1.832936 0.785787 -0.160188
19920 -0.10523187 8.411005710000001 -1.5268284 1.710214 2.146909 0.020945
19940 -1.0093509 7.56721818 -0.14579622 1.6407580000000002 2.211775 0.110108
19960 -2.03771358 7.04794545 1.73743929 1.964526 1.009417 -0.254627
19980 -3.62247003 6.76128744 0.9624983400000001 1.736236 -0.131707 0.26226
20000 -6.33033414 7.71435837 0.40655583 1.460618 -0.214455 1.213295
20020 -6.06882897 9.40284576 1.4043799799999999 1.698879 -1.240529 1.060314
20040 -1.5658918200000003 11.67661737 -0.7021899899999999 1.919282 -2.227035 0.884724
20060 1.66782753 14.27596326 -1.5982255800000003 1.821195 -2.110034 0.748225
20080 4.6666954800000005 14.53342671 -3.16786482 1.508498 -1.7994400000000002 0.6035699999999999
20100 2.8598013900000003 14.34063078 -6.13469331 1.130632 -1.494006 0.47342
20120 0.13202298 14.511570030000001 -3.7917612 0.989724 -1.725946 0.256952
20140 -0.25342173 15.505950870000001 -0.76790718 1.044686 -1.459334 0.402273
20160 1.02222162 15.626604060000002 -0.7231441500000001 1.456961 -1.99573 0.717761
20180 -0.08981055 13.336812720000001 -1.54553607 1.70053 -2.73124 0.624265
20200 -2.6321309100000003 12.767695380000001 -3.34479798 1.270423 -2.286708 0.38675
20220 -4.14533322 13.62077298 -0.82089099 0.7038479999999999 -1.207357 0.28847399999999995
20240 -1.38567231 13.88093418 6.117928020000001 -0.283535 -0.6699649999999999 0.222136
20260 -2.6788265100000004 13.86326637 4.620441330000001 -1.02808 1.147144 -0.134701
20280 -5.357662830000001 15.85907163 1.08629073 -2.63652 -0.183833 0.5714779999999999
20300 -5.57171703 15.107331330000001 0.46957527000000004 -2.4482 3.1141970000000003 0.424357
20320 -5.556442860000001 12.98968587 0.86699799 -1.4070120000000002 2.400576 -0.505355
20340 -5.24074725 10.956916529999999 1.6051122000000002 -2.269819 2.484591 -0.255116
20360 -4.50263304 9.2575008 2.11075884 -3.256533 2.624811 -0.631792
20380 -2.27467413 7.32651021 1.29316401 -3.826957 2.414804 -1.165346
20400 0.5192727300000001 6.45397938 2.9178864 -3.849177 0.8390489999999999 -1.358966
20420 3.05245017 5.3880444 2.0558228400000003 -2.23498 -1.352092 -0.927209
20440 4.01360454 6.320759580000001 1.7254612800000002 -1.4804 -0.826182 -0.698285
20460 0.34069149000000004 4.80531078 0.49038228 -1.92102 0.31019 -0.513744
20480 -1.1750516100000001 3.59522766 1.15589268 -1.141153 -1.300044 0.025742
20500 -1.8751520700000002 3.0148778700000003 1.43281917 -1.384463 -2.046825 0.241848
20520 -2.7324185400000003 2.0796219000000002 1.11204198 -1.941805 -1.21483 0.454806
20540 -2.9936294100000005 2.63677104 0.54740781 -2.015326 -0.298111 0.638988
20560 -3.1407696 5.0986984500000005 -3.2335722000000002 -1.996464 1.168232 0.75795
20580 -1.6233784199999999 9.32516037 -11.078462430000002 -1.802156 2.809348 0.708066
20600 1.9652667300000002 15.24908583 -16.43926446 -1.245494 2.928986 0.410563
20620 1.7215667100000003 14.53297545 -12.982799250000001 -1.085656 2.275958 0.27578400000000003
20640 -1.4599143900000002 9.63471492 -7.77632814 -2.000862 1.243027 -0.092481
20660 -2.28694644 5.901323220000001 -5.8923470700000005 -2.344819 0.654991 -0.591921
20680 -2.9635421400000004 2.3451687900000002 -8.927580690000001 -2.039912 -1.312605 -0.847916
20700 -4.7891439 4.64633973 -1.4615624699999998 -1.943068 -3.005757 -0.824774
20720 -14.89626918 4.55652918 1.4263838100000001 -1.605705 -2.508054 -0.373334
20740 -10.11431601 17.45445231 -8.076004020000001 -0.299664 0.086039 0.055481
20760 -5.3194921200000005 20.7708111 -1.6874377200000001 0.277131 1.886629 0.285802
20780 -4.965920100000001 3.77425035 6.05280924 0.375379 0.419658 0.222138
20800 -2.8142928000000005 3.9911494500000004 3.72979143 1.210135 -1.217084 0.151018
20820 -2.38574295 8.920703880000001 4.97550447 1.85703 -1.171154 0.35844000000000004
20840 -1.66095072 11.098072620000002 4.978643669999999 2.705562 -1.4495360000000002 0.241878
20860 0.0290376 14.37206202 6.046079580000001 3.434449 -1.094546 0.079872
20880 2.2418891100000002 15.3799218 3.40945569 4.014787 0.5502600000000001 -0.161737
20900 3.33476235 13.85174943 -6.42494178 4.062937000000002 1.134722 0.156181
20920 1.2214627199999997 9.60941493 -5.20333191 3.267796 -0.642285 0.344115
20940 -0.46957527000000004 8.466540120000001 -1.30259142 2.416148 -2.274139 -0.28572
20960 -0.9830012400000001 6.90903585 0.9035206200000001 1.855121 -1.841719 -0.843532
20980 -0.81311166 6.29740197 0.26030835 1.87204 0.373652 -0.491603
21000 -2.24009388 7.003182420000001 -1.37384145 1.779255 2.836782 0.06754500000000001
21020 -1.65062079 8.376876720000002 -0.35341506000000006 1.578596 3.26594 0.27817
21040 -1.7702145 8.68733379 0.58138965 2.43444 0.990397 0.097989
21060 -1.96675785 7.12144197 0.905463 1.203353 -0.195763 1.024535
21080 -3.50480889 7.1519805000000005 -0.6423097500000001 1.6551490000000002 -0.372792 1.213789
21100 -4.37001165 8.75678859 1.38297456 1.969402 -1.823097 1.057609
21120 -3.4747216200000004 10.814563620000001 0.060772950000000006 1.725048 -2.075861 0.810535
21140 -0.6086320199999999 12.9248712 -1.95642792 1.453947 -2.03481 0.636605
21160 2.21389137 14.15486862 -3.1319406 1.00393 -1.852798 0.5317470000000001
21180 3.8173653 14.16759219 -4.283644410000001 0.39337 -1.264537 0.471181
21200 2.5613223300000003 14.0065218 -2.55174777 -0.114074 -0.875374 0.294086
21220 -0.12379239 14.640905070000002 -1.5513730200000002 -0.259452 -1.142384 0.32652800000000004
21240 0.25207776000000004 14.371914870000001 -1.4691946500000002 0.855719 -1.291262 0.360145
21260 1.6188854400000001 13.971647250000002 -2.4553449 1.4686860000000002 -1.7328689999999998 0.507066
21280 1.10963853 11.76852726 -3.8989452600000005 1.217836 -1.279393 0.275065
21300 -0.98974071 13.293560430000003 -3.4896916800000004 0.597964 -0.516946 0.086024
21320 -2.0718425700000003 14.77053441 1.52547462 -0.4247 0.193338 -0.028852
21340 -0.14385383999999998 13.51165635 6.4810746 -0.769782 0.872717 -0.195571
21360 -2.1806649 14.72652675 5.057682840000001 -0.555773 2.461266 -0.170474
21380 -5.751642240000001 16.77187251 1.22220828 -1.646554 1.712754 -0.118382
21400 -6.35458446 16.07192901 0.0056898 -2.564001 1.509005 -0.583865
21420 -6.10490034 13.083096690000001 2.01675942 -3.208937 3.285906 -0.82886
21440 -4.50159318 10.313105850000001 1.55242269 -3.72737 3.962353 -0.6453409999999999
21460 -2.5316863200000004 8.18362953 1.90179603 -4.0874440000000005 2.889829 -0.6518229999999999
21480 -0.36568737 7.921830060000001 2.5390242 -3.969594 1.629823 -1.073469
21500 2.1555218700000003 6.692882310000001 3.48251076 -2.436896 1.024875 -1.10258
21520 2.99377656 7.076688750000001 2.59979715 -1.08064 0.7044189999999999 -0.99442
21540 -0.1272357 4.90005576 1.1512525500000002 -0.813157 -1.06036 -0.789464
21560 -1.3115773800000001 3.7047955500000005 2.12991777 -0.870858 -1.71232 -0.4707020000000001
21580 -1.81691991 2.5625191500000004 2.0660056200000003 -1.3741219999999998 -1.5521 -0.142205
21600 -2.6806217400000003 1.5402975300000001 1.3680045 -1.439869 -1.89294 -0.097363
21620 -3.26710278 1.4711370300000002 1.03793724 -1.536772 -1.308044 -0.028286
21640 -3.65225319 2.16884385 -0.76386546 -1.883122 -0.255367 0.225387
21660 -3.2340234600000004 5.163061860000001 -4.62658239 -1.653064 2.864603 0.347978
21680 -1.8058444200000001 10.991496779999999 -11.43726318 -1.661718 3.904826 0.226944
21700 0.44712018000000003 19.45848816 -15.89559426 -1.664311 2.806723 0.180263
21720 2.292930540000001 18.32773851 -12.215049030000001 -2.072874 0.6690189999999999 -0.074089
21740 -1.87799697 10.95990858 -8.18408079 -2.018779 -0.24688 -0.446415
21760 -4.79183184 5.325329070000001 -8.04531834 -1.948452 -1.290793 -0.5214979999999999
21780 -5.7179547 7.769441520000001 -8.20548621 -1.833304 -2.355963 -0.381528
21800 -6.1659774 14.27701293 -4.417011360000001 -1.335257 -1.760736 -0.215374
21820 -9.00152847 6.74377659 4.79871846 0.229106 0.625576 -0.263052
21840 -10.67310342 4.913829000000001 -1.31830704 0.704283 1.797436 0.109438
21860 -4.69603719 4.85231049 2.9385364500000004 0.4379810000000001 1.172118 0.34018400000000004
21880 -0.55190079 8.44379073 7.1983818 1.100553 -1.132501 0.405449
21900 -0.55070397 11.056605750000001 5.86525185 1.936319 -1.944162 0.460397
21920 -1.1273063400000003 11.01843504 4.40683839 2.731103 -1.5906870000000002 0.35333200000000003
21940 -0.27632808 11.95847829 3.8775398400000003 3.508357 -0.721178 0.15148
21960 2.2240741500000003 15.49203048 3.1319406 3.855982 0.623105 -0.125552
21980 4.322864790000001 14.515611750000001 -3.90208446 4.101154 1.236166 0.062314
22000 0.95950629 10.45426194 -3.96465264 3.482728 0.266248 0.194901
22020 -1.0946782800000001 8.1730053 0.64321227 2.15841 -1.277106 -0.578287
22040 -1.66349151 7.737559020000001 0.68317821 1.505555 -1.7149740000000002 -0.801271
22060 -1.22385636 8.16461775 -0.7707520800000001 1.547244 0.799611 -0.43887
22080 -0.93465756 7.8203358000000005 -1.8256017600000003 1.7603959999999998 3.524468 0.204333
22100 -0.31194819 8.342002169999999 -0.24009975 2.436431 2.306423 0.259754
22120 -0.9607031100000001 7.93379826 3.47442732 1.88197 0.405332 0.89925
22140 -0.45221157000000006 6.82640622 1.6116947100000003 2.028622 0.115932 1.215771
22160 -0.82942569 7.137756 -0.6466555799999999 1.816324 -0.709514 1.097842
22180 -2.1345579000000003 8.358169049999999 -1.55675871 1.656999 -1.938549 0.89641
22200 -2.1206375100000003 9.46691487 0.78706611 1.502433 -2.1681310000000003 0.6349779999999999
22220 -0.9741722400000001 11.12861115 -0.5565409200000001 1.210057 -2.059045 0.515292
22240 -0.9080136000000001 14.69673378 -2.2448811600000003 0.814126 -1.6686029999999998 0.454342
22260 -0.8515766700000001 14.266977299999999 -3.3783285600000004 0.292231 -1.159063 0.28981
22280 1.31441247 13.29729804 -2.61176535 -0.202341 -0.874813 0.230444
22300 0.9723770100000001 13.97822976 -1.4561767799999998 0.128437 -0.999952 0.335464
22320 0.20178189000000002 15.701748660000002 -0.73347408 1.485225 -1.225506 0.4200060000000001
22340 1.12087098 15.01093827 -1.45976724 1.325144 -2.167789 0.437186
22360 1.61065485 12.286004759999999 -3.92394114 0.913562 -1.614753 0.222095
22380 0.06765957 11.807149230000002 -4.986727110000001 0.285188 -0.321963 0.081453
22400 -2.0998305 13.35732543 -3.46603977 -0.886424 0.394514 -0.120997
22420 -2.2107521700000006 14.586420330000001 3.92843412 -1.928971 2.0671060000000003 -0.309884
22440 -0.65653425 14.463226350000001 6.68525013 -3.212962 2.063889 0.275083
22460 -3.81870927 16.09213761 5.0964519600000004 -1.002114 2.170917 0.098109
22480 -6.9843276 17.065113030000003 0.33949467 -0.925434 2.895712 -0.335983
22500 -7.2790592400000005 13.60625418 -0.27273762 -2.5131900000000003 2.502195 -0.450186
22520 -6.036348060000001 11.39086188 1.76647689 -3.639222 2.494755 -1.075474
22540 -3.57127164 9.21782916 2.21015376 -3.917234 1.122664 -1.36301
22560 0.3153915 7.7665966200000005 2.15880822 -4.146287999999998 -0.483968 -1.381779
22580 4.01749911 7.497312120000001 3.56663151 -1.952893 -1.379432 -1.526612
22600 3.1368750300000006 7.22861622 2.33784072 0.128134 -1.2173200000000002 -1.247365
22620 -0.27707364 4.2745113 1.13015124 -1.525308 1.451939 -0.5338069999999999
22640 -1.3677102000000003 3.2449518000000004 1.32414399 -1.369229 -1.409275 0.100132
22660 -1.63086345 2.86399026 1.10095668 -1.026765 -2.299156 0.163485
22680 -2.6568226800000003 2.6018866800000002 1.31980797 -1.129285 -0.7926989999999999 0.745156
22700 -3.3590126700000003 2.17004067 1.9552311 -1.751866 1.931338 0.986212
22720 -2.83390299 2.0619639 0.9113097600000001 -2.141347 3.317539 0.722137
22740 -2.4328898100000007 3.8811303 -2.30940153 -1.827275 3.2456150000000004 0.321704
22760 -2.03262219 9.17157501 -10.446178500000002 -1.7139099999999998 1.615249 -0.184957
22780 -0.41538483 17.42302107 -18.51754239 -1.738449 -0.039287 -0.655162
22800 1.6137940499999999 20.304826289999998 -14.73565986 -1.330337 -0.26832 -1.008804
22820 -0.16466085 9.59564169 -9.23354478 -1.375073 -1.024158 -0.830823
22840 -2.19937257 4.577934600000001 -5.314400730000001 -1.7236049999999998 -1.286398 -0.217626
22860 -3.5540550900000003 2.5854255000000004 -5.59132722 -1.57218 -0.726889 0.123477
22880 -3.8305303200000003 7.47560259 1.55856375 -0.620667 -0.08238200000000001 0.094047
22900 -11.582912250000001 11.36092176 2.55713346 -0.053778 0.748542 0.133261
22920 -7.70717745 23.574626820000002 -13.413605400000002 0.021577 0.291914 0.240127
22940 -4.907844900000001 10.446472799999999 5.2413456599999995 0.612258 -0.8263209999999999 -0.08119
22960 -4.593650220000001 3.05634474 5.16186504 1.518204 -0.976697 -0.024463
22980 -3.32727732 4.19996511 4.27197051 2.288828 -0.774304 0.108847
23000 -3.6470146500000005 6.7178781899999995 4.03336188 3.177264 -1.01732 0.17091199999999998
23020 -2.5951570200000003 7.8778224 4.547690370000001 3.76286 -0.547536 0.196833
23040 -0.80996265 12.4762599 7.25406336 4.1962480000000015 -0.042845 0.416062
23060 1.7546558400000003 16.00831116 7.6899609 3.704281 -0.400716 0.560499
23080 3.5173853100000003 14.08915143 -5.3194921200000005 2.625118 -1.383122 -0.312108
23100 2.7331641 10.12854051 -10.194846300000002 1.7380490000000002 -1.940792 -1.007661
23120 2.03860629 8.67087261 -2.5270461900000005 1.700559 -0.225806 -0.682176
23140 1.36366848 7.616160270000001 0.56313324 1.846512 3.199342 0.183987
23160 -0.58198806 8.00669637 2.1664404000000004 1.811342 3.746865 0.487483
23180 -2.07394191 7.520365620000001 1.3362691500000001 2.379595 1.904458 0.397673
23200 -3.4760754 7.01606295 1.7221651200000003 1.959734 -0.15811 1.075704
23220 -3.6782987400000002 6.74736705 -0.29293641 2.042738 0.35578000000000004 1.163219
23240 -3.6372831300000006 7.9079096700000004 -2.41642863 2.1360240000000004 -1.363251 1.001568
23260 -1.56963924 9.12098484 -0.22976981999999999 1.808013 -1.732827 0.734831
23280 0.33889626 10.491834240000001 0.8027817300000001 1.5295219999999998 -2.0904 0.620113
23300 0.92672127 12.33974394 -0.46927115999999996 1.002853 -1.883572 0.502937
23320 0.5450141700000001 13.016035530000002 -0.88001586 0.320121 -1.747555 0.38049
23340 0.7385654700000001 13.83707367 -1.2433194000000003 -0.420696 -1.758177 0.216163
23360 0.84858462 13.39160157 -1.5441921 -0.600641 -1.6999380000000002 0.193467
23380 -0.34638129 14.02089345 -2.14204293 0.574277 -1.768277 0.546798
23400 -0.86116104 14.239440629999999 -3.09990114 1.447982 -1.8657 0.708986
23420 0.4252635 13.79007396 -3.41934417 0.86869 -1.43948 0.650982
23440 2.4551977500000004 13.551769440000001 -3.8690051400000005 0.147058 -0.400336 0.352985
23460 2.21449959 12.58028514 -4.14473481 -0.6404 -0.116847 -0.060939
23480 0.7487384400000001 14.70811338 -1.67262462 -0.14588800000000002 0.922329 -0.089795
23500 -1.7136402300000002 14.1252228 2.9924227800000005 -0.362256 1.937151 -0.072311
23520 -0.84289482 13.395192030000002 6.54663483 -1.808132 1.651241 -0.31278
23540 -3.85164144 15.19534665 4.4480011500000005 -2.578236 2.278581 -0.683227
23560 -6.740333280000001 17.16974649 0.13113027000000002 -3.418124 3.245185 -0.85377
23580 -8.32942575 14.446912320000001 0.021258270000000003 -3.641879 3.2802830000000003 -0.6460060000000001
23600 -7.9095479399999995 11.408078430000002 1.6066131300000002 -4.239366 2.150785 -0.584639
23620 -4.861443600000001 9.27651258 2.07423621 -3.712565 0.7942739999999999 -0.937075
23640 -2.04250086 7.89578451 2.6005427100000005 -1.833656 0.8970299999999999 -1.089657
23660 3.18178521 7.628589540000001 4.35114702 -0.6915060000000001 0.329453 -1.068133
23680 4.10161986 7.974068310000001 2.4370786800000004 -0.464283 -2.185798 -0.965046
23700 0.17184176999999998 4.932693629999999 0.94468338 -0.700334 -3.018622 -0.55009
23720 -1.04034069 3.6799468200000005 1.4052825 -1.060272 -2.403514 -0.083375
23740 -1.4572166400000002 2.10702123 1.6741157400000002 -1.228065 -1.790258 -0.118447
23760 -1.49658417 2.4382755 1.90164888 -1.727696 -1.510833 0.233423
23780 -1.9779903 2.0191530600000003 1.4775822 -1.614761 -0.056211 0.537859
23800 -1.89835272 2.10926772 0.7493368500000002 -1.27396 2.595499 0.7152350000000001
23820 -1.96271613 3.9817220400000006 -1.4180060700000001 -1.6134540000000002 3.5719480000000003 0.313165
23840 -1.63519947 8.66368188 -8.13453048 -2.025243 2.256075 -0.064039
23860 1.7580893400000002 17.83825875 -16.555277519999997 -1.777557 0.8818 -0.527361
23880 1.19197386 17.28859464 -14.368922820000002 -1.440284 0.087338 -0.877569
23900 -3.0795453900000003 10.24305264 -8.95766796 -1.553168 -1.57699 -0.688217
23920 -5.80029003 5.58548046 -8.12285658 -1.725466 -2.488782 -0.294078
23940 -8.45741682 10.34139789 -10.145305800000001 -1.696055 -1.824264 0.000105
23960 -6.5388555 15.687975420000003 -7.469314379999999 -0.826108 -0.37504 -0.067247
23980 -6.80724729 8.006402070000002 6.44843673 0.618564 0.681775 0.263025
24000 -9.683961120000001 3.0386769300000003 1.54119024 0.943576 0.8573770000000001 0.289639
24020 -5.3667861299999995 4.10760396 3.6625831200000003 1.245405 -0.487507 0.154602
24040 -1.8206673300000003 9.84098979 6.54603642 1.982268 -1.592331 0.082116
24060 -1.89505656 12.78326385 7.05992346 2.750819 -1.710192 0.118614
24080 -1.3359748500000002 12.45230388 5.461089660000001 3.717271 -1.223715 0.16853900000000002
24100 0.33291216 13.31047287 5.07938256 4.321311 -0.141742 0.264307
24120 4.20699888 14.18255244 2.24083944 4.013995 -0.16501500000000002 0.489721
24140 5.38655328 11.83544127 -5.15392875 3.093892 -0.432882 0.076645
24160 1.7380377 10.15038738 -3.2918043600000004 1.636466 -0.993603 -0.959378
24180 -0.46074627 7.6055360400000005 -0.019011780000000002 1.536704 -0.7296590000000001 -0.81193
24200 -1.37443986 7.644001050000001 0.44607051 1.844039 1.6886150000000002 -0.30440900000000004
24220 -2.1296234700000003 7.7284259099999995 -1.46964591 1.5901 3.888067 0.000784
24240 -0.7661021400000001 8.570428020000001 -2.91608136 2.347245 2.638995 0.019423
24260 0.65698551 8.17285815 0.08861373 2.632561 -0.249175 0.356266
24280 -1.93008807 7.075187820000001 2.9401845300000002 2.163325 -0.225934 0.811226
24300 -1.7911784700000002 6.525376560000001 1.06548372 2.235918 -0.965339 0.774224
24320 -3.2885082000000003 6.94855053 -1.15649109 1.60471 -1.455948 0.667895
24340 -3.4629005700000004 7.9188282 -0.39098736000000006 0.998092 -1.31976 0.7030069999999999
24360 -2.43303696 9.07442658 0.94379067 0.480783 -1.350737 0.639613
24380 -1.2479595300000004 11.197467540000002 -0.88825626 -0.190276 -1.225426 0.520465
24400 -0.91834353 13.88751669 -0.87103971 -0.853879 -1.367417 0.373938
24420 -0.33335360999999997 13.75010802 -0.7288339500000001 -1.522682 -1.4668290000000002 0.240139
24440 2.0676537 13.842017910000001 -2.1333610800000002 -1.130679 -0.936439 0.196264
24460 2.8259765100000003 13.8849759 -3.6061461900000005 1.727621 -1.4096030000000002 0.427276
24480 0.87747507 14.53402512 -3.41454708 1.500011 -1.410198 0.506871
24500 0.8090699400000001 15.42048615 -1.48191822 0.918524 -0.898192 0.309874
24520 1.08210186 12.44512296 -3.1320877499999997 0.002513 -0.143749 0.248029
24540 1.50526602 12.80557179 -3.82170132 -0.8317549999999999 -0.008409 -0.106212
24560 0.07079877000000001 13.696515990000002 -2.40445062 -1.232189 0.6224689999999999 -0.350167
24580 -1.79761383 13.77749754 4.03156665 -0.996391 3.788512 -0.033179
24600 -1.3512392100000001 14.01594921 6.089635980000001 -1.196198 1.094237 0.187863
24620 -4.73360949 15.9469398 4.20610617 -1.298885 2.381652 -0.129629
24640 -8.55830286 18.214276050000002 1.5648421500000003 -2.599643 2.827866 -0.8314950000000001
24660 -10.393488990000002 13.528568790000001 0.61118262 -3.483245 2.479548 -1.137391
24680 -8.79959943 10.5298578 1.02611619 -3.931733 0.878231 -1.22927
24700 -3.6814477500000002 8.63883315 1.5651462600000001 -2.275662 -0.124087 -1.093573
24720 -0.20223315000000003 7.811055540000001 3.5034649200000003 -0.683295 -0.573125 -0.470851
24740 4.432432680000001 8.14246677 3.99040389 -1.890139 0.8795709999999999 -0.405299
24760 4.0481847900000005 7.64595324 3.07939824 -2.527834 0.577767 -0.302544
24780 0.52391286 4.23648774 1.2633710399999998 -1.328719 -1.505887 0.249022
24800 -1.19166975 3.4154496000000005 2.3716656 -1.126398 -1.348846 0.494857
24820 -2.05297794 2.3047614000000003 3.08448963 -1.556059 -0.531506 0.532469
24840 -2.3667311700000004 1.07760888 2.2418891100000002 -1.711931 0.6482319999999999 0.548028
24860 -2.3683792500000003 0.9845021700000001 1.5593093100000002 -1.523613 1.819819 0.172896
24880 -2.80771029 1.82156004 1.32265287 -1.414778 2.726066 -0.111652
24900 -3.15782919 4.29965433 -0.8394515100000001 -1.7316669999999998 2.173411 -0.425078
24920 -3.18013713 9.727370370000001 -7.616160270000001 -1.934482 0.670063 -0.7204659999999999
24940 -1.7776995300000002 19.55143791 -19.34442729 -1.544319 -0.280847 -0.887437
24960 1.13464422 21.67493013 -17.872230780000002 -1.569042 -1.448437 -0.58808
24980 -1.76797782 11.63919222 -9.4917636 -1.718052 -1.769713 -0.036438
25000 -3.7064436300000003 5.461089660000001 -8.199345150000001 -1.310497 -0.732839 0.052674
25020 -5.2750332 5.129236980000001 -5.210218530000001 -0.093587 0.406738 -0.135771
25040 -7.63727139 12.06595665 -2.37541302 0.746889 0.699633 0.21476
25060 -6.72191991 15.943349340000001 3.9691456200000004 0.790607 0.371827 0.368241
25080 -6.503372730000001 14.428793250000002 -2.6984367 1.057795 -1.306322 0.487626
25100 -6.852304620000001 5.817800879999999 5.19524847 2.153364 -1.7652990000000002 0.298246
25120 -3.1392686700000008 2.8491771600000004 5.62844826 3.1100830000000004 -1.794445 0.097731
25140 -3.12355305 5.837263920000001 4.16643453 3.952964 -1.20032 -0.02533
25160 -3.3858135899999997 8.861274900000002 4.29321897 4.218349 0.320295 -0.105541
25180 -2.29263624 13.050164520000001 6.204148110000001 4.1489129999999985 0.216697 0.287212
25200 2.3890293000000002 14.5675557 8.72445483 3.490179 0.343551 0.037826
25220 2.89079118 12.67175358 4.25205621 1.707199 0.11687 -0.86844
25240 6.08559426 12.02494104 -7.9694281799999995 1.23728 -0.310252 -0.474865
25260 2.8099567800000003 8.920399770000001 -5.50779507 1.932201 1.344413 -0.08543400000000001
25280 -1.08014967 8.55830286 -2.3713713000000007 2.490898 2.244527 -0.292057
25300 -1.4415010200000002 8.15758398 0.05089428 3.041062 1.273934 -0.470704
25320 -2.64245103 8.82759717 -0.20941407000000004 2.2371540000000003 -1.163708 0.29806
25340 -3.13567821 7.59475485 0.28979721 2.346691 -0.420858 0.6471819999999999
25360 -2.5257022200000003 5.91645024 2.338733430000001 2.025681 -0.7706069999999999 0.743664
25380 -1.60107048 6.6951288 1.2175681500000002 1.094351 -0.755536 0.978558
25400 -1.32669459 7.8781167 -1.1334474 0.701221 -1.233034 0.8503729999999999
25420 -0.7937957700000001 8.8669647 -0.49487526 0.27782 -1.308879 0.737486
25440 0.30701375999999997 10.815014880000001 -0.07020036 -0.336131 -1.30305 0.611413
25460 -0.04850064 12.84838263 -1.1011136400000001 -1.021012 -1.23176 0.427076
25480 -1.77920046 12.65408577 -0.98390376 -1.7579189999999998 -1.143089 0.203898
25500 -0.07679268 13.46016366 -1.51590006 -1.617353 -0.845888 0.084858
25520 2.7099634500000005 13.77885132 -2.29711941 1.561138 -1.163134 0.20788
25540 2.47734873 14.80406499 -1.77425622 1.146524 -1.149552 0.367336
25560 1.7612383500000002 16.5512358 -1.8516473100000002 0.599441 -0.408254 0.342268
25580 1.01713023 14.236742880000001 -3.15468999 -0.549262 0.194115 0.150807
25600 0.04041720000000001 12.597207390000001 -4.44650022 -1.02023 0.618344 -0.035692
25620 -1.52846667 12.08407572 -6.1986054600000005 -1.089971 1.207718 -0.3104
25640 -2.8322647200000004 13.42663308 -0.15282999000000003 -0.384592 3.863309 0.178234
25660 -0.02410317 14.630427990000001 6.959027610000001 -1.689075 -0.363206 0.384978
25680 -1.36695483 15.258670200000001 5.310359010000001 -1.463929 1.462951 -0.4105470000000001
25700 -4.85126082 17.7544323 4.85500824 -2.465835 2.797031 -0.961912
25720 -7.81703964 16.70990274 0.59276925 -3.191859 2.2527630000000003 -1.153224
25740 -8.904978450000002 11.00362194 -0.01796211 -3.638441 0.666199 -0.940666
25760 -5.9894955 9.833504759999999 1.44284499 -1.953857 -0.469105 -0.872965
25780 -1.4657513400000002 7.989931080000002 1.29420387 -0.505131 -1.053214 -0.712546
25800 2.06809515 6.366415320000001 3.45915315 -1.934133 -0.129079 -0.408587
25820 4.28065236 7.82408322 3.8574783900000003 -2.650233 0.053584000000000014 -0.179882
25840 1.08105219 5.0708576700000005 1.53520614 -1.372228 -1.168237 0.297423
25860 -1.27279845 3.4995703500000004 2.35071144 -1.145861 -0.797506 0.629678
25880 -2.01466008 1.7624351699999998 2.52030672 -1.605622 0.264719 0.7255189999999999
25900 -2.24248752 2.2758709500000003 1.93023522 -1.730061 2.16393 0.877108
25920 -3.3392553300000003 2.4730029000000004 1.80254826 -1.653544 3.227882 0.343236
25940 -3.91600485 2.4369315300000003 1.6527103200000002 -1.578619 2.874524 -0.065985
25960 -3.87783414 3.0057447600000002 0.9777627 -1.797646 1.379425 -0.545231
25980 -3.42652509 5.952825720000001 -2.55204207 -1.540445 0.048542 -0.945516
26000 -2.14743843 12.902867370000001 -12.181067190000002 -1.306715 -0.920457 -0.982166
26020 -0.45310428 24.89308101 -24.88919625 -1.615249 -2.212168 -0.56606
26040 -0.37422207 16.16248512 -13.710436379999999 -1.634767 -2.067974 -0.112386
26060 -2.38888215 7.363336950000001 -8.98506729 -1.146716 -0.697906 -0.033821
26080 -3.17489859 4.95574713 -7.07084199 0.099025 0.757663 -0.14876199999999998
26100 -5.764365810000001 11.368112490000001 -1.37443986 0.686898 1.000838 0.333596
26120 -5.07370257 15.968345220000002 0.57435588 0.601108 0.513962 0.419078
26140 -2.88225648 8.351586540000001 6.09382485 0.888651 -1.463277 0.457804
26160 -9.696684690000001 10.451868300000001 -9.20600811 2.1414880000000003 -2.210896 0.120341
26180 -5.1025930200000005 5.48459442 7.437579030000001 3.097264 -1.5876290000000002 0.070671
26200 -3.0244622400000005 6.540199470000001 5.78786076 3.754711 -0.8940020000000001 0.000667
26220 -3.26441484 8.78268699 4.1299119 4.2195290000000005 -0.296785 -0.035308
26240 -2.27661651 10.459794780000001 4.100727150000001 4.202971 -0.5972689999999999 0.264064
26260 0.75278016 13.577814990000002 7.59505896 3.372757 -0.134393 0.0483
26280 2.507436 12.756472740000001 6.04921878 1.468848 0.089723 -0.799567
26300 2.27063241 11.331589860000001 0.58798197 1.112941 -0.087636 -0.36065
26320 2.241585 9.79233219 -6.914872800000001 2.034449 1.7151459999999998 0.087857
26340 0.17963091 7.910450460000001 -4.59604386 2.194738 3.227046 -0.119128
26360 -0.6956074800000001 8.471935620000002 -1.31112612 2.80633 1.814677 -0.163253
26380 -0.44846415 8.99868357 -0.43245423 2.29751 -1.239657 0.324216
26400 -2.01720087 8.4798621 1.21113279 2.46143 -0.368748 0.569936
26420 -2.80666062 6.6824052300000005 1.29450798 2.078604 -0.793557 0.576353
26440 -2.368673550000001 6.14651436 0.80787312 1.403158 -1.010824 0.6167779999999999
26460 -2.32406748 8.06927436 -0.71820972 0.854398 -1.078222 0.631191
26480 -1.7443259100000001 8.956176840000001 -0.78182757 0.399689 -1.157471 0.5971380000000001
26500 -0.28530423000000005 10.18496763 0.8165549700000001 -0.225238 -1.125352 0.566026
26520 0.11675862 11.03744682 -1.19047293 -0.917778 -1.086036 0.39236
26540 -0.29683098 12.823828200000001 -0.32631984 -1.875935 -1.284381 0.208596
26560 -1.0912349700000001 12.37985703 -1.3103707500000001 -1.576771 -1.172673 -0.013784
26580 1.8449176500000002 13.507761780000001 -1.8467128800000001 1.842034 -1.581655 0.197559
26600 3.2192103600000004 14.162049540000002 -2.0395088100000005 1.266471 -1.323458 0.329941
26620 1.8652734000000002 15.223638690000001 -0.9993250800000001 0.544563 -0.291878 0.324644
26640 0.19518957000000003 15.40941066 -1.9091339100000002 -0.6030260000000001 0.019922 0.06947
26660 -0.44876826000000003 12.445721370000001 -4.973709240000001 -0.941129 0.123995 -0.088986
26680 0.54950715 12.65483133 -4.78465092 -0.396809 2.894335 -0.4497930000000001
26700 -1.1030560200000001 12.19050441 -4.19816988 -1.2514299999999998 1.9567 -0.193915
26720 -2.26404009 13.95233136 2.11315248 -1.407063 0.65393 -0.340747
26740 -0.23052519000000005 14.42025855 6.6345030000000005 -1.985895 2.571568 -0.6730550000000001
26760 -2.294872920000001 16.52548455 5.57171703 -3.3557940000000004 2.507348 -0.741294
26780 -5.61003489 18.579217860000004 4.30938585 -4.152986 1.565948 -0.925117
26800 -8.48705283 13.695770430000001 -0.68662152 -3.229627 1.164468 -0.958745
26820 -8.82355545 10.20682431 0.40985199 -1.202702 -0.586134 -0.762883
26840 -3.91495518 9.44311581 1.0737143100000002 -0.323068 -2.100846 -0.487742
26860 -0.90861201 7.38234873 2.0460913200000004 -3.156284 -0.551643 -0.236052
26880 4.21598484 7.10946396 4.14233136 -2.320955 -0.259625 0.071715
26900 3.3425514900000004 7.46362458 2.4328898100000007 -1.122444 -0.5304800000000001 0.432947
26920 0.3731724 4.02737778 1.1801430000000002 -1.1895129999999998 0.097778 0.554519
26940 -1.01489355 2.87312337 1.80225396 -1.501228 0.129465 0.626008
26960 -1.91257722 2.3324452200000003 2.16509643 -1.126172 2.099152 0.569488
26980 -2.63677104 2.09743686 1.88697312 -1.333577 3.385615 0.048303
27000 -3.3410505600000007 1.67441985 1.89131895 -1.629761 2.653013 -0.304272
27020 -3.25109286 1.1891289600000001 1.55436507 -1.580982 1.297052 -0.646161
27040 -2.93764374 2.76564501 -0.53558676 -1.331194 0.496636 -0.7641
27060 -2.79453546 8.17449642 -7.0464445200000005 -1.617123 -1.068713 -0.6679510000000001
27080 0.15762708 20.04646032 -18.2147175 -1.740055 -2.107629 -0.227371
27100 0.24084531 25.38241362 -21.265823700000002 -1.792334 -2.1264380000000003 -0.007658
27120 -2.01570975 11.28907332 -10.07764623 -1.264936 -0.7864369999999999 -0.169129
27140 -3.79670544 3.9082255200000002 -7.830969840000002 0.136179 0.4976390000000001 0.109272
27160 -6.39500166 7.12757322 -5.35181607 1.114874 0.222209 0.473247
27180 -6.6430377 14.395115520000001 -1.29645036 1.327315 -1.101891 0.545863
27200 -4.68840501 11.20794462 8.97548292 2.108262 -1.974313 0.392202
27220 -7.81764786 10.626702120000001 -5.473371780000001 2.911369 -2.261683 0.16530799999999998
27240 -4.96682262 7.033720949999999 6.44499342 4.08471 -1.19607 -0.136578
27260 -2.71715418 6.57582939 6.412061250000001 4.648987 0.746884 -0.065692
27280 -2.76460515 8.20024767 5.2676953200000005 4.344058 1.243502 0.148391
27300 -2.27302605 11.274250410000002 5.56153425 3.190615 0.569513 -0.265795
27320 0.95082444 12.79524186 8.05849317 1.625056 0.034403 -0.953297
27340 2.73301695 12.29782581 5.39148771 0.819108 -0.142179 -0.318836
27360 1.7610912000000003 11.220216930000001 1.38955707 1.099224 1.6564020000000002 0.404002
27380 2.3140416600000004 9.45942984 -9.6101703 2.115504 2.7808200000000003 0.450253
27400 0.17603064 8.47717416 -3.7046484 2.909415 0.381415 0.395848
27420 -1.58310837 9.10735875 -2.19264291 2.759485 -0.5030100000000001 0.5871460000000001
27440 -0.9307629900000001 8.07825051 -0.06856209 2.543516 -0.809189 0.6191439999999999
27460 -1.7193202200000002 8.10504162 -0.6216597000000001 1.980904 -1.563726 0.654637
27480 -2.35699965 7.26663978 2.42870094 1.387118 -1.559123 0.551139
27500 -1.44449307 6.9669639000000005 0.99423369 0.792319 -1.661519 0.566344
27520 -1.48191822 7.641607410000001 -0.7535355300000001 0.122665 -1.537924 0.608509
27540 -0.98464932 8.290960740000001 -0.23815737 -0.667528 -1.265463 0.556707
27560 -0.7776288900000001 9.746235 0.5688132300000002 -1.659715 -1.046834 0.289919
27580 -0.46582785000000004 11.21961852 -1.1337417 -2.574501 -0.532042 -0.04828
27600 -1.22175702 12.814999199999999 -0.6125265900000001 -1.4191790000000002 -0.13012200000000002 -0.32807600000000003
27620 -0.98091171 12.86888553 -1.27460349 1.3144360000000002 -1.373531 0.289747
27640 2.37182256 14.50723401 -1.73593836 1.073136 -1.288086 0.176857
27660 4.285292490000001 14.705415630000001 -3.0482613 0.326623 -0.4326060000000001 0.009245
27680 3.04347402 17.17393536 -2.44291563 -0.617699 -0.050879 -0.060865
27700 1.4584134600000003 15.55894449 -2.8192370400000004 -1.264099 0.940748 -0.529191
27720 0.022906350000000002 13.98362526 -2.7113074200000002 -1.3397370000000002 3.3632440000000003 -0.744332
27740 -1.6486686 12.289595220000002 -4.7304604800000005 -3.68023 0.6250220000000001 -0.464478
27760 -4.26956706 12.444966 -3.42547542 0.297277 0.582911 -0.042468
27780 -1.40378157 13.50506403 5.80493016 -0.17416800000000002 4.497905 -0.192851
27800 -2.04145119 15.297292170000002 5.822293860000001 -2.167081 2.202399 -0.370473
27820 -5.36723739 17.93225817 4.36671549 -2.6595560000000003 -0.192288 -0.489417
27840 -7.343128350000001 16.190031599999998 3.01578039 -1.950603 -1.02672 -0.490873
27860 -7.927961310000001 10.84539645 0.71206866 -0.553094 -1.281012 -0.713658
27880 -5.87887794 8.97877908 1.6965708300000002 -0.558955 -1.6462290000000002 -0.485699
27900 -0.21974400000000002 9.277552440000001 1.1397258000000001 -3.186779 -1.003862 -0.074384
27920 4.909188870000001 8.571771990000002 3.2566257 -2.102711 -0.450611 0.224103
27940 4.218074370000001 7.84039725 2.2688273700000003 -1.255622 -0.139514 0.5458149999999999
27960 0.62135559 3.81107709 1.33267869 -1.7586540000000002 0.582917 0.6716989999999999
27980 -0.47406825 2.7532255500000007 2.24308593 -2.253358 1.170388 0.708083
28000 -1.6340026500000002 1.69432434 2.80471824 -1.934269 1.985787 0.316161
28020 -2.73271284 2.1395021400000003 2.5631175600000002 -1.448835 2.500482 0.120203
28040 -3.86077455 1.7595902700000001 2.4055002900000004 -1.229747 2.074704 -0.152254
28060 -4.5792785700000005 1.2611245500000001 2.4343907400000004 -1.573087 0.92415 -0.639219
28080 -3.79371339 1.85704281 2.1013314300000006 -1.6954209999999998 0.702084 -0.943164
28100 -3.2701046400000005 6.0134417099999995 -1.75225239 -1.843857 -0.705883 -0.8964629999999999
28120 -2.13306678 13.693229640000002 -12.322674540000001 -1.85086 -2.25565 -0.410621
28140 3.184326 29.356052220000002 -28.632005550000002 -1.656039 -1.896069 -0.192872
28160 -1.2350790000000003 17.2457838 -11.638446660000001 -0.6295569999999999 0.221622 0.0017280000000000002
28180 -2.0907072 5.958809820000001 -7.878862260000001 0.641409 1.098002 0.583118
28200 -2.3972697000000003 1.3822290000000002 -3.90298698 0.790343 0.939011 0.5202680000000001
28220 -5.08851567 6.25758318 2.3486121000000004 0.790671 -0.544388 0.387576
28240 -6.03110952 8.91875169 8.536446180000002 2.048412 -2.278706 0.109095
28260 -8.36221077 14.597348670000002 6.458766659999999 3.13862 -1.939081 0.012658
28280 -8.59812165 27.55006065 -22.03987194 4.174633 -0.576703 -0.058763
28300 0.45310428 8.07136389 12.0863124 4.370556 0.529525 0.18581
28320 -1.7768068200000002 6.46026759 3.79056438 3.969814 0.300201 0.339265
28340 -1.7055567900000002 5.74056675 3.7901229300000003 3.145154 -0.567761 -0.070239
28360 -0.28590264 6.41894787 5.896535940000001 1.935617 -0.971875 -0.7917420000000001
28380 1.45123254 11.559407490000002 8.11388043 1.573348 0.274987 -0.6003850000000001
28400 1.66019535 13.15643625 5.43056094 1.64167 2.7374560000000003 -0.281529
28420 1.9896642 12.702135150000002 -4.02018705 1.932321 3.322311 -0.271702
28440 -0.00494424 9.51900597 -2.8797156900000003 3.017159 1.647949 -0.475624
28460 -1.81722402 7.45210764 -1.38387708 1.926116 -0.349786 0.288435
28480 -2.07349065 7.9577542800000005 -0.24204213000000002 1.949434 -0.390104 0.759736
28500 -2.6548803000000003 8.41205538 0.7114702500000001 1.93956 -0.915292 0.769954
28520 -4.48242444 8.34544548 0.01018278 1.393233 -1.256061 0.6811159999999999
28540 -2.21718753 5.989044240000001 0.48065076 0.914965 -1.624851 0.614155
28560 -1.4964370200000001 6.04338183 0.31030011 0.485187 -1.643358 0.553493
28580 -1.9217005200000001 6.525533520000001 -0.91504737 -0.331375 -1.23897 0.566499
28600 -2.30984298 8.689727430000001 0.8238830400000001 -1.272766 -0.466201 0.472407
28620 -1.6347482100000001 11.121577380000002 0.9609974100000002 -2.167584 -0.22973 -0.07787100000000001
28640 -0.31479309 12.66126669 -1.6233784199999999 -1.6360059999999998 -0.264338 -0.408467
28660 0.04984461 13.219014240000002 -0.8672922900000001 1.076125 -1.027496 0.008833
28680 2.52494685 13.052254049999998 -1.7904231000000002 1.1079139999999998 -1.791178 0.483256
28700 4.33767789 12.657224970000001 -3.3263846100000003 0.736757 -0.553197 0.505783
28720 1.40677362 14.103218970000002 -2.8455867 -0.206839 0.021109 0.228196
28740 -0.21704625 16.88758146 -1.4395586400000002 -1.526017 0.693128 -0.183531
28760 -0.6331864500000001 13.802493420000001 -3.01427946 -1.627053 3.104225 -0.456519
28780 0.40086603 13.427231490000002 -5.31485199 -2.330846 3.1644970000000003 -0.001108
28800 0.03023442 13.82630229 -4.58975565 -0.5797180000000001 -0.492551 0.06815299999999999
28820 -1.50466761 14.021040600000001 2.6116182 -0.232349 2.471845 -0.432079
28840 -0.38933928 14.73894621 7.55493606 -2.160868 2.771533 -0.710853
28860 -3.9312790200000003 15.35730975 5.15497842 -3.038002 1.039405 -0.7521479999999999
28880 -8.43391206 18.02686581 2.7828615600000006 -2.43774 -0.567678 -0.8441719999999999
28900 -10.29828294 14.688051930000002 1.13838183 -0.790283 -0.987873 -0.8214440000000001
28920 -8.61144363 11.248361820000001 1.13015124 -0.198091 -1.002491 -0.610054
28940 -4.18080618 9.305844480000001 1.1642802300000001 -2.731201 -0.13266 -0.154572
28960 -0.93899358 8.305175430000002 2.97955206 -3.139581 -0.05877200000000001 0.103127
28980 4.29172785 8.32793463 3.7769481000000003 -1.583735 -1.056332 0.467786
29000 5.51198394 6.9231033900000005 3.7420637400000003 -1.227325 -0.14325 0.656045
29020 1.29046626 5.79115692 1.3584299400000002 -1.7198240000000002 1.451794 0.73495
29040 -0.86116104 3.7095828300000004 2.05192827 -1.5867209999999998 2.346995 0.26151
29060 -1.87036479 2.11510467 1.9577817000000002 -1.516738 2.540203 -0.163401
29080 -2.6747847900000004 1.28522772 2.10042891 -1.848441 1.836095 -0.417984
29100 -3.5094490200000004 0.59171958 2.06061012 -1.799739 1.252039 -0.921096
29120 -4.432736790000001 0.29742939 1.7461211400000003 -1.574705 0.267964 -1.175705
29140 -5.1759325800000004 1.7820453600000001 0.41942655 -2.020135 -1.997244 -0.948382
29160 -5.33760138 7.03686996 -5.322631320000001 -1.795961 -2.693382 -0.482316
29180 -1.0493168400000001 15.16466097 -13.889763180000001 -1.592912 -1.768807 -0.105
29200 1.86407658 24.676633170000002 -20.62157157 -0.529107 0.4929270000000001 -5.5e-05
29220 0.37182843 16.51785237 -10.618765830000001 1.008738 0.979349 0.632837
29240 -1.17401175 7.323223860000001 -7.68981375 0.749908 0.7622770000000001 0.795814
29260 -2.19429099 4.14832527 -6.11358219 0.562825 -0.686305 0.37762
29280 -4.6131034500000005 8.8037883 0.6303415499999999 1.884386 -2.222828 -0.135677
29300 -5.43714345 10.433150820000002 6.754852080000001 3.258618 -1.2338049999999998 -0.107049
29320 -8.971745310000001 16.40947149 -1.1319464700000001 4.255599 -0.447646 0.097597
29340 -8.508909509999999 17.8412508 -2.24907003 4.491021 -0.149582 0.4791470000000001
29360 -2.54321307 4.39261389 8.16836517 3.948962 -0.384266 0.497025
29380 -3.38177187 5.9857480800000005 4.536320580000002 2.762853 -0.753487 -0.179493
29400 -2.5611751800000007 6.9647174099999996 4.373759070000001 1.672094 -0.919081 -0.978453
29420 0.09430353000000001 9.759556980000001 7.024744800000001 1.436287 -0.929846 -0.746145
29440 2.29816908 12.584778120000001 8.136031410000001 1.615367 3.136596 -0.440321
29460 1.39031244 12.62954115 4.75007067 1.37288 5.315597 -0.092294
29480 1.8961062300000002 11.6610489 -5.21620263 1.680721 3.4783660000000003 0.08098999999999999
