time Ax Ay Az Gx Gy Gz
20 -0.35341506000000006 11.11349394 -5.24299374 -0.352473 -0.471497 -0.8639129999999999
40 -1.6104978900000002 10.986258240000002 -5.864055030000001 -0.552496 -2.203009 -0.5810810000000001
60 -7.12099071 17.00403597 -4.32810333 -0.932957 -1.317825 -0.5026189999999999
80 -10.60574796 13.064536170000002 3.8913032700000003 -1.306611 -0.50116 -0.344974
100 -6.98941899 6.687496620000001 2.36314071 -1.280292 -0.394514 -0.39727
120 -3.7975981500000002 3.7880235900000003 -2.12018625 -1.116106 -0.569191 -0.546519
140 -2.41342677 1.91616768 -0.26599815 -0.94612 -0.659654 -0.715063
160 -1.85494347 3.0069513900000002 5.0467545 -0.975237 -0.477556 -0.939826
180 -4.26657501 6.11149266 6.44769117 -0.916762 -0.125905 -1.017848
200 -4.80007224 9.47499831 3.16875753 -0.805036 -0.059825 -1.122907
220 -3.4851986999999998 13.199099940000002 1.12056687 -0.8395309999999999 -0.189463 -1.174256
240 -0.47151765 13.791574890000001 1.11278754 -1.04934 -0.206335 -1.035763
260 2.11001328 9.73470825 -0.71101899 -0.915594 -0.391913 -0.8305610000000001
280 0.10283823 7.532637930000001 -1.0659349800000002 -0.628073 -0.224693 -0.540347
300 -1.60002081 7.307508240000001 0.604296 -0.278208 0.873959 -0.13338599999999998
320 -2.37960189 6.9486976799999995 1.3546825200000003 0.063601 1.113981 0.019313
340 -2.6836236 6.752154330000001 0.9632439 0.331214 0.372641 0.030678
360 -2.39711274 7.110366480000001 -0.70697727 0.646193 -0.0014880000000000002 0.078223
380 -2.28544551 7.788904560000001 -0.5912683200000002 1.450181 0.063444 0.724689
400 -2.4581898000000004 8.336910779999998 0.72089766 2.029735 0.029075 1.356895
420 -2.3779538100000006 9.339227910000002 0.75787155 2.8229 0.664291 1.656451
440 -1.9447540200000002 10.5882273 1.4760812700000003 2.686073 0.642249 1.692911
460 -1.1047041 10.98011718 2.9325523500000004 2.545261 1.082852 1.653975
480 0.5086386900000001 12.148586279999998 1.08554517 2.064597 1.4647 1.6843119999999998
500 0.7381142100000001 12.67968006 -2.40654996 1.501053 1.613717 1.404583
520 0.63273519 12.35830446 0.8884034100000001 1.2690549999999998 1.050699 0.945417
540 -0.30297204000000005 11.287582200000001 3.55061178 1.2667190000000002 -0.048347 0.601773
560 0.8201454300000001 11.05571304 1.16442738 1.0929719999999998 -0.501169 1.30403
580 1.894311 12.251875770000002 -1.6058577600000001 1.518257 0.207867 2.109395
600 0.49891698 14.412479220000002 0.7662591000000001 1.289259 -0.306317 2.221686
620 -0.18860706000000002 15.115718880000001 0.98091171 1.076684 -1.255087 2.041955
640 -2.03800788 15.55580529 -0.89873334 1.206185 -2.088794 1.829216
660 -6.2095338 14.93668638 1.8248562 1.427385 -2.585578 1.728848
680 -9.8418825 14.40693657 2.01361041 1.505999 -2.536392 1.615034
700 -10.480160340000001 13.995897570000002 -0.23830452000000002 1.293434 -2.280397 1.450852
720 -9.66121173 12.735067320000002 -1.5364029600000002 0.802804 -1.991364 0.991992
740 -7.22023848 10.492726950000002 -1.8323412300000002 0.122272 -1.502418 0.25488
760 -4.71579453 8.78627745 -0.33186249000000007 -0.552095 -0.986117 -0.402108
780 -0.7262931600000001 9.08475651 1.1964668400000003 -1.040975 -0.741995 -0.820306
800 2.50578792 9.433835550000001 0.7697024100000001 -1.574591 -0.79982 -1.0814
820 1.25947647 7.9327584 -0.6298902900000001 -1.914318 -0.971991 -1.1540549999999998
840 -0.34802937000000006 5.8130136000000014 -0.25387299 -1.433981 -1.053023 -1.28626
860 -1.6536128400000003 4.92326622 1.0912349700000001 -0.486696 -0.935567 -1.377002
880 -2.04833781 4.27346163 1.72022274 0.620178 -0.71677 -0.310943
900 -1.71677943 4.27855302 0.5936619599999999 0.642364 -1.399457 0.961271
920 -1.6554080700000002 3.98741184 -1.5114070800000001 0.821946 -1.8979 1.577391
940 -2.30835186 3.1237002 -2.18485377 0.4119350000000001 -1.996501 1.549016
960 -3.14376165 2.04579702 -2.71744848 -0.480166 -0.586922 0.138403
980 -2.62883475 2.52958698 -4.0938405300000005 -1.389063 0.8468190000000001 -2.50295
1000 -1.16368182 4.57044957 -4.99361373 -0.953192 2.253368 0.215849
1020 0.04161402 6.311626470000001 -5.767652160000001 -0.068526 0.8775780000000001 1.175577
1040 0.80802027 7.914040920000001 -7.037615520000001 -0.43987 -0.292322 0.489752
1060 2.3050557 11.606417010000001 -10.37732211 -2.044276 1.775768 -0.346635
1080 4.568046120000002 17.58977145 -10.89659484 -4.488003 3.654064 -1.211075
1100 5.36888547 22.237602300000002 -6.744375000000001 -5.433506 4.627189 -1.854519
1120 4.11000741 18.94924125 -3.94474815 -3.631579 3.5785760000000004 -1.457097
1140 2.7039793500000004 11.65012056 -5.75942157 -1.814702 1.164957 -1.241556
1160 2.9213297099999997 6.996904020000001 -6.5508237000000005 -0.6787310000000001 -0.657974 -1.099894
1180 -0.7315317000000001 8.95842333 -3.3633585 -0.408425 -1.402742 -0.500983
1200 -10.97577135 21.13035741 0.23980545000000003 -1.320669 -1.522699 -0.614024
1220 -21.506678820000005 18.24106716 5.26530168 -1.209673 -0.641573 -0.213794
1240 -8.804386710000001 8.07346323 -0.47062494000000005 -1.215075 -0.077378 -0.108801
1260 -2.7719332199999998 4.24157913 -4.31342757 -1.236648 0.78783 -0.141039
1280 -1.77485463 1.01339262 -1.3810321799999998 -1.061734 1.283395 -0.345551
1300 -2.6710471800000004 0.79618941 2.92117275 -1.021711 1.331381 -0.6583220000000001
1320 -5.3157447 4.8814952400000005 5.163209010000001 -1.091474 0.948231 -0.951011
1340 -7.867041210000001 5.8466913300000005 5.2147017 -1.15252 0.199384 -1.1748040000000002
1360 -2.6698503600000003 10.06461855 4.12452621 -1.116119 -0.515418 -1.205681
1380 -0.5827336200000001 11.4441498 6.11149266 -0.844093 -0.359362 -1.040543
1400 0.5688132300000002 9.51376743 4.53841011 -0.847577 0.329832 -0.761576
1420 2.9017195200000003 9.43144191 -1.41964434 -0.530275 0.6517729999999999 -0.295096
1440 -1.0880859600000001 8.8669647 -0.18471249 -0.131424 0.5951770000000001 -0.07432000000000001
1460 -2.02963014 8.690629950000002 -0.26599815 0.21255 0.03661 -0.015653999999999998
1480 -2.7415516500000003 8.62027263 -0.83990277 0.511473 0.205506 0.112268
1500 -2.6174551500000005 7.958352690000001 -0.9479795400000001 1.376024 0.661189 0.491601
1520 -2.83001823 7.52739939 0.16660323000000002 2.048775 0.15808699999999998 1.046011
1540 -2.74648608 7.67244024 2.3632878600000002 2.86614 0.716634 1.582979
1560 -1.5846093 9.14463675 3.2030434800000003 3.044876 0.991319 1.733426
1580 -0.33545295 10.878181470000003 2.38379076 2.119479 1.120213 1.471492
1600 1.55092176 11.77106805 0.6286934700000001 1.875415 1.74823 1.806541
1620 3.12175782 13.11168303 -0.8057737800000001 1.569194 1.679137 1.502183
1640 1.4566182300000001 13.535749710000001 0.47211606000000006 1.645606 0.7747539999999999 1.160977
1660 0.57540555 12.55798701 2.23545375 1.940075 -0.395051 0.939138
1680 0.5213622600000001 11.293262190000002 1.60735869 2.222254 -0.143048 1.077518
1700 1.7561469600000001 11.436664770000002 -2.16420372 1.970882 0.288962 1.418108
1720 1.5825099599999999 12.216844259999998 -1.74731796 2.153201 -0.153998 1.477633
1740 -1.8799393500000001 13.86342333 4.14622593 2.08143 -1.160464 1.484831
1760 -2.86713927 13.70146023 2.59470576 1.753839 -1.947375 1.420526
1780 -3.0876288300000003 13.600564380000002 -1.5898478400000002 1.961494 -2.014225 1.44129
1800 -6.173609580000001 17.171394570000004 2.34157833 2.311938 -2.06592 1.27823
1820 -8.60500827 16.552579769999998 4.7921359500000005 2.272811 -2.120755 0.906286
1840 -10.19979054 16.07477391 1.86931512 1.518196 -1.934136 0.446781
1860 -10.79524773 14.603931180000002 -0.8530776 0.381718 -1.522354 -0.045589
1880 -7.945030710000001 11.16154332 -1.99744353 -0.73711 -1.518385 -0.6003390000000001
1900 -4.79931687 8.429723189999999 1.22385636 -1.880659 -1.75311 -1.1154309999999998
1920 -1.29151593 7.673489910000001 0.77014386 -2.531944 -1.851013 -1.109173
1940 -0.9225324 5.623209719999999 0.88121268 -0.599328 -0.241932 -0.78261
1960 -1.8390708900000001 5.14824876 1.46589849 0.065815 0.513299 -1.08017
1980 -2.41732134 4.777470000000001 1.8528441300000003 0.482769 -0.5429350000000001 0.29142
2000 -2.1713846400000003 4.3188230700000005 1.90329696 0.989786 -1.611819 1.551492
2020 -1.3389669 4.1356017000000005 2.1980286 0.788993 -1.672745 1.77663
2040 -0.50564664 3.7910156400000004 0.42077052000000004 0.624576 -0.391566 0.941695
2060 -1.4907472200000003 3.34704447 -1.5789195000000003 -0.375874 1.284579 -1.500851
2080 -2.99856384 2.1953308500000004 -1.74731796 -0.634038 3.4628650000000003 -1.226639
2100 -3.2398604100000004 0.56821482 -2.30235795 -0.749037 2.126955 0.4823560000000001
2120 -1.4480933400000002 0.8060778900000001 -4.4768916 -1.500537 1.478913 0.157471
2140 0.57375747 4.23215172 -7.030434600000001 -2.980189 2.72159 -0.298837
2160 1.82186415 9.17771607 -11.146416300000002 -5.632886 3.900693 -1.421282
2180 4.71010473 18.37249173 -19.03770783 -5.733711 4.359432 -2.033598
2200 -0.12828537000000004 23.022421920000003 -9.902959560000001 -4.1532019999999985 4.656619999999998 -2.065667
2220 -3.8257430400000003 19.832111820000005 -4.22107623 -2.5844 3.957293 -1.4353129999999998
2240 -0.06885639 11.718682650000002 -8.73583443 -1.604544 0.665756 -1.260812
2260 2.7484382700000003 5.733376020000001 -9.512717760000001 -0.011617 -1.689705 -1.009522
2280 -1.8851778900000002 10.10353482 -8.30129067 -0.978563 -2.54351 -0.8410620000000001
2300 -11.02517451 24.078625380000002 -1.43985294 -1.365339 -0.90195 -0.498695
2320 -19.287990360000002 15.547869 4.73105889 -1.459523 -0.042803 -0.284673
2340 -7.2155983500000005 5.896535940000001 2.28395439 -1.309119 -0.161121 -0.396702
2360 -3.8158643700000003 2.51238024 -2.03666391 -0.950836 0.037775 -0.629463
2380 -2.7366074100000004 1.4985363600000001 0.057633750000000004 -0.986516 0.40638 -0.869467
2400 -2.65473315 2.3656815 4.78719171 -1.058696 0.486426 -1.110423
2420 -4.950802889999999 4.18649598 6.762788370000001 -1.163483 0.312578 -1.233778
2440 -5.41408995 7.237749330000001 2.42136306 -0.976916 -0.050839 -1.089936
2460 -3.82365351 11.278743390000002 2.3454729000000003 -0.724326 -0.060329 -0.8008069999999999
2480 -2.30161239 11.83034988 7.532490780000001 -0.529395 0.38423 -0.522278
2500 0.97641873 10.99972737 4.7006773200000005 -0.369859 0.632568 -0.160423
2520 4.383039330000002 9.6594165 -0.11960352 -0.142689 0.530072 0.232265
2540 0.5806440900000001 8.51982804 -0.10747836000000001 0.245306 0.375735 0.396474
2560 -1.5615558 7.3685754900000004 0.7384183200000001 1.050536 0.298535 0.622251
2580 -2.6206041600000005 6.55890714 -0.46194309 1.918606 -0.110854 1.015536
2600 -3.04062912 6.77775843 -0.6303415499999999 2.259223 -0.079739 1.463324
2620 -3.10873995 7.94907243 0.1938456 3.329759 1.259736 1.7607099999999998
2640 -2.80681758 8.9711469 0.77539221 2.763029 1.6451619999999998 1.238169
2660 -2.4382755 10.009682549999999 0.5956141500000001 2.235575 1.659468 1.580571
2680 -0.78556518 10.661125410000002 1.1298471300000001 2.0068200000000003 2.38516 1.4530610000000002
2700 1.656909 11.15824716 1.78518456 1.555918 1.955356 1.16952
2720 2.32780509 12.98998998 1.07446968 1.748445 1.5732700000000002 0.916049
2740 1.03494519 14.101570890000001 2.2200324300000007 1.760074 0.412941 0.966755
2760 1.21397769 12.649445640000001 1.46739942 1.992126 0.295279 1.684236
2780 1.03629897 11.004661800000001 -0.17423541000000003 2.281565 0.207659 1.766486
2800 -0.026192700000000003 11.80265625 0.9174410100000001 1.963171 -0.7132229999999999 1.896834
2820 -2.1983327100000003 14.60692323 3.96689913 2.115907 -2.077398 1.919945
2840 -3.2693492699999998 16.67262474 1.6393883400000002 2.349207 -2.525092 1.787552
2860 -4.201466040000001 15.62765373 -2.50578792 2.200941 -2.311505 1.517051
2880 -7.61945643 16.562007180000002 0.7399094400000001 1.872266 -2.14407 1.222916
2900 -10.77833529 15.89454459 2.68422201 1.5517729999999998 -2.217717 1.003923
2920 -10.606493519999999 14.44526424 0.71012628 1.078351 -1.940291 0.5024689999999999
2940 -9.709113960000002 11.785890960000001 -1.63325709 0.259848 -1.4395 -0.14695999999999998
2960 -5.240148840000001 9.245974050000001 -1.2031965 -0.8500610000000001 -1.332302 -0.68362
2980 -2.7879529499999998 8.5692312 2.8303125300000005 -2.145203 -1.231417 -1.079492
3000 0.6373753200000001 9.699676740000001 2.19383973 -2.859081 -1.136854 -1.197831
3020 0.93735531 8.26461108 0.35401347000000005 -1.83153 -0.339461 -0.898983
3040 -1.2308901300000001 6.50038068 0.74485368 -0.715899 -0.231386 -1.187226
3060 -2.6548803000000003 4.9801446 2.4171741900000003 0.06184700000000001 -0.365338 -0.598372
3080 -2.69035326 4.12227972 1.2560331599999999 0.696936 -0.999722 0.850045
3100 -2.21434263 3.28895946 1.14362037 0.965945 -1.186821 1.583895
3120 -2.30625252 2.8708768800000004 -0.53678358 1.088625 -0.408183 0.699267
3140 -2.8901927700000005 3.1204138500000003 -1.60436664 1.000681 0.8823799999999999 -1.481106
3160 -3.10020525 3.2111269200000003 -1.75659822 -0.484651 1.429214 0.7820630000000001
3180 -3.2078307600000002 2.1752792100000002 -2.11539897 -1.436348 0.107108 1.364631
3200 -1.8200689200000002 1.5058644300000001 -3.48535566 -0.8486969999999999 0.495007 1.087297
3220 0.40969503 2.8006765200000006 -5.0783427 -1.6095389999999998 2.866162 -0.07900900000000001
3240 1.3509449100000002 5.639818050000001 -7.19493849 -4.31205 3.944827 -1.615075
3260 1.2696592500000001 10.230623370000002 -12.15023436 -5.319349 4.026155 -2.696847
3280 0.7803266400000001 16.93818144 -15.20792307 -4.283803 4.040128 -2.826364
3300 -0.23725485000000002 21.65336775 -9.000037350000001 -3.130439 3.358737 -2.324984
3320 -0.04056435 19.88794053 -5.44792464 -2.694782 1.275048 -1.635609
3340 3.5811503100000004 12.09410154 -7.901170200000001 -0.964118 -0.710395 -0.797377
3360 2.44202292 11.48202621 -9.13565079 -0.445532 -1.519006 -0.431659
3380 -6.9006483 25.175844450000003 -8.347093560000001 -0.8781540000000001 -0.83725 -0.584037
3400 -14.12507565 22.16725479 6.460866 -1.258425 -0.519207 -0.402299
3420 -7.87766544 4.7142936 7.342677090000001 -1.239385 -0.612788 -0.45973
3440 -6.30967428 -1.5004787400000001 -2.9196816300000004 -1.135278 -0.455678 -0.678189
3460 -6.915471210000001 0.12558762 -5.17099815 -1.026399 0.069925 -0.8778600000000001
3480 -5.37412401 0.65174697 0.9472339800000001 -0.937879 0.399344 -1.016533
3500 -5.0847780600000005 4.42884222 4.782855690000001 -1.040475 0.360287 -1.017199
3520 -5.8323196799999995 5.6893683600000005 4.01734215 -1.055789 -0.107682 -0.925908
3540 -4.1257230300000005 9.223823070000002 1.84910652 -0.880682 -0.703063 -0.838464
3560 -2.9303058600000003 12.584925270000001 1.51320231 -0.5468350000000001 -0.414648 -0.526717
3580 -1.46859624 12.32956116 7.83320652 -0.315679 0.534561 -0.20692
3600 2.72358954 10.482397020000002 4.87401021 -0.027959 0.6118819999999999 0.187028
3620 3.0551479200000005 7.1877575700000005 -1.3584299400000002 0.275059 0.238654 0.285763
3640 -1.18358631 7.57829367 -0.10028763 0.773188 0.410833 0.485574
3660 -2.62838349 7.78381317 1.07895285 1.779893 0.554426 0.732772
3680 -2.5912624500000003 7.5579379200000005 -0.5418749700000001 2.277359 0.252073 1.319883
3700 -1.93128489 7.95116196 -1.8179695800000002 2.966237 1.3471959999999998 1.782627
3720 -1.7293558500000001 8.279581140000001 -1.2958519500000003 2.780428 1.289225 1.522894
3740 -2.1157030800000003 9.03400938 0.76296294 2.3135950000000003 1.461973 1.351701
3760 -1.73474154 10.06686504 3.08853135 2.121878 1.969978 1.550537
3780 -0.34308513000000007 10.941799320000001 2.6952975 1.71396 1.808625 1.229564
3800 1.02192732 12.15188244 0.33021441000000007 1.662925 0.8460030000000001 1.17703
3820 2.15416809 13.90623417 -1.08583947 1.934211 -0.087922 1.127779
3840 1.1139843600000001 14.25919797 1.55407077 1.692906 -0.088203 1.407036
3860 1.2000573 12.90062088 1.72965015 1.809136 0.24131100000000005 1.752461
3880 0.7607164500000001 12.06939996 -1.68145362 1.7401669999999998 -0.041291 1.622019
3900 0.3097017 11.72706039 -1.5703848 1.677943 -1.293882 1.632803
3920 -2.87701794 14.04798867 2.23679772 1.896154 -2.189186 1.561767
3940 -4.287087720000001 14.42594835 0.85277349 2.197182 -2.663073 1.527089
3960 -4.9392761400000005 13.729899420000002 -2.38349646 2.20085 -2.3264400000000003 1.522411
3980 -7.36154172 15.24819312 1.4582663100000002 1.876864 -2.144852 1.148174
4000 -8.46519615 16.59718584 4.938226470000001 1.370703 -2.046215 0.6306970000000001
4020 -8.14800942 15.742764270000002 2.6672997600000006 0.449705 -1.499511 0.043519
4040 -9.14059503 13.43995506 -0.48708612000000007 -0.681269 -1.414276 -0.5765819999999999
4060 -6.975341640000001 10.5996069 -1.0782072900000002 -1.783493 -1.553908 -0.932342
4080 -2.6709000300000003 9.231308100000001 -0.48184758000000005 -2.431517 -1.896752 -0.947111
4100 -1.6197781500000001 8.58389715 1.18193823 -1.071566 -0.8295319999999999 -0.747768
4120 -0.4742154 6.1113455100000005 -0.28874754 -0.5010720000000001 -0.257254 -1.297855
4140 -1.85494347 4.53871422 0.47122335000000004 0.419463 -1.356718 -0.207908
4160 -2.109709170000001 3.74042547 2.25880155 1.331635 -2.0857080000000003 1.21586
4180 -2.2609008900000003 3.5970228900000003 2.5083385200000006 1.449989 -1.785075 1.057137
4200 -2.61221661 4.20056352 1.9637658 0.8430770000000001 -0.54606 -0.8362379999999999
4220 -1.75315491 4.344711660000001 0.210915 0.06642200000000001 1.532511 0.047638
4240 -2.34652257 3.4961270400000006 -1.1752085700000001 -1.383644 1.873113 1.374487
4260 -3.44104389 2.68541883 -2.15656173 -2.632928 0.975745 0.694999
4280 -3.2823769499999997 1.5073653599999999 -2.95904916 -2.179569 3.016403 0.139007
4300 -1.5199417800000004 1.48236948 -4.604872860000001 -3.877801 3.838411 -1.486924
4320 0.37227969 4.108055220000001 -6.575378130000001 -5.062348 3.573497 -2.408188
4340 2.23440408 8.708140799999999 -10.9118592 -3.966333 3.823447 -2.461741
4360 6.6780594 15.87808341 -17.04834774 -2.329007 3.168443 -2.318074
4380 3.3311718900000002 21.82056939 -11.96237286 -1.879872 1.05454 -1.810163
4400 -2.8979721 22.15153917 -5.60075463 -1.072058 -0.6043029999999999 -1.127279
4420 -1.3524360300000002 14.790144600000001 -7.65193734 -0.5747359999999999 -1.40842 -0.535253
4440 -2.39546466 14.05667052 -10.13153256 -1.218232 -1.0712700000000002 -0.640592
4460 -8.28137637 23.453826480000004 -9.0784683 -1.165001 -0.568751 -0.348172
4480 -11.42589339 18.205142940000005 5.14016532 -1.1528969999999998 -0.566341 -0.428207
4500 -4.7316573 0.96115437 5.1085771200000005 -1.1673360000000002 -0.770513 -0.506026
4520 -4.00133223 -1.28567898 -0.20133063 -1.070828 -0.608187 -0.690362
4540 -3.5100474300000006 -0.47914983 -2.22856713 -0.930163 -0.008622 -0.765992
4560 -3.69102231 1.5552675900000001 2.58497424 -0.856977 0.269567 -0.867318
4580 -5.833369350000001 4.37854635 5.52276513 -0.865032 -0.148855 -0.918113
4600 -5.777236530000001 5.749542900000001 3.92199876 -0.96806 -0.423838 -1.059486
4620 -3.28192569 8.9711469 0.8333202600000001 -0.660729 -0.6210220000000001 -1.032517
4640 -2.05837344 12.75901353 0.7699967099999999 -0.693897 -0.213566 -0.601709
4660 -0.12903093000000002 11.2762026 6.48196731 -0.471535 0.488447 0.004626
4680 2.6548803000000003 10.114914420000002 1.98367029 0.01407 0.581342 0.062378
4700 0.86999004 8.55007227 0.045802890000000006 0.353563 0.393843 0.303204
4720 -2.2962267 8.424778950000002 2.07289224 0.938618 0.57477 0.637139
4740 -3.0894240600000007 7.79967594 1.5640965900000001 2.030668 0.719122 0.8870680000000001
4760 -3.4323620400000006 7.92960939 -0.7837699500000002 2.5504580000000003 1.005149 1.367828
4780 -1.9719963900000002 8.36699805 -2.0697432300000003 3.250461 1.750727 1.854598
4800 -1.5383551500000001 8.680898430000001 -0.76490532 3.086373 1.4386 1.731007
4820 -2.50114779 8.94929022 1.4775822 2.157985 0.780754 1.347214
4840 -3.0455635500000007 9.3212658 2.50609203 2.207376 1.631352 1.17769
4860 -2.46462516 10.59451551 1.3076828100000002 1.687544 0.8353799999999999 1.148373
4880 -1.2650191200000003 11.800556910000001 -0.5146326 2.203641 0.012668 1.579253
4900 0.04759812000000001 13.124259450000002 -0.95501331 2.476257 -0.376731 2.018559
4920 0.78436836 13.588596180000001 0.6828839100000001 2.347232 -0.472665 2.144899
4940 2.5258493700000004 13.25718495 1.33911405 2.543993 -0.633046 2.12191
4960 1.6956781200000002 13.10015628 -0.8273263500000001 2.164813 -1.055348 2.03114
4980 0.98375661 12.378356100000001 -3.4130559600000003 1.699943 -1.7884209999999998 1.942306
5000 -0.69724575 11.5682463 -1.0500624 1.777939 -1.951985 1.7529169999999998
5020 -4.4336295 12.958548930000001 1.40378157 1.928031 -2.297635 1.482012
5040 -5.22098991 11.086840170000002 1.0629429300000002 2.005413 -2.55193 1.338669
5060 -4.9633793100000005 13.85369181 -0.5327418599999999 1.712663 -2.358515 0.910155
5080 -6.76353393 17.091158580000002 4.36252662 1.081305 -2.007474 0.251544
5100 -6.925497030000001 17.90666388 4.64753655 0.173438 -2.003429 -0.238708
5120 -8.69601564 16.312332870000002 1.51021026 -1.056815 -2.108665 -0.5601550000000001
5140 -7.15122513 14.411429550000001 -1.22670126 -1.929269 -2.370653 -0.88638
5160 -2.4212159100000004 12.57071058 -2.2492269900000004 -1.039428 -1.207135 -0.917975
5180 -1.6097523300000003 10.393636140000002 0.04730382 0.098026 -0.392182 -0.842708
5200 -2.94497181 6.880743810000001 -0.12334113000000002 0.400682 -1.904596 -0.376116
5220 -3.95388126 4.76803278 0.13845833999999996 0.8749819999999999 -2.456665 0.607464
5240 -3.97498257 3.66018948 1.8467128800000001 1.030852 -2.4705790000000003 1.286892
5260 -2.48572647 2.9226736800000004 1.60166889 1.064494 -1.505112 1.175863
5280 -1.7166322800000002 3.23058015 1.2424168800000002 0.347981 0.7243470000000001 -0.025203
5300 -1.9104778800000002 3.6515076300000002 0.54037404 -1.061562 1.7236470000000002 -0.418753
5320 -2.6259898500000003 3.24689418 -0.13531914 -1.4909709999999998 1.7219259999999998 0.648608
5340 -3.2400075600000005 2.0646518400000002 -0.76805433 -1.927952 0.654784 0.4290060000000001
5360 -2.82837015 0.6917129100000001 -2.33274933 -0.759316 2.11556 0.144741
5380 -0.79859286 0.78272028 -4.49664894 -2.678544 3.16006 -0.986295
5400 1.74671955 3.6013589100000005 -8.09276931 -5.624921 2.748124 -1.975225
5420 4.5595212300000005 8.771160240000002 -14.014909350000002 -5.532114 2.958713 -2.237629
5440 4.73105889 15.59831202 -16.81558587 -3.468522 3.335725 -2.138241
5460 -1.9976004900000002 20.37069063 -8.78074461 -1.7847540000000002 3.468002 -2.045464
5480 -5.626201770000001 19.854566910000003 -5.600303370000001 -1.693218 -0.242046 -1.669397
5500 -3.0638297700000003 12.799136430000003 -8.355324150000001 -0.019701 -1.91505 -0.8597389999999999
5520 0.54517113 6.890318370000001 -9.928701 -0.346158 -2.374055 -0.60933
5540 -0.9021766500000001 10.495728810000001 -13.96940076 -1.078283 -1.566752 -0.463791
5560 -7.233707610000001 23.30953119 -11.96148015 -1.472855 -0.38158 -0.268309
5580 -10.463090939999999 15.17049792 5.96135061 -1.487005 -0.335206 -0.397722
5600 -3.7989519300000003 1.69372593 7.335192060000001 -1.271539 -0.825008 -0.640212
5620 -7.0941996000000005 0.13756563000000002 -2.9126478600000003 -1.087614 -1.219857 -0.89159
5640 -4.46491359 3.0955651200000003 -4.04728227 -0.762478 -1.201172 -1.050644
5660 -3.34583784 3.4166464200000006 4.03156665 -0.886258 -0.670477 -0.990232
5680 -4.3206183000000005 4.71639294 6.39215676 -1.250277 0.065548 -0.921079
5700 -3.77140545 5.5580909400000005 5.26530168 -1.145231 -0.218509 -0.8387959999999999
5720 -1.22729967 9.40853556 0.93884643 -0.830837 -0.1955 -0.7383529999999999
5740 -2.85965424 13.770169469999999 -0.7502393700000001 -0.49905 0.246724 -0.527231
5760 -2.2429387800000002 13.643375220000001 5.542669620000001 -0.115469 0.4189520000000001 -0.240625
5780 0.6736036500000001 11.95369101 2.0619639 0.210306 0.06835 0.040906
5800 1.6049650500000001 8.47478052 -1.17805347 0.8187270000000001 0.323372 0.473186
5820 -1.08179775 7.21724643 0.33829785 1.899143 0.491414 1.201567
5840 -3.54926781 6.34081122 0.8533719000000001 2.1368240000000003 0.134318 1.851027
5860 -4.900359870000002 6.21357552 1.82710269 2.670715 0.389626 2.01039
5880 -4.44515625 6.5231398800000004 1.7009166599999999 3.14012 0.62648 1.779424
5900 -3.75449301 7.99891704 -0.21046374 2.583457 0.319887 1.411665
5920 -3.28626171 9.41197887 -1.94161482 2.162964 1.106991 1.277396
5940 -2.78121348 10.58179194 -1.19331783 1.706407 1.307999 1.222675
5960 -2.06316072 11.400740549999998 0.9698362200000001 1.737368 0.530522 1.152317
5980 -0.76161897 11.725118010000001 0.19025514000000002 2.3093 0.102411 1.422848
6000 0.53094663 12.766498560000002 -1.20798378 2.603288 -0.8162550000000001 1.799956
6020 1.47637557 13.71672459 -0.27303192 2.885444 -0.8049029999999999 2.178995
6040 1.50078285 13.711790160000001 0.9834525000000001 2.328189 -0.652716 2.166361
6060 1.67935428 13.45701465 -0.9216298800000001 1.696087 -0.947943 2.2178720000000003
6080 0.8379603900000001 13.837976190000001 -1.5223354199999999 1.825854 -1.271181 2.2202610000000003
6100 -3.3169572 15.741263340000001 4.69319229 2.033249 -1.642769 1.992518
6120 -4.00686507 13.11632316 3.1153224600000002 1.954954 -1.6917810000000002 1.7965490000000002
6140 -4.13155998 11.26242936 -0.31464594 1.515259 -1.57187 1.229303
6160 -6.142325490000001 14.409035910000002 -0.44113608000000004 0.763962 -1.298265 0.592386
6180 -8.11477314 16.19033571 2.4876786600000003 -0.249829 -1.163727 0.061703
6200 -9.0058743 15.03758223 1.64911986 -1.295455 -1.113697 -0.35372600000000004
6220 -9.20690082 12.415035690000002 0.23875578 -1.884641 -1.557508 -0.743969
6240 -7.62110451 10.841060430000002 0.77972823 -0.963468 -0.877347 -0.871934
6260 -3.71617515 9.680517810000001 0.5343899400000001 -0.380347 -0.7822859999999999 -0.907506
6280 -1.7163281700000002 8.69556438 0.8270320499999999 0.398634 -1.690189 -0.179852
6300 -0.45400680000000004 7.49251503 -1.5905934000000002 0.5813619999999999 -2.211925 0.663852
6320 -1.3542312600000002 6.32853891 -0.6487549200000001 0.291441 -1.987755 1.065327
6340 -2.75831694 4.60652094 1.59867684 0.17941 0.239318 0.20284
6360 -3.1934591100000005 3.3464362500000004 1.45257651 -0.911761 1.260483 -1.936125
6380 -3.0416787900000006 3.47277924 0.19848573000000003 -1.214408 1.554275 -0.288212
6400 -3.56797548 4.066146900000001 -0.7220944800000001 -1.5221 1.5519969999999998 0.28114
6420 -4.159695060000001 3.5887824900000003 -1.17490446 -2.066757 1.774717 -0.330768
6440 -3.4557098400000004 2.3685264 -2.36343501 -3.676506 3.098429 -0.959004
6460 -1.3304322000000002 2.5810796700000003 -3.5703789300000004 -6.25145 3.507293 -1.871616
6480 0.28051695 4.34546703 -5.215300110000001 -5.75734 3.865164 -2.018174
6500 2.5385729400000003 6.9945005700000005 -8.6904828 -3.024471 3.04941 -1.519476
6520 6.98552442 12.16565568 -14.175822779999999 -0.691267 2.540659 -1.523891
6540 6.83523522 16.4965941 -9.76913154 -1.584335 -0.259347 -1.699593
6560 2.33454456 17.04086271 -6.8713065900000005 -1.221061 -1.197298 -1.089104
6580 -0.41089185000000006 13.344297749999999 -7.59864942 -0.634463 -1.857952 -0.753011
6600 1.46754657 7.58398347 -9.88589016 -1.085564 -1.700246 -0.6399279999999999
6620 1.84880241 8.05968999 -10.61562663 -1.158782 -0.69095 -0.430225
6640 -11.15944398 17.057029590000003 -6.73524189 -1.150248 -0.22435700000000006 -0.43824
6660 -19.0239444 17.58527847 -0.24743763 -1.0589110000000002 0.032561 -0.563982
6680 -6.4144647 6.30967428 2.01750498 -0.875142 0.45422 -0.6754020000000001
6700 -4.068089280000001 3.45211938 -2.70606888 -0.986725 0.792291 -0.6734100000000001
6720 -2.6322780600000004 3.8425083300000002 0.39352815 -1.036308 0.074991 -0.8042279999999999
6740 -3.0805950600000003 4.70771109 6.31806183 -0.923023 -1.02187 -0.99538
6760 -5.47036992 5.47995429 7.288045200000001 -0.642493 -1.193612 -0.914152
6780 -4.9036560300000005 5.50509732 2.9707230600000005 -0.409373 -0.397237 -0.4713
6800 -2.09473911 8.346348 0.6372281700000001 -0.491544 0.591558 -0.188994
6820 -1.7024077800000001 9.75865446 0.9996193800000001 -0.312397 0.874143 0.116339
6840 -1.18748088 9.3474585 5.692066110000001 -0.086838 0.599176 0.218679
6860 0.81206199 9.74638215 4.23019953 0.21712 0.468692 0.351293
6880 -0.07409493 9.361378890000001 1.3515433200000002 0.94424 0.566519 0.56455
6900 -2.46192741 9.01500741 0.78481962 1.7095360000000002 0.462523 0.865926
6920 -2.83750326 8.63225064 -0.51133644 2.344794 0.594631 1.376531
6940 -2.3354470800000002 8.63225064 -1.66154913 2.869225 0.689996 1.581966
6960 -2.1923388000000004 8.71562583 -1.47173544 3.102503 1.002694 1.503078
6980 -2.4382755 8.71143696 1.89565497 2.663353 1.126381 1.05654
7000 -2.7167029200000004 8.63734203 3.6904239000000003 2.189033 1.757273 0.872957
7020 -2.5408194300000004 10.37911734 2.3140416600000004 1.590533 1.373386 0.955795
7040 -2.02364604 12.04485534 -1.3301379000000002 2.024668 0.30603600000000003 1.097995
7060 -0.7816706099999999 12.669202980000001 -2.2113505800000004 2.873 0.21337 1.690494
7080 0.33934752000000007 12.79254411 0.25057683000000003 2.530104 -0.503791 1.778748
7100 0.09100737 13.15389546 1.57756572 2.382654 -0.780287 1.7876869999999998
7120 0.35760393 12.81934503 0.80038809 2.223634 -0.778722 1.800461
7140 0.46433673000000003 12.080328300000001 -1.46440737 1.928764 -1.286066 1.857803
7160 0.30506157000000006 11.231890830000001 -2.1862075500000007 1.714421 -1.67334 1.921964
7180 -1.4780236500000004 12.44871342 0.8652027600000002 1.6915919999999998 -1.733164 1.7178509999999998
7200 -3.9113647200000004 12.90571227 2.25311175 1.7996880000000002 -2.058855 1.553449
7220 -4.22077212 11.549381670000002 1.00201302 1.6284809999999998 -2.080148 1.166652
7240 -4.80844998 12.503649420000002 -0.6231508200000001 0.7528090000000001 -1.464175 0.533768
7260 -6.00356304 15.300578520000002 0.057329639999999994 -0.191219 -1.286007 -0.045621
7280 -7.29014454 15.807726090000001 1.88787564 -1.22095 -1.156663 -0.5956359999999999
7300 -8.521780230000001 14.638511430000003 2.10207699 -2.035192 -1.052381 -0.926197
7320 -6.452037 13.094770590000001 1.80794376 -2.229215 -1.024095 -1.171143
7340 -2.3264611200000003 12.43419462 -0.19114785 -0.781791 0.004614 -1.007459
7360 -0.7695454500000001 12.20382639 -0.90995598 0.123578 -0.364733 -0.803041
7380 -0.77403843 8.939558700000001 -0.46732878 0.984239 -1.405747 0.374008
7400 -2.3252643 6.080051610000001 0.07199559 0.8241440000000001 -2.117587 1.103398
7420 -3.2638164300000003 4.4737425900000005 0.91459611 0.418163 -1.889734 1.217774
7440 -2.9844963 3.38191902 0.7080269400000001 -0.035009 -0.289138 0.142199
7460 -2.07454032 3.5501703300000003 0.40117014 -0.76927 0.233169 -1.43068
7480 -1.93951548 3.7501471800000004 0.6134291099999999 -0.42354 0.898875 0.421042
7500 -3.1756441500000006 4.030664129999999 0.44097912 -1.42845 1.028822 0.763165
7520 -3.94669053 3.57576462 -0.05912487 -1.7000259999999998 1.058623 0.206822
7540 -4.15626156 1.65495681 -1.4585704199999998 -2.028754 2.882318 -0.558385
7560 -2.6499360600000004 1.63055934 -3.3801237900000003 -4.646814 3.305575 -1.83558
7580 -0.7006890600000001 3.8017968300000002 -5.129384129999999 -5.4307919999999985 3.814126 -2.324544
7600 1.8595836000000001 6.8591814300000005 -8.026012260000002 -4.196443 2.9326790000000003 -2.479299
7620 4.29741765 11.1982131 -11.975998950000001 -1.544273 2.933242 -1.723701
7640 3.81511881 17.38903923 -12.51682425 -1.406308 1.521631 -1.546808
7660 0.57031416 19.651735350000003 -8.55620352 -2.083148 0.819524 -1.204532
7680 1.04946399 17.87268204 -7.652388600000001 -1.834436 0.4817010000000001 -0.85519
7700 3.5082522000000003 11.971358819999999 -8.14201551 -0.762921 -1.072014 -0.582932
7720 3.3614063100000005 7.6261959 -8.545579290000001 -0.406523 -2.234455 -0.569339
7740 -4.06674531 14.66111367 -7.49012139 -0.644345 -1.462523 -0.531397
7760 -14.64898851 24.763304520000002 -3.67440417 -1.275761 -0.41021 -0.471994
7780 -11.412571410000002 9.819427410000001 3.69701622 -1.1548040000000002 0.03513 -0.590292
7800 -4.80875409 1.66199058 0.29503575000000004 -0.708268 -0.110094 -0.624375
7820 -6.387222330000001 -0.08442486000000002 -2.85022683 -0.676854 -0.554122 -0.69943
7840 -4.2767577900000004 2.4493608000000004 0.15687171 -0.563807 -0.907759 -0.806078
7860 -3.8248503300000003 5.157224909999999 5.411245050000001 -0.786496 -0.654316 -0.856028
7880 -5.0814819 6.33408156 6.09113691 -0.744186 -0.511554 -0.630521
7900 -5.007838230000001 6.615491220000001 1.5322140900000003 -0.52954 -0.340237 -0.502123
7920 -1.22879079 9.90236115 -0.84184515 -0.313625 0.620315 -0.341612
7940 0.7387126199999999 10.221647220000001 0.38335518 0.002435 0.833773 -0.183717
7960 1.3736943 8.58674205 3.0398737500000004 0.188657 -0.069783 -0.028503
7980 -0.67884219 8.87070231 4.365077220000001 0.534319 0.016119 0.300677
8000 -2.71924371 9.19852308 4.42045467 1.406966 0.792756 0.8623209999999999
8020 -2.5307838000000005 9.40643622 0.8186445 2.11872 0.694184 1.451737
8040 -1.4636520000000002 9.79353882 -1.5968816099999998 2.606646 0.612391 1.769307
8060 -0.39667716000000003 9.67842828 -2.20177602 3.04264 0.910707 1.914043
8080 -0.69455781 8.44917642 -0.5174775 2.16646 0.672558 1.4905540000000002
8100 -2.78360712 8.029004310000001 2.24234037 2.134595 1.430024 1.504316
8120 -3.85253415 7.98918552 2.5738987500000006 1.804659 1.526312 1.420703
8140 -3.9392055000000004 9.9864819 1.37788317 1.607872 0.8265239999999999 1.300584
8160 -3.91705452 11.761346340000001 -0.49007817000000004 2.14357 -0.451071 1.185254
8180 -2.9891364300000003 12.19454613 -0.6497947800000001 2.435198 -0.599018 1.433172
8200 -0.28336185 12.127328010000001 -1.21532166 2.135024 0.022265 1.9024330000000005
8220 0.5960556 12.132870660000002 0.24533829000000001 1.959788 -0.208554 1.967734
8240 1.12386303 11.860133040000001 2.41642863 1.850014 -0.773257 2.089469
8260 1.2826869300000001 12.160417140000002 1.30079619 1.728096 -1.721197 2.156061
8280 1.67082939 12.43508733 -2.5445570400000004 1.991727 -2.27458 2.053926
8300 -0.39203703 13.698468179999999 -0.07603731000000002 2.073978 -2.258969 1.80879
8320 -3.8597248800000004 14.64569235 3.6161818200000004 1.712282 -2.139117 1.454665
8340 -4.36627404 12.827722770000001 2.09654415 1.162976 -1.7661669999999998 0.8403950000000001
8360 -5.067414360000001 13.014681750000001 -1.6220246400000002 0.556937 -1.320088 0.10279
8380 -7.93379826 16.446749490000002 2.0996833500000003 -0.12545 -1.044992 -0.434304
8400 -8.69916465 15.390997290000001 3.8826214200000004 -0.995445 -0.784902 -0.785749
8420 -9.281898270000001 13.7896227 1.51035741 -1.835984 -0.9006649999999999 -0.944228
8440 -7.789051710000001 11.17126503 -0.07139718 -2.152504 -1.069969 -0.954768
8460 -5.13222903 10.03663062 0.71970084 -1.292637 -0.729449 -1.075248
8480 -1.6386427800000003 9.26303364 1.2985497000000001 -0.185884 -0.416766 -0.8425229999999999
8500 -0.24504399000000002 8.90334018 0.13022775 0.795413 -0.864186 0.437157
8520 -0.77059512 7.2359541 -0.0953532 0.490129 -1.376135 1.387466
8540 -2.13471486 5.35661316 0.54127656 0.015469 -1.521763 1.4537719999999998
8560 -3.36799863 3.9193010100000003 1.2603789900000002 -0.656416 -0.335995 0.676303
8580 -2.5140185100000005 3.7829322000000003 0.6441147900000002 -1.464972 0.301177 -1.58411
8600 -2.01645531 4.2330444300000005 -0.03726819 -1.842564 0.960388 -0.942386
8620 -2.24562672 4.60068399 -1.11427866 -0.46093 1.126343 1.376548
8640 -3.00858966 3.66617358 -1.13553693 -0.620117 0.02029 0.7904
8660 -3.4353540899999997 2.42585604 -2.01525849 -0.7813060000000001 0.977985 -0.137034
8680 -2.7223927199999998 2.43947232 -3.80508318 -2.936745 2.362335 -1.070398
8700 -1.15409745 4.22151768 -5.1819264899999995 -5.085902 3.790058 -1.933271
8720 -0.01107549 6.095777040000001 -6.6084574499999995 -5.166314 4.291295 -2.534816
8740 1.5010771500000002 8.569378350000001 -9.23294637 -3.77822 4.050152 -2.30903
8760 3.4983735300000003 12.748389300000001 -12.368928690000002 -2.429787 1.74525 -1.968714
8780 3.84819813 17.04520854 -10.253078460000001 -2.094373 0.280078 -1.622662
8800 2.71819404 20.721113640000002 -7.734419820000001 -0.645514 -0.8879819999999999 -0.8857219999999999
8820 4.53122919 16.42833612 -6.40248669 0.01923 -2.506323 -0.616223
8840 5.6396709000000005 9.49789485 -7.768990260000001 -0.467367 -2.562965 -0.415519
8860 4.922814960000001 5.555991600000001 -4.99571307 -1.114676 -0.903823 -0.248046
8880 -3.6157305600000003 12.5286453 -3.35078208 -1.269699 0.467651 -0.229522
8900 -17.97057603 24.80132808 0.5740517699999999 -0.797072 0.583667 -0.348147
8920 -14.35739607 12.53687589 4.8645828 -0.6751590000000001 0.184672 -0.5743149999999999
8940 -5.35810428 4.43393361 -3.6574917300000003 -0.81247 -0.151858 -0.745758
8960 -4.25325303 2.09818242 -5.676948899999999 -0.983686 -0.411667 -0.892968
8980 -4.737347100000002 0.8747773200000001 -1.13269203 -0.902041 -0.672348 -1.041615
9000 -4.135297590000001 1.9755868500000002 2.9554587 -0.6937770000000001 -0.281364 -0.696693
9020 -5.7868208999999995 4.11240105 3.67889715 -0.6872520000000001 0.538662 -0.377232
9040 -7.32246849 5.642515800000001 2.05433172 -0.327422 0.836872 -0.140092
9060 -4.1833469700000006 9.44371422 1.69552116 -0.038968 0.387745 0.037687
9080 -2.6192503800000004 8.70290226 5.62739859 0.13153099999999998 0.253394 0.187533
9100 -0.89019864 8.99719245 10.72594989 0.841363 0.573788 0.434567
9120 1.9109291400000001 11.17785735 6.38033571 1.741455 0.34880700000000003 0.771223
9140 1.6860937500000002 11.417652990000002 -0.97387794 2.256595 0.285657 1.463905
9160 0.48483963 10.89793881 -3.5672299200000004 2.385546 0.4941 1.705957
9180 -0.42317397000000007 9.82601973 -2.24338023 3.141931 1.434235 1.708968
9200 -2.2855926600000007 8.16297948 0.09655002 2.505215 1.559498 1.305913
9220 -4.07751669 7.493417550000001 1.6747141500000002 2.10067 2.29886 1.3747790000000002
9240 -4.58601804 7.691010570000001 2.91698388 1.397339 2.1270740000000004 1.254718
9260 -4.6250814600000005 8.98446888 2.74095324 1.699831 0.9536 1.144035
9280 -3.3524301600000004 11.211839190000001 0.78407406 2.981127 -0.263065 1.128907
9300 -1.18478313 11.923750889999999 -1.0880859600000001 3.037114 -0.300892 1.2158719999999998
9320 0.51791895 12.757973670000002 -0.1938456 2.621146 -0.04247 1.685858
9340 2.36537739 12.801677220000002 1.3638156300000002 2.104089 0.345765 1.749046
9360 1.40198634 12.602445930000002 2.19174039 1.397153 -0.279091 1.979918
9380 1.60466094 12.58403256 0.08981055 1.491707 -0.7188140000000001 2.1050560000000003
9400 1.3097723400000003 12.04665057 -2.6444032200000005 1.943726 -1.472722 1.903012
9420 -0.3101529600000001 12.5027469 -0.20537235 2.4117490000000004 -2.248967 1.678677
9440 -3.4968824100000004 14.381793540000002 3.9920519700000003 2.184732 -2.55248 1.320694
9460 -5.28655995 14.176117080000001 1.96780752 1.253758 -2.1387 0.6834100000000001
9480 -5.80627413 12.86559918 -1.90523934 0.354905 -1.648537 0.097527
9500 -6.460120440000001 14.69254491 -2.26239201 -0.545659 -1.463343 -0.412133
9520 -7.8977268899999995 15.362999550000001 3.1478033700000005 -1.643111 -1.2567620000000002 -0.771509
9540 -9.32770116 14.97036411 2.25671202 -2.171257 -0.905046 -0.889949
9560 -9.59998752 11.67572466 1.59777432 -1.214412 0.165854 -0.728677
9580 -7.831411290000001 8.394397380000001 0.9316655100000001 -0.403533 -0.145458 -0.569858
9600 -4.31014122 7.930060650000001 -0.44382402 0.458982 -1.169969 0.208736
9620 -2.24802036 8.96291631 0.43439661 0.654198 -1.827947 0.7471899999999999
9640 -0.40894947000000004 8.17539894 -0.8916995700000001 0.178493 -1.710532 0.834515
9660 -1.0021699800000001 6.477032879999999 -1.19362194 0.03955 -0.830073 0.8195979999999999
9680 -1.5229338300000004 5.89608468 1.46665386 -0.8488180000000001 0.633236 -0.178724
9700 -1.2064926599999997 5.19778926 0.9930368700000001 -1.272177 1.33585 -2.621332
9720 -1.55242269 5.06801277 1.36456119 -0.728476 0.764081 -0.236803
9740 -2.27661651 4.987776780000001 0.8931906900000001 -0.014631 0.274171 0.446063
9760 -3.59327547 4.526137800000001 0.25716915 -1.193256 0.21570300000000006 -0.160299
9780 -4.135896 3.0728059200000004 -0.7144623 -3.209003 1.884916 -0.790746
9800 -3.39284736 1.9687100400000002 -2.5821293400000003 -4.996146 3.3033050000000004 -1.498322
9820 -0.60758235 2.90036574 -4.570292610000001 -5.034638 4.350029 -1.620642
9840 1.39330449 5.2696377000000005 -7.430849370000001 -4.184506 3.4264019999999995 -1.5504950000000002
9860 4.66849071 8.70095988 -12.23779842 -2.492972 2.610817 -1.522679
9880 5.81690817 12.78670716 -14.09962851 -1.894137 0.977954 -1.560201
9900 0.39667716000000003 15.45117183 -10.501860060000002 -1.364556 -0.368957 -0.854022
9920 -1.6983660600000001 17.22872421 -7.25226813 -1.2691370000000002 -0.763239 -0.638138
9940 1.26307674 13.811930640000002 -8.11357632 -1.406505 -0.706188 -0.400957
9960 4.763098350000002 7.58697552 -8.51324553 -1.283672 -0.599327 -0.324392
9980 5.52156831 5.18970582 -7.5001570200000005 -1.162499 -0.537661 -0.399469
10000 -2.07782667 10.75393782 -4.899761460000001 -1.031062 0.045295 -0.575554
10020 -14.318469990000002 20.08762308 0.06496182 -0.957778 0.581286 -0.6782779999999999
10040 -17.74829124 17.00448723 3.33970659 -1.014784 0.7104050000000001 -0.684183
10060 -5.61556773 7.24942323 -1.2493035 -1.079443 0.02062 -0.75639
10080 -4.51281582 3.77140545 -4.51715184 -0.942828 -0.650035 -0.725734
10100 -2.71819404 1.96077375 0.6375224700000001 -0.759901 -0.401959 -0.5848369999999999
10120 -4.28813739 4.0302226800000005 4.247416080000001 -0.640137 0.121895 -0.357141
10140 -6.93836775 5.4007679699999995 4.38662979 -0.365153 0.365679 -0.288234
10160 -5.773793220000001 6.151007340000001 -0.07229970000000002 -0.107202 0.095296 -0.028645
10180 -2.03516298 7.884100800000001 -0.45745011 -0.04937 -0.151705 0.15153699999999998
10200 -0.41598324 8.74825389 2.9262641400000002 0.303001 0.06166 0.30114
10220 -0.18486945000000002 9.62244261 5.69415564 0.990751 0.320879 0.41457
10240 2.8199826 10.579849560000001 4.175567640000001 1.921611 0.346988 0.803462
10260 0.1158561 9.82661814 1.7836934400000002 2.306818 0.711859 1.3974799999999998
10280 -1.95388713 8.28721332 0.6798820499999999 2.969656 1.4798950000000002 1.628657
10300 -3.27817827 8.126604 -1.45033002 2.316367 0.8242450000000001 1.522385
10320 -3.0012615900000004 8.18902503 -2.5445570400000004 2.139768 1.258932 1.129625
10340 -2.61850482 8.52087771 -0.9202859100000002 1.768209 2.196292 0.939958
10360 -2.5243484400000002 8.23227732 2.33200377 1.339595 1.813099 0.968433
10380 -2.44561338 8.86232457 3.37472829 1.632238 0.54618 1.057559
10400 -1.2783410999999998 10.37941164 1.4296799699999998 2.366702 0.168759 1.298182
10420 0.23172201 11.06648442 -0.48603645 2.075031 0.6752859999999999 1.420477
10440 1.3039353900000001 11.94830532 0.12798126 1.813308 0.531708 1.58868
10460 1.81587024 13.270349970000002 1.9440084600000003 1.912893 0.086393 1.7758169999999998
10480 0.5351355 13.689786330000002 2.9650332600000002 1.7986799999999998 -0.970536 1.918447
10500 0.51477975 12.766655520000002 0.41239278 1.874541 -1.7088310000000002 1.86758
10520 0.50385141 12.20022612 -1.77905331 2.300718 -1.84144 1.627173
10540 0.15103476000000002 12.294529650000001 -2.0299244400000003 2.50526 -1.89876 1.399007
10560 -1.5658918200000003 14.304108150000001 1.4289246 2.019456 -2.057723 1.080692
10580 -4.3345386900000005 14.654521350000001 0.7611677099999999 1.146904 -1.776893 0.606356
10600 -4.78734867 11.371251690000001 -0.18381978000000002 0.185657 -1.358168 -0.17535599999999998
10620 -6.952445100000001 12.1062267 0.56777337 -0.666295 -1.172604 -0.8192729999999999
10640 -8.18872092 14.181355620000001 3.1392686700000008 -1.548053 -1.372756 -1.149915
10660 -8.58300444 15.66956205 2.71534914 -2.2208810000000003 -1.550343 -1.1778879999999998
10680 -8.647515 14.590609200000001 1.9464021 -0.944651 -0.500367 -1.122249
10700 -5.620364820000001 11.471549130000001 1.48969755 0.266158 -0.446424 -1.27623
10720 -3.4126047 11.446847550000001 -1.3828274100000002 1.030143 -1.515166 0.258033
10740 -0.77958108 10.942848990000002 -1.9785887100000001 1.305216 -2.556149 1.402149
10760 -2.0430992700000004 8.570575170000001 -0.59411322 1.390783 -2.0067630000000003 1.66803
10780 -2.5274974500000003 6.639290280000001 0.8152011900000001 0.360805 -0.51384 1.111993
10800 -2.5833261600000004 5.35242429 1.01982798 -1.050073 0.722969 -1.130962
10820 -2.4496551 3.9920519700000003 1.9755868500000002 -0.7168939999999999 2.260217 -0.368963
10840 -1.77829794 3.2138148600000003 1.8194705100000002 -0.06768099999999999 1.148559 0.542849
10860 -1.86991353 3.61842831 1.29974652 -0.84819 0.941486 -0.009268
10880 -2.3126878800000004 3.9145137300000004 -0.95501331 -3.168275 1.883879 -0.833189
10900 -3.3114145500000003 3.22938333 -1.86003486 -5.273572 2.934164 -1.385487
10920 -3.3805652400000006 2.02663809 -1.9220046300000002 -5.082936 3.790899 -1.87984
10940 -1.894311 1.49329782 -2.9618940600000006 -4.114841 3.498482 -1.787246
10960 0.37302525000000003 2.81175201 -4.599634320000001 -2.39438 3.256799 -1.448043
10980 2.351457 5.8218426 -7.143445800000001 -2.160181 1.158793 -1.531313
11000 4.88045538 10.033785720000001 -12.613815720000002 -1.346976 -0.120397 -0.956767
11020 4.40114859 17.165106360000003 -16.936376400000004 -0.6678890000000001 -1.126385 -0.654837
11040 -1.67082939 22.037919750000004 -9.46062666 -0.967885 -1.355651 -0.603228
11060 -0.58049694 19.34382888 -6.3250956 -1.236932 -0.869165 -0.550183
11080 3.8184051600000006 10.64540979 -8.05684509 -1.225403 -0.57571 -0.6861430000000001
11100 3.27534318 6.12331371 -7.258556340000001 -1.236017 -0.465388 -0.8262950000000001
11120 -6.43616442 13.20957702 -7.863450750000001 -1.064207 -0.312212 -0.919295
11140 -12.773542140000002 18.25633152 0.7343766 -0.90172 -0.004909 -0.919622
11160 -14.76409905 12.94702218 1.2936054600000002 -1.124486 0.27923400000000004 -0.921542
11180 -7.70208606 6.71937912 -3.6000149400000003 -1.28066 0.24546 -0.864906
11200 -4.862189160000001 4.50114192 -2.5364736000000003 -0.99323 -0.270469 -0.763961
11220 -2.6402143500000004 1.87575048 4.225412250000001 -0.726426 -0.408083 -0.680736
11240 -2.6021907900000003 4.279151430000001 6.43871502 -0.5217229999999999 0.22216100000000005 -0.492106
11260 -4.45742856 5.9857480800000005 5.171890860000001 -0.283947 0.53845 -0.141542
11280 -3.1320877499999997 8.327032110000001 -1.64478384 -0.15693900000000002 0.087452 0.110955
11300 -1.1656242 10.62939987 -1.4599143900000002 0.080046 0.03487 0.26757
11320 -1.86302691 9.822272309999999 3.8100274200000004 0.668918 0.305349 0.315134
11340 -0.59336766 9.28863774 5.71825881 1.488705 0.136514 0.533652
11360 0.72658746 8.546481810000001 2.4553449 2.208996 -0.115822 1.206646
11380 -1.91332278 7.23520854 0.39502908 2.7025330000000003 0.8408979999999999 1.551766
11400 -3.3196451400000004 6.7481126100000015 0.04969746 3.502432 1.601478 1.66427
11420 -3.5631882 7.22861622 0.24608385000000002 2.489141 1.447023 1.208736
11440 -3.21576705 7.9355934900000005 -0.36284247000000003 2.254039 2.51432 1.1736799999999998
11460 -2.36178693 8.88522111 -0.03577707 1.649034 2.687063 1.123299
11480 -2.13441075 9.18788904 0.22663062000000003 1.016322 0.33371100000000004 0.912524
11500 -2.00193651 9.30689415 1.01279421 2.51549 -0.122878 1.373302
11520 -1.39045959 9.90265545 2.11824387 2.613484 0.069741 1.603407
11540 -0.31120263000000004 10.959006060000002 1.55287395 2.221035 -0.5501689999999999 1.6570080000000005
11560 1.78788231 12.14933184 -0.19878984000000002 2.134996 -0.586559 1.773958
11580 1.2073853700000001 14.12687088 0.8434932300000001 1.871856 -1.237386 1.987667
11600 0.6047472600000001 13.733637029999999 2.7568160100000005 1.7939490000000002 -1.871289 2.071256
11620 0.6095345400000001 12.210408900000001 0.26075961000000003 2.015597 -2.053727 1.948056
11640 0.25970994000000003 11.96820981 -2.66026599 2.121598 -2.0496220000000003 1.629393
11660 -0.2228832 12.516971400000001 -1.2900150000000001 1.751948 -2.1316580000000003 1.419681
11680 -1.96541388 14.86019781 2.1881499300000007 1.1518620000000002 -1.788807 0.917258
11700 -3.81930768 14.938785720000002 2.15102889 0.4528 -1.38715 0.18012899999999998
11720 -4.28154507 12.71066985 -1.37414556 -0.233333 -1.095659 -0.457425
11740 -4.583918700000001 12.880863540000002 -4.72746843 -1.053029 -1.129394 -0.9000100000000001
11760 -7.4992545 15.47227314 3.5685837 -1.953403 -1.30975 -1.103689
11780 -7.974068310000001 16.018641090000003 4.78405251 -2.135546 -1.490177 -1.113276
11800 -9.46975977 13.58020863 2.6888621400000003 -0.737499 -1.370626 -1.319445
11820 -7.21933596 9.6218442 4.281250770000001 0.458859 -1.116513 -0.903353
11840 -1.84386798 10.17269532 -1.26621594 1.319344 -1.424639 0.811139
11860 0.6590750400000001 11.58351066 -2.5590758399999998 0.963534 -1.957974 1.825217
11880 -0.6792836400000001 8.88297462 -0.265851 0.837169 -1.629263 1.78332
11900 -1.8544922099999999 6.30937998 -0.48319155 -0.519323 -0.188408 0.945195
11920 -2.47944807 5.859120600000001 1.0612948500000001 -1.26999 0.496555 -1.328761
11940 -2.3079006 5.04570483 1.2436137 -1.023656 1.402535 -0.867798
11960 -2.19922542 4.132011240000001 1.1051553600000001 0.329435 1.022298 0.604537
11980 -2.59964019 3.9631615200000003 0.060920100000000005 -0.736711 0.478233 0.124564
12000 -3.5411843700000003 4.01180931 -0.84559257 -3.268744 1.302963 -0.661162
12020 -3.4190400600000004 3.7444671900000004 -1.0178856 -4.701971 2.660447 -1.362984
12040 -3.3247365300000005 2.92028004 -1.58071473 -4.793231 3.274979 -2.049139
12060 -2.18860119 2.60892045 -2.8388472300000003 -3.783967 2.611846 -1.992102
12080 -0.45774441000000005 3.70450125 -4.5463464 -2.20733 2.0166880000000003 -1.577607
12100 1.14811335 5.85956205 -6.774609419999999 -2.09053 0.66366 -1.38064
12120 1.99579545 8.77714434 -10.257865740000002 -1.287309 -1.22994 -0.860925
12140 2.6268825600000003 13.637243970000002 -13.984223670000002 -0.6570010000000001 -2.155917 -0.545551
12160 1.8497049300000001 19.276012350000002 -11.07936495 -1.050858 -1.905478 -0.495212
12180 1.2660687899999998 22.17024684 -8.500070700000002 -1.131104 -0.953059 -0.441446
12200 4.57284321 14.53761558 -6.5768692500000006 -1.018 -0.808191 -0.536981
12220 5.725743840000001 5.9257305 -6.44709276 -0.993764 -0.469243 -0.605613
12240 0.44862111000000005 5.55165558 -4.71953214 -1.100056 0.310992 -0.626583
12260 -8.0113365 14.404699890000002 -3.92663889 -1.152865 0.678651 -0.6156729999999999
12280 -15.41164734 17.25446565 1.50990615 -1.131283 0.17715799999999998 -0.697132
12300 -13.40372673 13.109583690000001 -1.32040638 -1.043143 -0.158684 -0.7035640000000001
12320 -6.308477460000001 6.798261330000001 -3.2368683600000003 -0.824045 -0.182334 -0.573816
12340 -3.6857837700000005 2.9175822900000004 0.76131486 -0.724695 -0.193064 -0.374419
12360 -2.55174777 1.46440737 4.83808599 -0.592188 -0.011903 -0.23913
12380 -3.95747172 4.83494679 5.194493100000001 -0.315562 0.331062 -0.199181
12400 -4.63615695 6.30818316 0.9424368900000001 -0.124106 0.018158 0.09525
12420 -1.7613855 8.36699805 -1.3470503400000002 0.293399 0.156123 0.396023
12440 -0.97043463 9.79787484 0.35386632 1.062416 0.081335 0.849076
12460 -1.81646865 9.042995340000001 5.97018942 1.959912 -0.288237 1.382452
12480 0.40744854 8.42807511 5.5759058999999995 2.169683 0.07979299999999999 1.605636
12500 -0.47196891 8.1414171 -0.45130905 3.273736 1.23398 1.856491
12520 -2.7075698100000003 8.768766600000001 -1.7000141400000002 3.46489 1.877072 1.5087620000000002
12540 -3.8233494 8.681045580000001 -1.42114527 2.244679 2.334307 1.17705
12560 -2.8391415300000005 8.78493348 -2.11075884 1.796244 3.385407 1.1148870000000002
12580 -1.4124634200000001 8.98925616 -1.2638223 1.299317 1.841061 0.937138
12600 -1.23747264 9.158704290000001 1.14421878 2.599163 -0.25868 0.896565
12620 -1.71648513 8.593030259999999 2.12812254 3.557772 -0.339821 1.175762
12640 -2.3255684100000003 8.889262830000002 1.0102534200000002 2.696524 0.054331 1.389294
12660 -2.20761297 9.970619130000001 0.44382402 1.986336 0.520668 1.535424
12680 -1.36830861 11.17006821 0.6141746700000001 1.8013830000000002 -0.124853 1.686646
12700 -0.40804695 12.004889400000001 1.2117312 2.161025 -1.1748 1.803736
12720 0.9630967500000001 12.669801390000002 2.09908494 2.345202 -1.609634 1.694484
12740 0.7517402999999999 13.39414236 1.21577292 2.066758 -1.6469599999999998 1.413781
12760 1.3232512800000003 13.62077298 -1.47637557 1.710503 -1.772966 1.266176
12780 0.27737775000000003 14.54151015 -0.2282787 1.257622 -1.635315 0.802433
12800 -1.85015619 15.226787700000001 3.2868601200000005 0.272447 -1.030288 0.071589
12820 -3.6178299000000003 15.330665790000001 2.90785077 -0.5607949999999999 -0.965123 -0.582725
12840 -5.03613027 14.158154970000002 -2.3336518500000003 -1.713041 -0.912539 -1.0117200000000002
12860 -5.702091930000001 13.80519117 -4.792587210000001 -2.709869 -1.152363 -1.178609
12880 -9.93603888 16.11548541 0.6785380799999999 -2.04682 -0.8412129999999999 -0.976755
12900 -10.36953297 14.757065279999999 3.5265184200000004 -0.264146 -0.5750310000000001 -1.155856
12920 -9.75461274 12.48748254 2.20925124 0.547642 -1.341221 -0.464474
12940 -7.40195892 8.72280675 3.4657454700000003 1.492081 -2.066798 1.14325
12960 -4.32705366 8.11073142 0.03143124 1.270582 -2.528882 1.5396729999999998
12980 -0.57330621 9.860590170000002 -1.43985294 1.257531 -1.255556 1.204665
13000 0.57959442 8.64078534 -1.7263638000000001 -0.33757800000000004 0.500185 -0.11623
13020 -0.34293798000000003 6.79227723 -0.09040896000000001 -0.620254 0.993923 -1.064214
13040 -1.45407744 4.46101902 0.7044364800000001 -0.693176 1.43046 0.65135
13060 -1.5618501 3.96136629 1.26157581 -1.173312 1.228383 0.4538390000000001
13080 -1.12401018 3.66108219 0.8872065900000001 -1.974852 2.497811 -0.353485
13100 -2.1112101 3.4311652200000005 -0.23500836000000003 -4.369557 3.500887 -1.369217
13120 -2.9271666600000006 3.6124344 -0.7011403200000002 -5.670747 3.863959 -2.05816
13140 -3.3762292200000004 3.0546966600000003 -1.3970421 -4.534049 3.901802 -2.117567
13160 -3.5630410500000003 1.1768566500000002 -2.294872920000001 -2.55011 2.742893 -1.7347549999999998
13180 -1.42054686 1.22415066 -3.70869012 -1.529288 1.886459 -1.832281
13200 0.7289811 3.4019706600000004 -5.24883069 -1.725236 0.421916 -1.715337
13220 2.7190965600000006 6.909781410000001 -8.61697647 -1.272614 0.062503 -0.939391
13240 4.589902800000001 13.069774709999999 -15.800545170000001 -1.263112 -0.5557479999999999 -0.583882
13260 1.11532833 19.82133063 -13.546678049999999 -1.250166 -0.913005 -0.497876
13280 -2.98374093 20.707791660000005 -6.3307854 -1.3491540000000002 -0.90821 -0.5455760000000001
13300 -0.7005419100000001 15.6981582 -7.62409656 -1.17116 -1.1211870000000002 -0.719248
13320 2.96084439 7.7745329100000005 -8.77789971 -0.995219 -1.273606 -0.850283
13340 0.93645279 6.979089060000001 -9.916428690000002 -0.8594860000000001 -0.997052 -0.863576
13360 -8.38526427 19.29382731 -10.85661909 -0.874533 -0.017166999999999998 -0.808321
13380 -15.00584688 22.05214425 2.5135770600000003 -1.164833 0.774928 -0.7056100000000001
13400 -7.9873902900000004 6.0791589 4.55847156 -1.151122 0.194588 -0.776342
13420 -6.518195639999999 2.05897185 -3.3132097800000007 -0.8262379999999999 -0.627892 -0.769814
13440 -4.1576055300000005 3.61932102 -3.0850880400000005 -0.605107 -0.683469 -0.649625
13460 -3.1494514500000004 3.05349984 5.13148347 -0.427254 0.022041 -0.345912
13480 -5.10558507 5.32667304 6.7816431900000005 -0.157448 0.539612 -0.275256
13500 -5.70658491 5.8736394 4.67372925 0.085569 0.016874 -0.031471
13520 -1.3305793499999998 7.73112366 0.05044302 0.301699 0.052966999999999986 0.344939
13540 0.9047174400000001 10.729540349999999 -1.53266535 1.224557 0.337402 0.874449
13560 0.06900354 9.84262806 2.09818242 1.772964 -0.08101799999999999 1.405449
13580 0.39457782 10.28526507 2.121687180000001 2.399483 0.466525 1.663361
13600 -0.13845833999999996 8.7078465 1.10410569 3.237518 1.015699 1.862927
13620 -1.89026928 7.74743769 1.54553607 2.663421 1.228515 1.621499
13640 -2.9521625400000007 7.412288850000001 2.69080452 2.004302 2.291458 1.444618
13660 -3.37862286 7.61541471 1.07296875 1.468981 3.120693 1.263559
13680 -1.9109291400000001 8.50142448 -1.49538735 1.240542 1.88585 1.242181
13700 -0.48229884 9.54804357 -3.66018948 2.001051 0.17135 1.233667
13720 -0.6397689599999999 9.49954293 -1.78039728 2.117643 0.391794 1.14981
13740 -1.9064361600000002 8.558606970000001 2.5815309300000004 1.540833 0.506708 1.416962
13760 -2.54201625 8.73822807 3.6558436500000004 1.373142 0.589988 1.781016
13780 -2.63721249 9.993819779999999 1.07356716 1.202424 -0.284216 2.098205
13800 -1.43207361 11.74293297 -1.5304188600000002 1.710959 -1.6617810000000002 2.230641
13820 0.33829785 12.75901353 -0.71206866 2.447998 -2.371973 2.03801
13840 2.29128246 12.48748254 2.51702037 2.713726 -2.462064 1.6938779999999998
13860 1.91796291 12.776828490000002 1.82815236 2.128301 -2.258394 1.351969
13880 2.08741104 13.40686593 -2.5364736000000003 1.42998 -2.064767 0.955874
13900 0.28560834 14.180914170000001 -0.3176379900000001 0.534555 -1.496008 0.159475
13920 -2.8011277800000003 15.15029913 3.67934841 -0.259043 -1.263301 -0.602668
13940 -4.4768916 14.19931773 1.5940367100000001 -1.329986 -1.223536 -1.093036
13960 -5.68382571 13.05645273 -4.17721572 -2.699075 -1.359185 -1.414346
13980 -8.70275511 14.761548450000001 -0.22453128 -3.049334 -1.678568 -1.427065
14000 -10.346636430000002 17.127681210000002 4.19352975 -0.945325 -0.341082 -1.5273139999999998
14020 -10.55215593 16.10545959 2.5746443100000005 0.743691 -0.560717 -0.814481
14040 -9.6392079 11.93917221 2.30699808 1.136118 -1.81695 1.308154
14060 -6.537501720000001 8.86216761 -1.1192229 1.297 -2.516251 2.086771
14080 -1.9893600900000001 8.061190920000001 -3.5856432899999997 1.464118 -1.801651 1.459976
14100 -0.46867275 9.24148107 -0.3671883 0.312286 -0.5054489999999999 -0.675492
14120 0.15806852999999998 8.354431439999999 0.00973152 0.120444 0.627158 -0.297996
14140 -1.0431855900000004 6.909781410000001 1.2581325 -0.5812069999999999 0.993325 1.179325
14160 -1.8510489 4.85276175 2.25999837 -1.6472490000000002 0.305165 0.770041
14180 -1.6859465999999999 3.441348 3.07834857 -1.851287 2.68925 -0.11679
14200 -1.61738451 2.40385221 1.81078866 -4.334759 3.733604 -1.52096
14220 -2.15072478 2.3352901200000002 -0.53843166 -5.500428 3.94981 -2.362592
14240 -2.7931914900000003 2.10013461 -1.85733711 -4.409795 3.5081809999999995 -2.6236
14260 -2.4081882300000004 2.1483311400000003 -1.9923521400000002 -2.572966 3.208976 -2.120072
14280 -2.48827707 1.2880726200000001 -2.8874950200000002 -2.534138 1.6396939999999998 -2.120995
14300 -0.93884643 1.79551449 -3.84490197 -2.067337 0.639989 -1.341992
14320 1.0496209500000002 3.39464259 -5.30945649 -1.328871 0.383379 -0.681685
14340 2.29323465 6.802450200000001 -9.11978802 -1.042596 -0.423231 -0.614559
14360 4.907099340000001 14.149473120000001 -15.911908290000001 -0.946254 -0.952392 -0.502112
14380 1.5783210900000002 22.62035907 -10.747051200000001 -0.962407 -1.167744 -0.446402
14400 -0.8584632900000001 25.86830292 -5.7842703 -0.8954850000000001 -1.112113 -0.5635100000000001
14420 1.6700740200000002 15.0619797 -6.82281576 -0.908713 -0.532404 -0.601733
14440 3.4447913100000007 7.62783417 -8.53360128 -0.999244 0.493603 -0.559883
14460 -4.6994805 14.788947779999999 -10.132278120000002 -1.136984 0.928774 -0.57529
14480 -15.065275860000002 29.24199135 -4.50997092 -1.131964 0.462805 -0.734891
14500 -12.22822386 11.401044660000002 5.113217250000001 -1.038916 -0.095184 -0.86919
14520 -5.13222903 -0.27333603 1.437165 -0.767312 -0.632119 -0.829217
14540 -5.86735119 -0.5387259600000001 -4.2073029900000005 -0.465953 -0.769374 -0.599405
14560 -4.64888052 2.13290982 -0.42437079 -0.244712 -0.185287 -0.337962
14580 -5.473214820000001 4.61445723 6.67656828 -0.150013 0.17160699999999998 -0.160433
14600 -6.903797310000001 6.46864533 6.55247178 -0.031497000000000004 -0.149881 0.212548
14620 -4.5375174000000005 8.15368941 0.6686594100000001 0.400707 0.109727 0.450243
14640 0.14025357000000002 11.295959940000001 -0.9147432600000001 1.360688 0.473197 0.630603
14660 -0.34623414 9.90924777 2.56012551 1.996098 0.32650500000000005 1.065723
14680 -0.14070483 9.38294127 4.496796090000001 2.730557 1.198504 1.6091879999999998
14700 0.47466666 8.08603965 4.62238371 2.830398 1.481999 1.755868
14720 -2.38110282 7.86269538 2.9318067900000004 2.514811 1.049443 1.510664
14740 -4.13754408 7.0982413200000005 0.9497747700000001 1.951128 1.582201 1.1706219999999998
14760 -3.54971907 7.864500420000001 -0.71401104 1.331438 2.370274 0.966594
14780 -1.6464221100000003 9.43188336 -2.0622582 1.024635 2.379287 1.109718
14800 -0.32901759 10.008034470000002 -2.02124259 1.498005 0.85345 1.322215
14820 -0.88361613 9.12921543 0.7173072 2.1863810000000004 0.449584 1.822127
14840 -1.9254479400000002 8.43660981 2.15806266 2.064212 0.366765 1.859836
14860 -2.10222414 8.692876440000001 2.08486044 2.045376 -0.187419 1.9362580000000005
14880 -1.79671131 9.998155800000001 1.21651848 1.989543 -1.020103 1.894207
14900 -0.42391953000000004 11.10331116 0.27767205 2.038917 -1.972355 1.825269
14920 1.14900606 12.274625160000001 0.07529175 2.341353 -2.428967 1.731827
14940 2.4191165700000004 12.716359650000001 2.49246594 2.352867 -2.228893 1.505188
14960 1.3019930100000001 12.58627905 2.20745601 1.965046 -1.955677 1.1827299999999998
14980 0.8855585100000001 12.350515320000001 -1.6408892700000002 1.4276879999999998 -1.719232 0.8614120000000001
15000 -0.02499588 12.60708606 -3.0638297700000003 0.6137020000000001 -1.280833 0.093522
15020 -1.57502493 14.014458090000002 0.92523015 -0.186509 -1.059962 -0.6334
15040 -4.81309011 15.05150262 1.72785492 -1.139735 -1.039274 -0.984052
15060 -5.256619830000001 12.2132538 -1.3148637300000001 -2.500442 -1.246176 -1.3426
15080 -7.347621330000001 12.207269700000001 -0.11121597 -3.025696 -1.701842 -1.487759
15100 -8.09396613 14.21832951 3.24734544 -1.030127 -0.711431 -1.545592
15120 -8.76128157 16.27445646 3.0726587700000003 0.8167 -0.134145 -0.726924
15140 -10.03917141 15.43725144 0.3972755700000001 1.107049 -1.374864 1.33409
15160 -7.01635725 12.41907741 1.0916764200000002 1.138965 -2.019492 2.138442
15180 -3.1246027200000004 11.81807757 1.8934084800000002 0.652946 -0.803287 1.580149
15200 0.7614620100000001 12.4216182 -0.89993016 -1.080244 0.13109500000000002 -0.943476
15220 -0.94783239 9.533828880000002 -0.7146094500000001 -0.249819 1.276968 -1.305544
15240 -2.30580126 6.007457610000001 0.21615354000000003 0.14925 0.913965 0.945248
15260 -3.0647224800000004 4.3673139 1.78623423 -0.278484 0.30567 0.789216
15280 -2.3593932900000008 3.0527542800000003 2.33260218 -1.631905 1.372082 0.080846
15300 -1.72905174 3.0144266100000006 2.15297127 -4.24801 2.599196 -0.825624
15320 -1.0181799 3.2153157900000005 0.5824393200000001 -5.266177 3.753793 -1.499718
15340 -2.04893622 2.80725903 -0.76790718 -4.130991000000002 3.4293339999999994 -2.062871
15360 -3.11891292 2.61192231 -1.3997398499999998 -2.555986 3.913016 -2.108037
15380 -3.2956989300000004 2.0477394 -2.1427983000000004 -3.288027 2.010621 -2.319016
15400 -2.18844423 1.4693418 -3.00290967 -2.646291 0.6623760000000001 -1.643031
15420 0.05613282 2.71984212 -4.242923100000001 -0.382361 -0.522226 -0.672845
15440 1.6762150800000002 4.53601647 -5.84369928 -0.407941 -1.705758 -0.913993
15460 2.9328466500000006 8.402775120000001 -10.272982950000001 -1.130635 -1.864779 -0.746854
15480 4.900212720000001 15.868351890000001 -14.77158408 -1.005844 -1.572515 -0.6833319999999999
15500 0.8062250400000001 26.391323070000006 -11.45627496 -0.941742 -0.561958 -0.64145
15520 -0.8858626199999999 23.116284 -6.71682852 -0.962989 0.322637 -0.727122
15540 3.5374467600000004 9.97181595 -7.44267042 -1.029629 0.635207 -0.78033
15560 4.024228770000001 2.4719630400000003 -8.32090086 -1.1066280000000002 0.282107 -0.85626
15580 -7.737559020000001 15.6927627 -8.05191066 -1.047803 -0.305437 -0.763229
15600 -13.460310810000001 25.21476072 2.4138780300000002 -0.670654 -0.440796 -0.540367
15620 -14.10232626 15.768064260000001 5.4607953600000005 -0.488868 -0.118621 -0.546988
15640 -6.49319976 3.9974376600000006 -2.2008735 -0.306506 0.174575 -0.234169
15660 -5.6990998799999995 1.555866 -2.87731224 -0.101045 0.096117 0.026945
15680 -3.84221403 1.7474651099999998 4.6270238400000006 0.049083 0.126203 0.364445
15700 -5.41169631 4.12273098 6.15235131 0.6271399999999999 0.242853 0.528566
15720 -6.41401344 6.159237930000001 -0.03248091 1.618289 0.318995 0.608031
15740 -2.3733136800000008 9.29641707 -2.9981125800000004 2.226572 0.196394 1.168981
15760 -1.4070777300000001 9.63561744 0.50370426 3.237294 1.3716700000000002 1.554822
15780 -2.25850725 8.30921715 5.99458689 2.902621 0.8439040000000001 1.426042
15800 0.29533986 8.39693817 9.76464837 2.4008700000000003 1.008543 1.181976
15820 1.7316023400000002 7.792642170000001 2.55878154 1.903922 2.058302 1.230571
15840 -2.11330944 7.5676596300000005 -0.49562082 1.505427 2.473726 1.052067
15860 -2.51207613 8.118069299999998 -1.37294874 1.391382 1.333127 1.073028
15880 -2.7831656700000007 8.7801462 -2.287692 1.628234 0.984624 1.439392
15900 -2.31134391 8.753492430000001 -0.9143018100000001 1.817296 1.034143 1.678863
15920 -1.84311261 8.424631799999998 0.5568450300000001 1.970166 0.24175 1.769609
15940 -1.58056758 8.85408417 1.3627659600000002 2.021455 -0.449806 1.77299
15960 -1.05605631 9.8213796 1.2696592500000001 1.931331 -1.478681 1.805725
15980 0.22108797000000002 10.69600977 0.51059088 1.924895 -2.203028 1.8012669999999995
16000 2.79019944 11.411668890000001 0.14130323999999997 1.990223 -2.216827 1.732307
16020 1.9357778700000001 13.034144790000001 1.8857763000000003 1.904387 -1.874585 1.468486
16040 1.31636466 13.82195646 2.82717333 1.565558 -1.844476 1.159501
16060 0.45161316 12.863499840000001 -0.6316855199999999 0.8970299999999999 -1.550338 0.643844
16080 -0.5496543 11.724372449999999 -2.2960795500000004 0.002986 -1.080929 -0.084052
16100 -1.5274268100000001 11.71703457 -0.4776587100000001 -0.733071 -0.922646 -0.6662359999999999
16120 -4.21658325 15.013184760000001 1.48565583 -1.7285279999999998 -1.079554 -1.05648
16140 -4.44695148 14.41786491 -2.20386555 -2.788754 -1.40455 -1.4469610000000002
16160 -5.10543792 13.70669877 -0.34593003000000005 -2.336417 -1.439142 -1.712949
16180 -8.17360371 13.948740900000002 2.8744771500000006 -0.487267 -0.542879 -1.809071
16200 -8.68403763 15.390840330000001 3.4476264000000003 1.214037 -0.556854 -0.058104
16220 -9.3733569 15.5279547 1.56844242 1.180337 -1.555563 1.70337
16240 -8.34604389 13.867013790000001 0.39532338 1.117711 -1.498717 1.927186
16260 -3.64476816 11.940967440000001 1.39555098 -0.82034 0.3692 0.822737
16280 0.27812331 11.45882556 -1.27819395 -1.83981 0.128153 -1.679442
16300 -1.2769971300000003 9.5122665 -0.08772102000000001 -0.27713000000000004 1.58111 -0.618189
16320 -2.53962261 6.55950555 0.52092081 -0.235406 0.171568 1.519284
16340 -3.17250495 5.09210613 0.57749508 -0.524792 -0.297792 0.86518
16360 -2.7960363900000003 4.370757210000001 2.34996588 -1.947154 1.08211 0.142041
16380 -1.9516406400000001 4.14517626 2.34307926 -3.859523 2.39766 -0.580166
16400 -1.16787069 3.84430356 1.1512525500000002 -4.748759 3.879296 -1.365941
16420 -1.23777675 2.77209018 -0.5809383900000001 -3.23422 3.424728 -1.95512
16440 -2.3252643 2.12677857 -1.3919507100000001 -2.114011 2.485338 -2.172555
16460 -2.7813704400000003 1.5763689 -2.00657664 -2.854585 1.378399 -2.300223
16480 -2.34652257 0.90696393 -3.20513301 -2.656491 0.31408600000000003 -1.382009
16500 -0.9342063 2.14923366 -4.75935093 -0.750644 -1.172369 -0.8049069999999999
16520 0.40340682000000005 4.21254153 -5.26111281 -0.168683 -1.891911 -0.922766
16540 1.00665315 7.88739696 -7.8604587 -0.6456 -1.149908 -0.652515
16560 2.09638719 15.093263790000002 -12.72054852 -1.111905 -0.6021569999999999 -0.564607
16580 1.17011718 24.709712490000005 -13.25943144 -0.926826 -0.045537 -0.595006
16600 0.8147597400000001 25.793756730000005 -8.53959519 -0.82283 0.229245 -0.670475
16620 6.36027426 12.60259308 -6.543338670000001 -1.022952 0.550659 -0.688308
16640 7.1753283 3.98725488 -5.2377552 -1.062862 0.388075 -0.754609
16660 -4.77506655 11.33233542 -2.8584574200000006 -0.881922 -0.08911000000000001 -0.659798
16680 -12.629688300000002 24.298820640000002 0.52315749 -0.6394920000000001 -0.390948 -0.7784270000000001
16700 -13.879590210000002 19.86908571 5.86840086 -0.391199 -0.072818 -0.630754
16720 -6.53405841 7.46123094 -2.45864106 -0.085625 0.356223 -0.296952
16740 -4.27376574 1.3373188200000001 -4.49755146 0.105408 0.118276 0.167227
16760 -4.90530411 1.3190526 2.2150980000000002 0.4669430000000001 0.223104 0.544564
16780 -4.9861287 2.348769060000001 4.89722067 1.425791 0.29496100000000003 0.923979
16800 -6.611302350000001 2.9653373700000003 1.9432629 2.076585 0.149785 1.499142
16820 -6.173756730000001 5.471125290000001 -2.6467968600000003 2.93895 0.999903 1.809587
16840 -2.39067738 9.29851641 0.37661571000000005 2.793977 0.923063 1.703987
16860 -2.84348736 9.75296466 2.8729762200000004 2.470518 0.733987 1.316342
16880 -2.8139985000000003 9.63755982 8.09666388 1.822356 1.816247 1.094647
16900 1.04886558 10.051149420000002 7.078778280000001 1.258795 2.507312 1.125076
16920 1.2752019000000003 7.9273629 1.17221652 1.452802 1.961351 1.09188
16940 -1.26532323 8.123307839999999 -1.8050988600000002 1.712913 1.200909 1.091466
16960 -1.8196176600000002 8.923843080000001 -2.6837707500000003 1.673331 1.624183 1.302156
16980 -1.81677276 8.97818067 -0.23276187000000004 1.682291 1.266238 1.563323
17000 -2.10102732 9.090897570000001 0.9172938600000001 1.829582 0.492744 1.727713
17020 -2.63287647 8.56803438 0.79919127 1.52785 -0.489036 1.888165
17040 -2.67179274 8.637636330000001 0.77059512 1.76429 -1.661026 1.996004
17060 -1.44704367 9.625287510000001 1.32998094 2.19163 -2.095721 1.907679
17080 1.82650428 10.760078880000002 0.36119439 2.2294560000000003 -2.043539 1.613047
17100 2.9213297099999997 12.8465874 -0.07394777999999999 1.829601 -2.040995 1.323967
17120 2.72837682 13.72750578 2.07633555 1.268742 -1.912716 0.9000739999999999
17140 1.78144695 13.62496185 0.36135135 0.412938 -1.5358969999999998 0.117016
17160 1.3953940200000001 12.710365740000002 -2.7315160200000004 -0.693059 -1.297683 -0.685772
17180 -0.7743425400000001 13.576618170000001 0.8427476700000002 -1.970353 -1.338231 -1.159318
17200 -4.008817260000001 15.0275466 1.81677276 -3.008003 -1.547503 -1.47181
17220 -5.74265628 14.4286461 -2.34966177 -2.25008 -1.599617 -1.617068
17240 -8.71712676 13.29011712 1.18748088 0.180054 -0.23174 -1.608256
17260 -8.47837098 15.991997130000001 3.4000282800000003 1.311057 -0.6918890000000001 0.060251
17280 -9.24088266 16.2566415 1.55960361 1.265505 -2.488208 1.7617759999999998
17300 -10.840756319999999 15.27663231 -0.8108651700000001 1.5726440000000002 -2.49246 2.025641
17320 -7.0982413200000005 12.08975571 -0.35685837000000004 0.342565 -0.320033 0.613826
17340 -4.14622593 10.879231140000002 -0.32018859000000005 0.630037 0.016986 -1.062775
17360 -0.39098736000000006 10.00429686 -0.13785993 0.434609 0.8244040000000001 0.983675
17380 -1.4889519900000001 8.863815690000001 1.27160163 -1.243187 0.660845 0.71686
17400 -2.14189578 6.86802024 0.27946728 -1.336099 1.782863 0.19455
17420 -2.8915367400000003 4.8800041200000015 0.9442321200000001 -3.706723 3.538324 -0.91705
17440 -3.34119771 3.73383315 2.62733382 -5.509264 4.0198160000000005 -1.747448
17460 -2.4071483700000003 3.3901496100000004 2.80172619 -4.767096 4.158742 -2.2338240000000003
17480 -1.08255312 3.2307273000000003 1.12565826 -2.936994 3.0711630000000003 -1.972887
17500 -1.0759608 2.60264205 -1.3651596 -2.592962 2.39912 -2.041194
17520 -2.03591835 1.92110211 -1.9743900300000001 -2.489973 0.771609 -1.655966
17540 -2.4551977500000004 1.13104395 -2.8632447000000005 -1.682446 0.23663 -0.972387
17560 -1.6088498100000002 0.84992859 -3.78023445 -1.227832 -0.109451 -0.867287
17580 0.29338767 2.03127822 -4.35070557 -1.108379 -0.343212 -0.854402
17600 1.6257720600000003 4.343220540000001 -6.09771942 -1.054815 -0.732372 -0.81721
17620 3.69312165 9.45628083 -12.17778084 -1.057227 -0.817492 -0.840619
17640 5.11247169 18.647622990000002 -15.366148560000001 -1.036475 -0.406635 -0.773702
17660 0.30895614000000005 28.85354478 -9.20675367 -0.95434 0.388492 -0.686553
17680 0.8994789 22.585935780000003 -5.3012258999999995 -1.047598 0.7149949999999999 -0.737829
17700 3.7538946 10.27058931 -6.8627817 -1.18589 0.547245 -0.758877
17720 -3.73863024 11.339967600000001 -9.54220662 -1.029698 -0.042508 -0.730324
17740 -13.40327547 25.141117050000002 -5.38070652 -0.686021 -0.671365 -0.6758430000000001
17760 -11.63215845 13.185777960000001 6.233332860000001 -0.48532 -0.306012 -0.574497
17780 -6.145915950000001 3.0707163900000003 2.93015871 -0.199259 0.32218 -0.210108
17800 -8.123602140000001 -0.06196977000000001 -3.8464029 -0.01754 0.096193 0.201648
17820 -4.42719414 3.60884394 0.45460521000000004 0.34877600000000003 0.271489 0.535131
17840 -5.82019452 4.9310455499999994 7.170393870000001 1.275315 0.5435 0.705761
17860 -6.65605557 5.473214820000001 6.61908168 2.074456 0.138968 1.009895
17880 -3.7729063800000002 8.271203400000001 0.09325386000000001 2.771098 0.762508 1.648486
17900 1.1573936100000002 12.45589434 -0.9122024700000001 2.751297 0.943367 1.7250279999999998
17920 -0.6448603500000001 9.807007950000001 2.8476762300000003 3.035387 0.894792 1.372425
17940 -0.50804028 8.430321600000001 2.81908989 1.915921 1.584446 1.17251
17960 0.31584275999999994 7.67080197 2.6059284 1.415468 2.766462 1.183523
17980 -1.11083535 7.443268830000001 3.1530419100000002 1.497435 2.072335 1.004455
18000 -2.7535198500000004 7.92811827 2.3444232300000003 2.034466 0.7674949999999999 1.040857
18020 -2.0254412700000004 8.08723647 0.5396284800000001 1.8207 1.547511 1.433606
18040 -1.10231046 9.03041892 -1.11383721 1.580522 1.383993 1.773969
18060 -0.51253326 9.28039734 -1.94654925 1.802546 0.240213 2.032291
18080 -1.17894618 9.119189610000001 -0.6586335900000001 1.720348 -0.498736 2.015572
18100 -1.7408826 8.93042559 1.5533154000000002 1.87223 -1.688822 1.927359
18120 -1.51485039 9.03400938 2.42765127 2.400315 -2.041761 1.819337
18140 -0.41808258000000004 10.416689640000001 0.9410929200000001 2.497135 -1.977832 1.46635
18160 1.7944648200000002 12.28435668 -0.57705363 2.069522 -2.08237 1.073596
18180 3.0398737500000004 13.31016876 0.9334607400000001 1.2959459999999998 -1.96963 0.7240800000000001
18200 2.1405518100000007 13.16437254 2.39038308 0.319327 -1.499252 0.091746
18220 1.015335 12.73267368 -0.93570723 -0.608492 -1.329445 -0.541999
18240 0.16121754000000002 12.00638052 -2.8601055 -2.022071 -1.442482 -1.151
18260 -2.1784184100000004 14.05217754 0.6304887000000001 -3.393934 -1.618058 -1.607943
18280 -4.97430765 15.43111038 1.4392545300000001 -2.674135 -1.316691 -1.938723
18300 -5.20242939 13.975688970000002 -1.60571061 0.378537 0.667964 -1.666775
18320 -6.50532492 11.89860786 1.2617229600000002 0.961417 -0.351839 0.572256
18340 -8.597523240000001 15.144158070000001 1.7065966500000003 1.125358 -2.290719 2.045759
18360 -10.555452090000001 16.45557849 1.45901187 1.203631 -1.106998 2.19434
18380 -11.27575134 15.36914061 -0.7240466700000001 -0.561527 0.039731 -0.124682
18400 -7.82946891 11.69457948 0.8722365300000001 0.21225700000000006 0.920871 -2.1639150000000003
18420 -1.98771201 11.43008226 -0.23007393000000004 0.152851 1.065924 0.76989
18440 0.14878826999999997 10.90961271 -0.9774684000000001 -1.166681 0.231984 1.071526
18460 -1.23703119 8.64526851 0.12439080000000001 -1.829201 1.837449 0.291448
18480 -1.7618367600000002 5.946233400000001 -0.32153256 -4.019328 3.234053 -0.745792
18500 -3.2022881100000005 4.30385301 1.43536977 -5.550159 3.534982 -1.6787459999999998
18520 -3.0846367800000003 3.57277257 3.3593167800000003 -4.33262 3.401507 -1.855941
18540 -2.00164221 3.40466841 3.0566390400000003 -2.391671 3.154385 -1.6796970000000002
18560 -0.7577244000000001 2.85052113 1.3720462199999999 -2.828861 2.288539 -1.888876
18580 -1.2639694500000003 2.4141821400000003 -0.6483036600000001 -2.582862 1.01484 -1.39628
18600 -1.57996917 1.9464021 -1.12072383 -1.529606 0.009508 -0.784089
18620 -2.42959365 0.5307994800000001 -2.63796786 -0.7273970000000001 -0.500301 -0.794924
18640 -1.6233784199999999 0.22168638000000002 -4.85904996 -0.686264 -0.544369 -0.7326229999999999
18660 -0.17035065000000002 1.9059849 -5.654336850000001 -1.033401 -0.620973 -0.7221310000000001
18680 1.37518542 5.76810342 -9.34731135 -1.119734 -0.313015 -0.670786
18700 4.892129280000001 13.23502416 -15.744706650000001 -0.925038 0.229791 -0.718192
18720 2.21060502 28.317663720000002 -14.148423450000001 -0.996863 0.574342 -0.772546
18740 -1.7019565200000002 29.740152960000003 -7.02833526 -1.053112 0.324514 -0.851667
18760 3.71722482 10.927123560000002 -5.75612541 -1.138698 0.06264199999999999 -0.824156
18780 2.333799 4.11628581 -7.51915899 -0.853147 -0.423345 -0.749967
18800 -9.16678773 16.459767360000004 -8.11986453 -0.477868 -0.535121 -0.562401
18820 -14.565309210000002 23.37314904 4.7304604800000005 -0.28922800000000004 0.378304 -0.31442600000000004
18840 -15.00300198 13.24086111 4.27960269 -0.147321 0.296342 0.078708
18860 -4.6994805 1.60331697 -2.0329263000000006 -0.0017329999999999995 0.199941 0.350108
18880 -3.5061626700000006 -0.13950801 -2.57748921 0.5116 0.39777 0.51581
18900 -3.72590667 2.36089422 4.84557102 1.318692 0.360531 0.603749
18920 -6.079904460000001 4.9741605 6.533911260000001 2.0246060000000003 0.354787 1.160958
18940 -6.12451053 7.148085930000001 0.02320065 2.612766 1.196404 1.70344
18960 -1.65301443 10.7356716 -1.8571899600000001 2.417161 1.080048 1.666971
18980 -0.85277349 10.19964339 0.7469432100000001 2.243042 0.750488 1.383098
19000 -2.04624828 8.73164556 5.126686380000001 1.65704 1.860368 1.126551
19020 -0.6460571700000001 8.91980136 4.9889736000000005 1.4740950000000002 2.987853 1.179376
19040 0.2544714 7.37052768 3.58654581 1.619042 2.530032 0.991899
19060 -1.97739189 7.537425209999999 1.26367515 1.823171 1.383239 0.954202
19080 -1.79641701 8.10190242 -0.24354306000000003 1.999583 1.288749 1.25359
19100 -1.4738347800000002 8.68015287 -1.09527669 2.222797 1.150471 1.540541
19120 -1.30079619 8.720717220000001 -0.7213489200000001 2.275741 0.123424 1.791123
19140 -1.6600482 8.90078958 0.023347800000000002 2.150994 -0.5282640000000001 1.833815
19160 -2.07258813 9.12667464 1.02836268 2.001111 -1.603627 1.822396
19180 -1.6916364000000002 9.49909167 1.8419157900000003 2.462509 -2.070344 1.720463
19200 -0.18067077 10.221794370000001 1.4322207599999999 2.381864 -1.871483 1.344699
19220 2.0975840100000003 11.689193790000001 -0.12843252 1.92071 -1.770595 1.024087
19240 3.07969254 13.171259160000002 1.2617229600000002 1.079893 -1.6693169999999995 0.668775
19260 1.8794880900000002 13.618379339999999 2.81235042 -0.011427 -1.321041 0.034727999999999995
19280 0.9544149000000001 13.064977620000002 -0.42855966000000006 -1.098755 -1.360182 -0.688526
19300 0.09909081000000002 12.16864773 -2.41163154 -2.390128 -1.4613459999999998 -1.17598
19320 -1.1422764000000003 12.62954115 -1.5934383 -3.349737 -1.270858 -1.360252
19340 -3.4236801900000002 14.07269025 -0.23995260000000002 -1.824746 -0.35952 -1.482159
19360 -4.677319710000001 13.31436744 -0.8035272900000001 0.205487 0.481747 -1.5684
19380 -6.86921706 12.112809210000002 2.9117453400000004 1.101761 -0.992436 0.276023
19400 -9.00123417 15.612977970000001 2.1654005400000003 1.404331 -2.680615 1.539733
19420 -9.871675470000001 17.12722995 1.28178441 1.416281 -1.671887 1.551343
19440 -11.03819238 15.97657581 -0.52121511 -0.42095 0.801878 0.698922
19460 -8.6879322 12.42790641 -0.34802937000000006 -0.968779 1.348322 -1.742219
19480 -5.464238669999999 10.321787700000002 -0.18351567000000002 -0.434055 1.925338 -0.252258
19500 -1.5123096 9.46825884 0.31180104000000003 -0.943929 0.705901 0.6451859999999999
19520 -0.15926535 8.178989399999999 -0.36927783000000003 -1.1901620000000002 1.424705 0.124457
19540 -1.4153083200000003 6.6184832700000005 -0.12034908 -3.368003 2.167664 -0.499526
19560 -1.81048455 4.89347325 -0.17124336 -4.988444 3.00461 -1.13469
19580 -2.3254114500000003 4.11030171 1.54463355 -4.382544 3.619491000000001 -1.44744
19600 -1.6543584000000002 3.92394114 3.17174958 -3.126819 3.3636699999999995 -1.697919
19620 -0.15657741000000003 4.3180677 1.35333855 -2.894431 2.417663 -1.888431
19640 0.26689086 3.788622 -0.49756320000000004 -2.791783 1.262621 -1.90653
19660 -1.1787990300000002 3.3413546700000003 -2.08126998 -1.8435740000000005 0.723839 -1.193122
19680 -2.5336287 1.9014919200000002 -2.45549205 -1.024378 -0.235642 -0.921251
19700 -2.09429766 1.1784949200000001 -3.35302857 -0.470429 -0.834375 -0.8567940000000001
19720 -0.31734369000000007 2.5102809 -4.747529879999999 -0.660267 -1.277998 -0.8415290000000001
19740 2.19248595 4.803358590000001 -7.23655251 -1.043005 -0.865924 -0.729362
19760 4.1195819700000005 8.939862810000001 -12.535237620000002 -1.079958 0.259839 -0.639196
19780 3.4389445500000004 17.10418626 -16.85330532 -1.0780530000000002 0.871501 -0.689104
19800 -2.32361622 25.091419590000005 -9.80191656 -1.12697 0.797543 -0.7993779999999999
19820 -0.41882814000000007 21.0139029 -6.92639955 -1.014506 0.122014 -0.8607520000000001
19840 5.463787409999999 9.06021189 -7.17353307 -0.726016 -0.597529 -0.724287
19860 1.9357778700000001 4.99840101 -5.1422548500000005 -0.581341 -0.786097 -0.579893
19880 -11.48891283 17.371371420000003 -4.43497347 -0.292134 -0.055264 -0.577741
19900 -16.42594248 22.35660741 3.8799334800000005 -0.105457 0.39605 -0.116612
19920 -11.41690743 11.121871680000002 2.78061507 -0.15973900000000002 0.077318 0.249817
19940 -4.6502343 2.8467835200000002 -4.25774601 0.428416 0.230559 0.578469
19960 -3.8407131000000003 3.20513301 0.5707654200000002 1.398749 0.015788999999999997 0.96474
19980 -3.25738107 2.6319739500000003 6.79496517 2.026726 -0.266545 1.493986
20000 -4.50219159 5.2175466 5.508844740000001 2.351309 0.399812 1.871413
20020 -5.281919820000001 6.8106906 -1.43671374 3.623153 1.359404 1.623762
20040 -1.23148854 9.361535850000001 -2.20551363 2.812749 1.986037 1.198556
20060 -1.52697555 8.87504814 1.8857763000000003 2.163828 2.479091 1.270303
20080 -2.04564987 8.04262059 4.1330511 1.921093 2.777149 0.737319
20100 -0.6360313500000001 8.74152423 4.6945362600000005 2.0184 1.213742 0.548791
20120 -0.36613863 7.550747190000001 4.99256406 2.6239999999999997 0.407483 0.783722
20140 -1.7003182500000003 8.01717345 2.71565325 2.757766 0.474441 1.238565
20160 -1.55347236 9.03386223 -1.0529073 2.516267 0.251285 1.57579
20180 -1.21068153 9.25331193 -2.6435007 2.298465 -0.052389 1.781893
20200 -1.20754233 8.76427362 -1.17026433 2.030959 -0.542125 1.940885
20220 -1.7986635000000002 8.559646830000002 0.5755527000000001 1.931255 -1.338697 1.963642
20240 -2.04474735 8.390198700000001 1.5031764900000002 2.026018 -1.506833 1.837401
20260 -1.4718924000000002 9.00602145 1.84461354 1.889016 -1.589617 1.613292
20280 0.05239521 10.28720745 0.86699799 1.44605 -1.7326700000000002 1.274959
20300 2.7411003900000006 12.0743442 -0.4221243 0.575971 -1.429263 0.747201
20320 2.70292968 13.53261051 1.73653677 -0.281806 -1.091442 0.127617
20340 1.78548867 14.027328810000002 2.64260799 -1.028996 -1.083136 -0.501455
20360 0.85547124 12.70124244 -0.81939987 -2.030294 -1.135545 -0.912169
20380 -0.45759726 12.313992690000001 -0.60968169 -3.0373 -1.245562 -1.297213
20400 -2.98389789 15.04970739 2.55997836 -2.254985 -1.251317 -1.601525
20420 -4.79692323 16.137194940000004 2.00597823 -0.182854 -0.7610210000000001 -1.866486
20440 -5.448964500000001 14.029271190000001 -2.5753898700000004 1.286471 -0.6506850000000001 -0.365126
20460 -6.13663569 13.84126254 -4.392918 0.905288 -1.936383 1.272511
20480 -10.083483180000002 15.885862740000002 2.2031199900000003 1.408031 -1.217822 1.2281
20500 -10.566674729999999 15.029793090000002 2.6056341 -0.134943 0.498244 -0.339139
20520 -11.0943252 13.19685345 -0.05673123 0.4783689999999999 0.675509 0.352853
20540 -7.11066078 10.0354338 0.19623924 -1.415241 0.494937 1.329031
20560 -1.9134699300000002 9.512864910000001 -0.6497947800000001 -1.5003959999999998 0.046713 1.072637
20580 0.24668226000000004 10.572060420000001 0.3381507 -1.413972 2.628327 0.087168
20600 0.5897772000000001 9.09508644 0.36583452 -4.781606 3.324926 -1.496852
20620 -0.35820234 6.85080369 0.79035246 -5.227831 3.803145 -2.152197
20640 -1.7338488300000001 5.18955867 1.20529584 -3.347904 3.3841660000000005 -2.102209
20660 -2.46866688 4.284988380000001 2.5307838000000005 -1.68253 3.725187000000001 -1.980986
20680 -1.57277844 3.45945726 1.9606266 -3.039389 1.157193 -2.232864
20700 -1.7136402300000002 2.82358287 0.17244018 -2.515566 0.645559 -1.547024
20720 -2.33604549 2.6803274400000006 -1.2750449400000001 -1.2420639999999998 -0.125748 -1.041485
20740 -3.1452625800000003 2.0284333200000004 -1.57263129 -0.378635 -1.404198 -0.961177
20760 -3.02850396 1.31980797 -3.0192237 -0.588761 -1.537 -0.8684709999999999
20780 -1.1308968 1.9998371700000002 -4.65457032 -1.004478 -1.463078 -0.8789469999999999
20800 1.3259392199999998 3.5670827700000003 -5.350020840000001 -1.1411870000000002 -1.1190790000000002 -0.739337
20820 2.50069653 5.6637740700000005 -7.69788738 -0.947084 -0.426247 -0.742074
20840 3.86465931 10.971131220000002 -13.079653380000002 -0.8332639999999999 0.198722 -0.75383
20860 3.53205126 18.5411943 -13.58709525 -1.068798 0.434134 -0.812393
20880 -0.67344669 25.40127825 -10.655886870000002 -1.150575 0.218416 -0.8746450000000001
20900 0.4776587100000001 17.4942711 -7.53637554 -0.797762 -0.5477569999999999 -0.854107
20920 1.2581325 11.418702660000001 -9.11050776 -0.423734 -0.605691 -0.809759
20940 -10.61816742 26.253600480000006 -9.47230056 -0.176333 0.092329 -0.557894
20960 -11.979285299999999 22.80582693 7.05992346 0.072328 -0.018594 -0.207774
20980 -4.91712516 3.5857904400000002 6.732701100000001 -0.065562 -0.353299 0.229662
21000 -7.001092890000001 -4.21343424 -3.74176944 0.46919 0.143731 0.6782090000000001
21020 -6.2004105 0.9601047 -4.3364810700000005 1.663815 0.248715 1.093412
21040 -4.54544388 2.75576634 5.867802449999999 2.179777 -0.051259000000000006 1.602669
21060 -6.044725800000001 4.79947383 6.67821636 3.16642 1.017457 2.017321
21080 -5.57770113 6.661294110000001 0.6815301300000001 3.086228 0.7449020000000001 1.782101
21100 -0.8961827400000001 11.174561190000002 -2.04324642 2.411311 0.739978 1.2016209999999998
21120 -1.4314752 9.92810259 -0.44786574 1.906666 2.465093 1.2642520000000002
21140 -1.6548096600000002 8.85828285 4.18050207 1.557758 3.188381 1.042971
21160 -0.31734369000000007 9.10391544 5.06397105 1.782962 1.019969 0.991775
21180 0.17573634 8.28182763 5.21545707 2.240107 0.464374 1.274486
21200 -1.50826788 7.654183830000001 2.08830375 2.10175 1.246898 1.507525
21220 -1.81123011 7.62694146 0.46942812 2.017803 0.36528 1.738805
21240 -1.37833443 8.52941241 -1.7914727700000002 1.9473 -0.402285 1.94119
21260 -1.0490225400000002 8.907980310000001 -2.2267719 1.867574 -1.2819459999999998 1.946033
21280 -1.6747141500000002 9.03730554 -0.8074218599999999 2.031557 -2.062309 1.949247
21300 -2.18889549 9.19657089 0.99153594 2.307134 -2.15741 1.783583
21320 -2.18051775 9.693094230000002 2.33320059 2.275501 -2.056389 1.323897
21340 -1.53056601 10.483446690000001 1.39509972 1.756128 -2.026928 1.067063
21360 0.97072893 11.38772268 -1.32848982 0.803189 -1.69639 0.486348
21380 2.68841088 11.816125379999999 -0.07499745000000001 -0.182612 -1.513028 -0.289893
21400 2.70023193 12.6817794 4.26537819 -1.343205 -1.609849 -0.911035
21420 1.93308012 13.10046039 1.23119424 -2.703971 -1.512513 -1.4280700000000002
21440 1.0336012199999998 12.808416690000001 -3.37967253 -2.730789 -1.377911 -1.498933
21460 -1.14212925 12.96199224 -0.5836361400000002 -0.5601550000000001 0.206983 -1.45696
21480 -4.37570145 14.877865620000001 3.3374601000000004 0.83572 -0.456812 -0.771243
21500 -5.67350559 13.671372960000001 -0.26824464000000003 1.244595 -1.958858 1.00465
21520 -6.55741602 13.54234203 -2.8412408700000005 1.150535 -2.10573 1.850213
21540 -8.87923701 17.50340421 2.91623832 0.668304 -0.649119 1.640948
21560 -9.87392196 17.18636463 3.79235961 -1.070503 0.61182 -0.491098
21580 -12.01147191 16.816478580000002 0.02425032 -0.4154229999999999 1.710847 -1.7719330000000002
21600 -10.02943989 12.53598318 -0.66251835 -0.405149 1.192935 0.660075
21620 -4.88748915 10.281517650000001 0.55833615 -0.409202 0.359737 0.967694
21640 0.09759969 9.91657584 -0.34219242000000005 -1.948418 1.31408 -0.05802300000000001
21660 -1.25708283 8.57656908 0.45011223 -4.503486 2.849934 -0.703816
21680 -1.7348886900000002 6.2063946 -0.14205861 -5.556767 3.687606 -1.4792299999999998
21700 -2.40744267 4.82267448 1.57172877 -4.25988 3.599725 -1.93794
21720 -2.6271866700000004 3.82559589 2.6726952600000002 -2.4407970000000003 3.21488 -1.84676
21740 -1.7938664100000001 3.4726320900000003 3.12266034 -2.700857 2.107704 -2.065075
21760 0.30431601 2.50249176 1.7961129 -2.529037 0.956617 -1.800685
21780 -0.57375747 2.03202378 -0.65832948 -1.030743 -0.475266 -0.931671
21800 -1.9693084500000002 1.5852077100000002 -1.7561469600000001 -0.434277 -1.485739 -0.768113
21820 -3.18358044 0.52496253 -2.5268990400000004 -0.794404 -1.563525 -0.717118
21840 -2.61820071 0.28365615 -4.03306758 -1.054518 -0.8708809999999999 -0.545702
21860 -0.16165899 2.01675942 -4.75171875 -1.262751 0.363075 -0.456871
21880 2.21988528 5.636826 -7.9635912300000005 -1.1370559999999998 1.032689 -0.454714
21900 4.36567563 12.504100680000002 -15.82688502 -1.099889 0.833997 -0.615502
21920 1.8964103400000003 21.73809672 -14.57758152 -0.96872 0.335988 -0.8639110000000001
21940 -1.9808352 26.14283577 -7.6670545500000005 -0.787022 -0.059888 -0.8567940000000001
21960 1.46006154 15.457901490000003 -7.162457580000001 -0.728029 -0.530571 -0.6837949999999999
21980 5.29404498 5.395382280000001 -7.46318313 -0.658103 -0.7815380000000001 -0.587913
22000 0.12214431 6.260428080000001 -5.80971744 -0.179231 -0.201071 -0.443238
22020 -11.60417052 22.19105385 -3.9957895800000003 0.016461 -0.07381 0.062166
22040 -16.73475147 24.521860800000002 5.238059310000001 0.124986 -0.01811 0.423912
22060 -11.833047630000001 11.179946880000001 2.5533860400000004 0.8506729999999999 0.173714 0.575082
22080 -5.415139620000001 1.8675198900000003 -4.410428850000001 1.842846 -0.002487 0.887749
22100 -4.33378332 1.3415076900000003 0.8872065900000001 2.298044 0.202613 1.416231
22120 -3.2715957600000003 1.8449176500000002 6.85154925 3.1925060000000003 1.068615 1.722608
22140 -4.95948474 4.65202953 5.9600066400000005 2.730521 0.57493 1.706127
22160 -5.74026264 6.71488614 -1.6193367 2.287067 1.409144 1.266126
22180 -1.75585266 9.36407664 -2.10462759 1.736541 2.369757 1.277073
22200 -1.7368408800000001 8.55516366 1.20020445 1.418942 2.33084 1.161672
22220 -2.3173280099999998 8.60096655 5.78441745 1.773891 0.428761 0.994605
22240 0.10508471999999999 9.0260829 7.591017240000001 2.066744 0.38493 1.311833
22260 0.59141547 7.76166219 2.4673229100000005 1.900972 1.082006 1.624907
22280 -0.39996351 8.9540775 -1.37070225 1.9403 0.512307 1.8011
22300 -0.03951468 9.82062423 -3.4018235100000003 2.019963 -0.179732 1.90082
22320 -0.50595075 9.26168967 -1.20230379 1.832494 -1.042032 1.919843
22340 -1.68130647 8.81681598 1.03764294 2.010776 -1.988531 1.898801
22360 -2.6622181800000004 8.64093249 0.26958861 2.307656 -2.155885 1.668216
22380 -2.5373761200000002 8.765176140000001 0.12334113000000002 2.183329 -2.129653 1.343643
22400 -1.6369947000000002 9.58336938 1.6762150800000002 1.679863 -2.117309 1.091215
22420 0.45804852 10.32628068 1.5880428 0.875597 -1.7827080000000002 0.431416
22440 3.54493179 11.983483979999999 0.92358207 -0.003489 -1.603938 -0.35475500000000004
22460 3.4477833600000003 13.52572389 1.7476122600000001 -1.104801 -1.539154 -0.947917
22480 1.9279887300000003 13.46749173 0.82792476 -2.432674 -1.605379 -1.350213
22500 0.65399346 12.644354250000001 -1.6271160300000003 -2.963158 -1.844599 -1.539482
22520 -0.42077052000000004 12.244989150000002 -1.9859167800000002 -0.508264 -0.362131 -1.703696
22540 -2.5551910799999997 14.45155245 1.02147606 1.076962 -0.17860299999999998 -0.757095
22560 -4.01509566 13.89724821 0.31658832000000003 1.266758 -1.842332 1.414853
22580 -3.89010645 13.17664485 -1.34121339 1.292575 -2.324335 2.315094
22600 -7.387587270000001 14.14138968 1.00396521 1.27845 -1.489097 1.779814
22620 -9.560472840000001 17.21045799 2.8258195500000003 -0.743658 -0.003925 -0.238062
22640 -10.94598819 16.824414870000002 1.75404762 -0.487256 1.654441 -1.989212
22660 -11.33039304 14.931594990000002 0.28141947 -0.27571 1.210614 0.123641
22680 -6.947353710000001 11.29416471 0.42406668000000003 -0.707047 0.416515 0.348109
22700 -1.8375797700000003 10.519370910000001 -1.1047041 -1.933775 1.1365809999999998 -0.170924
22720 0.5833418400000001 9.9804978 -0.6086320199999999 -4.07366 2.435813 -0.611621
22740 -1.01308851 7.67124342 0.58932594 -4.830858 3.027016 -1.279965
22760 -2.092051170000001 5.20123257 0.050590170000000004 -3.732023 2.874605 -1.414168
22780 -3.1069349100000005 4.00372587 1.3900083300000001 -2.712478 1.936509 -1.069354
22800 -3.1551412500000002 3.1457040300000005 2.8605469500000003 -2.271391 1.52595 -1.344553
22820 -1.8636253200000001 3.2530352400000004 2.2008735 -2.1626220000000003 1.143673 -1.477899
22840 -0.78736041 3.35108619 0.06196977000000001 -1.88633 1.002741 -1.3721709999999998
22860 -1.30064904 2.9529081 -1.08434835 -1.635485 0.5619930000000001 -1.1263
22880 -2.23814169 2.171531790000001 -1.17535572 -1.191254 -0.138906 -0.725988
22900 -2.4354306 1.0720662300000001 -2.43363537 -0.936911 -0.719453 -0.687148
22920 -1.0145894400000002 1.11458277 -3.84655005 -1.093711 -0.761319 -0.737328
22940 0.5900715000000001 2.5509924 -5.751485280000001 -1.004527 -0.322979 -0.6763779999999999
22960 2.0520852300000003 7.06605471 -10.736270010000002 -0.994986 0.390662 -0.6612020000000001
22980 5.160815370000001 15.552803429999999 -17.44547616 -1.112077 0.877027 -0.709645
23000 0.08756406 27.582247260000003 -12.059825400000001 -1.1501940000000002 0.5539229999999999 -0.8611850000000001
23020 -2.91399183 25.24141449 -5.614370910000001 -0.898042 -0.105183 -0.888489
23040 1.3058875799999998 12.067153470000003 -7.907458409999999 -0.7194659999999999 -0.724739 -0.88538
23060 4.01360454 3.1319406 -8.00625492 -0.510025 -0.400505 -0.632232
23080 -3.07925109 7.9077527100000005 -8.498726730000001 -0.254257 0.240042 -0.40053
23100 -12.36728061 20.150642519999998 -1.43671374 -0.166767 0.217571 -0.185178
23120 -15.54712344 17.4219714 2.4718060800000003 -0.066224 -0.197077 0.057474
23140 -7.597746900000001 7.49745927 -1.06084359 0.457193 -0.067709 0.285291
23160 -4.52688336 3.81062583 -2.4370786800000004 1.183232 0.13833 0.6105649999999999
23180 -1.50916059 4.04923446 2.65547871 1.681604 -0.006189 1.153683
23200 -2.1609075600000005 5.17099815 5.94743022 2.385663 0.682954 1.63094
23220 -3.3588655200000006 7.880363190000001 4.922667810000001 3.136777 1.2212610000000002 1.693181
23240 -3.73009554 7.314836310000001 -0.5502527100000001 2.486911 1.18934 1.448333
23260 -0.37347651000000004 7.5438605700000005 -2.53094076 1.948582 1.587147 1.267806
23280 -0.26525259 7.48323477 0.26030835 1.547856 1.820107 1.166432
23300 -0.66057597 6.701260050000001 0.46673037000000006 1.6573830000000005 1.730279 1.157698
23320 -1.9091339100000002 8.61713343 2.35310508 2.057427 -0.088943 1.010068
23340 -2.74992939 8.97923034 4.00716918 2.376503 -0.06441000000000001 1.257956
23360 -2.32182099 8.38796202 3.0067944300000002 2.088685 0.308157 1.5770030000000002
23380 -1.8329396400000002 8.60245767 0.32467176000000003 2.1299650000000003 0.244169 1.825201
23400 -1.0008162 9.07337691 -1.8925157700000002 1.865598 -0.763185 1.954968
23420 -0.48753738 9.227266380000001 -1.9154123100000002 1.959104 -1.7289259999999995 2.024157
23440 -1.1858328 8.97039153 -0.35700552 2.319737 -2.223305 2.000604
23460 -1.9866721500000002 8.58045384 1.34300862 2.379491 -2.001974 1.7443650000000002
23480 -2.3324452200000003 8.93042559 2.5664137200000003 2.057195 -2.026513 1.500727
23500 -1.41380739 10.62730053 1.35872424 1.46201 -1.920562 1.09585
23520 0.01317483 11.640546000000002 -0.55624662 0.669673 -1.434215 0.306686
23540 1.11891879 11.962520010000002 1.04572638 -0.205964 -1.1841469999999998 -0.46353
23560 0.92806524 12.3925806 3.0621816899999996 -1.229564 -1.296865 -0.957644
23580 0.55295046 12.18481461 1.06054929 -2.409461 -1.5579459999999998 -1.244357
23600 0.7424600400000001 12.584483819999999 -2.12767128 -2.902189 -1.627165 -1.355601
23620 0.75727314 13.033693529999999 -1.62022941 -1.081046 -0.761813 -1.423037
23640 -0.7837699500000002 14.71619682 2.27931426 0.5260199999999999 -0.6004109999999999 -1.088347
23660 -2.84827464 14.702727690000001 0.95097159 1.2225549999999998 -1.508809 0.898165
23680 -3.68997264 13.60520451 -2.55309174 1.2773 -2.16576 1.834084
23700 -7.06605471 14.562768420000001 -1.13419296 0.784413 -0.695199 1.87469
23720 -9.705670650000002 16.33253166 3.96076788 -0.6784899999999999 -0.295522 0.165487
23740 -9.59040315 15.12021186 4.1532597 -0.60674 0.6466109999999999 -1.333935
23760 -9.803417490000001 13.055697360000002 -0.55864026 -0.41006 1.578148 0.236532
23780 -6.16987197 10.30292307 -0.99588177 -0.476626 0.7468319999999999 0.926135
23800 -2.78121348 9.496854990000001 -0.20567646 -1.323768 1.210846 0.4410600000000001
23820 0.42122178 10.3274775 -0.5620835700000001 -3.689736 2.160711 -0.612859
23840 -0.4221243 9.19837593 0.41344245 -5.0096620000000005 3.161601 -1.481144
23860 -1.4456898900000001 6.94345914 -0.20432268 -4.410449 3.856778 -1.888046
23880 -2.4343907400000004 5.63727726 1.34345988 -2.763251 2.901826 -1.867839
23900 -3.04331706 4.47330114 2.19429099 -2.249722 2.172838 -1.961594
23920 -2.49904845 3.9582172800000004 2.07528588 -2.495727 0.8708799999999999 -1.700998
23940 -2.01092247 3.8928042 0.25925868 -1.353049 0.191743 -0.955073
23960 -2.18889549 3.03644025 -1.97335017 -0.6438619999999999 -1.075045 -0.727374
23980 -2.6478465300000003 2.49935256 -1.86347817 -0.647362 -1.436993 -0.785687
24000 -2.6933453100000007 1.59972651 -2.0989377900000004 -0.991892 -0.844968 -0.686303
24020 -1.6184341800000002 1.7940233700000001 -3.33581202 -1.286351 -0.274403 -0.591883
24040 0.28245933 3.1530419100000002 -4.90530411 -1.08054 -0.11192 -0.6440640000000001
24060 2.2149410400000002 5.34269277 -7.140296790000001 -0.84801 0.065366 -0.691806
24080 3.6329471100000004 9.51077538 -12.06176778 -0.90213 0.299125 -0.760849
24100 3.4777136700000004 17.09879076 -15.42108456 -0.974931 0.164405 -0.840234
24120 -1.7411769000000001 24.13715184 -8.7343335 -0.993863 0.01416 -0.8134680000000001
24140 -1.64388132 19.660868460000003 -6.9325308 -0.75962 -0.670034 -0.678495
24160 2.95590015 9.480982410000001 -8.20115019 -0.413508 -0.617685 -0.483865
24180 3.3232356000000003 4.80007224 -6.753204 -0.135845 0.284182 -0.352758
24200 -5.20902171 13.798451700000001 -8.439896160000002 0.028525 0.22023 0.045851
24220 -12.4705701 23.539301010000003 -0.93435345 0.098602 -0.051713 0.325494
24240 -13.603556430000001 15.589777320000001 4.40219826 0.820084 0.256892 0.5801029999999999
24260 -6.588700110000001 4.67822223 -1.8582396300000001 1.695957 -0.068406 0.982948
24280 -4.20699888 1.9413107100000002 -2.70921789 2.388752 0.257489 1.467001
24300 -3.38146776 0.46433673000000003 2.7065201400000003 3.090233 1.255731 1.638332
24320 -4.270018320000001 3.3209891100000006 5.853273840000001 2.691548 1.186323 1.492495
24340 -5.6109276 5.413638689999999 4.26118932 2.207806 1.010313 1.173148
24360 -2.9047115700000004 8.9424036 -1.2087391500000002 1.61315 1.6619810000000002 0.959856
24380 -0.7801794900000001 11.056458600000001 -1.06578783 1.447769 2.057128 1.120564
24400 -2.33784072 9.552389400000001 3.58370091 1.7511599999999998 0.938674 1.102752
24420 -1.2623213700000002 9.397312920000001 5.069356740000001 1.929144 0.688772 1.371371
24440 0.6890151600000001 9.16932852 3.7241016300000003 1.874931 1.015926 1.655788
24460 -0.40371093 8.25503652 0.7592253299999999 2.002754 0.190275 1.826518
24480 -1.3078299600000003 7.977511620000001 0.17573634 1.94174 -0.482042 1.911343
24500 -1.81392786 8.34170787 -0.5260023900000002 1.654691 -1.691155 1.900205
24520 -1.32430095 8.53974234 -0.39173292000000004 1.7406970000000002 -2.458599 1.937041
24540 -1.84595751 8.70005736 -0.21106215 1.914033 -2.4980130000000003 1.786614
24560 -2.4255519300000006 8.9657514 0.37572300000000003 1.804816 -2.262769 1.3945809999999998
24580 -2.5469506800000006 9.21333618 1.00231713 1.451378 -2.056192 1.189953
24600 -2.07454032 9.740241090000001 2.04250086 0.8250780000000001 -1.466798 0.594097
24620 -0.67270113 10.42566579 0.71625753 0.152308 -1.059204 -0.052058000000000014
24640 1.55916216 11.881842570000002 -1.3816305900000003 -0.658414 -0.8645729999999999 -0.601695
24660 2.71520199 12.972469320000002 1.39584528 -1.808694 -0.846097 -1.027429
24680 1.2910646700000001 13.07934927 2.73376251 -2.891238 -0.944944 -1.210052
24700 1.1020063500000001 12.35830446 -0.8416980000000001 -2.637893 -0.878542 -1.252165
24720 0.55864026 12.16444905 -2.66820228 -0.335646 0.047574 -1.480825
24740 -1.5033236400000003 13.386215880000002 0.6014511 1.113481 -0.463485 -0.143316
24760 -2.9524568400000004 13.78094085 -0.9322639200000001 1.1868299999999998 -2.021067 1.692261
24780 -3.9853125 13.8849759 -2.58871185 1.301915 -2.506142 1.952196
24800 -7.73022114 14.01984378 2.7593666100000003 0.733653 -0.604871 0.909615
24820 -9.37964511 16.63206039 4.780305090000001 -0.52933 0.104074 -1.057098
24840 -9.998754210000001 15.964901910000002 1.8119854800000001 0.118984 0.7583770000000001 -0.07812100000000001
24860 -8.78223573 13.92104727 -0.9172938600000001 -0.6469020000000001 0.0902 0.646981
24880 -5.757626340000001 11.403889560000001 -0.74964096 -0.713738 0.5201479999999999 0.278495
24900 -1.6649924400000002 10.871442000000002 -0.4363389900000001 -2.550602 2.095055 -0.366605
24920 0.04969746 10.06416729 0.41793543000000005 -4.559858 3.039986 -1.029193
24940 -1.3205535300000002 8.144860410000001 0.81610371 -4.534912 3.819556 -1.529945
24960 -1.67082939 5.6627244 -0.26525259 -3.801571 3.020869 -1.7000560000000002
24980 -2.5613223300000003 4.649331780000001 1.08195471 -2.742649 2.876804 -1.489513
25000 -2.4786927000000003 4.1851422000000005 1.18074141 -2.740411 2.087829 -1.589967
25020 -1.9107721800000002 4.4420170500000005 1.18898181 -2.219558 1.281452 -1.25201
25040 -0.81999828 4.44261546 -0.09924777 -1.522381 0.5076109999999999 -0.94491
25060 -1.99729638 4.58241777 -1.35752742 -1.03571 -0.44086 -0.740538
25080 -3.1723578000000003 3.8977484400000004 -1.5533154000000002 -0.780142 -1.090235 -0.806287
25100 -3.73009554 2.26059678 -2.03876325 -1.061082 -0.8054399999999999 -0.920778
25120 -2.56596246 1.41275772 -3.04287561 -1.171974 -0.293811 -0.8987069999999999
25140 -0.61836354 2.5560837900000006 -4.594248629999999 -0.913748 0.108399 -0.74039
25160 1.4112666 4.7904878700000015 -6.44035329 -0.901824 0.380034 -0.748132
25180 3.1253482800000003 7.974970830000001 -10.23586191 -1.1254 0.39184 -0.8426440000000001
25200 5.270088960000001 14.94716346 -14.03615781 -1.234672 0.036491 -0.8611120000000001
25220 2.26059678 23.773858110000006 -10.146796920000002 -0.914318 -0.5359189999999999 -0.783365
25240 1.20723822 24.56991018 -6.87385719 -0.545469 -0.686954 -0.628908
25260 4.22287146 12.420274230000002 -6.9296859 -0.369753 -0.021759 -0.364682
25280 3.32203878 6.175856070000001 -7.7068733400000005 -0.212383 0.31239 -0.14823
25300 -8.740474560000001 15.40506483 -7.4181258 -0.165697 -0.089794 0.221148
25320 -12.48449049 22.093454160000004 2.71325961 0.378828 0.010647 0.471582
25340 -10.762913970000001 11.15794305 3.0123370800000004 1.193096 0.085588 0.73782
25360 -6.22705446 2.20386555 -3.41335026 1.922727 -0.061023 1.337035
25380 -4.6969299 3.31949799 -2.3281092 2.317392 0.38941 1.572087
25400 -3.7875723300000006 3.0916705500000004 4.932095220000001 3.497746 1.425102 1.819355
25420 -4.891825170000001 5.32592748 6.716387070000001 2.7342310000000003 1.613549 1.443107
25440 -6.08724234 7.05648015 3.7598787000000002 2.128289 2.171336 1.273654
25460 -3.37309002 8.83881981 -1.35198477 2.082755 2.6945490000000003 1.006678
25480 0.25282332 10.048157370000002 -0.85516713 1.878169 1.175723 0.8533709999999999
25500 -0.09624591 9.02263959 3.08433267 2.602738 -0.284884 0.786597
25520 -0.21675195 9.30450051 4.52119356 3.004254 0.377067 1.133589
25540 -0.8698428900000001 8.42896782 4.34786067 2.616128 0.355488 1.537898
25560 -2.40385221 7.25212098 3.7296442800000005 2.3574610000000003 0.196916 1.7232330000000002
25580 -2.1514801500000003 7.56332361 1.1298471300000001 2.11288 -0.8427690000000001 1.929024
25600 -1.4778765 8.19276264 -1.5416415 2.037342 -1.446763 1.990159
25620 -1.4305726800000003 9.1387998 -2.0574709200000005 2.13878 -1.5945200000000002 1.823346
25640 -1.65031668 9.00572715 -0.6888680100000001 2.12398 -1.63053 1.5177770000000002
25660 -2.01166803 8.68434174 1.0310604300000001 1.8239490000000005 -1.679674 1.280736
25680 -1.87230717 9.07712433 2.0678008500000002 1.3378 -1.5314709999999998 0.8712260000000001
25700 -1.14961428 9.51391458 1.29645036 0.552147 -1.336453 0.20319
25720 0.1300806 10.87218756 0.09236115 -0.390214 -1.147147 -0.499047
25740 1.39359879 12.67175358 0.04161402 -1.3415709999999998 -1.249777 -0.91469
25760 1.8995495400000002 13.56374745 2.51252739 -2.299685 -1.396094 -1.055791
25780 1.30917393 13.36929363 2.41148439 -2.5855200000000003 -1.123513 -1.0421129999999998
25800 0.85367601 12.24468504 -1.0118916900000001 -0.7033560000000001 0.080275 -0.815796
25820 0.12663729 12.31234461 -1.38851721 0.400488 -0.5645319999999999 -0.894854
25840 -1.7055567900000002 14.204713230000001 1.3919507100000001 1.312016 -2.027982 0.65056
25860 -3.66228882 14.88234879 2.97326385 1.246744 -2.530297 1.3814110000000002
25880 -4.581525060000001 14.03107623 -1.9237998600000001 1.5145879999999998 -1.4825 0.992039
25900 -4.90859046 13.53830031 -4.13065746 0.729398 0.209134 -0.184248
25920 -9.06574473 16.041694590000002 2.4569929800000003 0.113314 0.436395 -0.804139
25940 -10.11521853 15.28531416 3.30617601 -1.057048 1.171722 0.403449
25960 -11.03924205 13.88243511 0.21809592 -1.51321 1.222528 0.347854
25980 -7.565265989999999 10.57251168 0.97312257 -2.681691 3.209143 -0.471497
26000 -2.8038157200000002 9.83080701 0.24743763 -5.467777 4.0015269999999985 -1.738589
26020 0.88945308 11.58934761 -1.3085755200000002 -5.922083 4.1866080000000006 -2.074216
26040 0.37496763 9.97330707 0.2080701 -4.54851 3.390248 -1.783727
26060 -1.12176369 6.90933015 -0.18995103 -2.423427 3.039288 -1.37426
26080 -2.28574962 5.3292138300000005 0.9939295800000001 -2.696979 1.799978 -1.571135
26100 -2.53991691 4.03291062 1.26920799 -2.262794 1.078451 -1.331101
26120 -1.97275176 3.51633564 1.40153508 -1.620203 0.456366 -0.8322959999999999
26140 -1.47952458 3.09301452 -0.36194976 -1.35739 -0.266334 -0.683188
26160 -2.2083585300000004 3.04032501 -1.42712937 -1.127791 -0.423857 -0.650404
26180 -3.1421135700000002 3.08793294 -1.11757482 -1.188974 -0.341326 -0.723576
26200 -3.34868274 2.1285738000000003 -1.3986901800000002 -1.189267 -0.431771 -0.7491
26220 -1.91062503 1.43506566 -2.33813502 -1.014042 -0.388651 -0.761818
26240 0.27303192 2.50638633 -4.125870180000001 -0.8253379999999999 0.064465 -0.7525350000000001
26260 2.8488730500000004 5.5670769 -7.658519850000001 -1.100258 0.6257119999999999 -0.742356
26280 5.90028336 9.187143480000001 -12.25472067 -1.302053 0.5276029999999999 -0.807733
26300 6.1890309 15.055838640000001 -16.30888956 -1.089476 -0.166467 -0.848087
26320 -2.94512877 19.447706970000002 -10.82025342 -0.769925 -0.6601239999999999 -0.750151
26340 -5.435201070000001 19.64065986 -6.734496330000001 -0.671141 -0.33523800000000004 -0.5640069999999999
26360 0.3930867 11.0160414 -8.55710604 -0.352825 0.251685 -0.296548
26380 0.9454387500000001 8.126604 -10.343791529999999 -0.22230300000000006 0.177502 0.025994
26400 -7.0067826900000005 20.496729509999998 -12.29258727 -0.031133 0.077498 0.359674
26420 -13.796362170000002 21.144876210000003 1.6962765300000002 0.548207 0.172055 0.45333
26440 -7.92467496 4.52673621 6.101908290000001 1.469686 -0.028662 0.56471
26460 -7.1772706799999995 -0.13082616000000002 -1.98217917 2.241064 -0.093597 1.215387
26480 -3.9844099800000006 3.2515343100000003 -3.51020439 2.58275 0.652305 1.665471
26500 -2.92791222 5.03103888 5.73412158 3.4205980000000005 1.735839 1.966901
26520 -5.74760052 6.781348889999999 8.10549288 3.012212 1.922813 1.384832
26540 -5.947734330000001 7.57559592 3.54807099 2.2968 2.110223 1.225771
26560 -0.50535234 10.683737460000001 -1.3349251800000002 1.903933 2.618195 1.074961
26580 0.36943479 11.043735029999999 -0.6450075000000001 1.3423379999999998 0.8899360000000001 0.858541
26600 -0.7927559100000001 9.25331193 2.1442894200000007 3.256204 0.261859 1.220954
26620 -0.32452461 9.47619513 2.66146281 3.27185 0.089712 1.366562
26640 -0.45939249000000004 8.532551609999999 3.60570474 2.717985 0.327045 1.635854
26660 -1.1397258000000001 7.56332361 3.4543658700000006 2.378647 -0.086471 1.710926
26680 -2.4117885 7.27846083 2.0389104000000002 2.324783 -1.462216 1.87575
26700 -2.9121966 7.6215557700000005 0.7788257100000001 2.176439 -1.6229049999999998 1.962514
26720 -2.05717662 8.733440790000001 -1.19930193 2.0849740000000003 -1.514218 1.768388
26740 -1.62921537 9.02443482 -1.89625338 1.923822 -1.683574 1.370101
26760 -2.0112167700000003 9.054973350000001 0.17019369 1.513912 -1.911528 1.189137
26780 -2.03771358 9.0178425 2.03187663 0.792396 -1.625376 0.585526
26800 -1.5522755400000001 9.32320818 1.98412155 0.07924199999999999 -1.432776 -0.07345399999999999
26820 -0.17184176999999998 9.97734879 0.26405577 -0.783764 -1.404438 -0.550605
26840 1.52951634 12.322223280000001 -0.39412656000000007 -2.246972 -1.595139 -0.875706
26860 1.9955011500000002 14.16414888 1.04857128 -3.171242 -1.746191 -1.19389
26880 1.21787226 14.05427688 1.82710269 -1.5115 -0.683309 -1.234933
26900 0.5116405499999999 12.64555107 -0.60354063 0.273689 -0.482468 -1.326338
26920 -0.38290392 11.82196233 -2.0648088000000007 1.091477 -1.461645 0.672863
26940 -1.38986118 12.79524186 -0.03697389 1.348598 -2.324262 1.7162119999999998
26960 -2.9523096900000003 14.78400354 3.14630244 1.174972 -1.903472 1.599092
26980 -3.92274432 13.958325270000001 0.84873177 0.304464 -0.328114 0.536658
27000 -4.3234632 12.52385802 -2.9410870500000006 -0.6258050000000001 0.628546 -1.860678
27020 -6.20804268 14.34227886 -1.82919222 -0.640011 1.659917 -0.032235
27040 -9.65133306 16.58147022 3.63084777 -0.946228 1.054723 0.7942739999999999
27060 -10.14470739 15.14191158 2.3511627 -1.080121 1.151998 0.294354
27080 -8.87369436 11.83798206 1.87051194 -3.272959 2.42513 -0.499192
27100 -4.401001440000001 9.848170710000002 3.5106458400000005 -5.141299 3.213682 -1.33792
27120 0.16495515000000002 12.172091040000002 -1.72770777 -4.504325 3.723535 -1.785982
27140 -0.33095997000000005 10.329723990000002 -2.14818399 -3.235415 2.727974 -1.672225
27160 -1.4130618300000002 6.593791500000001 -0.71520786 -2.370135 2.810832 -1.830794
27180 -2.1595635900000003 5.389241220000001 0.50879565 -3.038955 1.164054 -2.084387
27200 -1.47173544 5.304070800000001 1.0847898 -1.739368 -0.333267 -1.4613
27220 -1.73653677 4.48886961 1.8248562 -0.275856 -2.043585 -0.728904
27240 -1.38132648 3.2817785400000004 0.74230308 -0.796636 -1.875431 -0.770145
27260 -2.57344749 2.85920298 -0.22708187999999999 -1.330325 -0.492914 -0.521407
27280 -3.07804446 2.4665675400000002 0.37811664000000006 -1.331276 -0.435514 -0.489441
27300 -3.0054504600000005 1.6578017100000002 -0.47002653 -1.031133 -0.470199 -0.600531
27320 -1.8928100700000001 0.92642697 -2.9011211100000005 -0.8930819999999999 -0.075826 -0.775261
27340 -0.00628821 1.28448216 -4.71594168 -0.932988 0.169863 -0.909382
27360 1.59793128 3.7235032200000004 -7.80222654 -1.148082 0.17416600000000002 -0.999553
27380 4.13320806 9.764942670000002 -13.730949090000001 -1.115299 -0.095593 -0.966931
27400 4.58511552 18.41381145 -15.28785495 -0.777616 -0.481096 -0.75898
27420 -3.2516912700000002 24.1748811 -8.10833778 -0.5376989999999999 -0.10444 -0.587939
27440 -3.800894310000001 18.05590341 -7.401056400000001 -0.251792 0.434492 -0.278985
27460 1.4917968900000003 9.16484535 -9.35090181 -0.040162 0.093847 0.009213
27480 5.181622379999999 3.5763630300000004 -8.67206943 -0.014629 -0.16072899999999998 0.246863
27500 -3.96360297 14.90614785 -9.80865603 0.799606 -0.067781 0.5387149999999999
27520 -13.79710773 26.553727620000004 -1.43820486 1.678936 -0.407606 1.108245
27540 -11.971358819999999 12.172532490000002 8.23093335 2.127364 -0.488222 1.431948
27560 -5.730236820000001 2.6092245600000004 -1.4009366699999999 2.69761 0.424635 1.757364
27580 -4.343220540000001 1.74671955 -4.98179268 3.785436 1.445946 1.685674
27600 -3.50900757 2.6885580300000003 3.69596655 2.847328 1.790131 1.142432
27620 -5.42427273 4.35518874 7.53443316 2.045445 2.461502 1.242793
27640 -6.766231680000001 5.29852815 4.571489430000001 1.427918 2.741592 0.998839
27660 -2.7195478200000003 8.68119273 -2.4149277000000002 1.675523 0.670603 0.807738
27680 -0.40101318 10.082580660000001 -2.2320104400000003 2.869735 -0.5122939999999999 1.213906
27700 -2.3772082500000002 8.916063750000001 2.6297274600000002 3.01824 -0.498613 1.6593060000000002
27720 -1.3469031900000001 11.20719906 6.71084442 2.607622 -0.300781 1.826031
27740 3.01413231 10.887756029999998 2.6017395300000006 2.156113 -0.97706 1.908134
27760 1.76408325 8.19470502 1.24316244 2.052906 -1.340157 1.957016
27780 -1.0809050400000002 7.85656413 1.03314996 2.107385 -1.577841 1.941678
27800 -2.6900589600000004 7.412288850000001 -0.7165616400000001 2.005566 -1.648038 1.735958
27820 -2.9882339100000004 7.55000163 -1.5669414900000003 1.568742 -1.756329 1.490559
27840 -3.12266034 8.15713272 -0.5063922000000001 0.973015 -1.617968 1.239462
27860 -3.10499253 8.673266250000001 0.6117810300000001 0.424522 -1.260102 0.666878
27880 -2.38110282 9.08446221 1.5313115700000002 -0.114093 -1.157618 0.014573
27900 -1.28252997 10.42642116 1.6697797200000002 -0.814046 -1.172447 -0.464587
27920 0.25911153 11.77256898 -0.053140770000000004 -1.880055 -1.32605 -0.8211450000000001
27940 2.35879488 12.919632660000001 -1.0340524800000002 -2.713493 -1.391345 -1.085393
27960 1.6829545500000003 13.417195860000001 2.59275357 -1.544433 -1.054203 -1.162049
27980 1.22160987 13.46839425 2.53288314 0.072947 -1.098145 -1.431637
28000 1.11278754 12.93699636 -1.7396857800000003 1.370443 -1.627786 0.1548
28020 -0.16361118 13.32408915 -0.8714909700000001 1.382198 -2.422582 1.499724
28040 -1.6947756 14.776077060000002 2.9969157600000003 1.222736 -1.898552 1.65924
28060 -3.70434429 15.16226733 2.07244098 0.670599 -0.261309 0.562631
28080 -4.75351398 13.777350390000002 -2.44845828 -0.188516 0.691846 -1.287274
28100 -5.588776620000001 13.346848350000002 -4.3683635700000005 -0.587274 1.651031 0.810972
28120 -8.772661170000001 15.85203786 2.29218498 -1.066462 0.587745 0.728871
28140 -10.00159911 15.26885298 2.73256569 -1.019202 1.346997 0.2283
28160 -9.04194567 12.59181189 1.21023027 -3.45436 2.808538 -0.58534
28180 -7.4384815500000006 9.755809560000001 1.9681116300000001 -5.085143 3.103856 -1.360888
28200 -3.24225405 8.768619450000001 -0.5590915200000001 -3.904319 3.334883 -1.550557
28220 0.47615778 10.385699850000002 -0.61642116 -3.064927 2.061317 -1.339031
28240 0.58528422 8.57432259 -1.10829456 -2.270001 1.916574 -1.262791
28260 -0.89768367 6.984926010000001 0.6354329400000001 -2.263852 1.33713 -1.550425
28280 -1.7727651000000002 4.98029175 1.32249591 -1.899496 0.722575 -1.095235
28300 -3.00110463 3.65420538 2.0070279 -1.629982 -0.159983 -0.935192
28320 -2.70322398 3.09272022 1.12700223 -1.215802 -0.380737 -0.967268
28340 -2.6800233300000005 3.19181103 -1.06174611 -1.075889 -0.779808 -0.924118
28360 -3.02071482 3.9112175700000003 -1.66648356 -1.150044 -0.965708 -0.990628
28380 -3.11592087 3.3413546700000003 -1.7013581100000001 -1.255865 -1.06313 -1.044653
28400 -2.74798701 2.46537072 -2.7057745800000004 -0.97045 -0.5958319999999999 -0.936436
28420 -0.6843750300000001 2.35475316 -3.56768118 -0.8848229999999999 -0.051806 -0.92799
28440 1.5640965900000001 3.85253415 -5.210061570000001 -1.106448 0.481626 -0.934494
28460 3.03763707 6.30593667 -8.50066911 -1.116093 0.445547 -0.961221
28480 3.79835352 10.882066230000001 -14.62323726 -0.8677600000000001 -0.325502 -0.962771
28500 1.8809890200000001 17.724639330000002 -13.93273098 -0.605021 -0.756601 -0.742466
28520 -2.11001328 22.560930090000003 -8.268054390000001 -0.244938 0.166548 -0.411053
28540 -0.23800041000000002 17.60220072 -8.088276330000001 -0.146902 0.427109 -0.122283
28560 3.49208532 7.528596210000001 -7.84293804 -0.176243 -0.368583 0.151997
28580 -0.9999234900000001 10.73222829 -9.261993780000001 0.318652 -0.110482 0.445679
28600 -10.84689738 25.38496422 -6.537658680000001 1.278926 0.493034 0.80199
28620 -14.59570059 15.313606200000002 6.23139048 1.789309 0.004002 1.175787
28640 -6.74332533 3.3591598200000004 1.90299285 2.643985 0.943075 1.624934
28660 -5.4890874 1.1696659200000001 -5.39029089 3.007598 0.915112 1.642465
28680 -2.80457109 3.13313742 -0.7318260000000001 2.6824 0.592925 1.510283
28700 -2.4878258100000004 5.3130469499999995 6.30339588 1.96289 1.336139 1.156064
28720 -3.33296712 7.388038530000001 6.47987778 1.708813 2.083391 0.986689
28740 -4.20206445 8.187219990000001 2.80307016 1.593815 1.4031559999999998 0.96753
28760 -0.7212017700000001 9.25704954 -1.8058444200000001 2.198337 -0.298269 1.020935
28780 1.6001679600000003 10.76816232 -1.3506408 2.591842 0.139462 1.502754
28800 -0.43769277 9.110949210000001 0.75846996 2.1438330000000003 0.607826 1.7137369999999998
28820 -1.0716247800000003 7.171884990000001 1.0568018700000001 1.966677 0.195882 1.7878029999999998
28840 -1.76333769 7.067849939999999 2.47106052 1.853955 -0.543543 1.91615
28860 -2.82327876 7.31499327 3.0666746700000003 1.818086 -1.304422 2.015151
28880 -2.52898857 7.27742097 2.46027933 2.040468 -1.7703369999999998 1.920093
28900 -1.95314157 8.208027000000001 0.22872015 2.178371 -2.015663 1.612654
28920 -1.68578964 8.817414390000001 -1.5778698300000003 1.885492 -2.065114 1.446166
28940 -1.9597240800000002 8.84315583 -1.76573133 1.388207 -1.902545 0.916919
28960 -2.3695760700000004 8.80215003 -0.45804852 0.600796 -1.543899 0.090565
28980 -2.1612018600000003 8.613533160000001 1.7377335900000002 -0.16833299999999998 -1.443856 -0.550528
29000 -1.90718172 10.0676106 3.00650013 -1.475827 -1.25128 -0.95515
29020 -0.9529139700000001 12.334348440000001 0.65189412 -2.730968 -1.317484 -1.159317
29040 0.7050348900000001 13.18338432 -0.9937824300000001 -2.686376 -1.436665 -1.230424
29060 1.4736876300000001 13.39459362 2.72134305 -0.748617 -0.633075 -1.6708439999999998
29080 1.2790866600000002 13.23502416 2.6879596200000004 0.7518279999999999 -0.48683 -0.651081
29100 1.9127243700000003 13.237417800000001 -2.4768974700000004 1.200199 -1.616692 1.256002
29120 1.5432895800000002 13.539644280000001 -3.39374007 1.191752 -2.174018 2.10803
29140 -1.76602563 15.3915957 2.11914639 1.173659 -1.287679 1.31842
29160 -4.45414221 14.227315470000002 -0.17348985 -0.307049 -0.248404 -1.015569
29180 -4.80067065 11.9155203 -1.0716247800000003 -0.174087 1.079888 -0.305975
29200 -7.2251729099999995 12.43628415 0.04161402 -0.671049 0.783359 1.017665
29220 -8.51623758 14.56366113 2.7490366800000006 -0.7472850000000001 0.004631000000000001 0.8205100000000001
29240 -9.146579130000001 14.84448219 2.74648608 -1.462536 1.995861 0.052388
29260 -9.07458354 13.986313200000001 0.9548661600000001 -4.349084 3.1078 -0.8547549999999999
29280 -6.47732718 11.87421039 0.40400523 -5.190124 3.935014 -1.862614
29300 -2.42301114 11.113042680000003 -0.52001829 -4.314218 3.941403 -2.088308
29320 0.85188078 11.339967600000001 -0.96594165 -2.7973 3.655963 -2.084824
29340 -0.6982954200000001 8.768462490000001 0.37632141 -3.203339 1.621407 -2.56148
29360 -1.7059982400000002 6.013294560000001 -0.39443067000000004 -2.348078 0.437009 -1.752822
29380 -2.92296798 5.44417722 2.31538563 -0.612154 -0.736118 -0.797022
29400 -2.8219347900000002 4.010308380000001 2.15507061 -0.392 -2.002732 -0.721222
29420 -2.4496551 3.2247432000000003 1.5633510300000002 -0.959084 -1.690612 -0.760834
29440 -1.47533571 3.5322082200000002 -0.16495515000000002 -1.130965 -1.056914 -0.576976
29460 -2.09833938 3.46619673 -0.96758973 -1.190903 -0.8787379999999999 -0.593646
29480 -2.78331282 2.8755170100000003 -1.07251749 -1.003026 -0.450869 -0.663385
29500 -2.62314495 1.7904231000000002 -2.53812168 -0.7468640000000001 0.058462 -0.651566
29520 -0.8587674 2.18171457 -4.290972480000001 -0.932341 0.534363 -0.687655
29540 1.14362037 2.69364942 -6.225259230000001 -1.042697 0.307274 -0.812048
