time Ax Ay Az Gx Gy Gz
20 -5.448964500000001 14.5097748 -0.46433673000000003 0.6050989999999999 -2.331555 0.722923
40 -7.39612197 18.0493209 0.6095345400000001 0.359274 -2.287811 0.386796
60 -5.33086191 13.451923260000001 -0.99333117 0.03244 -2.129131 0.149301
80 -2.0249900100000002 12.5516988 -3.43805184 -0.280774 -1.8890240000000005 0.049598
100 -0.50669631 12.18525606 -3.65016366 -0.661014 -1.554087 0.002715
120 0.26360451 11.36002905 -2.64814083 -1.091617 -1.185219 0.038759
140 0.3752717400000001 9.73081368 -1.54209276 -1.479951 -0.639781 0.104782
160 0.67464351 7.25002164 -1.7098928100000002 -1.680198 0.119498 0.077841
180 0.046107 5.2021350900000005 -1.05665472 -1.534755 0.700513 0.108023
200 0.07050447000000001 3.78831789 -0.21120930000000002 -0.979514 0.694859 0.241163
220 -0.17019369 3.3871575600000003 -0.88750089 -0.216364 0.107152 0.297454
240 -0.7039852200000001 3.15468999 -1.47877902 0.453481 0.08134 0.310711
260 -0.9855518400000001 3.9023885700000003 -2.11225977 0.651995 0.114667 0.329147
280 -1.06218756 4.496796090000001 -3.05529507 0.265438 -0.307527 0.218029
300 -1.13120091 5.5104928200000005 -3.6736586100000004 -0.183941 -0.474862 0.096532
320 -0.9949792500000001 6.04024263 -3.77051274 -0.015157 -0.2081 -0.160072
340 -0.82059669 7.102734300000001 -3.6437184900000004 0.29067 0.322804 -0.257961
360 -0.9629496000000001 9.31647852 -4.419405 -0.398397 0.172976 0.51081
380 -0.46388547 12.932807490000002 -5.74056675 -0.599173 0.316729 0.699367
400 0.6737508 15.68752416 -6.69168549 -0.4349520000000001 0.50568 0.191798
420 1.51664562 14.222371230000002 -6.32928447 -0.813689 0.988263 -0.281483
440 2.34592416 9.44355726 -6.665041530000001 -1.592363 1.239053 -0.783967
460 1.89296703 6.3219564 -6.996148649999999 -1.893935 1.245506 -1.336216
480 1.31741433 7.351064640000001 -5.30092179 -1.780987 1.22695 -1.322584
500 -0.055083150000000004 11.129209560000001 -2.8993160700000002 -1.781868 1.239117 -0.635739
520 -0.86953878 18.23118849 -1.80359793 -1.878219 1.7504509999999998 -0.286691
540 -2.74229721 19.3683735 -0.94468338 -1.655032 2.041528 -0.278027
560 -1.18284075 5.68218744 0.85576554 -1.238702 1.905552 -0.467225
580 -2.36941911 3.66078789 0.26420292 -1.0132290000000002 1.385416 -0.592102
600 -0.68317821 5.712873120000001 0.12259557 -0.951665 1.122962 -0.54647
620 0.57105972 8.505162089999999 0.41882814000000007 -0.99765 1.232307 -0.412336
640 1.43536977 10.57415976 1.08150345 -1.065776 1.283611 -0.395786
660 -0.18860706000000002 13.728104190000002 1.2513930300000002 -1.081875 1.1636879999999998 -0.4950890000000001
680 -2.88285489 13.018125060000001 0.81684927 -0.994588 1.009362 -0.605377
700 -1.9655610300000002 9.99905832 -0.14250006 -0.816357 0.7277399999999999 -0.662523
720 -0.5074418700000001 7.3648378800000005 -0.46957527000000004 -0.7602760000000001 0.43016 -0.619021
740 0.19534653000000002 6.16987197 0.06990606 -0.712749 0.102884 -0.601178
760 0.40969503 6.96606138 0.46837845000000006 -0.605568 -0.272427 -0.610631
780 0.6905160899999999 9.11349981 0.91459611 -0.500426 -0.613693 -0.607323
800 0.91803942 10.07121087 0.8226862200000001 -0.254302 -0.65728 -0.576706
820 1.2660687899999998 9.5378706 0.42705873000000005 -0.106974 -0.4709680000000001 -0.410341
840 0.89693811 8.92159659 -0.49547367000000003 0.021495 -0.188793 -0.225003
860 1.3573802700000002 8.33826456 -1.3181598900000002 0.157883 0.190309 -0.042938
880 2.18305854 8.398586250000001 -2.0646518400000002 0.63871 0.540479 0.149047
900 2.68436916 8.77355388 -1.94625495 1.340327 0.357537 0.534469
920 3.09841002 9.4428117 -0.25387299 2.091518 0.115451 0.749398
940 3.3519789 9.768238830000001 1.13074965 2.649059 -0.438275 1.010375
960 2.6008370100000002 9.962977140000001 0.9692378100000001 3.070689 -1.080072 1.036576
980 0.79005816 10.08063828 0.46433673000000003 3.2820690000000003 -0.95029 0.899017
1000 -0.27557271000000005 11.843524709999999 -0.14864112000000002 2.814618 0.61106 0.591444
1020 -1.10590092 12.22583022 -0.46433673000000003 2.196877 2.059858 0.8544649999999999
1040 -0.8665467300000002 11.88378495 -0.8885505600000001 1.882721 2.375629 1.280223
1060 0.41433516000000004 12.897775980000002 0.70039476 1.741263 1.573877 1.568682
1080 -0.025898400000000002 12.744347580000001 1.48296789 1.70806 0.075442 1.761582
1100 1.6058577600000001 11.926301490000002 1.23119424 1.724271 -0.847067 1.7425810000000002
1120 -0.68123583 11.29790232 0.30641535000000003 1.359457 -1.745257 1.301076
1140 -3.32084196 10.7325324 -0.20656917 0.852899 -2.571733 0.8969450000000001
1160 -5.2058727 12.82308264 0.19878984000000002 0.587821 -2.702923 0.634616
1180 -6.7919731200000015 16.46621253 1.1533518900000002 0.267258 -2.569844 0.400402
1200 -5.39598069 14.312191590000001 -0.07948062 -0.01385 -2.423128 0.184606
1220 -0.8072747100000001 12.834913499999999 -2.9885380200000005 -0.203416 -2.058461 -0.003056
1240 0.97282827 13.09626171 -4.12482051 -0.5268510000000001 -1.456225 -0.077658
1260 2.1363531300000003 12.51262557 -3.43341171 -0.949883 -0.834881 -0.049362
1280 2.44262133 11.57153265 -2.4231582900000004 -1.368072 -0.117551 -0.053203
1300 2.4370786800000004 8.008942860000001 -1.8495577800000003 -1.602857 0.613907 -0.01946
1320 1.2862773900000002 5.90940666 -1.08045378 -1.493865 0.8481620000000001 0.178622
1340 0.96563754 4.8280601700000005 -0.14564907000000002 -0.8276450000000001 0.398861 0.338743
1360 -0.14744430000000003 3.62471652 -0.6298902900000001 0.192221 -0.343945 0.330796
1380 -0.9187849800000001 2.8897415100000003 -1.66782753 0.838303 -0.13333 0.6469600000000001
1400 -1.3477959000000002 2.73915801 -1.9666107000000002 0.8758309999999999 -0.511854 0.702186
1420 -1.1199684600000002 3.08134062 -2.53198062 0.34842 -1.0365 0.493008
1440 -1.0190824200000002 4.12152435 -2.7719332199999998 -0.129005 -1.073725 0.09341
1460 -0.8674492500000001 4.42360368 -2.9906275500000006 -0.042125 -0.531877 -0.419424
1480 -0.85741362 5.33385396 -3.33970659 0.185557 -0.374408 -0.834642
1500 -1.2651662700000001 7.488777420000001 -4.61280915 -0.158317 -0.33276 0.235398
1520 -0.33978897 11.316619799999998 -6.2605850400000005 -0.414056 0.556142 0.341431
1540 2.06555436 16.41935997 -7.102577340000001 -0.703445 1.254617 0.146234
1560 3.2498960400000003 18.27445059 -6.576722100000001 -1.362553 1.611159 -0.265819
1580 3.67260894 11.91492189 -6.668779140000001 -1.902134 1.406264 -0.772458
1600 2.37840507 6.89436009 -7.5739478400000015 -2.030973 1.384549 -1.090592
1620 1.00875249 5.2548246 -6.52597497 -1.999619 1.417809 -0.910954
1640 -0.26659656 9.07906671 -3.3552750600000003 -2.132893 1.615806 -0.493396
1660 -2.1345579000000003 15.19684758 -1.17595413 -2.126713 2.237117 -0.296528
1680 -4.17901095 20.5946235 -2.17303272 -1.722722 2.662759 -0.263273
1700 -5.019963389999999 9.07398513 -1.0240168500000002 -1.203829 2.646447 -0.363245
1720 -1.3248993599999999 3.52592001 -0.34982460000000004 -0.8866229999999999 2.328517 -0.5187189999999999
1740 -1.0011203100000001 6.22165896 0.7807779 -0.827845 1.893609 -0.500659
1760 0.09116433 8.49812832 1.5769673100000001 -1.0633549999999998 1.814142 -0.403926
1780 2.05957026 11.31676695 1.5593093100000002 -1.147838 1.799404 -0.374587
1800 1.42219494 12.85452369 1.7003182500000003 -1.045113 1.7176209999999998 -0.524384
1820 -1.9577817000000002 11.957438430000002 1.0565075700000002 -0.840918 1.487158 -0.6102569999999999
1840 -3.35362698 10.23586191 0.26719497000000003 -0.672729 1.1722860000000002 -0.6022689999999999
1860 -2.15327538 8.28137637 -0.13726152 -0.614646 0.68371 -0.482665
1880 -0.60893613 6.74691579 0.17274429 -0.64855 0.193012 -0.551707
1900 0.20283156000000002 6.50382399 0.7306291800000001 -0.658516 -0.436235 -0.625746
1920 0.50789313 7.69220739 1.19092419 -0.437008 -0.819219 -0.6803239999999999
1940 0.62465175 9.7582032 1.68219918 -0.127618 -0.792714 -0.650423
1960 0.92971332 10.66217508 1.06249167 0.105207 -0.608691 -0.518709
1980 1.5817644000000004 9.45643779 -0.18142614 0.12548 -0.25131 -0.398316
2000 2.01960432 8.56863279 -1.0493168400000001 0.206841 0.240852 -0.203962
2020 3.37068657 8.490348990000001 -1.8696094200000002 0.708775 0.634245 0.083186
2040 4.052069550000001 8.89150932 -2.33858628 1.404971 0.898769 0.46052
2060 3.96644787 8.52716592 -1.19840922 2.087493 0.464642 0.807675
2080 4.64215086 9.59415057 0.41119596 2.626154 -0.244587 1.078333
2100 2.8928807100000005 9.588764880000001 0.61237944 3.087387 -0.951129 1.01089
2120 1.72232208 10.974731490000002 0.43125741 3.3195019999999995 -0.877238 0.713314
2140 -0.11480643 10.49348232 -0.08262963000000001 3.007866 0.335825 0.522644
2160 -1.7774052300000003 11.40238863 -0.53379153 2.396767 1.326678 0.7489100000000001
2180 -2.62943316 12.438089190000001 -0.46478799 1.982568 1.471242 1.185939
2200 -2.0399600700000002 11.87106138 -0.00913311 1.778966 0.8518530000000001 1.478003
2220 0.35221824000000007 13.04148267 2.0667511800000007 1.733627 -0.412525 1.7570439999999998
2240 1.9399667400000002 12.95196642 2.06256231 1.670254 -1.311028 1.664818
2260 1.7697730500000002 11.94935499 0.7213489200000001 1.421709 -2.185239 1.2529370000000002
2280 -0.60130395 11.897411040000001 0.06601149 1.030691 -2.51221 1.0423209999999998
2300 -3.1537874700000006 11.53187082 -0.82598238 0.768468 -2.604461 0.8963979999999999
2320 -3.98157489 14.25470499 0.52376571 0.411793 -2.537848 0.7976810000000001
2340 -4.39081866 15.3486279 1.08643788 0.12288699999999997 -2.3648740000000004 0.68221
2360 -1.4835663000000001 13.7287026 -0.79005816 -0.086075 -2.009859 0.527539
2380 0.7461976499999999 13.691728710000001 -3.7047955500000005 -0.437812 -1.381611 0.366181
2400 1.6887915 13.030250220000001 -4.306845060000001 -0.933599 -0.614951 0.347848
2420 2.7413946900000004 12.231068760000001 -3.5574984000000005 -1.3864530000000002 0.186803 0.307338
2440 2.2342569300000004 10.22134311 -2.23514964 -1.6281139999999998 1.100136 0.152792
2460 1.61573643 6.977735280000001 -1.3573802700000002 -1.280972 1.560609 0.049941
2480 0.21435831 5.558542200000001 -0.03922038 -0.713525 0.6921109999999999 0.165045
2500 -0.69006483 4.38003747 0.15148602000000003 -0.103861 -0.738104 0.05683600000000001
2520 -1.4024376 3.9417561 -0.52556094 0.519889 -0.811696 0.070901
2540 -1.8516473100000002 3.73009554 -1.06398279 0.8957940000000001 -0.6970310000000001 0.107563
2560 -1.74282498 3.5763630300000004 -1.41215931 0.366959 -0.759502 0.204362
2580 -1.07117352 3.4527177900000003 -1.96586514 -0.278345 -0.684966 0.239283
2600 -1.0532114099999998 4.08679695 -2.7559233 -0.350697 -0.477753 0.164805
2620 -1.18972737 4.79527515 -3.33207441 -0.366475 -0.11591300000000003 0.000793
2640 -1.2293892 6.25818159 -3.6187226100000003 -0.464712 -0.529001 0.558248
2660 -1.24031754 9.2375865 -4.10446476 -0.175985 -0.621607 0.556111
2680 0.31194819 13.767922980000002 -7.2690334199999995 -0.309767 0.30939 0.1534
2700 3.03852978 16.19722233 -9.04209282 -0.799285 0.8986129999999999 -0.25242600000000004
2720 3.0404819700000005 12.004889400000001 -6.8533444800000005 -1.584039 0.993744 -0.983352
2740 3.7024019100000003 8.13153843 -6.09757227 -1.726804 0.834096 -1.427456
2760 3.4215808500000002 6.631059690000001 -6.744679110000001 -1.87073 0.868859 -0.939261
2780 2.41447644 8.578962720000002 -6.51370266 -2.0616830000000004 1.079836 -0.255066
2800 2.38364361 12.57609627 -4.21403265 -2.015137 1.754852 -0.203263
2820 0.6634208699999999 17.53603227 -2.59889463 -1.702523 1.989105 -0.447071
2840 -3.0054504600000005 16.98996843 -1.3853682000000003 -1.208448 1.692634 -0.527629
2860 -4.79543211 7.68891123 -2.42690571 -0.989482 1.194707 -0.606647
2880 -2.42570889 2.5768908000000006 -1.9233486000000002 -1.031725 0.776362 -0.646998
2900 -0.25222491 4.96682262 0.17229302999999999 -1.084389 0.815457 -0.521366
2920 1.16636976 6.88987692 2.1288681 -1.093668 1.230521 -0.41514
2940 2.64545289 11.829447360000001 1.9233486000000002 -1.0813549999999998 1.455817 -0.556348
2960 1.3892627700000002 14.51441493 1.38267045 -1.185612 1.127643 -0.714753
2980 -2.4689611800000004 13.247002170000002 -0.039965940000000005 -1.131688 0.642251 -0.8547600000000001
3000 -3.01338675 10.03123512 -1.43012142 -1.001227 0.365254 -0.961384
3020 -1.8086893200000003 7.54940322 -1.73325042 -0.8838739999999999 0.166543 -0.920785
3040 -0.26614530000000003 6.61340169 -0.37123002000000005 -0.649698 -0.002282 -0.729858
3060 0.7006890600000001 7.219041659999999 0.73077633 -0.541384 -0.066663 -0.441667
3080 1.2445162200000002 8.631348120000002 0.8978308200000001 -0.36918 -0.0413 -0.273854
3100 1.1422764000000003 10.05428862 0.95276682 -0.16101 -0.090607 -0.112104
3120 0.47406825 9.39431106 0.6101329500000001 -0.064688 -0.101172 0.048816000000000005
3140 0.52121511 8.06657661 0.21255327 0.015502000000000004 0.272067 0.147174
3160 0.85247919 7.8462342000000005 -0.14624748 0.233192 0.538615 0.167581
3180 2.00642949 8.647515 -0.7427543400000001 0.705829 0.48616 0.354684
3200 2.3667311700000004 8.46923787 -1.43372169 1.496726 0.432891 0.469235
3220 2.5879662900000002 9.330546060000001 -1.6613921699999998 2.198826 -0.042351 0.6915979999999999
3240 1.71063837 9.12023928 0.022003830000000002 2.93577 -0.8797299999999999 0.8698020000000001
3260 1.784439 10.11266793 1.61858133 3.4698830000000003 -1.6614509999999998 0.891626
3280 1.29900096 9.580524480000001 1.43865612 3.891677 -1.604228 0.867793
3300 1.17894618 9.93558762 1.1064993300000001 3.293656 0.043153 0.737591
3320 0.57674952 11.37005487 0.30072555 2.131026 2.023325 0.989716
3340 0.36449055 12.95795052 -0.67449636 1.747572 2.347869 1.412842
3360 0.8476919100000001 13.16915982 -0.6137234100000001 1.492797 1.602541 1.808328
3380 0.8135629200000001 12.998818980000001 -0.24249339000000003 1.36116 -0.025245 1.933408
3400 1.16068977 12.99387474 1.1485646100000002 1.353508 -0.905688 1.805228
3420 1.6896842100000002 10.579545450000001 0.78826293 1.197526 -1.551491 1.203557
3440 1.7860870800000002 8.887614750000001 0.52226478 0.741931 -2.23736 0.757941
3460 -0.6336279 9.23564412 -0.07993188000000001 0.497624 -2.496448 0.493784
3480 -2.8479803400000003 10.48270113 0.9996193800000001 0.26060500000000003 -2.557423 0.230492
3500 -4.794676740000001 16.007565600000003 -0.31749084 -0.079065 -2.3955450000000003 0.003586
3520 -6.874602750000001 19.60981722 -0.5812425 -0.426479 -2.000575 -0.16599
3540 -4.110154560000001 13.927188330000002 -3.41439993 -0.7899229999999999 -1.282076 -0.243156
3560 -0.58184091 13.237869060000001 -5.26260393 -1.131104 -0.7005399999999999 -0.187533
3580 1.5575140800000002 12.81290967 -4.29711354 -1.34305 -0.07370499999999999 -0.117177
3600 2.5207579800000004 11.92166136 -2.5631175600000002 -1.497674 0.533575 -0.001531
3620 2.5255452600000003 8.76921786 -1.65944979 -1.357208 0.65584 0.203324
3640 1.4831150400000002 5.89788972 -1.51425198 -0.742023 0.447611 0.327529
3660 0.64575306 4.05132399 -0.10912644 0.357531 0.071126 0.28441700000000003
3680 0.48215169 3.02670873 0.0047872800000000005 0.924237 -0.08217999999999999 0.568446
3700 -0.38350233000000006 2.67329367 -0.9686394 0.745894 -0.913105 0.725294
3720 -0.80233047 2.68272108 -1.83383235 0.12556099999999998 -1.322932 0.654188
3740 -0.65473902 3.0855294900000003 -2.5592328 -0.185246 -1.238557 0.336783
3760 -0.7369173900000001 3.81107709 -3.2346218700000002 -0.048044 -0.80696 -0.087964
3780 -0.8454454200000001 4.902007950000001 -3.74042547 0.20715300000000006 -0.585174 -0.6269859999999999
3800 -0.8491830300000001 5.948185590000001 -4.09458609 -0.056155 -0.253037 -0.34189899999999995
3820 -0.92059002 7.71256314 -5.07310416 -0.361686 0.17419 0.175643
3840 -0.5070004200000001 11.170666620000002 -6.34664817 -0.597617 0.930937 0.013861000000000002
3860 1.0822490100000002 15.702199920000002 -6.368357700000001 -0.861317 1.350462 -0.241687
3880 2.3760114300000006 17.521366320000002 -6.73823394 -1.509085 1.427676 -0.60737
3900 3.5540550900000003 13.73199876 -6.9231033900000005 -1.772586 1.065747 -0.977283
3920 3.2331307500000004 8.14097565 -7.644158010000001 -1.867893 0.952343 -0.7737729999999999
3940 1.8046476000000002 5.22667971 -6.97954032 -1.924777 0.806038 -0.368059
3960 1.55512044 7.07698305 -5.58743265 -1.993986 1.207352 -0.234461
3980 -0.05883057 10.954218780000001 -3.09301452 -1.793086 1.660836 -0.327642
4000 -1.40751918 16.102467540000003 -2.4905235600000006 -1.378528 1.87309 -0.48632
4020 -3.9998313 15.011978130000001 -1.18958022 -0.98726 1.805589 -0.728123
4040 -3.35152764 7.47994842 -1.09691496 -0.8094319999999999 1.417509 -0.802227
4060 -1.2003516 4.9192244999999994 -0.30237363000000006 -0.8805370000000001 1.184889 -0.643261
4080 0.14564907000000002 6.37509717 0.67584033 -1.066056 1.359644 -0.49523
4100 1.9709467200000002 7.756570800000001 1.28852388 -1.178482 1.451874 -0.5516810000000001
4120 2.9924227800000005 11.68470081 0.8126604000000001 -1.2267549999999998 1.241729 -0.704504
4140 1.63893708 13.19027094 0.94169133 -1.199548 0.972725 -0.855657
4160 -0.58932594 11.86701966 0.7328756700000001 -1.048682 0.7403390000000001 -0.947241
4180 -1.75090842 9.890079029999999 0.004640130000000001 -0.927297 0.525489 -0.870274
4200 -1.77365781 8.30218338 -0.58872753 -0.7194159999999999 0.190624 -0.692136
4220 -1.16442738 7.115006610000001 -0.41179437 -0.608417 0.065187 -0.588651
4240 -0.39577464 7.36812423 0.09445068 -0.385843 -0.150161 -0.474657
4260 -0.13682007 8.31461265 0.7168559400000001 -0.127314 -0.236587 -0.397965
4280 0.24773193000000002 9.35419797 1.1648786400000002 0.079765 -0.350632 -0.295959
4300 0.79035246 9.20450718 1.0500624 0.07603 -0.02866 -0.091299
4320 1.2006557100000002 8.68943313 0.69200721 0.22692 0.06152000000000001 0.136102
4340 1.50781662 8.90647938 -0.12498921000000002 0.629183 0.078309 0.383513
4360 2.26703214 8.992552320000001 -1.2029022 1.362542 -0.358559 0.57293
4380 2.9591963100000003 9.32052024 -1.7765027100000002 1.894979 -0.546874 0.850355
4400 3.11262471 9.484572870000001 -1.15724646 2.595422 -1.189213 1.0366
4420 2.83839597 9.560315880000001 -0.06811083000000001 3.167064 -1.7365240000000002 1.013521
4440 3.0367345500000003 9.67857543 0.9053158500000001 3.5000379999999995 -1.914665 1.051326
4460 1.43252487 9.39970656 0.7804737900000001 3.103432 -0.641552 0.835417
4480 1.09243179 10.035580950000002 0.5688132300000002 2.182922 1.275124 1.039107
4500 1.03465089 11.24087679 -0.23950134000000003 1.78076 1.937466 1.452056
4520 2.28125664 13.66298541 -0.7198578 1.692075 1.547533 1.805517
4540 2.1490767 13.27544136 -0.97387794 1.645252 -0.01111 1.881963
4560 1.68324885 13.39788978 -0.7249393800000001 1.7997040000000002 -0.969517 1.929135
4580 1.0822490100000002 13.36122 2.02648113 1.657984 -1.40494 1.451208
4600 1.57263129 10.909759860000001 1.24316244 0.960196 -2.201381 0.895084
4620 0.80936424 8.91590679 1.2798420300000002 0.613046 -2.3088740000000003 0.63856
4640 -1.51664562 9.817632180000002 0.7625116799999999 0.304392 -2.154463 0.38731
4660 -4.11718833 11.671525980000002 0.4770603 -0.127923 -1.968766 0.144771
4680 -6.343361820000001 18.120570930000003 0.55608966 -0.404351 -1.682707 -0.023101
4700 -7.3787582700000005 17.09819235 -0.0038945700000000004 -0.6582720000000001 -1.087991 -0.142073
4720 -4.08710106 13.06138716 -3.07804446 -1.010899 -0.284517 -0.16693
4740 -0.67000338 12.820836150000002 -3.53324808 -1.250344 0.354299 -0.138443
4760 0.8963397000000001 12.43598985 -2.7644481900000004 -1.413891 0.8243950000000001 -0.07395800000000001
4780 1.3358178900000002 10.91709774 -1.09662066 -1.312273 0.979293 0.261975
4800 1.66528674 8.597523240000001 -1.17086274 -0.74192 0.708601 0.328263
4820 0.90591426 5.860013310000001 -1.1612881800000001 0.428308 0.009665 0.141848
4840 0.29010132000000005 4.38648264 0.19714176 1.189461 -0.241685 0.26712800000000003
4860 -0.019011780000000002 3.6715690800000003 -0.20851155000000002 0.888597 -1.127204 0.330254
4880 -0.48394692000000006 3.3335655300000004 -1.5473313000000002 -0.229584 -1.590017 0.355084
4900 -0.8186445 3.20573142 -2.20596489 -0.8487239999999999 -1.22553 0.318245
4920 -0.5343899400000001 3.31739865 -2.8572606000000005 -0.588298 -0.748154 0.059875
4940 -0.36913068000000004 3.49208532 -3.6362432700000005 -0.213807 0.276954 -0.342611
4960 -0.45834282000000004 4.42121004 -3.9131599500000003 -0.383332 0.09855 -0.070102
4980 -0.6902119800000001 5.36798295 -4.23155331 -0.55261 0.155174 1.099414
5000 -0.9139977 7.57934334 -5.921090370000001 -0.245074 0.455347 0.625819
5020 0.3715243200000001 12.04754328 -7.12713177 -0.403366 0.807254 -0.126697
5040 3.54073311 17.65398771 -7.708668570000001 -1.079367 1.063218 -0.6797449999999999
5060 5.537431080000001 17.14324968 -6.160434749999999 -1.74788 0.740082 -1.342025
5080 4.53048363 10.7356716 -6.793169939999999 -1.7568419999999998 0.770284 -1.693572
5100 3.70704204 5.622905610000001 -7.79713515 -1.815227 0.967253 -1.084277
5120 2.1356075700000003 3.3150050100000006 -7.321575780000001 -1.92858 1.3898 -0.362424
5140 2.35250667 6.79153167 -4.686904080000001 -1.779737 1.7726830000000002 -0.337306
5160 -0.32946885000000004 11.05825383 -2.23215759 -1.345954 1.740966 -0.507287
5180 -1.7326422000000001 19.140546060000002 -2.43034902 -0.952255 1.353518 -0.6600010000000001
5200 -4.3445645100000005 20.9532771 -1.75344921 -0.890352 0.83365 -0.7101770000000001
5220 -1.95718329 5.19793641 0.6243476400000001 -0.994399 0.748633 -0.671271
5240 -1.0686229200000001 2.7155061000000003 -0.6212084400000001 -1.138926 0.986246 -0.560422
5260 0.02694807 5.620060710000001 -0.06960195000000002 -1.202646 1.024926 -0.587622
5280 1.28223567 7.52919462 0.99722574 -1.2248290000000002 0.987004 -0.675323
5300 2.27451717 10.91949138 1.2012541200000002 -1.115727 0.940191 -0.7845270000000001
5320 1.6097523300000003 14.288088420000001 1.6628931 -0.925798 0.663799 -0.8277120000000001
5340 -2.0986336800000003 14.54929929 0.8991846000000001 -0.835151 0.480006 -0.764886
5360 -2.74215006 10.62026676 -0.51837021 -0.71103 0.21910900000000005 -0.630157
5380 -1.22699556 7.50539556 -0.99572481 -0.571731 0.151368 -0.593846
5400 -0.00523854 6.032306340000001 -0.21794877000000001 -0.360288 0.0236 -0.527044
5420 0.07784234999999999 6.47029341 0.58858038 -0.112546 0.085539 -0.513642
5440 0.67839093 8.075552759999999 0.92133558 0.075675 0.047198 -0.412934
5460 0.77838426 9.480531150000001 1.0707222600000001 0.036836 0.220953 -0.142099
5480 0.70697727 9.453288780000001 1.00186587 0.026539 0.304188 0.097004
5500 0.46343421000000007 8.8903125 0.20582361000000002 0.485181 0.152043 0.450779
5520 0.7664062500000001 8.65410732 -0.49935843 1.176848 -0.003698 0.702569
5540 1.66947561 8.401725450000002 -1.19302353 1.791048 -0.414283 1.082332
5560 2.4493608000000004 8.95003578 -1.3401637199999998 2.539115 -0.78255 1.15319
5580 2.9635421400000004 9.51585696 -0.2225889 3.167792 -1.118591 0.994574
5600 2.8409465700000003 10.30681764 0.7292852099999999 3.370604 -1.048225 0.804689
5620 1.99475559 10.10293641 1.2175681500000002 2.889984 0.5785170000000001 0.406142
5640 0.48663486 9.6944382 0.68647437 2.209585 2.126464 0.703849
5660 0.14220576000000001 10.53763713 0.39098736000000006 1.971735 2.418173 1.219901
5680 0.6686594100000001 11.6115084 -0.07724394 1.868292 1.584107 1.564215
5700 1.99624671 12.37985703 -0.5348412000000001 1.927173 -0.11159 1.723828
5720 2.26164645 13.40537481 -0.4685256 1.82938 -1.044066 1.89846
5740 0.8972324100000001 13.79621502 2.0299244400000003 1.455492 -1.833532 1.448206
5760 0.7881157799999999 12.811555890000003 1.63160901 0.947251 -2.617159 0.986325
5780 -0.12708855 11.49235614 0.9593591400000001 0.613291 -2.630983 0.737251
5800 -1.9243982700000002 10.21490775 0.27827046 0.240592 -2.446671 0.522903
5820 -4.1128425 10.197691200000001 -0.72389952 -0.103699 -2.087854 0.334168
5840 -6.14203119 13.340707290000001 -0.12873663 -0.413768 -1.696193 0.16058499999999998
5860 -7.312148370000001 17.22722328 1.10874582 -0.704734 -1.245272 0.069312
5880 -3.61513215 13.532012100000001 -0.9029222100000001 -1.084629 -0.732841 0.123686
5900 0.27168795 12.793142520000002 -3.48026427 -1.417126 -0.015395 0.282814
5920 1.56858957 12.83655177 -3.82589019 -1.526376 0.743955 0.425288
5940 2.55414141 11.7677817 -2.7707364000000005 -1.220668 1.026697 0.5819529999999999
5960 2.29891464 10.133327790000001 -2.2439884500000002 -0.450391 0.681412 0.480954
5980 2.22017958 6.627920490000001 -2.47345416 0.443437 -0.193711 0.371882
6000 1.1451213 4.645290060000001 -0.34248672 0.7952239999999999 -0.6745439999999999 0.431571
6020 0.68796549 3.6964178100000002 -0.18800865000000003 0.540062 -1.127705 0.491258
6040 -0.04491018000000001 3.0916705500000004 -1.28702295 -0.069303 -1.197891 0.456113
6060 -0.8060778900000001 2.75756157 -1.71768195 -0.204127 -0.967755 0.297848
6080 -1.0409391000000001 2.9374867800000004 -2.31987861 0.046861 -0.40426 0.089508
6100 -0.99452799 3.91690737 -2.98538901 -0.265145 0.096866 -0.018000000000000002
6120 -0.81056106 5.04421371 -3.6730602 -0.641951 -0.091591 0.550041
6140 -0.5547456900000001 5.82423624 -3.96360297 -0.412818 0.117143 0.100584
6160 -0.6054928200000002 7.280256060000001 -4.55682348 -0.48177 0.5938 -0.225248
6180 -0.12768696000000002 10.162218240000001 -5.94952956 -1.05914 1.053559 -0.679592
6200 1.56649023 14.14678518 -6.86546964 -1.6990009999999998 1.134211 -1.378509
6220 3.4462824300000006 16.081062120000002 -7.42590513 -1.84351 1.144787 -1.500241
6240 4.187545650000001 13.4221401 -6.8535014400000005 -1.954043 1.224389 -0.799293
6260 3.40227477 8.20548621 -7.16439996 -2.036635 1.523594 -0.161457
6280 3.05933679 5.957014590000001 -7.47695637 -1.910448 1.950785 -0.274354
6300 2.81699055 9.14911992 -6.020328330000001 -1.496398 1.9790330000000005 -0.50437
6320 2.24263467 13.77704628 -3.2669556300000004 -1.101086 1.7268139999999998 -0.64336
6340 0.30866184 18.426682170000003 -1.55347236 -0.902031 1.290816 -0.740755
6360 -4.9850790300000005 12.060570960000002 -0.8752285799999999 -0.927069 1.010461 -0.672204
6380 -3.66078789 4.52912985 -1.03629897 -1.024274 1.14438 -0.511754
6400 -2.3724209700000003 3.9351637800000003 -0.6888680100000001 -1.1223 1.243507 -0.440994
6420 -0.36763956000000003 5.47815906 1.11847734 -1.10057 1.174817 -0.597783
6440 1.96615944 8.40846492 1.6408892700000002 -1.142877 0.883625 -0.734438
6460 2.8491771600000004 13.21631649 1.26996336 -1.036843 0.590897 -0.881805
6480 0.94917636 15.26885298 1.16263215 -0.876912 0.282668 -0.929431
6500 -2.5165691100000003 12.39363027 0.0811287 -0.863136 0.082116 -0.871394
6520 -1.93382568 8.95302783 -1.0190824200000002 -0.757504 -0.094259 -0.811678
6540 -0.6589278900000001 6.79227723 -0.9517171500000001 -0.701854 -0.348722 -0.628297
6560 0.40775265 6.5349609300000004 0.22857300000000003 -0.446287 -0.376568 -0.5463600000000001
6580 0.94453623 7.45555095 1.07086941 -0.13583499999999998 -0.304448 -0.469508
6600 1.25409078 8.98700967 1.04243022 -0.0097 -0.017138999999999998 -0.233986
6620 1.3503465000000001 10.06327458 0.8482903200000002 0.095202 0.27670500000000003 -0.015713
6640 1.04946399 9.15016959 0.50160492 0.353273 0.530345 0.266707
6660 1.04812002 8.153091 0.30910329 1.071991 0.477765 0.537782
6680 1.0747639800000002 8.342002169999999 -0.85037985 1.693125 0.325347 0.8189850000000001
6700 2.18320569 8.32748337 -1.5498819000000004 2.317773 -0.296611 1.035654
6720 2.7473886 8.546177700000001 -1.61589339 2.915646 -0.8836639999999999 1.07156
6740 2.97985617 9.271274040000002 -0.79154928 3.260933 -1.301011 0.978367
6760 3.0042536400000004 9.731412090000001 0.8107180199999999 3.4104080000000003 -0.594178 0.710382
6780 2.7463389300000003 10.313998560000002 1.26547038 2.576241 1.546847 0.679379
6800 1.0464719400000002 10.02075804 1.09377576 2.105697 2.468111 1.136383
6820 -0.05283666000000001 10.874434050000001 0.7837699500000002 1.9230080000000005 2.110229 1.5479
6840 -0.08143281000000001 12.4705701 0.05194395 1.913348 0.569336 1.682266
6860 0.07724394 12.56815998 -0.6965001900000001 1.978124 -0.697454 1.670455
6880 0.9292718700000001 13.04956611 -0.56732211 1.7836919999999998 -1.432067 1.466008
6900 -0.04984461 13.56614109 1.3967478000000002 1.248129 -2.184457 0.941939
6920 1.2424168800000002 12.780575910000001 2.09354229 0.82925 -2.383168 0.6487109999999999
6940 0.62494605 11.021279940000001 0.87103971 0.456416 -2.248842 0.414131
6960 -0.9635480100000001 9.72273024 0.15223158 0.058925 -2.120903 0.199682
6980 -2.7241879500000006 9.864631890000002 0.36554022 -0.297643 -1.900457 -0.007121
7000 -4.505929200000001 12.716506800000001 0.69724575 -0.6355270000000001 -1.488608 -0.143537
7020 -6.11837928 17.59546125 0.48139632000000004 -0.949945 -0.906024 -0.106955
7040 -4.55816745 14.60347992 -1.1743060500000002 -1.167543 -0.29854899999999995 0.01466
7060 -0.61432182 13.06722411 -3.39359292 -1.240459 0.280465 0.201416
7080 1.34525511 12.976668 -3.52501749 -0.915476 0.613071 0.392335
7100 2.45115603 11.97420372 -2.37646269 -0.427486 0.435735 0.360719
7120 1.9261935000000001 10.09441152 -1.8669214800000002 0.21495300000000006 -0.057369 0.307086
7140 1.7500157100000002 7.1519805000000005 -1.78353648 0.542744 -0.263896 0.521149
7160 0.5276504700000001 4.86353313 -0.72943236 0.720956 -0.7214430000000001 0.768671
7180 -0.2137599 3.78652266 -0.2314179 0.878015 -1.1778 0.7372380000000001
7200 -0.6394746600000001 3.25109286 -1.3004920800000002 0.316486 -1.189108 0.323133
7220 -0.8854113600000001 3.1296941100000004 -1.8925157700000002 -0.378884 -0.4123810000000001 0.091885
7240 -0.7550266499999999 3.0047049 -2.66834943 -0.567487 0.18338 -0.078974
7260 -0.3793134600000001 3.61977228 -3.0419730900000004 -0.713188 1.057069 -0.25950500000000004
7280 -0.5833418400000001 5.0840325 -3.4914869100000003 -1.335971 2.094477 -0.475624
7300 -0.41987781 6.071673870000001 -3.9912966 -2.0506330000000004 2.372629 -0.949922
7320 -0.34293798000000003 7.870631670000001 -5.397030360000001 -2.147552 2.26054 -1.3392879999999998
7340 0.32782077000000004 11.571385500000002 -6.56624502 -2.009984 1.637636 -0.996766
7360 1.9091339100000002 15.129335160000002 -7.721990550000001 -1.658536 1.264941 -0.27492
7380 2.6446975200000002 14.683117500000002 -8.171661330000001 -1.513088 1.319922 -0.297476
7400 2.75831694 11.209141440000002 -7.96224726 -1.495755 1.603166 -0.54875
7420 1.24975476 9.47125089 -7.25690826 -1.397645 1.74273 -0.6369060000000001
7440 2.26643373 12.70019277 -5.44522689 -1.220788 1.845765 -0.715919
7460 1.0389869100000002 14.125526910000003 -2.4818417100000003 -1.13512 1.564693 -0.8303280000000001
7480 -2.8714752900000002 9.497149290000001 -1.5359517 -1.12389 1.250255 -0.794596
7500 -3.98741184 6.292908990000001 -1.0150407000000001 -1.193866 1.060127 -0.606834
7520 -2.02304763 4.55098653 0.18710613 -1.224983 1.030369 -0.597399
7540 -0.04850064 4.252654620000001 1.63610199 -1.239794 0.950957 -0.705291
7560 0.7165616400000001 8.36415315 1.20694392 -1.267681 0.7875270000000001 -0.8366680000000001
7580 1.8509017500000002 14.688356040000002 0.6836294700000001 -1.083517 0.599788 -0.933417
7600 1.12027257 17.067810780000002 0.008829 -0.9431 0.289227 -0.913879
7620 -0.5773479300000001 11.89621422 0.46163898000000003 -0.931866 0.005562 -0.848275
7640 -0.41268708000000004 8.24710023 -0.44742429 -0.79442 -0.19656 -0.771212
7660 -0.41089185000000006 7.2432919799999995 -0.43813422 -0.706752 -0.282534 -0.659395
7680 0.03202965 6.643488960000001 0.19474812000000002 -0.347613 -0.283079 -0.5682229999999999
7700 0.8095212000000002 7.10123337 0.38335518 -0.012733 -0.084883 -0.339675
7720 1.2025980900000002 8.22239865 0.54995841 0.127198 0.11531199999999997 -0.175516
7740 1.10559681 9.41647185 0.95965344 0.290229 0.451854 -0.02953
7760 0.9922913100000001 9.44805024 0.93899358 0.8868280000000001 0.513738 0.227726
7780 1.44389466 8.70230385 0.01302768 1.427929 0.513306 0.665205
7800 1.5123096 8.470434690000001 -1.3927060800000002 1.858425 -0.084508 1.138995
7820 2.0797788600000002 8.58584934 -1.63519947 2.3718220000000003 -0.795467 1.3315
7840 2.9144430900000002 9.17396865 -1.14362037 2.927852 -1.566137 1.23489
7860 2.68092585 8.787179970000002 -0.55728648 3.371811 -1.743687 1.0288469999999998
7880 2.6406558 9.258844770000001 0.08172711 3.18787 -0.790139 0.890676
7900 2.17063908 9.23549697 0.96444072 2.558308 0.6055729999999999 1.119499
7920 1.9496982600000001 10.959457319999999 1.3084283700000001 2.1824790000000003 1.372452 1.4748139999999998
7940 0.6674625900000001 11.4931017 0.54950715 2.073675 0.696361 1.74518
7960 -0.33500169 12.97651104 -0.42286986 2.0706290000000003 -0.414986 1.547894
7980 -0.4770603 13.043729160000002 -0.5921708400000001 2.015066 -1.202976 1.25155
8000 0.8880993 13.433666850000002 -0.13666311 1.7349709999999998 -1.808236 1.007882
8020 1.22819238 14.50558593 0.8870594400000001 1.269975 -2.241374 0.771249
8040 1.30558347 13.915063170000002 2.36778084 0.810737 -2.318827 0.558769
8060 0.62494605 10.74465756 0.11316816 0.389611 -2.169731 0.401812
8080 -0.2891988000000001 8.366399640000001 0.18950957999999998 0.019609 -2.050598 0.234569
8100 -1.2976471800000002 9.43548363 0.33485454 -0.333614 -1.852316 -0.026662
8120 -2.02453875 12.40066404 1.35752742 -0.674153 -1.3657 -0.210194
8140 -2.86384311 17.79574221 0.5996558700000001 -0.884042 -0.815333 -0.199547
8160 -3.36500658 15.863711760000001 -0.32722236 -1.0226959999999998 -0.090367 0.04211
8180 -2.08157409 13.20344577 -2.276910810000001 -0.981976 0.566303 0.4239770000000001
8200 0.35880075000000006 12.740158710000001 -3.2903034300000003 -0.608265 0.534613 0.565497
8220 1.39450131 12.95196642 -2.1911419800000003 0.049994 -0.165605 0.344529
8240 1.38027681 10.941799320000001 -0.6502460400000001 0.405423 -0.7118399999999999 0.239821
8260 0.4543011 7.07653179 -0.04176117000000001 0.188685 -0.940297 0.283465
8280 -0.047902230000000004 4.95859203 -0.20028096 -0.000348 -1.144479 0.359318
8300 -0.4047606000000001 3.9902567400000004 -0.52166637 0.59731 -0.951368 0.034233
8320 -0.57046131 3.63488949 -1.17745506 0.8754190000000001 -0.782259 -0.671204
8340 -0.5761511099999999 3.2656116600000002 -1.56005487 0.304221 -0.542979 -0.341147
8360 -0.36329373000000004 2.75068476 -2.18695311 -0.295164 0.235723 -0.084617
8380 -0.03592422 2.90216097 -3.00290967 -0.49696 1.276694 0.040826
8400 -0.33874911 4.6668426300000005 -4.02138387 -1.418378 2.070349 0.034441
8420 0.14833701000000002 5.6772432 -4.90859046 -2.031431 1.646319 -0.486317
8440 0.72673461 7.20751491 -5.7148155 -2.17679 0.977205 -0.862489
8460 1.0623445200000001 9.97181595 -6.95438748 -2.063385 0.701449 -0.732089
8480 1.53415647 13.22021106 -7.963139970000001 -1.851925 0.711735 -0.291586
8500 1.7937192600000003 14.139594450000002 -8.120168640000001 -1.695545 0.7679739999999999 -0.37175
8520 2.88883899 10.619217090000001 -7.4044997100000005 -1.483458 0.763746 -0.563611
8540 0.47466666 7.40884554 -7.0605218700000005 -1.321933 0.950191 -0.709069
8560 0.13053186 10.15503732 -5.4009151200000005 -1.233849 1.305747 -0.7238640000000001
8580 0.21989115 16.41890871 -2.5741930500000003 -1.17866 1.269224 -0.695658
8600 -2.2935289500000002 19.76878827 -2.0184075 -1.115312 1.014939 -0.5634979999999999
8620 -4.464462330000001 8.05325463 -2.02139955 -1.026575 1.152726 -0.465847
8640 -1.7588447100000002 3.3123072600000003 -1.0737143100000002 -0.99783 1.232039 -0.6110260000000001
8660 -0.13337676 4.04579115 1.0910780100000002 -1.12131 0.935744 -0.733286
8680 1.58760135 6.02212356 1.64328291 -1.1822 0.57101 -0.844339
8700 3.4682862600000006 10.64212344 0.20971818000000003 -1.153692 0.424227 -0.925137
8720 4.2888829500000005 15.22693485 -0.5924651400000001 -1.075749 0.444169 -0.918208
8740 0.6304887000000001 14.22671706 -0.07724394 -0.7423930000000001 0.227219 -0.766051
8760 -0.52705206 10.518772499999999 -0.0142245 -0.61629 0.184637 -0.616633
8780 -1.09093086 8.20668303 -0.82059669 -0.474577 -0.045086 -0.567278
8800 -0.9982754100000001 6.5409450300000005 -1.15545123 -0.192424 -0.122969 -0.516069
8820 -0.30506157000000006 6.367455179999999 -0.62898777 -0.092789 0.147611 -0.33625900000000003
8840 0.1850166 7.61077458 -0.29952873 0.100115 0.173394 -0.02516
8860 0.10313253 8.58704616 0.11211849 0.6610159999999999 0.064251 0.408323
8880 -0.060920100000000005 8.59033251 0.6710530499999999 1.413119 -0.357178 0.7164229999999999
8900 0.41194152000000006 7.71196473 0.67569318 1.915233 -0.650829 0.98843
8920 1.22819238 7.912844100000001 0.37587015 2.537828 -1.267402 1.192259
8940 1.08643788 9.33489189 -0.25327458 3.009128 -1.799559 1.196233
8960 1.8333909000000002 9.51002001 -1.08315153 3.357685 -1.851979 1.215826
8980 2.07258813 9.5817213 -1.77785649 2.788465 -0.276852 1.014347
9000 2.23949547 9.764942670000002 -1.13538978 2.060349 1.048819 1.261799
9020 2.0847132900000003 10.01507805 0.17318574 1.658264 1.614678 1.5605719999999998
9040 1.4528806200000002 9.65417796 0.88001586 1.400757 1.428709 1.936094
9060 1.25573886 10.779384960000002 0.66566736 1.219759 0.077654 2.164092
9080 2.2037184 13.026963870000001 -0.11810259 1.204551 -1.341505 2.229898
9100 2.7357147000000004 13.41914805 -1.53984627 1.247744 -1.573553 1.881189
9120 2.4810863400000005 12.72473739 -1.6208278200000001 0.831421 -2.534539 1.204396
9140 1.69267626 13.05076293 0.88960023 0.442654 -3.222046 0.8436389999999999
9160 1.7443259100000001 11.120076450000001 1.67726475 0.333961 -3.288505 0.5086109999999999
9180 0.77838426 9.253753380000001 0.99273276 0.085904 -2.990309 0.211667
9200 -0.7455992400000001 9.65925954 1.30109049 -0.230087 -2.463452 0.066711
9220 -2.8011277800000003 11.323947870000001 0.74365686 -0.453347 -1.871214 0.007776999999999998
9240 -4.203114120000001 17.565825240000002 0.60982884 -0.7392810000000001 -1.369653 0.035047
9260 -6.215076450000001 19.140546060000002 0.20747169000000001 -1.095895 -0.705857 0.045593
9280 -4.27077369 13.210332390000001 -2.7590625 -1.280856 0.107791 -0.004812
9300 -1.4994290700000001 12.37162644 -4.54155912 -1.1382370000000002 0.5948319999999999 0.08529099999999999
9320 0.24818319 12.037664610000002 -4.1872415400000005 -0.665061 0.493098 0.340827
9340 1.76961609 11.93139288 -2.56416723 0.0879 -0.046401 0.33823200000000003
9360 2.14204293 10.02360294 -0.78212187 0.7098720000000001 -0.501413 0.36666
9380 2.28350313 7.512429330000001 -1.3060347300000001 0.498722 -0.574757 0.5094890000000001
9400 1.5126039000000002 5.588482320000001 -0.8282288700000001 0.13514500000000002 -0.749305 0.5189239999999999
9420 0.78122916 4.132011240000001 0.27587682 0.065488 -0.956235 0.379833
9440 0.27243351000000005 3.41619516 -0.0782838 0.738049 -0.92329 0.08325
9460 -0.40789980000000003 3.07925109 -1.2627726300000002 0.460871 -0.8205 -0.339697
9480 -0.66102723 3.07939824 -2.15866107 -0.258628 -0.577415 0.232874
9500 -0.8038314000000001 3.52307511 -2.4840882 -0.4759140000000001 0.399347 0.17883
9520 -1.0591955100000001 4.54259898 -2.8565052300000002 -0.416936 1.299765 0.06272
9540 -1.10679363 5.21395614 -3.31620183 -1.315732 2.061596 -0.262864
9560 -1.4485347899999998 6.66369756 -3.9306806100000005 -1.96945 1.974778 -0.894366
9580 -1.5343134299999999 9.40344417 -5.522912280000001 -2.181617 1.7294900000000002 -1.174339
9600 -0.0005984100000000001 13.107042900000001 -6.67042722 -1.959179 1.437737 -0.8679680000000001
9620 2.2013247600000003 16.12102806 -7.19374167 -1.983483 1.485041 -0.156763
9640 3.3337126800000005 15.23606796 -7.21170378 -2.038402 1.978989 -0.024252000000000003
9660 3.51049869 9.22426452 -7.329207960000001 -1.744675 2.33985 -0.211738
9680 1.96570818 5.735475360000001 -7.44267042 -1.354434 2.526921 -0.445329
9700 1.19286657 8.37643527 -6.330481290000001 -1.11246 2.549127 -0.613514
9720 0.97282827 13.68993348 -3.724857 -0.959292 2.2404900000000003 -0.819284
9740 -0.13352391000000002 20.10469248 -2.58691662 -0.891252 1.797818 -0.732784
9760 -4.42240686 14.06759886 -1.83174282 -0.99154 1.705968 -0.58702
9780 -3.70404999 3.97258893 -0.5577377400000001 -1.088219 1.54126 -0.605644
9800 -2.1742295400000007 3.61018791 -0.6822855 -1.2184549999999998 1.192684 -0.701179
9820 -0.41748417 4.67582859 1.6866921599999998 -1.25661 0.8907649999999999 -0.822836
9840 2.01645531 8.245305 1.4638089600000002 -1.043736 0.6402399999999999 -0.960965
9860 3.65629491 12.829518000000002 1.0497681 -0.8993399999999999 0.267871 -0.939183
9880 1.7956616400000003 15.96535317 0.7909508700000001 -0.6767340000000001 -0.14787 -0.795022
9900 -2.4568458300000002 13.30702956 0.37347651000000004 -0.5980979999999999 -0.488786 -0.590005
9920 -2.65188825 9.69862707 -0.58394025 -0.39109 -0.636848 -0.506116
9940 -1.78084854 7.35884397 -0.8331632999999999 -0.133703 -0.452889 -0.379572
9960 -0.16854561000000004 6.268070070000001 -0.22617936000000002 -0.004104 -0.199309 -0.236919
9980 0.48993102000000005 6.046079580000001 0.20687328 0.105161 0.032006 -0.102924
10000 1.54074879 7.96059918 0.73662309 0.408793 0.35088 0.077181
10020 1.64986542 9.69488946 1.1999003400000001 1.010611 0.443412 0.391051
10040 1.7714211300000002 9.86583852 1.23627582 1.616098 0.374123 0.676311
10060 1.9549368000000003 9.014409 0.59322051 2.387562 -0.195773 0.7999350000000001
10080 2.27721492 8.799452279999999 -0.56777337 3.0404560000000003 -0.787669 0.93344
10100 3.0478100400000003 8.289911069999999 -1.5003315900000003 3.4430980000000004 -1.420719 0.919972
10120 3.3280326900000006 8.07346323 -1.71947718 3.553869 -1.095759 0.811371
10140 3.2904603900000002 9.07158168 -1.28178441 2.743054 0.672883 0.910263
10160 3.48026427 9.82212516 0.7581756600000001 2.102487 2.102286 1.247925
10180 3.3012317700000002 10.314596970000002 1.1364394500000001 1.836103 2.15572 1.7021259999999998
10200 1.8917702100000002 10.06282332 1.00261143 1.6535830000000002 0.745908 1.972918
10220 0.77553936 11.403438300000001 0.63558009 1.784748 -0.683229 1.7438619999999998
10240 -0.06571719 12.066260760000002 -0.53843166 1.790028 -1.255068 1.419892
10260 0.13905675 12.63373002 -1.08538821 1.307854 -2.140121 0.991437
10280 0.9291149100000001 12.72324627 -0.6824326500000001 0.739521 -2.627938 0.6654899999999999
10300 0.7816706099999999 12.529694970000003 1.0653365700000001 0.418355 -2.5197990000000003 0.54133
10320 1.7525565 11.642037120000001 1.1085986700000001 0.14008800000000002 -2.437074 0.34166
10340 1.4199484500000001 9.78829047 0.65039319 -0.07089 -2.349211 0.13070199999999998
10360 0.08726976 10.21909662 0.32871348000000006 -0.305672 -2.026128 -0.008085
10380 -1.67935428 11.24117109 0.7159632300000001 -0.670089 -1.453851 -0.014568
10400 -3.1626262800000005 15.237559080000002 1.10590092 -1.074003 -0.7965770000000001 0.069363
10420 -4.78764297 18.88233705 0.48289725 -1.425318 0.131249 0.114858
10440 -4.386776940000001 14.29766298 -1.6976205000000002 -1.458385 0.944833 0.215065
10460 -1.8612316800000002 12.77129565 -4.48302285 -1.134413 1.095108 0.44894
10480 1.09796463 12.81035907 -4.3060995 -0.541369 0.276273 0.37722
10500 2.9038090500000004 12.541672980000001 -2.48004648 0.408348 -0.6315689999999999 0.143599
10520 2.7652035600000002 10.229279400000001 -1.01997513 0.6700189999999999 -0.6766770000000001 0.274739
10540 2.6933453100000007 7.06156173 -1.5143991300000001 0.203295 -0.911992 0.385012
10560 1.8651262499999999 4.91203377 -1.1518509600000002 -0.319947 -0.937116 0.461506
10580 0.5522049 3.6049493700000004 -0.25536411 -0.115536 -0.711375 0.308821
10600 -0.28560834 3.2516912700000002 -0.98809263 0.310328 -0.091385 -0.059672
10620 -0.7244979300000001 3.24509895 -1.56619593 -0.15376199999999998 -0.040962 -0.012772
10640 -0.77599062 3.00081033 -2.00358459 -0.442632 0.151469 0.599191
10660 -0.6328823400000001 3.04572051 -2.4348321900000003 -0.437637 0.85405 0.188129
10680 -1.0180327500000002 4.07123829 -3.01623165 -0.684053 1.643779 -0.220529
10700 -0.79574796 4.7635398 -3.4048155600000003 -1.612092 1.873867 -0.744326
10720 -0.8692444800000001 6.07825638 -4.09862781 -1.874399 1.500267 -1.393022
10740 -0.62958618 8.81471664 -5.51782089 -1.913834 1.518476 -1.383706
10760 0.9806076 13.044621870000002 -7.548049440000001 -1.935684 1.550143 -0.760058
10780 3.3455435400000004 16.403340240000002 -8.05938588 -2.100594 1.948048 -0.224404
10800 4.454289360000001 14.6082672 -6.89451705 -1.884693 2.259472 -0.236114
10820 3.91975227 8.908578720000001 -7.04869101 -1.396255 2.300992 -0.386579
10840 2.23634646 5.538932010000001 -7.51272363 -1.036602 2.137509 -0.574001
10860 1.8886212 8.140524390000001 -5.78577123 -0.9109999999999999 1.918247 -0.728803
10880 0.80247762 12.26099907 -3.5833968 -0.840575 1.719713 -0.6917369999999999
10900 -0.47062494000000005 19.97131572 -2.51941401 -0.8775959999999999 1.685223 -0.559492
10920 -4.29157089 17.57465424 -1.2657646800000002 -1.007892 1.629321 -0.585968
10940 -3.4504713000000007 4.81773024 -0.13546629000000002 -1.154498 1.399198 -0.7191569999999999
10960 -2.5909583400000002 2.81325294 -0.5490558900000001 -1.176588 1.102583 -0.8492540000000001
10980 -0.94453623 5.5821941100000005 1.08839007 -1.046769 0.700878 -0.937563
11000 1.4648586300000002 8.35188084 1.2930070500000002 -0.932401 0.497065 -0.95039
11020 3.04152183 11.68245432 1.13852898 -0.628838 0.005598 -0.8536360000000001
11040 1.5380510399999998 14.4895662 1.1915225999999999 -0.631312 -0.415697 -0.723859
11060 -1.9766365200000002 13.349389140000001 0.6599775600000001 -0.460113 -0.4804600000000001 -0.660623
11080 -1.9067304600000001 10.01687328 -0.03173535 -0.08626 -0.235211 -0.510911
11100 -0.62494605 7.44986115 -0.2544714 0.068569 -0.048896 -0.351972
11120 0.44862111000000005 6.530320800000001 0.27482715 0.156462 0.027664 -0.127129
11140 0.5881291200000001 6.684651720000001 0.6506973 0.368475 0.318438 0.232902
11160 0.9849534300000001 8.244402480000002 0.9586037700000001 1.014737 0.3585 0.575991
11180 1.10410569 9.60178275 1.13524263 1.624432 0.055832000000000014 0.8786709999999999
11200 1.3156092899999998 9.55358622 1.08494676 2.266144 -0.6075699999999999 1.054919
11220 1.5399934199999998 8.79390963 0.45580203 3.012618 -1.225637 0.992559
11240 2.0977409700000003 8.581807620000001 -0.45654759 3.3425860000000003 -1.750434 0.876964
11260 3.1350798000000006 8.392896450000002 -1.11443562 3.425935 -1.395388 0.72754
11280 3.32997507 8.5575573 -1.6423803900000002 2.739128 0.205516 0.8414
11300 3.9300821999999997 9.700275150000001 -0.46598481 2.175713 1.473788 1.180875
11320 3.46424454 9.06050619 0.86879322 1.946914 1.524125 1.57766
11340 2.9129421600000005 10.18436922 0.7908037200000001 1.953302 0.246236 1.727825
11360 0.7536826799999999 10.361900790000002 0.27258066000000003 2.035077 -0.924233 1.589959
11380 -0.19040229 11.829005910000001 -0.06975891000000001 1.800287 -1.493026 1.511067
11400 0.36644274000000004 13.003459110000001 -0.20747169000000001 1.354857 -2.160282 1.19689
11420 1.29240864 12.67594245 -0.70833105 0.921528 -2.51861 0.8727879999999999
11440 1.97918712 14.19603138 -0.23007393000000004 0.528036 -2.440791 0.668045
11460 1.1801430000000002 13.5695844 1.73279916 0.223049 -2.4047 0.431928
11480 1.49733954 11.298059279999999 0.9812060100000001 -0.003562 -2.274012 0.181282
11500 0.83167218 9.270077220000001 1.08688914 -0.327472 -1.872728 0.010795
11520 -0.53468424 9.68994522 0.36599148000000004 -0.7821020000000001 -1.211653 -0.012456
11540 -2.0446002 12.112809210000002 0.70982217 -1.242091 -0.49647 0.024007
11560 -3.5780111100000003 17.00703783 0.72838269 -1.365603 0.13632 0.127019
11580 -4.57643367 16.25140296 0.21974400000000002 -1.00292 0.54975 0.319166
11600 -2.8615966200000003 13.152100230000002 -2.50444395 -0.505724 0.16312100000000002 0.404319
11620 -0.27497430000000006 12.89733453 -3.8002959000000005 0.187426 -0.548111 0.24343
11640 1.7592959700000002 12.22597737 -3.06143613 0.4870390000000001 -0.768833 0.302421
11660 2.5080344100000005 11.277399420000002 -1.75794219 0.372332 -1.037251 0.393831
11680 1.6983660600000001 9.2603457 -1.4564710800000003 0.346469 -1.402158 0.561829
11700 1.44704367 6.3920096100000015 -1.0532114099999998 0.884239 -1.576917 0.375666
11720 0.45864693000000006 4.697528310000001 -0.26180928000000003 0.430621 -1.422945 0.093494
11740 -0.39368511 3.6297981000000004 -0.42960933 -0.334471 -0.569809 0.261176
11760 -0.7656606900000001 3.3217444800000004 -0.95561172 -0.490783 0.311395 0.07522100000000001
11780 -0.8012807999999999 2.78181189 -1.3278914099999999 -0.307668 1.132254 0.033788
11800 -0.6303415499999999 2.82777174 -2.17767285 -1.1755 2.119992 -0.06967999999999999
11820 -0.6466555799999999 3.76362612 -3.21067566 -2.026569 2.087991 -0.652423
11840 -0.68976072 4.86472995 -4.14173295 -2.1406080000000003 1.713958 -1.05546
11860 -0.6548861700000002 6.050121300000001 -5.285059020000001 -1.954508 1.163499 -0.7564890000000001
11880 0.038170710000000004 8.44843086 -6.26372424 -1.791716 0.984618 -0.120599
11900 1.3939029000000003 11.82825054 -7.508240460000001 -1.741322 1.20949 -0.188901
11920 3.3421002300000002 14.37280758 -7.86988611 -1.620633 1.411621 -0.4916930000000001
11940 4.142782620000001 13.173809760000001 -7.362287280000001 -1.4640879999999998 1.631292 -0.68316
11960 2.74050198 9.1883403 -7.2633436200000006 -1.313118 1.749019 -0.684393
11980 0.6074352000000001 8.518336920000001 -7.58338506 -1.322792 1.696999 -0.7207140000000001
12000 1.03943817 13.41869679 -5.96554929 -1.280829 1.302694 -0.718847
12020 0.9713273400000001 18.416205090000002 -4.1833469700000006 -1.129773 1.0620969999999998 -0.622412
12040 -2.58078537 13.993503930000001 -1.9263406500000002 -1.0608229999999998 1.24707 -0.5858479999999999
12060 -4.1752635300000005 5.39043804 -1.3980917700000002 -1.058826 1.387945 -0.6522439999999999
12080 -2.89393038 4.12003323 -1.0352493 -1.1521370000000002 1.217009 -0.714634
12100 -0.6719555700000001 3.8863688400000003 1.1150340300000001 -1.20687 0.81384 -0.809571
12120 1.1404811700000002 5.16949722 1.6591456800000002 -1.041403 0.461209 -0.946832
12140 2.23529679 11.260182870000001 0.84798621 -0.8609899999999999 0.210392 -0.983707
12160 3.40437411 16.9534458 0.29414304 -0.683824 -0.122043 -0.853857
12180 -0.30926025 15.02201376 0.36030168 -0.631039 -0.22129 -0.5895100000000001
12200 -0.8497814400000001 10.0414179 -0.5086386900000001 -0.449974 -0.158532 -0.456934
12220 -1.0734200100000002 7.959402360000001 -1.5187449600000003 -0.235918 -0.128853 -0.339041
12240 -0.6749476200000001 7.01426772 -1.1091970800000002 -0.059814 0.004282 -0.219409
12260 -0.046548450000000005 7.086263310000001 -0.37362366 0.124763 0.173406 -0.049557
12280 0.8255311200000001 7.6928058 0.09984618 0.544322 0.4989810000000001 0.218944
12300 1.10155509 8.71203537 0.45939249000000004 1.220824 0.352637 0.531504
12320 0.95561172 9.377997030000001 0.6867686700000001 1.818447 -0.063816 0.794722
12340 1.03958532 9.20765619 0.29084688000000003 2.360043 -0.729901 0.929682
12360 1.4365665900000002 8.80334685 -0.33605136 2.93882 -1.5182719999999998 0.977464
12380 1.9547896500000002 8.634791430000002 -0.65713266 3.167561 -2.045787 0.8301860000000001
12400 2.37765951 8.653508910000001 -0.7427543400000001 3.155798 -1.491192 0.677706
12420 2.80052937 8.21971071 -0.8915426100000001 2.582297 0.002459 0.874748
12440 2.9692221300000003 9.20735208 -1.23882642 2.111229 1.137363 1.186197
12460 2.5251038100000005 9.852359580000002 -0.77403843 1.929961 1.249599 1.5138
12480 2.10028176 10.608592860000002 0.41942655 1.915152 0.040873 1.702184
12500 1.4563239300000002 10.40322051 0.93525597 1.980063 -1.091157 1.556673
12520 1.13898024 10.93640382 0.6255444600000001 1.776734 -1.519541 1.502391
12540 0.66132153 12.258007019999999 -0.47077209 1.2991469999999998 -2.010802 1.15999
12560 0.88630407 13.27963023 -1.10635218 0.859439 -2.638475 0.7988
12580 1.2740050800000002 13.0202244 -1.25259966 0.557059 -2.675071 0.6226149999999999
12600 1.28776851 13.67780832 0.64635147 0.265038 -2.527474 0.462289
12620 1.26726561 11.738734290000002 1.7654272199999999 -0.024053 -2.205172 0.29962300000000003
12640 2.3321509200000006 9.93498921 1.4024376 -0.306125 -1.6903009999999998 0.192308
12660 0.8282288700000001 9.81090252 1.02910824 -0.574404 -1.080057 0.198198
12680 -0.9979713 11.20539402 0.22527684 -0.8700530000000001 -0.346312 0.245399
12700 -2.2013247600000003 13.86072558 0.91490022 -1.068191 0.395962 0.206744
12720 -3.59327547 16.80076296 0.45025938000000004 -1.051795 0.937149 0.185869
12740 -3.48115698 13.64996754 -1.41904593 -0.937933 0.956649 0.272097
12760 -2.01466008 12.672195030000001 -3.28357377 -0.6625840000000001 0.343903 0.352785
12780 -0.0073378800000000015 12.11730219 -3.3968890800000002 -0.060031 -0.282055 0.257384
12800 1.9336785300000001 11.69876835 -2.12707287 0.30361 -0.384263 0.193825
12820 2.14624161 10.521323100000002 -0.93779676 0.297145 -0.5751689999999999 0.254913
12840 1.2536395200000001 8.35412733 -1.1996060400000002 0.026642 -0.697715 0.498872
12860 0.75787155 5.78621268 -0.99468495 0.178592 -0.522774 0.574484
12880 0.09220419 4.44919797 -0.15328125 0.215509 0.121374 0.362409
12900 -0.61686261 3.8796293700000004 -0.52211763 -0.413491 0.084824 0.457407
12920 -1.10994264 3.63024936 -1.31067486 -0.482665 0.015193 0.348054
12940 -1.15813917 3.6106391700000002 -1.94026104 -0.282779 0.722089 0.0206
12960 -1.17461016 4.183945379999999 -2.5538373 -0.672859 1.528668 -0.214962
12980 -1.46500578 5.680392210000001 -3.2584209300000007 -1.569911 1.7226169999999998 -0.7854979999999999
13000 -1.43820486 6.37239942 -3.9597182100000006 -1.7817 1.6387200000000002 -1.465191
13020 -1.13120091 6.93717093 -4.66444899 -1.800704 1.554193 -1.356256
13040 -0.55175364 8.3873538 -5.316048810000001 -1.774635 1.286627 -0.535337
13060 0.5965068599999999 10.46488617 -6.835686480000001 -1.83227 1.458689 -0.357567
13080 2.35205541 12.32432262 -7.99472817 -1.660004 1.625003 -0.539243
13100 4.01704785 12.79629153 -8.100558450000001 -1.386077 1.64705 -0.695454
13120 4.176617310000001 10.34543961 -7.684565399999999 -1.15258 1.317301 -0.753221
13140 3.00559761 7.75238193 -7.731270810000001 -1.156028 0.97662 -0.8019470000000001
13160 2.25162063 8.904831300000001 -6.68793807 -1.089244 0.721472 -0.723173
13180 2.3436776700000004 12.365034119999999 -4.0314195 -1.05532 0.789065 -0.606587
13200 1.48191822 17.7140151 -1.94939415 -1.0936629999999998 0.984373 -0.663721
13220 -2.5761452400000002 15.820155360000001 -1.4507812800000002 -1.109464 0.865775 -0.8281850000000001
13240 -3.76377327 5.122350360000001 -1.54403514 -1.194485 0.563027 -0.968328
13260 -2.78914977 3.02266701 -1.39015548 -1.104218 0.306638 -1.131875
13280 -0.58348899 4.906795230000001 0.47586348000000006 -0.946965 0.152731 -1.141262
13300 1.2979512899999999 7.283699370000001 1.0353964500000001 -0.7767729999999999 -0.017967 -0.959325
13320 3.3382056600000003 11.882892240000002 0.72389952 -0.6984600000000001 -0.113127 -0.673441
13340 2.84064246 15.841707930000002 0.32227812 -0.640501 -0.113972 -0.5128020000000001
13360 -1.45152684 14.421612330000002 -0.36299943 -0.365026 -0.065927 -0.512007
13380 -1.16636976 9.815238540000001 -1.18898181 -0.106179 0.15233 -0.438908
13400 -0.01227231 7.538327730000001 -1.36606212 -0.008406 0.284275 -0.220477
13420 1.30259142 6.3580277700000005 -0.3558087 0.177214 0.519157 0.020869
13440 1.6072115399999998 6.55022529 0.15118191 0.6846810000000001 0.248847 0.312112
13460 1.7408826 7.809858720000001 0.53154504 1.346551 -0.074253 0.617319
13480 1.03584771 9.04584024 0.5653699200000001 1.829043 -0.585605 1.0027
13500 0.49861287 9.29192409 0.26449722000000003 2.50321 -1.339857 1.226293
13520 0.38574882000000005 8.394838830000001 0.00509139 3.118531 -1.905413 1.199269
13540 0.9467827200000001 7.928559720000001 -0.05837931 3.347026 -1.980315 1.084525
13560 1.4638089600000002 8.37493434 -0.8282288700000001 2.931663 -0.749178 0.726464
13580 2.40909075 8.54273439 -1.1829879 2.293819 0.7306090000000001 0.982895
13600 2.78945388 9.09972657 -0.7815234600000001 1.892038 1.61493 1.295149
13620 2.57509557 9.52244928 0.58947309 1.752013 1.685318 1.662618
13640 2.17796715 10.08662238 1.2244547700000001 1.763638 0.217512 1.882497
13660 0.98255979 9.77063247 0.74186163 1.740734 -1.044903 1.918138
13680 0.48559500000000005 10.549016730000002 0.44862111000000005 1.647695 -1.488167 1.759959
13700 1.08134649 12.218943600000001 -0.0290376 1.276889 -2.303322 1.071547
13720 1.9552311 12.82099311 -0.7994855700000001 0.8744620000000001 -2.724391 0.693261
13740 3.04572051 12.611274930000002 -0.7502393700000001 0.496291 -2.810628 0.4760180000000001
13760 1.8756033300000001 13.171259160000002 0.10673280000000002 0.26115 -2.667174 0.237046
13780 1.6227800100000003 13.043572200000002 1.9579288500000003 0.054293 -2.336595 0.064262
13800 1.97813745 10.86694902 1.53326376 -0.21934 -1.798498 0.001841
13820 0.8858626199999999 10.079137350000002 1.4741388900000003 -0.628258 -1.0952879999999998 0.057904
13840 -1.13928435 10.2090708 0.72284985 -1.111982 -0.353732 0.179625
13860 -3.1880734200000003 12.92501835 -0.51896862 -1.374596 0.358644 0.214265
13880 -5.53953042 18.43581528 0.36209691 -1.210779 0.804108 0.293887
13900 -6.87266037 15.56298621 0.15328125 -0.801554 0.7821170000000001 0.376891
13920 -3.36470247 12.66321888 -2.46821562 -0.08834600000000001 0.08654099999999999 0.279146
13940 -1.0011203100000001 12.22642863 -3.57621588 0.469859 -0.349993 0.270786
13960 1.2156257700000002 11.9875257 -3.35407824 0.4349 -0.8352629999999999 0.443147
13980 2.1881499300000007 11.191473629999999 -1.67082939 0.135275 -1.105469 0.609112
14000 2.05986456 9.24686676 -1.2428681400000001 0.022833000000000003 -1.150014 0.657521
14020 1.6649924400000002 7.12278594 -1.47039147 0.163553 -0.865409 0.491497
14040 0.79050942 5.015166300000001 -0.08352234000000001 -0.098649 -0.35425700000000004 0.231569
14060 -0.27482715 4.15311255 -0.3876912 -0.5916 0.039874 0.397468
14080 -0.61896195 3.91031505 -1.16203374 -0.584421 0.631196 0.101931
14100 -0.8222447700000001 3.5561544300000003 -1.46216088 -0.578006 1.485918 0.003672
14120 -0.9036677700000001 3.4619980500000005 -1.97335017 -1.418971 2.1564970000000003 -0.462396
14140 -1.00681011 3.95133066 -2.43872676 -1.697331 1.876167 -1.244852
14160 -1.37623509 5.26919625 -3.2470511400000004 -1.6538389999999998 1.628579 -1.4375790000000002
14180 -1.08195471 6.026165280000001 -4.19503068 -1.564953 1.342534 -0.8447969999999999
14200 -0.7461976499999999 7.263490770000001 -5.3711319600000005 -1.696821 1.3701139999999998 -0.4355560000000001
14220 0.3972755700000001 9.69369264 -6.885982350000001 -1.8237330000000005 1.626191 -0.428225
14240 2.40145857 12.926970540000001 -8.51563917 -1.612185 1.80705 -0.5519609999999999
14260 3.95776602 14.53866525 -9.09044631 -1.324266 1.670116 -0.656596
14280 4.8698213400000006 11.833341930000001 -8.28661491 -1.20431 1.399667 -0.793212
14300 3.70869012 7.898021190000001 -7.18266618 -1.130121 1.047886 -0.797585
14320 1.8503033400000002 7.548647850000001 -6.01868025 -0.970238 0.845716 -0.727842
14340 1.79282655 11.532017970000002 -4.689150570000001 -0.959679 0.928339 -0.619984
14360 0.47601063 16.157246580000002 -3.32263719 -1.0597530000000002 1.003147 -0.593005
14380 -2.0161610100000003 15.724949310000001 -2.59470576 -1.139854 0.841016 -0.737567
14400 -3.6203706900000006 6.6303141299999995 -1.4738347800000002 -1.195667 0.571417 -0.934164
14420 -2.89737369 4.43737692 -0.83181933 -1.134827 0.448154 -1.0639040000000002
14440 -1.2304388700000002 5.34717594 0.8150540400000001 -0.958538 0.259017 -1.070976
14460 0.38589597 6.933727620000001 1.26487197 -0.767439 0.005103 -0.8759680000000001
14480 1.98232632 11.797113600000001 0.6019023600000001 -0.70255 -0.028075 -0.627645
14500 2.54635227 14.780864340000003 0.21345579 -0.4602 0.142054 -0.492642
14520 -0.63123426 13.158986850000002 -0.34518447 -0.182765 -0.032766 -0.438137
14540 -0.38215836 9.75102228 -0.79005816 -0.175803 0.317841 -0.21100700000000006
14560 0.28769787 8.16506901 -0.84888873 0.091224 0.510289 -0.084406
14580 1.1018592 6.94764801 -0.26001405 0.607584 0.5860449999999999 0.236365
14600 1.5087093300000003 6.73195554 0.03562992 1.301714 0.289584 0.511854
14620 1.5864045300000003 7.56122427 0.08861373 1.862357 -0.06275800000000001 0.7587079999999999
14640 1.2985497000000001 8.79974658 0.30072555 2.234693 -0.653541 1.123125
14660 0.9636951600000001 9.333989370000001 0.25521696000000005 2.868717 -1.449738 1.2151
14680 0.75248586 9.126370529999999 -0.15732297 3.1977740000000003 -2.11964 1.157368
14700 1.04333274 8.408612069999998 -0.4090966200000001 3.184834 -1.594848 0.999577
14720 1.40078952 8.386755390000001 -0.79709193 2.700019 -0.002821 1.027265
14740 1.93382568 7.89323391 -1.03419963 2.381067 1.056883 1.364442
14760 2.37675699 8.95826637 -1.21383054 2.169912 1.605065 1.656025
14780 2.18291139 9.32260977 -0.28546119000000003 2.0857240000000004 0.591669 1.8084240000000005
14800 1.9820320200000001 9.948016890000002 0.7951495500000001 1.996869 -0.452946 1.780299
14820 1.6561536300000002 9.91208286 0.8416980000000001 1.894216 -1.071143 1.687439
14840 1.61334279 10.810521900000001 1.5021268200000002 1.680398 -1.618271 1.234789
14860 1.6248695400000002 12.32956116 0.13905675 1.176247 -2.3797900000000003 0.834865
14880 1.445994 13.456867500000001 -1.3822290000000002 0.648575 -2.726528 0.624388
14900 1.3477959000000002 12.98430018 -1.20364776 0.382386 -2.937328 0.29165
14920 1.1588945400000001 13.87988451 0.09011466 0.066151 -2.536948 0.07421599999999999
14940 1.30005063 12.62026089 2.03981292 -0.242375 -1.758771 -0.056055
14960 2.70771696 10.936256670000002 1.5135064200000001 -0.350647 -0.888207 -0.020539
14980 0.90770949 9.09628326 0.40280841 -0.343007 -0.229415 0.126085
15000 -0.6060912300000001 10.297537380000001 -0.26105391000000006 -0.188338 0.21022800000000005 0.337041
15020 -2.2409865900000003 13.2342786 -0.03637548 -0.039385 0.352579 0.572908
15040 -4.45173876 18.87170301 0.08007903000000001 0.136605 -0.088172 0.618499
15060 -5.666462010000001 16.02402678 -0.52645365 0.230633 -0.701414 0.447958
15080 -3.6408834000000003 13.321999620000001 -2.68331949 -0.004139 -1.23836 0.3968
15100 -1.20350061 12.70722654 -3.29225562 -0.381551 -1.4595129999999998 0.351718
15120 0.9228267 11.899951830000001 -2.69499339 -0.482081 -1.357524 0.5079140000000001
15140 1.49674113 11.19806595 -1.31471658 -0.4920560000000001 -1.166842 0.783201
15160 1.3524360300000002 8.746017210000002 -0.47660904000000004 -0.310899 -0.7255510000000001 0.559575
15180 1.17610128 6.32539971 -1.04617764 -0.203749 -0.17126 -0.41781
15200 0.47436255000000005 4.832249040000001 -1.23747264 -0.014856 0.036605 -1.413408
15220 -0.38544471 4.14981639 -1.1599344 -0.669058 0.5959439999999999 -0.332313
15240 -0.48139632000000004 3.7969997400000004 -1.408716 -0.8241950000000001 1.983448 0.205346
15260 -0.6334807499999999 2.9556058500000004 -1.8369813600000002 -1.12415 2.7235400000000003 0.267464
15280 -0.48753738 2.8590558300000004 -2.8729762200000004 -1.847634 3.049212 -0.094793
15300 -0.25267617 4.25908998 -3.71557674 -2.083507 2.998805 -0.6037819999999999
15320 -0.39368511 6.0820038 -5.369631030000001 -1.925038 2.452454 -1.041014
15340 -0.04759812000000001 7.5734965800000005 -6.95648682 -1.8161650000000005 1.910167 -1.119675
15360 0.77539221 9.1131957 -7.95505653 -1.955726 1.551586 -0.571124
15380 1.87874253 10.413844740000002 -8.33272191 -1.959785 1.480809 -0.450353
15400 3.0469173300000003 9.910591740000001 -8.20638873 -1.680543 1.527223 -0.577717
15420 4.847964660000001 8.5635414 -8.187524100000001 -1.313641 1.507707 -0.810138
15440 3.90583188 6.63060843 -8.147254049999999 -1.13267 1.4843309999999998 -0.981896
15460 2.8645886700000003 4.7624999400000005 -8.147852460000001 -1.134588 1.486652 -1.0278459999999998
15480 1.58370678 5.153781600000001 -7.57050453 -1.166013 1.274236 -0.894265
15500 -1.06009803 8.34604389 -3.63399678 -1.08835 1.078655 -0.802673
15520 -3.15887886 11.75520528 -1.11577959 -1.001702 0.973629 -0.720749
15540 -2.8692288 22.11217164 -4.05581697 -1.097599 0.5944510000000001 -0.652566
15560 -7.814950110000002 19.757114370000004 -5.022052919999999 -1.276618 0.288746 -0.770929
15580 -2.47076622 4.6966356000000005 -1.9333842300000001 -1.250395 0.210692 -0.987495
15600 -2.15237286 4.59813339 -0.99153594 -1.171035 0.143939 -1.146021
15620 -0.7406550000000001 4.34501577 1.50886629 -1.032125 0.046145 -1.053058
15640 1.6724676600000001 7.1717378400000005 1.0135397700000002 -0.783617 -0.202844 -0.8074479999999999
15660 3.54029166 11.120076450000001 -0.2513322 -0.5580579999999999 -0.28577 -0.5120060000000001
15680 3.2873113800000002 14.78880063 -0.6135762600000001 -0.240358 -0.110955 -0.282479
15700 0.7044364800000001 14.607972900000002 -0.6334807499999999 -0.01198 0.299869 -0.121177
15720 0.94333941 10.254422430000002 -0.55400013 0.13778 0.673067 -0.07253899999999999
15740 0.9518741100000001 7.850570220000001 -0.9053158500000001 0.326085 0.8288559999999999 -0.034036000000000004
15760 0.83691072 6.446190240000001 -0.7614620100000001 1.018954 0.60957 0.123841
15780 0.9924384600000001 5.67530082 -0.5260023900000002 1.521576 0.07574199999999999 0.517937
15800 1.4314752 6.869962620000002 -0.43679025000000005 1.880947 -0.499225 0.934586
15820 1.2494506500000002 8.55636048 -0.30536568000000003 2.208676 -1.04511 1.298633
15840 1.4618567700000002 9.56421045 0.17767872 2.677259 -1.491945 1.280046
15860 1.8685597500000002 9.87751242 0.27617112 2.854667 -1.533777 0.93203
15880 1.49449464 10.011634740000002 -0.6523453800000001 2.75955 -1.171057 0.616844
15900 1.4929937100000004 9.27620847 -1.4160538800000002 2.573753 -0.434435 0.914773
15920 1.85704281 8.57342007 -1.0071044100000002 2.380626 0.340533 1.220079
15940 2.35444905 8.149353390000002 -0.69845238 2.220438 1.034629 1.474443
15960 2.59200801 10.16521029 -0.43963515000000003 2.049451 0.7085060000000001 1.925525
15980 1.92530079 10.25113608 0.00299205 1.900132 0.005947 1.924314
16000 1.70570394 10.5819489 0.09026181000000001 1.775813 -0.481013 1.7980189999999998
16020 0.9939295800000001 11.212133490000001 0.36793386 1.483738 -1.549889 1.620024
16040 0.01406754 12.36818313 -0.07918631999999999 1.090083 -2.473366 1.3994719999999998
16060 0.12214431 12.5519931 -0.9029222100000001 0.882091 -2.490745 1.130986
16080 0.95366934 12.21789393 -1.84551606 0.6609109999999999 -2.158507 0.8224360000000001
16100 2.1136037400000003 11.85998589 -0.9529139700000001 0.451079 -1.887132 0.53968
16120 3.1591829700000003 13.004803080000002 1.96720911 0.34825700000000004 -1.785495 0.253616
16140 2.16389961 12.32671626 2.30820471 0.194245 -1.626366 0.020532
16160 -0.07543890000000002 9.68231304 1.14122673 -0.17540999999999998 -1.108097 -0.061762
16180 -1.6338555000000001 9.90026181 0.16315992 -0.639757 -0.442846 -0.055176
16200 -1.4284831500000004 13.122160110000001 -1.1332904400000001 -0.996044 -0.143528 -0.006773
16220 -2.58886881 16.258436730000003 0.56028834 -1.126949 -0.205276 0.097077
16240 -3.12355305 14.55378246 1.76288643 -0.968761 -0.540626 0.173387
16260 -1.69537401 11.42094915 0.15387966000000003 -0.425042 -0.83135 0.210673
16280 -1.38911562 11.66838678 -2.23005825 -0.096081 -0.962567 0.238776
16300 -0.61582275 12.44541726 -2.8880934300000005 0.097098 -1.076483 0.586375
16320 0.39443067000000004 12.226722930000001 -3.2660629200000004 0.338955 -0.69247 1.046908
16340 0.49591512000000004 10.92563244 -1.8076396500000003 0.193749 -0.580767 0.944269
16360 -0.9910846800000002 8.24111613 -1.28238282 -0.814844 -1.119997 0.005357
16380 0.21166056000000003 5.94982386 -1.1578448700000001 -0.715097 -0.748631 0.02267
16400 1.8754463700000001 5.67350559 -1.2340293300000003 -0.24143 0.286921 0.118655
16420 2.37646269 5.19314913 -2.15402094 -0.361008 1.039184 0.177744
16440 1.96002819 4.422701160000001 -3.1190600699999997 -1.477616 1.7963169999999995 -0.116241
16460 0.9361486800000001 3.8154131100000006 -3.1780377900000003 -2.1137200000000003 2.781101 -0.7468560000000001
16480 0.29533986 3.184326 -2.93420043 -2.131164 2.603422 -1.319317
16500 -0.38335518 3.74521275 -2.8605469500000003 -1.917517 2.012377 -1.017965
16520 -0.56148516 4.5274817700000005 -3.54567735 -1.827969 1.468253 -0.35541300000000003
16540 -0.6611743800000001 5.29928352 -4.971757050000001 -1.6926259999999995 1.255447 -0.534724
16560 -0.02994012 6.75455778 -6.85783746 -1.51662 1.219686 -0.801573
16580 1.17221652 8.371196730000001 -8.28063081 -1.438955 1.1354030000000002 -0.837242
16600 3.1942046700000004 9.490115520000002 -9.24447312 -1.534246 1.084504 -0.8132729999999999
16620 4.91578119 9.65836683 -9.112155840000002 -1.641416 0.936967 -0.854425
16640 4.412528190000001 8.04711357 -7.9237724400000005 -1.516516 0.5463680000000001 -0.785754
16660 2.6556258600000002 7.25480892 -7.2456856200000015 -1.275101 0.422829 -0.736908
16680 1.04003658 10.00459116 -4.872371940000001 -1.066222 0.766506 -0.816006
16700 1.56844242 17.60144535 -4.2164361 -0.967025 1.021732 -0.792139
16720 -0.09640287000000002 22.52291634 -5.45316318 -0.866129 0.783309 -0.928929
16740 -4.800964950000001 8.963956170000001 -1.8781441200000002 -0.968087 0.39915 -0.941968
16760 -3.7830793500000004 2.0847132900000003 -2.27721492 -1.081828 -0.020024 -0.979613
16780 -2.1574642500000003 4.73105889 -0.57779919 -1.111285 -0.18708 -1.002037
16800 -0.68392377 3.9540284100000003 1.2726513 -1.0553629999999998 -0.07865499999999999 -0.992172
16820 2.08905912 7.87392783 1.36456119 -0.798503 0.036931 -0.816405
16840 3.4501770000000005 14.97740769 -0.5342427900000001 -0.5249090000000001 0.144732 -0.573214
16860 1.5194905200000002 17.54561664 -0.86864607 -0.4664140000000001 0.290783 -0.384986
16880 -0.24624081 12.635378100000002 -1.19930193 -0.325725 0.685815 -0.194366
16900 0.91026009 8.701558290000001 -1.74207942 -0.078198 0.795307 -0.084887
16920 1.3804337700000002 7.05108465 -1.40063256 0.316193 0.678078 0.117776
16940 1.5928398900000003 6.590348189999999 -0.8309266200000001 0.93063 0.380061 0.319002
16960 1.58954373 6.719231970000001 -0.34817652000000004 1.349833 -0.022202 0.651458
16980 1.41710355 7.808809050000001 0.058977720000000004 1.7633 -0.6317 0.865567
17000 0.90696393 8.9885106 0.69814827 2.266797 -1.072552 0.918787
17020 0.6836294700000001 9.25959033 0.27258066000000003 2.8298520000000003 -1.611392 0.915933
17040 0.6780868200000001 8.66817486 -0.76580784 3.01755 -1.899533 0.8823620000000001
17060 0.73931103 8.50126752 -1.5347548800000002 2.785448 -1.425309 0.773311
17080 1.90553364 8.12106135 -1.01114613 2.252632 -0.500152 0.844248
17100 2.1891996000000002 8.37792639 0.12798126 1.900136 0.181641 1.145355
17120 2.10881646 8.645572620000001 0.7674559200000002 1.933472 0.447011 1.353551
17140 1.52503317 9.076525920000002 0.12903093000000002 2.03919 -0.082384 1.516269
17160 0.7357205700000001 9.50418306 -0.33695388000000004 1.95051 -0.719528 1.620084
17180 -0.25880742 10.02675195 0.48813579 1.617879 -1.099903 1.659909
17200 0.38529756 11.03505318 1.7031631500000002 1.257501 -1.69239 1.4883030000000002
17220 0.91055439 12.179124810000001 0.75218175 1.092351 -2.202917 1.164133
17240 0.9422897400000001 13.68798129 -0.15732297 0.998244 -2.346131 0.830374
17260 1.5566115600000001 14.160254310000001 -0.43693740000000003 0.667658 -2.290848 0.612213
17280 1.97034831 15.07320234 0.21166056000000003 0.297991 -2.096086 0.445943
17300 2.27407572 14.51412063 0.6962058900000001 0.04868 -1.663305 0.326143
17320 1.6807080600000002 13.123955339999998 1.12431429 -0.109185 -1.054037 0.214232
17340 0.85741362 10.781778599999999 0.33964182000000004 -0.246814 -0.387576 0.167552
17360 0.9484308 8.07570972 0.6224052600000001 -0.304648 0.245519 0.137494
17380 0.1764819 8.537799960000001 0.37886220000000004 -0.262554 0.690257 0.237631
17400 -0.7625116799999999 11.410619220000001 -0.19518957000000003 -0.232804 0.629676 0.443016
17420 -2.6402143500000004 15.83123085 -0.04955031 -0.206635 0.127499 0.528231
17440 -3.76362612 16.34271444 -0.020208600000000004 -0.10244 -0.342038 0.375737
17460 -2.98584027 12.95914734 -1.15200792 -0.013118 -0.8486020000000001 0.17191099999999998
17480 -1.0124901 12.05787321 -1.5239835 -0.147976 -1.20915 0.14365799999999998
17500 -0.04056435 11.52872181 -1.6190325900000002 -0.099278 -1.396177 0.518115
17520 0.55713933 10.5850881 -1.41320898 0.228416 -1.178605 0.7027909999999999
17540 0.1790325 10.18123002 -1.08210186 0.292953 -0.923831 0.603571
17560 -0.76535658 8.708886360000001 -1.17086274 -0.261685 -0.5677270000000001 0.210408
17580 -0.52001829 6.761591550000001 -0.27917298 -0.637566 -0.06932999999999999 0.307556
17600 -0.17438256000000002 5.2955361000000005 0.19190322 -0.4859890000000001 0.542087 0.189259
17620 -0.44202879000000006 4.35788649 -0.59426037 -0.230865 1.13845 0.282144
17640 -0.55923867 3.7047955500000005 -1.2609774000000002 -1.2369370000000002 1.956363 0.143745
17660 -0.82284318 3.4880436 -1.7910215100000002 -2.000478 2.395916 -0.6900229999999999
17680 -1.0326987 3.9757281300000002 -2.55563253 -2.143038 2.546045 -1.346032
17700 -0.95905503 4.82910984 -3.4619980500000005 -1.770515 1.7803639999999998 -1.199307
17720 -0.77658903 5.8761801899999995 -4.52523528 -1.71409 1.224749 -0.298758
17740 -0.45594918 7.052134320000001 -5.85956205 -1.786363 1.23055 -0.354817
17760 0.51791895 8.72939907 -7.006184280000001 -1.76226 1.48227 -0.7203039999999999
17780 2.2219748100000007 10.35352305 -7.805669850000001 -1.643084 1.690375 -0.917359
17800 3.8377210500000003 10.328968620000001 -8.4129579 -1.609519 1.622901 -0.8561489999999999
17820 5.153330340000001 9.30345084 -8.8293924 -1.642477 1.578557 -0.926825
17840 5.1085771200000005 7.4329389 -8.167913910000001 -1.475032 1.101752 -0.915431
17860 3.54373497 5.865104700000001 -7.158867120000001 -1.218612 0.580563 -0.804013
17880 2.10851235 8.86680774 -6.3339246000000005 -1.104218 0.634488 -0.802215
17900 1.09676781 13.25688084 -5.46992847 -1.158468 0.97105 -0.7389319999999999
17920 1.11891879 19.117345410000002 -5.31799119 -1.19145 0.851353 -0.880014
17940 -3.31455375 15.9381108 -4.77850986 -1.295014 0.547246 -0.930554
17960 -4.69183851 4.32330624 -2.2282630200000004 -1.290483 0.4742560000000001 -1.062889
17980 -3.22668558 2.79962685 -2.17272861 -1.053477 0.471451 -1.0996860000000002
18000 -1.4046742800000003 4.53811581 -0.41059755000000003 -0.936668 0.506629 -0.940818
18020 0.52960266 4.148178120000002 1.7926695900000003 -0.741715 0.221565 -0.684854
18040 2.02348908 9.743841360000001 1.27310256 -0.649528 0.095591 -0.43088
18060 3.96421119 16.87860531 0.00014715 -0.398525 0.07598400000000001 -0.27420900000000004
18080 0.9330094800000001 18.18882891 -0.52960266 -0.031381 0.197905 -0.17993399999999998
18100 -0.50459697 11.74068648 -1.14976143 0.189901 0.354554 -0.118769
18120 0.34024023 8.06642946 -2.1136037400000003 0.456118 0.295885 -0.06342300000000001
18140 0.74155752 6.91262631 -1.4311710900000003 0.8537969999999999 0.26148000000000005 0.20325
18160 0.99468495 6.94465596 -0.41957370000000005 1.387452 -0.054977 0.5566909999999999
18180 1.1784949200000001 6.831046350000001 0.5881291200000001 1.803205 -0.472304 0.929735
18200 1.1064993300000001 7.88590584 1.0473744600000001 2.246905 -0.7750640000000001 1.13298
18220 0.7354164599999999 8.95797207 1.36456119 2.835852 -1.255382 1.12489
18240 0.7758336600000001 9.4516407 0.99662733 3.029527 -1.482493 1.00903
18260 0.65967345 8.7719058 -0.04595004000000001 2.860859 -0.8849790000000001 0.915219
18280 0.46897686000000005 8.39095407 -0.5146326 2.433267 0.280197 1.07845
18300 0.79589511 7.706422080000001 -0.4596966 2.1359470000000003 1.0940450000000002 1.341318
18320 0.9695321100000001 8.70619842 -0.40206285 2.110909 0.971779 1.568831
18340 1.4465924099999998 9.0929871 -0.16750575 2.146836 -0.151713 1.7104580000000005
18360 1.9905569100000002 9.477539100000001 -0.1907064 2.138616 -1.077332 1.425304
18380 2.4760047600000004 10.023004530000001 0.29383893 1.853179 -1.369694 1.259178
18400 2.4128283600000002 10.766514240000001 0.9382480200000001 1.384009 -2.028618 1.013191
18420 2.62853064 11.51135811 0.33485454 1.042306 -2.403293 0.7015
18440 1.7134832700000002 12.47146281 -0.08636724000000001 0.963687 -2.399651 0.39223
18460 0.8759741400000002 12.865000770000002 -0.6867686700000001 0.762133 -2.32365 0.209127
18480 1.35393696 13.033997640000003 -0.9018725400000001 0.373951 -2.135527 0.120717
18500 2.4562376100000005 13.57332201 -0.15387966000000003 -0.037475 -1.645904 0.045644
18520 2.05971741 14.065352370000001 1.1576879100000002 -0.3904510000000001 -0.9064 0.034754
18540 0.5020561800000001 13.189368420000001 2.04295212 -0.581715 -0.217732 0.075264
18560 -0.30985866000000006 11.017689480000001 0.91923624 -0.597278 0.392575 0.112829
18580 -0.8652027600000002 9.28563588 0.96967926 -0.516582 0.729238 0.2999
18600 -0.7964935200000001 10.707830820000002 0.43709436 -0.398906 0.614744 0.591425
18620 -1.88787564 13.49204616 0.84528846 -0.069293 0.142682 0.60822
18640 -3.72440574 15.986601630000001 0.8702941500000001 0.205318 -0.436986 0.410055
18660 -3.5127451800000005 14.339277000000001 -0.04909905 0.168237 -0.972214 0.290841
18680 -2.0713913100000005 13.216463640000002 -1.35198477 0.051744000000000005 -1.331453 0.4517890000000001
18700 0.4379870700000001 12.748389300000001 -2.0375664300000005 0.34995 -1.27449 0.866133
18720 1.82545461 11.89456614 -1.9020903300000003 0.561596 -1.018104 1.034993
18740 1.9687100400000002 11.15360703 -0.9876413700000001 -0.014225 -0.66285 0.606432
18760 0.46627911 9.25554861 -1.15799202 -0.7195520000000001 -0.086935 0.252527
18780 0.0142245 6.3297357299999994 -1.0300107600000001 -0.598889 0.532038 0.13614
18800 -0.35087427000000004 4.29157089 -0.24009975 -0.39622 1.449692 0.113947
18820 -0.63228393 3.8297847600000003 -0.11271690000000001 -1.2825030000000002 2.555937 -0.038939
18840 -0.89139546 3.48999579 -0.59157243 -2.0811740000000003 2.727466 -0.682466
18860 -0.66566736 3.41769609 -1.1216165400000002 -2.1266130000000003 2.699149 -1.286293
18880 -0.60009732 3.68324298 -1.73818485 -1.702176 2.00288 -1.226888
18900 -0.9412400700000001 4.10955615 -2.6476895700000003 -1.505865 1.476488 -0.562545
18920 -1.4579720100000002 5.4588529800000005 -3.82469337 -1.5624280000000002 1.463937 -0.57147
18940 -1.13134806 6.87280752 -5.208266340000001 -1.508479 1.602111 -0.806279
18960 -0.01601973 8.24829705 -6.621033870000001 -1.304984 1.664705 -0.918169
18980 1.3458535200000001 10.305915120000002 -7.80416892 -1.263933 1.590856 -0.8675809999999999
19000 3.0097864800000003 11.736340649999999 -8.722659600000002 -1.354632 1.323894 -0.8945780000000001
19020 4.565809440000001 10.84779009 -9.21199221 -1.279311 0.8492 -0.798372
19040 5.31454788 8.78792553 -8.36146521 -1.079285 0.62107 -0.665291
19060 3.26171709 6.7816431900000005 -7.345826100000001 -1.014923 0.756966 -0.606264
19080 2.09250243 8.74391787 -6.51654756 -0.945311 0.940404 -0.719244
19100 1.4635048499999999 12.93834033 -5.34597912 -0.973968 0.875916 -0.817638
19120 1.77829794 17.77613202 -4.474193850000001 -1.020893 0.46984 -0.991565
19140 -2.13605883 14.89626918 -2.9026122300000003 -1.066909 0.102876 -1.090761
19160 -6.2863264800000005 5.67844002 -1.9404180000000002 -1.004343 -0.068502 -1.177699
19180 -3.4913397600000002 4.217475960000001 -1.7597374200000002 -0.965478 -0.070242 -1.042829
19200 -1.4465924099999998 4.67507322 0.43454376000000006 -0.786305 -0.072934 -0.79161
19220 0.38080458 5.487890580000001 1.3892627700000002 -0.5803590000000001 0.007128 -0.479422
19240 2.08965753 11.28862206 1.07865855 -0.449476 0.102918 -0.305578
19260 3.7848745800000003 17.014817160000003 0.19085355 -0.33473200000000003 0.351318 -0.186522
19280 0.43724151 15.3164511 -0.34802937000000006 -0.162907 0.63395 -0.15257
19300 0.24968412 10.18422207 -1.20694392 0.029783 0.553333 -0.13937
19320 0.46223739 8.06402601 -1.69343163 0.264056 0.5712229999999999 -0.02132
19340 0.9530709300000001 6.993755010000001 -0.99213435 0.799948 0.279145 0.094961
19360 1.52054019 6.605759700000001 -0.31374342 1.233332 -0.12501199999999998 0.355947
19380 1.8582396300000001 6.974448929999999 0.19833858000000001 1.59755 -0.598683 0.744726
19400 1.9056906 8.47507482 0.59141547 2.080664 -1.201789 0.898425
19420 1.4635048499999999 9.76943565 0.47122335000000004 2.724513 -1.728436 0.973031
19440 0.9593591400000001 9.83918475 -0.6342263100000001 2.978055 -2.023442 1.000818
19460 0.92148273 8.84600073 -1.21787226 2.8729 -1.541183 0.903325
19480 1.3910580000000001 8.2857222 -1.4862640500000002 2.308116 -0.245808 0.860333
19500 1.9580760000000001 8.1411228 -0.52615935 1.881353 0.702817 1.097554
19520 2.2227301800000006 8.60500827 0.32437746000000006 1.817224 1.134656 1.318743
19540 2.17198305 8.76577455 0.20223315000000003 1.901763 0.621391 1.462065
19560 1.83009474 9.20959857 -0.22857300000000003 1.90852 -0.244719 1.466427
19580 0.8256782699999999 10.02510387 0.23036823 1.618147 -0.7338359999999999 1.4906620000000002
19600 0.795591 10.46055015 1.12505985 1.3736469999999998 -1.203066 1.297276
19620 1.46979306 10.25427528 1.0822490100000002 1.179605 -1.766619 0.938788
19640 1.33103061 11.29027014 0.2951829 0.93578 -2.215089 0.615057
19660 1.22594589 12.696445350000001 -0.18905832000000003 0.6717310000000001 -2.339951 0.367681
19680 1.7148370499999999 12.867541560000001 -0.13546629000000002 0.376778 -2.1995310000000003 0.140046
19700 1.77291225 13.151648970000002 -0.17499078 0.072163 -1.786562 -0.038867
19720 2.13321393 13.23382734 0.21390705000000002 -0.150383 -1.0472709999999998 -0.109735
19740 1.78039728 13.29131394 1.6727717700000002 -0.257092 -0.278017 -0.048441000000000005
19760 0.8464852800000001 11.15405829 0.9879454800000002 -0.2381 0.248829 0.051429
19780 0.86969574 9.078174 0.65878074 -0.22665 0.563543 0.193179
19800 0.46223739 8.54797293 0.7749409500000002 -0.21693 0.5318930000000001 0.373817
19820 -0.99722574 10.23765714 -0.37946061000000003 -0.117645 0.150924 0.454047
19840 -2.7382554900000002 13.83228639 -0.25028253 0.033846 -0.413845 0.366099
19860 -5.02879239 17.587377810000003 0.06167547 0.084691 -1.018901 0.317023
19880 -4.75501491 14.133159090000001 -0.48155328000000003 0.198578 -1.445844 0.426256
19900 -2.63407329 12.406500990000001 -1.8676670400000002 0.721017 -1.455276 0.733292
19920 -0.45790137000000003 11.97764703 -2.09923209 0.77179 -1.435684 0.851126
19940 0.7093709100000001 11.03520033 -1.8895237200000001 -0.187442 -1.14842 0.441338
19960 0.9660888000000001 9.94666311 -1.33103061 -0.949517 -0.454825 0.01211
19980 0.32167971 8.89749342 -1.49329782 -0.823896 0.441668 0.020385
20000 0.17348985 7.0193493 -1.2087391500000002 -0.5412560000000001 1.486325 0.136388
20020 0.29757654 5.423223060000001 -0.5944173300000001 -1.364917 2.428777 0.130495
20040 -0.047902230000000004 4.69812672 -0.7226928900000001 -1.873584 2.685071 -0.383996
20060 -0.33664977 4.39920621 -1.04302863 -2.148866 2.775863 -1.004536
20080 -0.4366431 3.71646945 -1.7486619300000001 -1.7519810000000002 1.802935 -1.265436
20100 -0.48079791 3.79625418 -2.71325961 -1.447425 1.068756 -0.680187
20120 -0.6165683100000001 4.694987520000001 -3.5325025200000004 -1.560716 0.93221 -0.534457
20140 -0.89214102 6.295606740000001 -4.62807351 -1.780773 1.171234 -0.7104199999999999
20160 -0.40835106000000004 7.60568319 -5.851635570000001 -1.798471 1.408182 -0.809124
20180 0.49741605 8.8037883 -7.04419803 -1.733436 1.420648 -0.786253
20200 2.04549291 9.71779581 -7.980650820000001 -1.65858 1.240282 -0.767339
20220 3.2449518000000004 10.00279593 -8.470287540000001 -1.484803 0.979728 -0.761519
20240 4.38648264 9.13206033 -8.52043626 -1.271356 0.829557 -0.688264
20260 4.8759624 8.09247501 -8.41654836 -1.075598 0.973635 -0.6582399999999999
20280 3.43386297 7.4919166200000005 -7.522308000000001 -0.990348 1.159877 -0.686725
20300 1.7446202100000001 10.034236980000001 -6.7918259700000005 -1.076056 1.034657 -0.733097
20320 0.58423455 13.289067450000001 -6.7657804200000005 -1.220243 0.661654 -0.8351069999999999
20340 -0.38979054 15.04820646 -4.14173295 -1.285657 0.4897 -0.93362
20360 -4.163589630000001 10.841501880000001 -3.2446575 -1.070863 0.457436 -1.043173
20380 -5.375772090000001 6.3462067200000005 -1.76288643 -0.915576 0.418274 -0.97474
20400 -2.4748079400000003 5.44058676 -1.61499087 -0.665776 0.196007 -0.752657
20420 -0.62374923 4.65457032 0.5126804100000001 -0.5041760000000001 0.087887 -0.495016
20440 0.32213097 7.355557620000001 0.34009308 -0.29268 0.020643 -0.379153
20460 2.5282430099999997 12.584483819999999 0.020355750000000002 -0.14285 0.269874 -0.23208
20480 3.14286894 16.820069040000003 -0.8328690000000001 0.009493 0.5714239999999999 -0.117102
20500 0.051796800000000004 13.651164360000001 -0.7530842700000001 0.223559 0.691296 0.089338
20520 0.5312409300000001 9.65746431 -1.13718501 0.570965 0.54979 0.276749
20540 0.42676443000000003 8.02706193 -1.25124588 1.070281 0.33820700000000004 0.541154
20560 0.61118262 7.284601889999999 -0.60489441 1.462187 0.043594 0.8828950000000001
20580 0.94917636 6.85154925 -0.016461180000000002 1.948915 -0.518839 0.985292
20600 1.22101146 7.695199440000001 0.40894947000000004 2.608709 -1.145327 0.972544
20620 0.9819613800000001 8.29245186 0.5653699200000001 2.959349 -1.53615 0.901786
20640 0.7159632300000001 8.77460355 0.20477394000000002 2.936856 -1.411061 0.808534
20660 0.44862111000000005 8.78149017 -0.30161826 2.4943470000000003 -0.490908 0.720942
20680 0.7620604200000001 8.52627321 -0.7258419 2.011513 0.347038 0.979278
20700 0.94962762 8.172406890000001 -0.64111293 1.877635 0.691758 1.202228
20720 1.4388032700000002 8.705148750000001 -0.14909238 1.961014 0.393689 1.344198
20740 1.6301080800000003 9.126517680000001 0.14490351 2.069564 -0.290952 1.433428
20760 1.9808352 9.08206857 -0.30462012 1.953893 -0.867917 1.430154
20780 2.0231947800000003 10.23377238 -0.29010132000000005 1.513888 -1.282592 1.349632
20800 1.32669459 10.01342997 0.62824221 1.126725 -1.7924369999999998 1.047411
20820 1.6651395900000001 10.342594710000002 1.0500624 0.871817 -1.996256 0.823701
20840 1.55780838 11.064836340000001 0.8134059600000001 0.61968 -2.039304 0.6190329999999999
20860 1.15260633 12.848235480000001 -0.36554022 0.341375 -1.9513080000000005 0.433242
20880 0.95247252 13.51030257 -0.84184515 0.057426 -1.7161970000000002 0.225859
20900 1.42353891 13.82570388 -0.0378666 -0.141402 -1.26313 0.050837
20920 1.23822801 14.130167040000002 0.71850402 -0.241297 -0.504143 0.009643
20940 0.9963232200000001 13.98302685 1.92215178 -0.24742600000000006 0.113408 0.09213
20960 0.21345579 11.71748583 0.9122024700000001 -0.220589 0.468789 0.17411500000000002
20980 0.70144443 9.45149355 0.9756731700000001 -0.246103 0.5718770000000001 0.257126
21000 0.48708612000000007 8.70080292 0.98988786 -0.260806 0.452351 0.323406
21020 -0.75413394 10.032588900000002 -0.53109378 -0.185986 0.038641 0.354369
21040 -2.3858901 12.98639952 -0.20342997 -0.073759 -0.436679 0.308761
21060 -4.1833469700000006 16.22011887 0.30895614000000005 -0.066691 -0.813607 0.258018
21080 -3.75449301 13.902486750000001 -0.50879565 -0.097126 -1.014424 0.420433
21100 -1.5864045300000003 12.40934589 -1.62097497 0.120344 -1.005678 0.708224
21120 -0.06795387 11.533518899999999 -2.0838205800000003 0.341108 -0.936492 0.797272
21140 0.82463841 10.36309761 -1.82246256 0.192612 -0.817538 0.4830930000000001
21160 1.13538978 9.69922548 -1.5494306400000002 -0.514349 -0.686575 0.047493
21180 0.37871505 8.58674205 -1.44015705 -0.5826819999999999 0.129091 -0.075806
21200 -0.37946061000000003 7.12517958 -1.35393696 -0.51251 1.004584 -0.095666
21220 -0.52286319 5.9938315200000005 -0.6291447300000002 -0.574926 1.862238 -0.068359
21240 -0.42541065000000006 5.466926610000001 -0.7143151499999999 -1.711893 2.425309 -0.299213
21260 -0.37362366 4.88284902 -1.13388885 -1.986485 2.55385 -1.036232
21280 -0.23411565 4.21239438 -1.7078032800000003 -1.846549 2.331769 -1.2977530000000002
21300 -0.07603731000000002 4.20026922 -2.4872274 -1.519663 1.373684 -0.68215
21320 -0.16690734 4.7681799300000005 -3.1672664100000003 -1.524061 1.056669 -0.255554
21340 -0.6996492000000001 6.11762391 -3.93097491 -1.542138 1.138374 -0.425633
21360 -0.6198644700000001 7.28579871 -4.80276018 -1.467612 1.307518 -0.697725
21380 -0.06795387 8.12106135 -6.05385891 -1.405403 1.272583 -0.8062050000000001
21400 0.9533652300000001 9.10960524 -7.268886270000001 -1.449571 1.152463 -0.831997
21420 2.0013381 9.69713595 -8.078996069999999 -1.487529 1.015175 -0.8320860000000001
21440 3.4908885 9.65925954 -8.289911069999999 -1.319725 0.707389 -0.731175
21460 4.80694905 8.742868200000002 -8.3785248 -1.061441 0.608015 -0.612807
21480 5.052738600000001 7.125336540000001 -7.69684752 -0.8993040000000001 0.8290649999999999 -0.621572
21500 2.80127493 6.896312280000001 -6.97833369 -0.8740950000000001 0.969628 -0.630121
21520 1.4310239400000002 9.751473540000001 -6.08709519 -0.981122 0.811609 -0.713988
21540 1.4907472200000003 14.51426778 -5.125038300000001 -1.10688 0.486547 -0.8330219999999999
21560 0.8747773200000001 19.076928210000002 -4.8210264 -1.128399 0.29654 -0.983549
21580 -4.4973945 11.475885150000002 -3.8387707200000003 -0.977808 0.152924 -1.162842
21600 -4.5750897 4.520752110000001 -2.50728885 -0.871201 -0.036269 -1.095625
21620 -2.6779338 4.26432852 -2.05792218 -0.756495 -0.103863 -0.808454
21640 -0.96474483 4.1734683 0.77059512 -0.6543399999999999 0.188381 -0.454533
21660 1.1225190600000001 5.6772432 1.32848982 -0.406957 0.25742800000000005 -0.353549
21680 2.3243617800000003 11.200910850000001 0.70773264 -0.253362 0.329009 -0.272451
21700 3.5164827900000004 17.37047871 -0.52092081 -0.168357 0.564901 -0.196316
21720 0.32138541 15.63214671 -1.17939744 0.071884 0.707472 -0.094408
21740 0.8482903200000002 10.205627490000001 -1.6049650500000001 0.464391 0.623363 0.085766
21760 1.0782072900000002 7.907458409999999 -1.67920713 1.176428 0.191888 0.277163
21780 1.12326462 7.10826714 -0.93645279 1.571616 -0.139799 0.5634279999999999
21800 1.33148187 6.72670719 -0.30506157000000006 1.949224 -0.72535 0.947103
21820 1.5911918100000002 7.52365197 0.07380063 2.519653 -1.358619 1.108927
21840 1.2621742200000001 8.684793 0.32063004 2.85544 -1.7249150000000002 1.0444440000000002
21860 1.04213592 9.302558130000001 0.47287143000000004 2.929405 -1.596586 0.8567889999999999
21880 0.7879588200000001 9.24911325 -0.08772102000000001 2.615291 -0.418836 0.707808
21900 0.9018725400000001 8.34559263 -0.64635147 2.17195 0.856965 0.925266
21920 0.80053524 8.40202956 -1.2322341 1.972489 1.612916 1.196369
21940 1.17745506 8.24695308 -0.67224987 1.925857 1.217929 1.445445
21960 1.41830037 8.528519700000002 0.0 1.93008 0.054498000000000005 1.479012
21980 1.8988039800000003 8.681643990000001 -0.00628821 1.855113 -0.557477 1.404497
22000 1.9556823600000002 8.712780930000001 -0.39816828 1.448993 -0.999022 1.354156
22020 1.7482106700000002 10.35936 0.40789980000000003 1.00517 -1.858796 0.964393
22040 1.00291554 10.262358720000002 0.8060778900000001 0.760182 -2.339177 0.630013
22060 0.87388461 10.039926779999998 0.9503731800000002 0.605374 -2.367493 0.386481
22080 1.0240168500000002 11.28622842 0.84664224 0.316741 -2.16563 0.23892800000000006
22100 1.41380739 12.53103894 -0.27572967000000004 -0.027626 -1.737916 0.13663
22120 1.7036045999999998 12.6239985 -1.06309008 -0.35962 -1.121879 0.081179
22140 2.2679346600000003 13.142672820000001 -0.5918667300000001 -0.701546 -0.462601 0.14310699999999998
22160 1.77501159 13.38337098 0.0031392000000000004 -0.959248 0.220734 0.242981
22180 2.27437002 13.304184659999999 2.75741442 -1.062245 0.866402 0.30445900000000004
22200 1.91556927 11.17546371 1.18089837 -0.957619 1.082438 0.267525
22220 0.4801995 9.96118191 1.0309034700000002 -0.734232 0.709832 0.280245
22240 -0.50475393 10.174039290000001 0.73137474 -0.326759 -0.089202 0.212544
22260 -1.84566321 11.41451379 -0.3010198500000001 0.166937 -0.451792 0.150228
22280 -3.5072025300000003 14.355296730000001 -0.01601973 0.399875 -0.4500520000000001 0.31208600000000003
22300 -5.275778760000001 15.449219639999999 0.2980278 0.199071 -0.746422 0.541799
22320 -4.034558700000001 12.832961310000002 -1.04438241 -0.155691 -0.941862 0.706214
22340 -1.73564406 11.97105471 -1.8839810700000001 -0.157187 -0.875505 0.630275
22360 0.33844500000000005 11.599824690000002 -2.2791573 -0.037538 -0.225712 0.5330699999999999
22380 1.5200889300000002 10.86350571 -1.6128915300000002 -0.396737 -0.080815 0.839091
22400 1.4471908199999999 9.596838510000001 -1.16592831 -0.475559 0.189802 0.36604
22420 0.7741855799999999 8.45622 -2.22048369 -0.412555 0.484267 -0.066527
22440 0.58767786 6.77940651 -1.67157495 -0.661411 1.172936 -0.5081869999999999
22460 0.42481224000000006 5.45854887 -0.5709125700000002 -1.318309 1.830644 -1.111823
22480 0.13531914 4.75171875 -0.5900715000000001 -1.4913459999999998 1.780872 -1.834018
22500 -0.40266126 4.14712845 -1.23672708 -1.467661 1.808675 -1.614902
22520 -0.42466509 3.7676678400000005 -1.73818485 -1.6488580000000002 1.519398 -0.513392
22540 -0.42975648 3.89983797 -2.4568458300000002 -1.7058529999999998 1.656065 -0.275752
22560 -0.75712599 4.94271945 -3.21665976 -1.5697450000000002 1.850193 -0.45558
22580 -0.74215593 5.977223189999999 -3.7550914200000003 -1.25493 1.7441349999999998 -0.579295
22600 -0.3441348 6.597980370000001 -4.44950208 -1.088693 1.403969 -0.637518
22620 0.46298295 7.847735129999999 -5.642064540000001 -1.056155 0.971659 -0.713649
22640 1.5813131400000002 9.928848150000002 -7.428897180000001 -1.002543 0.6133109999999999 -0.656199
22660 3.3831158400000003 11.93962347 -7.91778834 -0.973083 0.5863149999999999 -0.5907979999999999
22680 4.983440760000001 12.42101979 -7.514224560000001 -1.010665 0.780284 -0.580626
22700 5.567224050000001 10.65095244 -6.76683009 -1.035311 0.8417030000000001 -0.733633
22720 3.6694697400000003 8.8037883 -7.031327310000001 -1.107731 0.581172 -0.786148
22740 2.2993659 9.3648222 -6.89870592 -1.101627 0.308208 -0.994059
22760 2.21269455 12.75422625 -5.34942243 -1.007762 0.17523699999999998 -1.122488
22780 2.32002576 17.38245672 -2.5908111899999997 -0.904211 -0.036098000000000005 -1.109743
22800 -1.13388885 17.297129339999998 -2.35819647 -0.816623 -0.282244 -0.902649
22820 -2.9788064999999997 5.586078870000001 -0.7038380700000001 -0.807917 -0.180157 -0.599344
22840 -3.89459943 1.84910652 -1.00380825 -0.504521 0.07166499999999999 -0.434109
22860 -1.93607217 4.35788649 -0.05478885000000001 -0.249011 0.116977 -0.26574000000000003
22880 -0.31239945 6.13858788 1.3045338 -0.170905 0.371546 -0.059354
22900 1.5302717100000003 10.3738788 1.01009646 0.062587 0.667567 0.035901
22920 2.12393367 15.3167454 0.49427685 0.486191 0.626992 0.224783
22940 -0.29189655000000003 16.113543030000002 0.14893542 1.079607 0.407845 0.434307
22960 -0.60009732 11.27754657 -0.6860231099999999 1.7098209999999998 0.007715 0.583432
22980 0.6170195700000001 8.18782821 -1.217421 2.109982 -0.59688 0.914946
23000 1.3052891699999998 6.477925590000001 -0.8126604000000001 2.764396 -1.2954290000000002 1.078509
23020 1.8655677000000002 6.55576794 -0.08487612 3.092015 -1.774787 1.056843
23040 1.8624285 7.027285590000001 0.23172201 3.134794 -1.416442 0.916745
23060 1.83803103 8.83791729 0.37541889 2.58508 0.261804 0.75159
23080 1.56529341 9.8879895 0.17348985 2.11774 1.469314 1.018107
23100 0.91190817 9.54355059 -0.37841094 1.81397 2.094391 1.340991
23120 1.19047293 8.0400798 -0.49098069000000005 1.694209 1.4138389999999998 1.671107
23140 0.90890631 8.56593504 -0.9053158500000001 1.86125 0.101992 1.649386
23160 1.76288643 8.426731140000001 -1.0145894400000002 1.865487 -0.7613800000000001 1.504176
23180 2.33304363 8.18362953 -0.9211884300000001 1.695105 -1.061827 1.129493
23200 2.447114310000001 8.89196058 -0.54950715 1.193922 -1.770622 0.5959939999999999
23220 2.11854798 9.737101890000002 0.7111759500000001 0.7554109999999999 -2.227362 0.377736
23240 1.5615558 9.94591755 0.9512757000000001 0.469847 -2.235596 0.287089
23260 0.9636951600000001 10.15937334 0.7566747300000001 0.147577 -1.909029 0.15195999999999998
23280 1.32908823 11.55462021 1.25723979 -0.13864300000000002 -1.403586 0.008308
23300 1.3882131 12.79105299 -0.10523187 -0.345373 -0.73136 -0.088001
23320 1.34420544 12.92726484 -1.05276015 -0.585813 -0.059585 -0.042472
23340 1.1220678 12.92367438 -0.8734333500000001 -0.821734 0.408795 -0.019082
23360 0.44382402 13.20763464 0.02994012 -0.973617 0.783295 -0.03451
23380 2.0073222 12.184961760000002 2.626137 -0.915026 0.8254540000000001 0.027802
23400 1.8649692900000001 9.72303435 1.23163569 -0.589762 0.428666 0.138473
23420 0.5462109900000001 9.88199559 1.02477222 -0.00906 -0.208284 0.14655
23440 -1.07746173 10.95452289 0.31734369000000007 0.332279 -0.7164699999999999 0.12928900000000002
23460 -3.0463189200000005 13.43187162 -0.17633475 0.266775 -1.159903 0.25545
23480 -5.718111660000001 17.89139952 0.09550035000000001 0.244263 -1.191641 0.48607
23500 -6.60142368 14.8595994 -0.43874244 0.439964 -1.059285 0.517177
23520 -3.49418466 12.53179431 -2.62344906 0.41099 -0.819765 0.317979
23540 -0.7424600400000001 11.99979801 -3.0680186400000005 -0.294158 -0.572384 0.07131799999999999
23560 1.4180060700000001 11.12397102 -2.1923388000000004 -0.598121 0.193417 0.101328
23580 2.46462516 9.94561344 -0.50280174 -0.582635 1.117552 -0.047162
23600 2.11630149 8.29409994 -0.3972755700000001 -0.727495 2.09926 -0.06866
23620 1.3780303200000001 6.41251251 -1.6266647700000003 -1.690724 2.680569 -0.482058
23640 0.55400013 5.0524443 -1.45213506 -1.881189 2.483057 -1.272551
23660 -0.27078543 4.8791016 -1.1054496600000001 -1.816242 2.059482 -1.429651
23680 -0.51896862 4.58511552 -1.8149775300000002 -1.537401 1.3783450000000002 -0.76667
23700 -0.42466509 4.08275523 -2.46043629 -1.587802 1.208748 -0.402541
23720 0.04371336 3.7372764600000004 -2.87851887 -1.6488029999999998 1.294624 -0.513104
23740 0.37976472000000006 3.9420504 -3.0578456700000003 -1.497846 1.4546709999999998 -0.707739
23760 -0.11346246 5.14375578 -3.44747925 -1.318565 1.392549 -0.779046
23780 0.0005984100000000001 5.9719846500000004 -4.1125482 -1.255989 1.272108 -0.8169109999999999
23800 0.27707364 7.181018100000001 -5.588923770000001 -1.225014 1.061001 -0.7982640000000001
23820 0.9153416700000001 9.29431773 -7.345227690000001 -1.151034 0.986909 -0.715399
23840 2.56746339 12.30097482 -8.64392454 -1.046371 1.078949 -0.64642
23860 4.51580787 13.605508620000002 -8.90722494 -1.025134 1.089395 -0.61317
23880 5.2867071 11.22006978 -8.72580861 -1.13211 0.756464 -0.645537
23900 4.0182446700000005 7.63023762 -7.91358966 -1.222585 0.399517 -0.813423
23920 1.75031001 8.028101790000001 -6.36985863 -1.113587 0.242266 -1.010081
23940 1.26846243 11.73439827 -4.7054646 -0.986372 0.22826 -1.080745
23960 0.10882233000000001 16.10875575 -3.49882479 -0.762803 -0.024292 -0.988061
23980 -3.0638297700000003 14.89626918 -2.97386226 -0.7290300000000001 -0.042665 -0.685495
24000 -4.41296964 6.69886641 -2.11225977 -0.495876 0.11099 -0.419144
24020 -3.00200715 4.24172628 -1.4630535900000003 -0.138381 0.30399 -0.242774
24040 -1.4200956 4.92820065 0.1651023 -0.009797 0.561865 -0.10761099999999997
24060 0.27228636 6.00251337 1.4684490900000002 0.231482 0.6365029999999999 -0.067565
24080 1.7780036399999999 10.91260476 0.55564821 0.742699 0.643483 0.141096
24100 3.81900357 15.825236940000002 0.11152008000000001 1.305948 0.23118400000000006 0.460684
24120 0.44053767000000005 14.97725073 -0.32976315 1.925702 -0.272592 0.697462
24140 0.12139875000000001 10.30816161 -0.63871929 2.381507 -0.886782 0.982376
24160 0.73586772 7.68965679 -0.94812669 2.939597 -1.669087 1.12935
24180 1.03046202 6.789432330000001 -0.38230551 3.117066 -2.146611 1.045744
24200 1.1514095100000001 6.40114272 -0.00494424 3.009463 -1.608499 0.8359989999999999
24220 1.4563239300000002 7.25765382 0.07334936999999998 2.50608 -0.061354 0.91489
24240 1.04916969 8.44902927 -0.11016630000000001 2.190813 1.011502 1.157004
24260 0.75562506 9.22516704 0.06870924 2.040603 1.556407 1.415903
24280 1.04886558 9.110802060000001 0.09924777 1.946068 0.738558 1.6929599999999998
24300 1.31950386 8.70799365 -0.20432268 1.893213 -0.364781 1.667299
24320 1.19571147 8.815472009999999 -0.77014386 1.542482 -1.022935 1.6582150000000002
24340 1.77201954 8.637185070000001 -0.61642116 1.206512 -1.334675 1.320846
24360 2.22287733 8.072413560000001 -0.29398608000000004 0.813909 -2.0345150000000003 0.8511190000000001
24380 2.35205541 9.358690950000002 -0.33889626 0.468699 -2.442342 0.5746979999999999
24400 1.98307188 9.632174130000001 0.6170195700000001 0.238721 -2.53237 0.377722
24420 1.3687500600000002 10.499466420000001 0.64246671 -0.055374 -2.214 0.137046
24440 0.71221581 11.177553240000002 0.7589212200000001 -0.371578 -1.53784 -0.048695
24460 0.47900268000000007 12.638664450000002 0.5565409200000001 -0.703054 -0.7940229999999999 -0.091488
24480 1.0181799 12.907507500000001 -0.88600977 -1.042837 -0.170818 -0.067954
24500 2.3643375300000002 12.732526530000001 -1.56918798 -1.250497 0.399786 -0.058385
24520 3.00155589 13.588596180000001 -1.1258054100000001 -1.11877 0.6565380000000001 0.08855199999999999
24540 1.92125907 13.10510052 0.8583161400000001 -0.739554 0.5179279999999999 0.323183
24560 2.7205876800000004 11.05421211 1.3320802800000002 -0.029296 -0.073436 0.27442300000000003
24580 1.5916430700000002 8.963514720000001 1.33537644 0.575521 -0.444753 0.16696
24600 -0.38036313000000005 9.98887554 0.8095212000000002 0.5759850000000001 -0.890697 0.330972
24620 -1.7642304000000002 12.586131900000002 0.29414304 0.222914 -1.399425 0.5182329999999999
24640 -3.4530219000000004 17.350721370000002 0.7434999 0.138541 -1.490457 0.44619
24660 -5.44343166 16.28404083 0.54517113 0.527 -1.011399 0.188711
24680 -4.14907083 12.99358044 -1.8263473200000002 0.320237 -0.635223 -0.197775
24700 -1.9715549400000003 12.2684841 -2.76729309 -0.22253 -0.358179 0.25421
24720 -0.10896948000000001 11.35688004 -2.90321064 -0.604298 0.786523 0.169959
24740 1.6401437100000003 10.667266470000001 -1.71708354 -0.553298 1.91452 0.15818800000000002
24760 1.5350589900000002 9.28204542 -1.0464719400000002 -1.190605 2.5217970000000003 -0.105551
24780 1.29376242 7.16530248 -1.20245094 -1.719587 2.357012 -0.794834
24800 0.75906837 5.539383270000001 -1.3350723300000003 -1.698257 2.0353380000000003 -1.355089
24820 0.28126251 4.3283976299999996 -0.5900715000000001 -1.577897 1.657243 -1.212759
24840 -0.41134311000000007 4.03546122 -0.5327418599999999 -1.693161 1.393854 -0.514609
24860 -0.46209024000000004 3.48729804 -1.13538978 -1.888905 1.486392 -0.30992800000000004
24880 -0.41493357000000003 3.11756895 -1.8905733900000001 -1.843663 1.733726 -0.396455
24900 -0.42032907 3.3955353 -2.6517312900000003 -1.611969 1.854987 -0.552021
24920 -0.73976229 4.67372925 -3.53953629 -1.387952 1.6918490000000002 -0.708344
24940 -0.43619184 5.42307591 -4.32914319 -1.194344 1.402079 -0.872194
24960 -0.27587682 6.796014840000001 -5.47665813 -1.082021 1.057348 -0.8079430000000001
24980 0.6093873900000002 9.576335610000001 -7.3290608100000005 -1.026062 1.089522 -0.644155
25000 2.8812068100000006 13.54712931 -8.475526080000002 -0.984673 1.274749 -0.647308
25020 4.4712018 15.888560490000001 -8.541684720000001 -1.059583 1.14218 -0.729915
25040 5.05289556 12.554994960000002 -7.83126414 -1.218387 0.625325 -0.8094100000000001
25060 3.1762425600000004 7.81824627 -7.655979060000001 -1.140168 0.338992 -0.933479
25080 1.3687500600000002 7.26678693 -6.446043090000001 -0.863349 0.155027 -0.988993
25100 1.60331697 10.783426680000002 -4.08456027 -0.7306630000000001 0.093487 -0.899325
25120 -0.4601478600000001 15.37332948 -2.1914460900000003 -0.617268 -0.13983800000000002 -0.724114
25140 -3.2934524400000003 16.805550240000002 -2.8801571400000006 -0.6782590000000001 -0.202275 -0.508679
25160 -4.81773024 8.073011970000001 -2.90949885 -0.428555 -0.10124 -0.417334
25180 -2.69350227 3.6992529 -1.3684557600000002 -0.144607 -0.000231 -0.34925
25200 -1.20274524 5.503753350000001 0.03637548 -0.056774 0.307466 -0.117227
25220 0.37587015 6.593487389999999 1.30947804 0.047622000000000005 0.633642 0.008066
25240 2.14414227 9.91612458 0.7312275899999999 0.38132 0.746858 0.176895
25260 3.25019034 14.049332640000001 0.28725642 1.038234 0.426236 0.399812
25280 0.53109378 14.97994848 -0.3555144 1.645558 0.200709 0.594486
25300 -0.46627911 11.45043801 -0.7662591000000001 2.0699110000000003 -0.475367 0.931602
25320 0.15851979 8.63569395 -0.9307629900000001 2.705074 -1.1887450000000002 1.090777
25340 0.5697157500000001 7.09105059 -0.49083354000000007 3.033081 -1.6401720000000002 1.010325
25360 0.90846486 6.14667132 -0.14849397 3.072276 -1.432818 0.8041659999999999
25380 1.46230803 7.07009643 0.01002582 2.587077 -0.06288300000000001 0.694336
25400 0.9053158500000001 8.38451871 -0.054484740000000004 2.085569 1.113952 0.936084
25420 0.52705206 9.22127247 0.04161402 1.861185 1.581163 1.241566
25440 0.88361613 9.15690906 0.21360294000000002 1.828837 1.063528 1.513332
25460 1.71648513 8.0864811 0.14564907000000002 1.804598 -0.184268 1.62372
25480 1.6401437100000003 8.928336060000001 -0.56567403 1.642796 -1.081615 1.5938290000000002
25500 2.3306499900000004 8.632996200000001 -0.6050415600000001 1.350711 -1.198156 1.421023
25520 2.96204121 8.678357640000002 -0.8298769500000001 0.965159 -1.985395 0.956799
25540 2.85740775 9.23714505 -0.9336078900000001 0.7067220000000001 -2.548004 0.6843859999999999
25560 2.6192503800000004 9.56241522 0.42361542 0.566059 -2.7054560000000003 0.488121
25580 2.22976395 10.434053339999998 1.06099074 0.243531 -2.4841580000000003 0.305055
25600 1.14032421 10.016569170000002 0.58858038 -0.12454 -1.94209 0.130874
25620 0.5185173599999999 11.14358121 0.50879565 -0.399185 -1.235349 -0.012956
25640 0.41045040000000005 12.21385221 -0.0290376 -0.664211 -0.578385 0.028148000000000006
25660 0.7592253299999999 12.63373002 -0.6027950700000001 -0.8719290000000001 0.061133000000000014 0.119881
25680 1.37144781 12.286151910000003 -0.70428933 -0.974089 0.6164069999999999 0.141957
25700 1.0121958 13.05315657 -0.03742515 -0.888639 0.757312 0.262014
25720 1.06084359 12.64555107 1.8829314000000001 -0.571335 0.501117 0.385268
25740 2.36807514 11.376038970000002 1.6572033000000002 0.008794 -0.102499 0.316386
25760 0.8572664700000001 10.16356221 1.3672589400000001 0.483716 -0.6077670000000001 0.25305300000000003
25780 -0.5619266099999999 10.21954788 0.66581451 0.503062 -1.186689 0.35541100000000003
25800 -1.72141956 11.550127230000001 -0.5110421400000001 0.235563 -1.444168 0.5076970000000001
25820 -3.40781742 15.50101644 -0.19504242000000002 0.077428 -1.421548 0.582407
25840 -5.234468850000001 16.65272025 0.07349652000000001 0.299553 -1.322504 0.396893
25860 -3.1561909200000002 13.452374520000001 -1.86197724 0.281049 -1.0886129999999998 -0.001983
25880 -0.5680676700000001 12.71171952 -3.09391704 -0.111751 -0.775588 0.113445
25900 1.07057511 12.063415860000001 -3.0202733700000004 -0.45644 0.131196 0.08744199999999999
25920 2.1990782700000002 10.99403757 -1.9249966800000002 -0.351716 1.105609 0.075175
25940 1.9553880600000002 9.53472159 -1.3042395000000002 -0.583279 1.990811 0.02008
25960 0.82748331 7.5017952900000004 -1.56349818 -1.586597 2.195164 -0.396319
25980 0.39278259 5.910456330000001 -1.09736622 -1.761084 2.020917 -1.157888
26000 -0.17394111 4.81488534 0.08337519 -1.720236 1.567157 -1.205092
26020 -0.33036156 4.28993262 -0.13666311 -1.656714 1.133092 -0.337764
26040 -0.36628578000000006 3.92303862 -1.1533518900000002 -1.814511 1.256917 0.001738
26060 -0.21495672000000002 3.4682862600000006 -1.8540409500000001 -1.883642 1.57119 -0.208519
26080 -0.25402014 3.6007605000000003 -2.58078537 -1.711871 1.897058 -0.5965689999999999
26100 -0.6655202100000001 4.90305762 -3.25812663 -1.505051 1.921555 -0.774617
26120 -0.85681521 5.93501076 -3.7178232300000005 -1.363813 1.854586 -0.93271
26140 -0.79154928 6.748720830000001 -4.59664227 -1.241428 1.510231 -0.970938
26160 -0.3558087 8.26207029 -6.00775191 -1.159868 1.089481 -0.783959
26180 1.0496209500000002 10.88865855 -7.48368603 -1.145349 1.147413 -0.6322439999999999
26200 3.18163806 13.345347420000001 -8.16925788 -1.166426 1.431959 -0.6434380000000001
26220 4.86113949 13.34085444 -8.17853814 -1.261722 1.306786 -0.693082
26240 5.6223072 10.10742939 -7.68396699 -1.333688 0.879128 -0.776358
26260 3.2976413100000004 6.7954164299999995 -7.14718341 -1.266945 0.653543 -0.89738
26280 1.6808552100000003 7.735763790000001 -6.263871389999999 -0.933382 0.534281 -0.932285
26300 1.25588601 11.602973700000002 -4.8638372400000005 -0.739085 0.401199 -0.8538450000000001
26320 0.43439661 16.934434019999998 -3.94355133 -0.52688 0.089712 -0.665025
26340 -2.75487363 16.94146779 -3.5971700400000004 -0.539814 0.051552 -0.435398
26360 -4.8065076000000015 6.62043546 -2.46357549 -0.387631 0.061292999999999986 -0.339276
26380 -3.3543725400000004 3.0828415500000004 -2.2246725600000006 -0.17545 0.044525 -0.326022
26400 -1.3573802700000002 4.59109962 -0.4784042700000001 -0.092139 0.217263 -0.172906
26420 0.6051887100000001 4.70680857 1.7336918700000001 -0.003875 0.509428 -0.053023
26440 2.08905912 9.350009100000001 1.00784997 0.234366 0.727457 0.094708
26460 3.7251513000000003 15.360605910000002 -0.01915893 0.789456 0.529736 0.307142
26480 1.3995927 16.94940408 -0.75098493 1.458701 0.323129 0.511839
26500 -0.39038895 11.779151490000002 -1.04333274 1.904238 -0.373317 0.863016
26520 -0.27513126000000004 8.58674205 -1.7053998300000002 2.514106 -1.1679190000000002 1.109712
26540 -0.15851979 7.50643542 -1.2481066800000002 2.977877 -2.0331490000000003 1.0307389999999998
26560 0.01212516 6.8912208900000005 -0.45610614000000005 3.112163 -2.252309 0.8428829999999999
26580 0.68303106 6.790325040000001 0.41628735 2.86295 -1.10253 0.706141
26600 0.8445429000000001 8.3349684 0.78272028 2.291144 0.5603739999999999 0.932888
26620 0.6692578200000001 9.2950731 0.99213435 1.991304 1.542478 1.212614
26640 0.6557886900000001 9.34686009 0.6063855300000001 1.842874 1.579058 1.517042
26660 1.03449393 8.355775410000001 0.06301944 1.751612 0.222491 1.713628
26680 1.27070892 8.03050524 -0.27018702 1.7285689999999998 -0.7453069999999999 1.5993389999999998
26700 1.59777432 8.31550536 -0.3381507 1.524091 -1.198163 1.53867
26720 2.05043715 8.9540775 -0.40999914 1.1653790000000002 -1.89516 1.1279290000000002
26740 2.37675699 9.10376829 -0.7123727700000001 0.790429 -2.592311 0.769417
26760 2.43049617 9.17023104 -0.7461976499999999 0.573014 -2.775965 0.532057
26780 2.76684183 9.736954740000002 0.7036909200000001 0.25669000000000003 -2.658842 0.288279
26800 2.4417188100000002 10.40485878 1.15035984 -0.15441 -2.270785 0.038151
26820 1.8450648 9.92989782 0.83227059 -0.557107 -1.595453 -0.13217
26840 1.0500624 10.670415479999999 0.567018 -0.888813 -0.865633 -0.137559
26860 0.88795215 12.453804810000001 -0.23156505000000002 -1.086425 -0.169468 -0.101375
26880 0.786762 12.724138980000001 -0.6475581 -1.104011 0.524764 -0.004111
26900 1.5694822800000003 12.500206109999999 -0.5445629100000001 -0.901236 0.824383 0.28320500000000004
26920 1.42399017 12.878921159999999 -0.20252745000000003 -0.504945 0.697389 0.528622
26940 2.01092247 12.84927534 1.8811361700000002 0.176905 0.146797 0.431541
26960 2.7711876600000003 10.76171715 1.0135397700000002 0.580218 -0.417753 0.336805
26980 1.4250398400000002 9.568850580000001 0.77463684 0.586992 -1.002791 0.381399
27000 -0.20791314000000002 10.31160492 0.25222491 0.453625 -1.35649 0.5037659999999999
27020 -1.58071473 11.852206559999999 0.2863539 0.896574 -1.461837 0.357444
27040 -3.34090341 15.93331371 0.63153837 0.919416 -1.470122 0.012579
27060 -5.4398412 16.603169940000004 0.26121087000000004 0.112196 -0.763831 -0.090105
27080 -3.9095694900000004 13.55386878 -2.03262219 -0.380077 0.314923 -0.103471
27100 -1.4882064300000002 12.73791222 -3.0540982500000005 -0.186288 1.20047 -0.08082
27120 0.5436702 11.937072870000002 -3.1892702400000004 -0.800044 2.352982 -0.052401
27140 2.10327381 11.18848158 -1.81782243 -1.754405 2.754296 -0.482597
27160 1.7896775400000002 9.461372220000001 -0.81115947 -2.067512 2.779005 -1.061656
27180 1.2686095800000001 7.35135894 -1.2807347400000002 -1.911054 1.958299 -1.086217
27200 0.85501998 5.9823145800000015 -0.94647861 -1.7261970000000002 1.440795 -0.237162
27220 0.32916474 4.62223656 0.0836793 -1.730661 1.521272 -0.112315
27240 -0.17244018 4.06569564 -0.4281084 -1.718643 1.756806 -0.415907
27260 -0.38335518 3.3235397100000004 -1.3004920800000002 -1.544352 1.990811 -0.744002
27280 -0.33425613 2.90321064 -2.04235371 -1.350574 2.073496 -0.810053
27300 -0.44143038000000007 3.1097798100000005 -2.75831694 -1.291331 2.107746 -0.90155
27320 -0.97043463 4.46880816 -3.5110971 -1.257448 1.766925 -0.947878
27340 -0.92358207 5.52261798 -4.1061128400000015 -1.135439 1.30139 -0.7851279999999999
27360 -0.77658903 6.92848908 -5.1045354 -1.048915 1.265219 -0.6060840000000001
27380 -0.03382488 9.31423203 -6.47957367 -1.07894 1.315055 -0.521968
27400 1.8015084000000001 12.907654650000001 -7.444769760000001 -1.112425 1.049553 -0.69705
27420 3.07804446 15.31690236 -8.143967700000001 -1.232266 0.660378 -0.7721640000000001
27440 4.36926609 13.079054970000001 -7.541319780000001 -1.157514 0.4617729999999999 -0.987168
27460 2.5692586200000003 8.944051680000001 -7.21320471 -0.966799 0.257168 -1.134057
27480 0.49562082 9.00692397 -6.8801454 -0.930749 0.006555 -1.097164
27500 1.83607884 14.211747000000003 -5.13552519 -0.810116 -0.277929 -0.921837
27520 1.0578515400000001 17.736617340000002 -4.567898970000001 -0.753857 -0.366334 -0.7076859999999999
27540 -3.2394091500000006 10.154281950000001 -3.07804446 -0.452403 -0.15571300000000002 -0.6268020000000001
27560 -5.307965370000001 4.3004097 -2.26209771 -0.101079 0.013111 -0.526288
27580 -3.02371668 4.80051369 -1.2364327800000001 0.051271 0.211859 -0.27765100000000004
27600 -0.43035489 3.84026184 2.2213764 0.294672 0.369346 0.087043
27620 1.1177219699999998 6.487657110000001 1.90134477 0.863166 0.274081 0.506674
27640 2.7617602500000005 12.83715018 0.87852474 1.404577 0.085174 0.9241
27660 3.4822066500000006 17.83316736 -0.7174543500000001 1.899674 -0.550535 1.228543
27680 0.11376657 14.487770970000003 -0.71820972 2.527299 -1.127189 1.302032
27700 0.11705292 9.839783160000001 -1.00485792 2.958065 -1.615806 1.109114
27720 0.1070271 7.96897692 -0.95022603 3.136043 -1.580739 0.7107979999999999
27740 0.04235958 7.578587970000001 -0.5786919 2.873289 -0.182454 0.511686
27760 0.6102801 6.740480430000001 -0.17603064 2.373409 1.204954 0.8397020000000001
27780 1.21682259 7.232363640000001 0.17662905 2.206717 1.725086 1.18077
27800 1.4542245900000002 8.36565408 0.6698562300000002 2.153092 0.957291 1.426002
27820 1.68324885 9.37006074 1.0412334 2.1922580000000003 -0.313658 1.410813
27840 1.7408826 9.370963260000002 0.6117810300000001 2.074666 -1.0876629999999998 1.400301
27860 1.71947718 8.57537226 -0.15538058999999999 1.601498 -1.516097 1.325974
27880 2.10088017 7.61451219 -0.6717986100000001 0.998253 -2.1678740000000003 1.00747
27900 1.6387899300000002 8.521181819999999 -1.4567751899999999 0.687338 -2.317968 0.717071
27920 2.3781009600000003 8.26984962 -1.0431855900000004 0.32358400000000004 -2.2478 0.534979
27940 2.7690883200000003 8.24979798 -0.8960355900000001 -0.018709 -2.126668 0.376472
27960 2.81609784 9.254057490000001 -0.16375833 -0.385365 -1.776227 0.1705
27980 2.9121966 10.350079740000002 1.14631812 -0.739332 -1.16185 0.016621
28000 2.1195878400000003 9.90100737 0.5719622400000001 -1.086343 -0.490661 0.034701
28020 0.78721326 10.93940568 0.27049113 -1.284936 0.25333 0.099659
28040 0.3376994400000001 12.24633312 -0.05149269000000001 -1.208545 0.775543 0.242665
28060 0.92956617 12.827124360000001 -0.4281084 -0.8518309999999999 0.822491 0.44699
28080 2.20850568 13.37050026 -0.23022108 -0.276041 0.214582 0.389834
28100 1.5173911800000002 14.21084448 1.2436137 0.462501 -0.440054 0.15548199999999998
28120 1.3145694300000001 13.17544803 2.6839179 0.6759890000000001 -0.774695 0.27277
28140 1.31651181 11.15794305 0.94932351 0.320504 -1.1755520000000002 0.392578
28160 -0.5728549500000001 10.1367711 0.5471135100000001 -0.06938 -1.1778 0.493475
28180 -2.2905369 11.01559014 -0.40700709 0.395882 -0.946125 0.229372
28200 -3.22668558 13.16886552 0.36554022 0.5535220000000001 -0.476254 -0.194213
28220 -4.675230180000001 16.44584697 1.03674042 0.003112 -0.302367 -0.045524
28240 -3.5938738800000003 14.08570812 -0.29862621000000006 -0.421562 0.355604 0.148287
28260 -1.1482605000000001 13.14131904 -2.2966779600000002 -0.4799 1.366812 0.13376500000000002
28280 0.76011804 12.66575967 -2.9184848100000003 -1.063714 2.052548 -0.083768
28300 1.8979014600000002 11.365414740000002 -2.36582865 -1.788023 1.962635 -0.679438
28320 2.0568725100000003 9.9751023 -1.5242778 -1.899956 1.62878 -1.274792
28340 1.0300107600000001 8.23153176 -1.6392411900000001 -1.828696 1.2763 -1.101859
28360 0.5674692600000001 6.07526433 -1.43611533 -1.863525 1.213425 -0.533728
28380 0.07873506000000001 4.778362710000001 -0.35925201 -1.86821 1.305376 -0.348008
28400 -0.52510968 4.07033577 -0.60683679 -1.599883 1.544601 -0.465012
28420 -0.8071177500000001 3.36455532 -0.97851807 -1.205181 1.702231 -0.53296
28440 -0.53603802 2.93449473 -1.4684490900000002 -1.018875 1.7966080000000002 -0.586259
28460 -0.30641535000000003 2.9882339100000004 -2.15596332 -1.024253 1.689427 -0.6844359999999999
28480 -0.39323385000000005 4.08320649 -3.02999508 -1.001908 1.5228270000000002 -0.599676
28500 -0.42705873000000005 5.302569870000001 -3.7642245300000003 -0.995543 1.388135 -0.488364
28520 -0.34623414 6.47748414 -4.6529222400000005 -1.051154 1.29378 -0.553793
28540 0.18905832000000003 8.785679040000002 -6.111639810000001 -1.119515 1.095539 -0.735615
28560 1.6208278200000001 12.179870370000002 -7.7986360800000005 -1.162285 0.877036 -0.934323
28580 3.35542221 15.24924279 -8.22868686 -1.0626950000000002 0.590658 -1.06572
28600 4.2487600500000005 14.112656190000001 -7.47455292 -0.991486 0.332453 -1.025367
28620 3.8552319 9.290432970000001 -7.52934177 -0.830384 0.015933000000000003 -0.8657389999999999
28640 1.89161325 6.55606224 -7.103028600000001 -0.6981310000000001 -0.26445 -0.6604260000000001
28660 2.0013381 9.53771364 -5.42112372 -0.4878270000000001 -0.354082 -0.539201
28680 0.80861868 14.52624579 -2.89707939 -0.227393 -0.311384 -0.520345
28700 -1.3651596 19.03621671 -2.3546060100000004 -0.149061 -0.020541 -0.327891
28720 -5.61871674 10.953767520000001 -2.5045911 -0.037547 0.319091 -0.110698
28740 -2.7190965600000006 3.9163089600000003 -1.01997513 0.090481 0.656047 0.228391
28760 -0.94917636 5.01442074 0.13890960000000002 0.5858220000000001 0.547655 0.531092
28780 0.7566747300000001 6.194416590000001 1.7107953300000003 1.284718 0.319527 0.7637970000000001
28800 3.0490068600000004 9.83274939 1.2826869300000001 1.834446 -0.321481 1.01415
28820 3.94474815 13.68289971 0.60219666 2.568187 -0.963736 1.150421
28840 0.92387637 14.359338450000001 0.31913892 3.124912 -1.583126 1.050418
28860 -1.5290748900000002 11.49160077 0.08128566000000001 3.280957 -1.673604 0.8978
28880 -0.91339929 9.00272529 -0.25147935000000005 2.905369 -0.367005 0.548466
28900 -0.52376571 7.096446090000001 -0.43963515000000003 2.331448 1.340486 0.815734
28920 0.15373251000000002 6.51759723 -0.27513126000000004 2.040135 1.963089 1.213485
28940 0.70922376 6.71189409 -0.16854561000000004 1.904994 1.514445 1.6372
28960 0.9533652300000001 8.253084330000002 0.43499502 1.88989 -0.06790700000000001 1.75449
28980 0.98270694 9.517505040000001 1.01384388 1.795106 -1.189424 1.78197
29000 1.3328258400000002 9.521703720000001 0.64261386 1.597918 -1.447457 1.479685
29020 1.5476354099999998 8.868759930000001 -0.21135645000000003 1.005688 -2.137161 1.045939
29040 2.01286485 8.505907650000001 -0.8244814500000002 0.578073 -2.310557 0.8231200000000001
29060 2.7958892399999997 8.02211769 -1.09003815 0.28036700000000003 -2.198265 0.705529
29080 3.12804603 7.9812492299999995 -1.2760946100000001 -0.084912 -1.994923 0.521119
29100 3.2970429 9.25929603 -0.34308513000000007 -0.36667 -1.774623 0.28599600000000003
29120 3.4102110600000004 9.93259557 0.8526263400000001 -0.590012 -1.36495 0.06172100000000001
29140 1.9925091000000001 9.18998838 0.97656588 -0.942142 -0.716893 0.008225
29160 0.9743193900000001 9.38638458 1.04707035 -1.2177790000000002 -0.072573 0.023633
29180 0.34802937000000006 10.36144953 0.52929855 -1.367502 0.5119130000000001 -0.025163
29200 0.41164722000000004 12.20546466 -0.33141123 -1.1779389999999998 0.689088 -0.008043000000000002
29220 1.08195471 12.79254411 -0.47825712 -0.7244649999999999 0.28565300000000005 0.055462
29240 1.08554517 13.015437120000001 -0.46358136 0.059433000000000014 -0.488329 0.056588
29260 0.8716381200000001 13.11647031 1.63610199 0.768362 -0.745815 0.163351
29280 2.59829622 12.330306720000001 2.02783491 0.8157840000000001 -1.0572700000000002 0.220697
29300 2.44291563 10.93895442 1.13673375 0.21371 -1.098992 0.253933
29320 0.29114118 10.61637219 0.8780734800000001 -0.10482 -0.8779469999999999 0.130716
29340 -2.1977343 10.99119267 -0.5623778700000001 0.155319 -0.563161 -0.226793
29360 -4.4617743899999995 14.313388410000002 -0.5827336200000001 0.192193 -0.180058 -0.691703
29380 -6.47299116 17.22992103 0.7051820400000001 -0.018424 -0.214515 -0.151541
