time Ax Ay Az Gx Gy Gz
20 0.7607164500000001 5.95161909 -8.02690497 -1.416692 3.561984 -2.423301
40 -0.21539817000000003 8.62206786 -1.78324218 -1.2623030000000002 3.369485 0.556227
60 2.6101270800000003 11.980482120000001 8.924441490000001 -2.120674 1.588092 0.564265
80 3.8377210500000003 23.987765160000002 -8.22315402 -2.117676 0.526163 0.257999
100 -2.3243617800000003 7.853572080000001 5.7207996 -1.704017 0.4926350000000001 0.29190900000000003
120 -4.451140350000001 -0.47091924000000007 3.76377327 -1.549837 0.11615 0.2689
140 1.02282003 4.4758419300000005 5.214407400000001 -1.705763 -0.6703899999999999 0.229294
160 2.29143942 10.09829628 8.23018779 -1.342952 -0.102156 0.070867
180 4.4918616600000005 11.834391600000002 5.85791397 -0.930645 0.8534370000000001 -0.030027
200 7.425306720000001 12.025696410000002 4.132011240000001 -1.184689 1.559339 -0.248487
220 12.644805510000001 16.83773685 -2.28230631 -1.078873 0.938676 -0.4381640000000001
240 10.62535815 10.8136611 -3.00994344 -1.018737 0.62805 -0.598647
260 5.532790950000001 6.2724060900000005 -1.67815746 -1.16667 0.853714 -0.692905
280 2.0561269500000003 6.42463767 -0.31090833 -0.952379 0.715963 -0.795918
300 1.7943176699999999 5.60284416 -0.75742029 -0.385273 0.215113 -0.712266
320 3.2370155100000004 5.28087015 -1.30678029 -0.196232 0.600841 -0.368541
340 3.29883813 7.630679070000001 -0.90097983 -0.217465 0.252265 -0.026411
360 2.7165557700000003 8.45471907 -1.9053864900000002 -0.214777 -0.306072 0.004233
380 3.2799833100000004 8.167462650000001 -2.4180669 -0.125877 -0.363146 0.346758
400 3.5292063600000003 8.61802614 -1.4662026 0.343014 -0.936811 0.609278
420 3.38117346 8.1906633 -0.30266793 0.924225 -2.472603 0.554417
440 3.83517045 8.42088438 -0.01886463 1.502444 -3.371924 0.376943
460 4.53601647 9.19298043 -0.91609704 1.9551 -3.423099 0.261598
480 6.705154620000001 10.030636710000001 -1.02626334 2.1557880000000003 -2.047167 0.188597
500 8.84944404 10.92472992 0.6712002000000001 2.38079 -1.161485 0.150578
520 8.490348990000001 10.64975562 1.16232804 2.51404 -0.874624 0.225916
540 9.42066072 10.379264490000002 0.94154418 2.825979 -0.154515 -0.571857
560 9.11663901 10.85707035 -0.38948643000000005 3.372065 0.251386 -1.318455
580 6.52582782 11.434722390000001 -1.3546825200000003 3.548242 -0.812632 -0.986848
600 4.95963189 11.818371870000002 0.8201454300000001 2.329495 -2.145775 -0.343106
620 4.0951845 11.426638950000001 0.69724575 1.911899 -2.283384 0.331406
640 2.05043715 11.252099430000001 0.70652601 1.552504 -2.4885740000000003 0.806654
660 2.1197448 12.980856870000002 2.51836434 0.825576 -2.797994 1.2922870000000002
680 1.85838678 12.31982964 2.29128246 0.767107 -2.173 1.15755
700 2.5134201000000003 14.29153173 1.40407587 0.674384 -1.845178 0.510208
720 2.49500673 19.791243360000003 2.08935342 0.335723 -1.1891459999999998 0.31579
740 1.6304121900000001 18.707199120000002 0.8286801300000001 -0.041213 -0.496679 0.366749
760 0.9354031200000001 12.303064350000001 -0.24788889 -0.494108 0.239366 0.5079199999999999
780 0.06571719 8.71607709 -0.25791471 -1.061325 1.215229 0.449297
800 1.58370678 6.91666803 2.01092247 -1.561142 1.906893 0.5410590000000001
820 4.668637860000001 6.26118345 0.7933543200000001 -1.7198189999999998 1.761393 0.5679109999999999
840 5.08417965 5.261858370000001 1.3148637300000001 -0.941231 0.562207 0.613342
860 3.4459881300000004 3.09241611 2.25850725 -0.014807 0.262235 0.234569
880 0.96204708 1.76573133 1.5838539300000003 0.7239300000000001 0.154079 0.267642
900 -0.97536906 1.29121182 1.4278847399999999 0.37516 0.075916 0.403106
920 -1.02327129 3.20333778 0.7668575100000001 -0.020137 -0.70165 0.457957
940 -0.7123727700000001 3.5127451800000005 0.63139122 -0.861783 0.767884 -0.007004000000000001
960 -0.38484630000000003 4.16209851 -0.40820391000000006 -0.621548 2.839217 -0.5901609999999999
980 -0.35475903000000003 4.41896355 -2.2282630200000004 2.487533 -1.6882830000000002 -0.8681530000000001
1000 1.09631655 5.90507064 -5.32308258 0.492493 1.412322 -0.633962
1020 4.7304604800000005 10.91275191 -15.32408328 -0.957786 1.549648 -0.418873
1040 8.5026213 18.7811469 -17.299679940000004 -0.8682190000000001 4.056929 -1.466182
1060 7.87976478 19.24158906 -15.973279650000002 -0.452654 4.266676 -2.329876
1080 5.15273193 11.31886629 -7.934995080000001 -1.218292 3.4752080000000003 -2.739065
1100 1.3542312600000002 5.910907590000001 -8.936566650000001 -1.530386 3.168018 -0.775323
1120 -1.3677102000000003 7.88485617 -4.1294606400000005 -1.567909 3.144127 0.434741
1140 0.9216298800000001 12.77787816 2.87687079 -1.984469 1.88936 0.231545
1160 5.99069232 22.56901353 1.1214693900000001 -1.93952 0.900066 0.637983
1180 -1.07835444 9.02862369 4.243227210000001 -1.619466 0.471577 0.688837
1200 -6.333483149999999 -0.72225144 4.84961274 -1.603867 -0.006181 0.537871
1220 0.04745097 3.6004662000000005 1.97275176 -1.628738 -0.522991 0.331124
1240 3.4236801900000002 10.37492847 9.11828709 -1.166498 0.005826 0.086916
1260 4.0058154 11.103909569999999 6.20594334 -0.616643 1.437042 0.005602
1280 6.9252027300000005 12.146938200000001 3.64416975 -1.100316 2.126544 -0.17491700000000002
1300 11.64099726 16.75630404 0.17214587999999997 -0.8831190000000001 1.096544 -0.393202
1320 10.41009732 11.95579035 -2.26164645 -0.851159 0.832311 -0.409732
1340 5.513033610000001 8.05310748 -2.45159748 -1.1325610000000002 0.803809 -0.497118
1360 2.6710471800000004 5.898036870000001 -0.23845167 -1.045579 0.763691 -0.6631020000000001
1380 1.5453889200000002 5.81226804 0.10432935000000002 -1.041096 0.330136 -0.6699930000000001
1400 2.06660403 6.3738905400000005 -1.06907418 -0.474074 0.023266 -0.61116
1420 3.1723578000000003 7.78336191 -1.2930070500000002 -0.074677 0.584441 -0.368739
1440 2.7454364100000004 7.674990840000001 -1.0503665100000001 -0.009552 0.285379 0.036955
1460 3.7660197600000003 8.43615855 -2.11675275 -0.05573 -0.360555 0.170988
1480 4.51925118 8.43391206 -2.6041331700000003 0.086604 -0.417734 0.493591
1500 4.6587591900000005 8.47253403 -0.5547456900000001 0.697401 -1.030078 0.715491
1520 4.14173295 8.128252080000001 -0.008230590000000001 1.262034 -2.268402 0.610995
1540 3.7643716800000004 8.55560511 -0.07888221 1.530648 -4.242255 0.352618
1560 4.29816321 9.50388876 -1.02297699 1.967233 -3.502362 0.093005
1580 5.01951213 9.87765957 -1.6253208000000001 2.304151 -1.6437080000000002 -0.135623
1600 6.814281060000001 10.38361032 -0.17722746 2.703615 -0.744232 -0.045323
1620 8.01882153 10.463090939999999 0.17094906 2.875041 -0.5627489999999999 -0.024062
1640 8.19874674 9.951754500000002 0.49651353 2.722714 -0.246265 -0.714535
1660 8.51309838 9.98812998 0.33784659 2.844026 -0.403041 -1.040362
1680 6.99495183 10.14081282 0.04969746 3.087063 -0.57585 -0.92628
1700 5.68203048 11.517499169999999 -0.6575839200000001 2.303609 -1.610456 -0.458272
1720 6.014942639999999 12.94942563 1.27190574 1.852143 -2.417824 0.436915
1740 2.98284822 11.86957026 -0.56088675 1.453215 -3.22313 1.0376379999999998
1760 2.4035481 13.865816970000001 1.4892561 1.042885 -2.560542 1.130062
1780 1.6667876700000002 11.11469076 3.56558184 0.89635 -2.0409080000000004 0.780133
1800 2.8868966100000004 13.37498343 1.94580369 0.4566939999999999 -1.746959 0.379306
1820 3.6544996800000003 17.705186100000002 1.96496262 0.099361 -1.0479459999999998 0.108859
1840 2.6490433500000004 20.227435200000002 0.69290973 -0.175809 -0.469945 0.191654
1860 2.0707929000000003 14.344515540000002 0.61102566 -0.6479590000000001 0.369038 0.447927
1880 1.3837201200000002 8.92683513 -0.21120930000000002 -1.208936 1.5186309999999998 0.361351
1900 1.21038723 7.85865366 0.1562733 -1.7118509999999998 2.38111 0.363142
1920 3.2476495500000007 7.02639288 1.68953706 -1.664482 1.641182 0.478721
1940 4.7345022000000005 5.66736453 1.79881065 -0.8684379999999999 0.819888 0.579337
1960 3.32518779 3.24061578 1.79790813 0.539663 -0.462186 0.294918
1980 1.54493766 1.88653167 1.43072964 0.7873060000000001 0.499069 0.518675
2000 -0.13831119 1.2278980800000001 1.56349818 0.222596 0.465726 0.555365
2020 -0.6203059200000002 2.2559566500000003 1.33866279 -0.257096 -0.8314280000000001 0.350715
2040 -0.79154928 3.6312990300000005 1.08255312 -1.145821 1.351876 -0.082375
2060 -0.92702538 4.3698645 0.11286405000000001 -0.022325 1.551307 -0.8449709999999999
2080 -0.4972689 4.083961860000001 -1.17970155 1.9458 0.067004 -0.593244
2100 -0.32093415000000003 4.86563247 -3.3383626200000003 0.158102 1.673975 -0.509514
2120 2.7331641 8.61593661 -10.552901490000002 -0.753726 2.690287 -0.527868
2140 8.374787190000001 17.78196897 -17.435587679999998 -0.409904 3.648574 -1.7743779999999998
2160 9.12591927 23.73958197 -19.54141209 -0.699923 2.961146 -2.506186
2180 5.305718880000001 12.0253923 -8.77774275 -1.853094 2.920601 -2.821837
2200 1.85209857 6.392608020000001 -8.90707779 -1.262642 4.346666 -0.05605
2220 -1.5946351200000002 6.35369175 -7.0883626500000005 -1.43941 4.037141 0.511406
2240 1.29091752 10.67565402 1.67217336 -2.10237 1.488443 0.42672
2260 5.973024510000001 17.449213770000004 8.658747450000002 -1.984919 0.17111400000000002 0.752899
2280 2.1257289 18.667978740000002 -1.55421792 -1.717353 0.106327 0.7388279999999999
2300 -5.883518070000001 1.44584685 5.983207290000001 -1.689473 -0.359316 0.477905
2320 -3.9797698500000003 1.2769971300000003 1.12625667 -1.411099 -0.12185 0.259491
2340 3.3892569000000003 7.922124360000001 7.307351280000001 -0.703729 0.4642439999999999 0.131222
2360 3.6347423400000003 10.62520119 7.08941232 -0.911795 1.440525 -0.076581
2380 6.02512542 10.87937829 4.89736782 -1.026225 1.44163 -0.25363800000000003
2400 11.3977485 14.52699135 2.13605883 -0.700496 0.95507 -0.337266
2420 11.32050456 14.519653470000002 -1.55361951 -0.989753 1.009961 -0.49318
2440 7.6205061 9.00632556 -4.3234632 -1.235514 0.8184359999999999 -0.602542
2460 3.47412321 5.84578881 -1.7823396599999999 -1.030941 0.685922 -0.674651
2480 1.9396626300000002 6.758442540000001 -0.21539817000000003 -0.7802060000000001 0.52284 -0.6021880000000001
2500 2.8171377 6.60816315 -0.8720893800000001 -0.300168 0.341917 -0.5291680000000001
2520 2.4840882 7.144338510000001 -0.6649218 -0.09575 0.282583 -0.2542
2540 2.6502401700000005 7.66676025 -0.92133558 0.063374 0.343817 0.011753
2560 3.46739355 8.0053524 -2.1721302000000002 -0.085711 -0.011585 0.307064
2580 4.62852477 8.77041468 -2.7167029200000004 0.016596 -0.336383 0.722665
2600 4.68360792 8.54452962 -0.1041822 0.7148939999999999 -1.266148 0.861194
2620 3.8079280800000004 8.43166557 1.06578783 1.338168 -2.808047 0.6987439999999999
2640 3.2254887599999997 8.235279180000001 0.034727400000000005 1.863923 -3.48476 0.30911
2660 3.8470013100000005 9.206302410000001 -0.57435588 2.414027 -2.163667 0.061295
2680 4.60951299 10.28570652 -1.13254488 2.80956 -0.536354 0.091883
2700 6.18244839 10.20697146 -1.01743434 2.89197 -0.601021 0.20791
2720 8.38182096 10.08857457 -0.27662238 3.024562 -0.443344 -0.176994
2740 8.94300201 9.48846744 1.3859666099999999 2.9880310000000003 0.234833 -1.10854
2760 9.290580120000001 8.948691810000001 1.23703119 3.370404 -0.223188 -1.185399
2780 8.73298953 9.963879660000002 -0.4742154 3.149248 -1.111382 -1.055482
2800 5.48459442 11.60656416 -0.6093873900000002 2.137692 -2.420649 -0.434892
2820 4.71474486 13.49458695 1.37264463 2.05595 -2.32821 0.759759
2840 1.96706196 13.23008973 -0.30701375999999997 1.581374 -1.848942 1.197005
2860 0.37751823000000007 13.344297749999999 1.03210029 1.076551 -1.345717 1.264405
2880 0.98959356 12.56771853 3.77948889 0.900423 -1.830065 0.796982
2900 1.89730305 13.023069300000001 2.14369101 0.443905 -1.294071 0.354068
2920 2.35190826 16.9676703 1.793268 -0.039183 -0.77253 0.351093
2940 2.04639543 20.199447270000004 1.3855153500000001 -0.438343 -0.180511 0.499234
2960 1.6281657 14.602734360000001 0.38664153 -1.014761 0.787363 0.581561
2980 1.35618345 10.13122845 0.28156662 -1.552174 2.142682 0.442543
3000 1.26157581 8.137679490000002 -0.05627997 -1.905472 2.658029 0.278113
3020 3.44463435 7.212449340000001 2.0041830000000003 -1.577976 2.098878 -0.035076
3040 5.7902544 6.31731627 1.45886472 -0.426582 0.529798 0.014500999999999997
3060 4.1553590400000004 4.76654166 1.79641701 0.636917 -0.124023 0.359258
3080 1.9739485800000003 2.2836502800000003 1.20469743 0.31367399999999995 0.676791 0.441431
3100 0.9746235 0.8240400000000001 1.17056844 0.3301 -0.195659 0.424504
3120 -0.43289568 1.79221833 0.72239859 -0.102373 -0.280658 -0.054835
3140 -0.09864936 3.1922622900000004 0.68707278 -0.341404 2.10597 -0.748566
3160 -0.5427676800000001 3.306470310000001 0.07275096 2.192612 0.5779810000000001 0.079736
3180 -0.44442243000000003 3.2379180300000003 -1.1132388 0.355333 1.850568 0.178504
3200 -0.6655202100000001 4.088150730000001 -3.33760725 -0.330965 2.302232 -0.022354
3220 1.92664476 8.132440950000001 -8.06942151 0.191322 4.044978 -1.261144
3240 6.563252970000001 15.403416750000002 -16.223562180000002 -0.205659 3.175076 -2.354525
3260 8.82145611 21.270915090000003 -19.51971237 -1.239043 1.925271 -2.996802
3280 6.54274026 14.9028615 -10.639278540000001 -1.238306 3.088051 -1.276313
3300 2.6945421300000003 10.211317290000002 -6.392460870000001 -0.7610560000000001 4.865275 1.150675
3320 0.15897105 9.80550702 -7.63981218 -1.317584 3.874673000000001 0.542375
3340 3.15648522 14.212649520000001 -2.70802107 -1.470258 1.540709 0.128761
3360 7.58054016 18.99384732 8.67790638 -1.251593 0.331018 0.356165
3380 -0.05598567000000001 7.48653093 8.43585444 -1.114756 -0.306657 0.131475
3400 -6.789432330000001 0.24638796000000002 2.67134148 -0.93233 -0.173724 0.03003
3420 -3.3988314600000002 3.44523276 1.1681748 -0.564055 0.970513 -0.05539
3440 1.43027838 10.160423009999999 7.84369341 -0.527125 1.6402450000000002 -0.005784
3460 3.3431499 10.88476398 5.37787143 -0.827233 2.112828 -0.178333
3480 4.81054932 11.501930699999999 4.5732944700000004 -0.809762 1.254039 -0.415324
3500 9.66913821 14.19123429 1.69013547 -0.582175 0.759342 -0.510309
3520 10.75288815 13.49907993 0.07409493 -0.571497 0.710507 -0.561446
3540 8.60530257 9.249711660000001 -1.97050527 -0.49469 0.884128 -0.623089
3560 3.5114012100000003 6.48182016 -2.7665475300000004 -0.379347 1.161708 -0.6087520000000001
3580 1.8805377600000002 7.37965098 -1.7065966500000003 -0.226594 1.254713 -0.55653
3600 2.63586852 6.827151780000001 -0.44712018000000003 -0.117836 0.966964 -0.353507
3620 3.8736452700000004 7.116350580000001 0.15223158 0.104796 0.8354860000000001 -0.168049
3640 3.9508794000000003 7.900120530000001 0.5051953800000001 0.15509 0.924678 0.12701700000000002
3660 4.61475153 7.93888965 0.5161237200000001 -0.049296 0.486976 0.538484
3680 4.2486129 8.59198059 -1.3506408 0.539708 0.309095 0.8216319999999999
3700 3.52097577 8.90932428 -3.18372759 1.367695 -0.131685 0.841867
3720 4.3499502 8.76921786 -0.5373819900000001 1.956491 -0.948366 0.7679779999999999
3740 4.2209192700000004 8.681045580000001 0.08128566000000001 2.243111 -2.323148 0.663851
3760 4.53063078 9.03446064 -0.36823797 2.833504 -1.500984 0.209723
3780 5.3013730500000005 8.74421217 -0.02963601 3.32177 0.20645700000000006 0.101987
3800 6.961725360000001 8.784786330000001 0.11511054 3.607817 1.478122 -0.077106
3820 8.402775120000001 8.80409241 0.12589173 3.395372 1.891034 -0.587593
3840 9.78141366 8.37732798 1.1418251400000001 3.1071720000000003 1.995561 -1.168716
3860 10.15503732 8.49573468 1.3684557600000002 2.650517 -0.210687 -0.757813
3880 6.47373672 8.52642036 -0.558189 2.326402 -1.568592 -0.025537
3900 1.75764789 11.46585933 -1.2771442800000001 2.166667 -1.400023 0.314962
3920 0.8038314000000001 13.1907222 0.8035272900000001 1.569915 -1.013238 0.543171
3940 2.092051170000001 15.348932009999999 2.07244098 1.242575 -0.6893819999999999 0.823548
3960 -0.8735805000000001 13.9917087 0.44966097000000005 1.278076 -0.8463809999999999 0.361457
3980 -2.4530984100000004 14.68281339 0.25626663 1.043795 -0.5112909999999999 -0.115968
4000 -0.92447478 13.93601733 1.8016555500000002 0.7473310000000001 -0.11673 -0.227503
4020 1.1937690900000002 16.82411076 2.4171741900000003 0.335797 0.306064 -0.107005
4040 0.54950715 18.90179028 0.52286319 -0.159443 0.876081 0.031947
4060 -0.8773279200000001 14.916036330000003 0.68317821 -0.39945 1.671209 -0.134187
4080 -1.01324547 11.120076450000001 1.1903257800000004 -0.53301 2.492276 -0.219493
4100 1.98471996 8.57222325 0.7626686400000001 -0.349342 3.018884 -0.202862
4120 4.62493431 6.735840300000001 1.1439244800000001 -0.07739 2.744217 -0.215565
4140 6.1851363300000015 6.35084685 1.30558347 -0.165983 2.261949 -0.214498
4160 4.8578433300000015 5.79369771 0.9803133 -0.495733 1.55789 0.04902
4180 2.368673550000001 4.2647797800000005 0.9443890800000001 -0.287714 1.068242 0.040419
4200 0.17633475 3.9225971700000004 1.06413975 0.133273 0.713187 0.021381
4220 -0.96459768 4.44769704 0.03666978 0.092836 0.6381979999999999 0.161132
4240 -1.1258054100000001 4.973405130000001 -2.02603968 -0.160191 1.253977 0.10196
4260 -0.32452461 4.9852359900000005 -3.16741356 -0.479285 2.557259 -0.000215
4280 1.6862409000000003 5.10797871 -3.1076902800000004 -0.345629 3.369242 -0.442566
4300 2.7445437000000004 5.492677860000001 -3.55675284 1.891623 -0.238059 -0.7139409999999999
4320 2.8006765200000006 6.35173956 -5.538480750000001 1.130364 2.397133 -1.04417
4340 2.4237567 7.02818811 -8.64781911 0.381325 1.616966 -1.097541
4360 3.30378237 7.40585349 -11.76658488 -0.76159 2.084019 -1.28772
4380 5.71211775 8.829686700000002 -9.74533248 -0.913107 2.889285 -1.667961
4400 8.48510064 11.27185677 -6.74781831 -0.626062 4.004184 -1.273211
4420 7.69220739 10.572060420000001 -7.12204038 -0.057364 5.043203 0.002751
4440 4.09114278 8.8265475 -9.29447469 -0.796569 3.950541 0.299158
4460 2.0121192900000002 9.055267650000001 -7.316190090000001 -0.802031 1.815518 0.090348
4480 0.6918600600000001 10.80004482 -1.7065966500000003 -0.5946899999999999 1.522504 0.192584
4500 -1.03584771 12.8898495 4.8240184500000005 -0.501782 1.545603 0.196408
4520 -0.10912644 17.46777429 -3.26126583 -0.616379 1.169061 0.15442999999999998
4540 0.38874087000000007 11.42558928 3.2428524600000004 -0.811902 1.04535 0.092334
4560 -0.40266126 4.3327434600000005 3.76346916 -0.450411 1.141434 -0.006745
4580 1.7711170200000002 5.895044820000001 -0.32377905 -0.207047 1.666729 0.019919
4600 3.50600571 8.272547370000002 4.50487953 -0.4528100000000001 2.003366 -0.03564
4620 4.48272855 10.63299033 5.986954710000001 -0.384199 1.468894 -0.169072
4640 6.317610570000001 14.322217410000002 3.53489616 -0.386256 0.918527 -0.262385
4660 7.95536064 13.277540700000003 -1.77365781 -0.532507 0.739647 -0.4234100000000001
4680 6.5668434300000005 10.068209009999999 -2.8319606100000003 -0.460119 0.641641 -0.485804
4700 3.9101679000000003 9.04449627 0.07648857 -0.270052 0.913693 -0.485893
4720 3.1242986100000003 7.7505866999999995 1.4379105600000002 0.044392 1.209315 -0.36123
4740 3.6428257800000003 6.409971720000001 1.68759468 0.258042 1.626852 -0.00135
4760 4.54395276 6.058204740000001 1.09676781 0.32618 1.680708 0.32379600000000003
4780 4.67043309 7.840250100000001 -0.32167971 0.32879899999999995 0.840192 0.324891
4800 3.96644787 8.87548959 -1.8663230700000002 0.172626 0.241122 0.290385
4820 4.73585598 9.10975239 -1.52278668 0.410718 0.42825 0.440291
4840 5.0205618 8.475526080000002 -1.26920799 0.770131 0.426887 0.469509
4860 4.6407970800000005 7.932003030000001 -1.17026433 1.242205 -0.698417 0.419769
4880 4.39456608 7.99861293 -0.67509477 1.356735 -2.039997 0.420152
4900 3.96809595 8.23976235 -0.86355468 1.672851 -2.823506 0.279154
4920 4.92655257 8.410858560000001 -0.54636795 2.077192 -3.22704 -0.12236099999999997
4940 5.935756320000001 8.46265536 0.06122421 2.439794 -2.35375 -0.643308
4960 6.723872100000001 8.963809020000001 0.6224052600000001 2.667403 -0.99997 -0.794072
4980 7.202874780000001 10.18691982 0.25282332 2.882661 -0.134648 -1.059664
5000 7.33968504 10.26326124 -0.5622307200000001 3.123551 0.212104 -1.136406
5020 7.5419181900000005 10.336453650000001 -0.8445429000000001 2.866922 -0.214994 -1.199608
5040 5.35212018 10.651550850000001 -1.0285098300000002 2.413603 -1.60895 -1.195647
5060 4.026926520000001 11.16318159 -0.35416062000000004 2.101687 -2.190265 -0.740951
5080 4.1116456800000005 11.695030740000002 -0.82628649 2.062411 -1.1271520000000002 -0.432803
5100 5.80493016 11.355388920000001 1.2597805800000001 1.2926 -1.216029 0.08215800000000001
5120 5.229230310000001 10.24709436 1.12460859 0.916787 -1.546839 0.285055
5140 3.1533460200000003 12.619809630000002 0.7198578 0.395374 -1.512934 0.250391
5160 -0.10313253 13.230982440000002 1.13703786 -0.222807 -1.418993 0.204292
5180 -0.48215169 13.376484360000001 1.40856885 -0.804312 -1.198561 0.195675
5200 0.29293641 15.35087439 2.24143785 -1.285935 -0.670304 0.110449
5220 1.01728719 15.720014880000003 1.87739856 -1.919189 -0.301741 0.132259
5240 2.3343974100000002 13.55476149 1.31531499 -2.644833 0.17787 0.16930499999999998
5260 2.9204271900000003 11.44833867 0.40565331 -2.81129 0.069254 0.302877
5280 3.09451545 9.57918051 0.68872086 -2.761834 -1.138409 0.436162
5300 3.8826214200000004 8.450530200000001 -0.36494181 -2.215043 -1.647607 0.7600319999999999
5320 4.0899459600000005 7.0284824100000005 -0.86804766 -1.181323 -1.620622 0.5749380000000001
5340 3.83801535 6.2445653100000005 0.34832367 -0.427766 -0.081113 0.142394
5360 2.4237567 4.62103974 0.16106058000000004 0.204591 -0.660552 0.109098
5380 1.5030293400000003 3.53474901 0.32527017 0.096729 -1.655058 0.087186
5400 1.46410326 3.5182878300000002 -0.06675705 -0.189072 -0.486442 -0.199387
5420 1.0612948500000001 3.76047711 -0.055230299999999996 -0.416378 -0.811325 -0.275334
5440 0.7544282400000001 4.0321650600000005 -0.65055015 -0.611167 -0.6996829999999999 0.212408
5460 0.38051028000000003 4.47853968 -2.3243617800000003 -1.002075 0.949331 0.293023
5480 1.45123254 6.43107303 -3.63414393 -1.387985 1.7389400000000002 0.301066
5500 2.13859962 10.1310813 -6.237227430000001 -1.11482 1.626623 0.180272
5520 0.6629696099999999 14.684010210000002 -8.2307862 -0.800741 1.552693 0.01485
5540 -1.0033668 13.49683344 -8.67371751 -0.747831 0.733354 0.004519
5560 0.19369845 10.342594710000002 -6.101015580000001 -1.102867 -0.144228 0.26060500000000003
5580 0.59306355 9.84233376 -0.5605826400000001 -1.186743 -0.200759 0.35089000000000004
5600 0.65503332 9.71449965 -0.68063742 -1.002409 -0.09668 0.27086
5620 0.057633750000000004 11.8258569 -3.3751795500000004 -0.866366 -0.013905 0.23218000000000005
5640 1.2055901400000002 13.3267869 -1.16068977 -0.764878 0.223417 0.202674
5660 1.76857623 14.21653428 -2.2522190400000004 -0.683401 0.504542 0.15908599999999998
5680 4.43737692 7.788600450000001 -0.09864936 -0.558214 0.555358 0.129985
5700 4.08470742 4.484229480000001 3.5518184100000005 -0.453772 0.484868 0.084871
5720 2.34353052 6.224955120000001 1.7461211400000003 -0.387828 0.408066 0.053384
5740 2.4556392 9.39206457 1.6386427800000003 -0.412274 0.443246 0.068123
5760 2.69709273 11.211839190000001 3.1747514400000005 -0.48883 0.516954 0.083517
5780 3.5122939200000003 11.93139288 2.00403585 -0.471995 0.557003 0.176519
5800 3.1757913 9.39086775 0.6373753200000001 -0.355093 0.708866 0.193164
5820 2.53228473 8.83881981 1.29735288 -0.28680900000000004 0.591921 0.075218
5840 1.91676609 9.083559690000001 1.2317926500000003 -0.198195 0.407164 0.11453
5860 2.1198919500000004 9.405239400000001 0.8038314000000001 -0.211291 0.135439 0.145765
5880 2.55264048 9.53921457 1.00590759 -0.249092 0.054524 0.166969
5900 2.91892626 9.43563078 1.14017706 -0.277727 0.304003 0.140812
5920 3.19391037 9.293719320000001 1.35752742 -0.235031 0.555221 0.150403
5940 3.1025988900000003 9.492656310000001 1.56813831 -0.14066800000000002 0.650809 0.140257
5960 2.7690883200000003 9.548789130000001 2.04055848 -0.070385 0.575117 0.093843
5980 2.7087666300000004 9.620048970000001 2.3213697300000002 0.077502 0.439489 0.050185
6000 3.1046982300000003 9.41542218 2.29098816 0.186437 0.444516 0.030643
6020 3.1323820500000004 9.56241522 2.25880155 0.238006 0.5284760000000001 0.035168
6040 3.06397692 9.481433670000001 2.0824668 0.222036 0.556148 0.055317999999999985
6060 2.55024684 9.23894028 1.94805018 0.14393 0.51378 0.062304
6080 2.67134148 9.40703463 2.14923366 0.040099 0.436381 0.06061
6100 2.87223066 9.34805691 2.2614993 -0.045489 0.385538 0.062213
6120 3.1525906500000005 9.45912573 2.55204207 -0.044562 0.35252 0.060126
6140 3.14974575 9.43204032 2.85501411 -0.015886 0.343816 0.08063300000000001
6160 2.8421433900000004 9.66121173 2.53512963 -0.030788 0.338593 0.067717
6180 2.45864106 9.88603731 2.3275107900000007 0.025631 0.282052 0.039342
6200 2.30759649 9.939335040000001 1.97978553 0.049044 0.243722 0.013917
6220 2.31598404 9.88648857 1.9064361600000002 0.037189 0.21501 0.011735
6240 2.5515908100000004 9.63576459 2.14997922 0.032955 0.20975 -0.001107
6260 2.9416854600000004 9.30285243 2.37885633 -0.008768000000000001 0.188573 0.002902
6280 3.1193641800000007 9.10062909 2.46073059 -0.081487 0.154721 0.00671
6300 3.2971900500000006 9.08206857 2.49531084 -0.078459 0.098323 -0.011356
6320 3.35587347 9.230101470000001 2.2811094900000004 -0.111675 0.06754099999999999 -0.010481
6340 3.3063231600000003 9.30420621 1.94759892 -0.15534 0.074129 -0.021476
6360 3.2168069100000003 9.267830730000002 1.68998832 -0.085841 0.068718 -0.06050800000000001
6380 3.18253077 9.2805543 1.58729724 -0.118899 0.077334 -0.055409
6400 2.9990151 9.33668712 1.4359681800000001 -0.07218200000000001 0.012248 -0.069954
6420 2.8876421700000003 9.42948972 1.53790389 -0.073278 0.018593 -0.057151
6440 2.75996502 9.32934924 1.5393950100000002 -0.151976 0.084872 -0.047104
6460 2.9011211100000005 9.274413240000001 1.5223354199999999 -0.177821 0.0126 -0.06642
6480 2.9969157600000003 9.298810710000001 1.6518176100000002 -0.135511 -0.103522 -0.101227
6500 2.9910788100000003 9.150924960000001 1.62262305 -0.132224 -0.09709 -0.114031
6520 2.98270107 9.18774189 1.5039220500000001 -0.16306700000000002 -0.08204299999999999 -0.120675
6540 2.97565749 9.170378190000001 1.4633577 -0.15553699999999998 -0.065038 -0.11743900000000003
6560 3.00994344 9.17786322 1.4668010100000002 -0.17129 -0.015954 -0.124022
6580 2.96773101 9.31048461 1.26187992 -0.130678 -0.017093 -0.140828
6600 2.9885380200000005 9.20990268 1.3814736300000001 -0.161626 -0.031847 -0.153844
6620 2.9180335500000005 9.16648362 1.21352643 -0.190724 -0.096728 -0.15396400000000002
6640 3.05380395 9.09539055 1.27116018 -0.233787 -0.170133 -0.141352
6660 3.16187091 9.05990778 1.43132805 -0.15383 -0.154549 -0.111972
6680 3.08628486 9.16095078 1.5790666500000001 -0.101021 -0.019511 -0.094684
6700 2.77508223 9.2720196 1.4295230100000003 -0.083827 0.037834 -0.06472699999999999
6720 2.6460513000000003 9.27890622 1.2985497000000001 -0.10414 0.060148 -0.032851
6740 2.7424443600000004 9.27965178 1.4784749099999999 -0.132562 0.16456800000000002 -0.013955
6760 2.7572672700000003 9.17891289 1.4630535900000003 -0.158773 0.27223200000000003 -0.008935
6780 2.8533660300000006 9.14942403 1.52023608 -0.170739 0.227506 -0.002552
6800 2.77508223 9.17008389 1.3810321799999998 -0.197372 0.214901 -0.024087
6820 2.6846634600000003 9.22246929 1.6211319300000002 -0.21672600000000006 -0.076833 -0.045212
6840 2.65323222 9.227109420000001 1.6245752400000002 -0.229579 -0.353645 -0.07379
6860 2.68422201 9.27142119 1.62217179 -0.15650999999999998 -0.272798 -0.108634
6880 2.8352567700000004 9.31976487 1.5214329000000002 0.012764 -0.156046 -0.148194
6900 3.0490068600000004 9.309886200000001 1.39180356 0.13334300000000002 -0.1713 -0.167628
6920 3.0394323 9.39131901 1.73279916 0.185366 -0.220515 -0.159724
6940 2.83645359 9.41901264 1.7348886900000002 0.196233 -0.419735 -0.165802
6960 2.9041131600000005 9.334440630000001 1.8661661100000002 0.188576 -0.705178 -0.171899
6980 2.9821026600000007 9.226511010000001 1.94670621 0.225881 -0.977909 -0.199063
7000 3.0828415500000004 9.43891713 2.3117951700000003 0.385028 -1.190392 -0.213702
7020 3.0825374400000003 9.445803750000001 2.18156742 0.629272 -1.239051 -0.245049
7040 3.0262574700000004 9.41227317 2.06959608 0.8527809999999999 -1.399457 -0.284943
7060 2.94273513 9.32066739 2.01930021 1.078921 -1.6569330000000002 -0.294784
7080 2.8791172800000004 9.57798369 1.5224825700000002 1.481401 -1.65173 -0.346458
7100 2.8291157100000004 10.15862778 1.4662026 1.931878 -1.276524 -0.261539
7120 3.1434673500000003 10.337199210000001 1.42203798 2.153396 -0.905451 -0.276491
7140 3.48325632 10.297086120000001 1.13104395 2.032109 -0.4518970000000001 -0.374059
7160 3.7779977700000003 10.2753864 1.21068153 1.930283 -0.442416 -0.259415
7180 4.115991510000001 10.20548034 1.5458401800000001 1.7025259999999998 -1.199309 -0.19167
7200 4.12332939 10.217007090000001 1.51095582 1.264244 -1.917586 -0.007940000000000001
7220 3.7035987300000004 10.25652177 1.32863697 0.807596 -2.617014 0.006858
7240 3.2546833200000003 10.494522179999999 1.1195172 0.66345 -2.719316 0.406566
7260 2.97371511 10.51024761 1.18942326 0.6120680000000001 -2.437064 0.728448
7280 2.45190159 10.408900500000001 1.27594746 0.418875 -2.179707 1.005575
7300 1.98038394 10.145600100000001 1.09033245 0.23312800000000006 -1.832319 1.1394959999999998
7320 1.84416228 9.77092677 1.4042328300000002 0.115989 -1.811558 1.110878
7340 1.7989578 9.779167170000001 1.52697555 0.062109 -1.829886 1.212006
7360 1.96287309 9.159302700000001 1.63115775 0.139362 -1.485048 1.2227860000000002
7380 2.4043034700000003 9.771829290000001 0.60833772 0.171348 -1.542471 1.169672
7400 2.4536968200000002 10.503959400000001 0.6566814000000001 0.110357 -1.391865 1.122051
7420 2.3656815 10.548859770000002 0.38620008 0.04546 -1.029892 0.96731
7440 2.45728728 10.157126850000001 0.39488193 0.015244999999999996 -1.0121639999999998 0.822866
7460 2.84229054 9.06873678 0.31838355 -0.010875 -1.025374 0.685968
7480 2.94078294 9.53921457 -0.46223739 0.036944 -1.083113 0.4321390000000001
7500 3.1868766 9.33638301 -0.7156591200000001 0.045553 -1.071515 0.18863
7520 3.23297379 9.00931761 -1.3407621299999999 -0.02293 -1.041859 0.024676
7540 3.26171709 8.91680931 -1.13852898 -0.124023 -1.03597 -0.028381
7560 3.2196518100000002 9.314683290000001 -1.58760135 -0.165353 -1.100298 -0.15570499999999998
7580 2.9415285 9.29476899 -1.37458701 -0.162176 -1.145954 -0.196217
7600 2.27362446 9.6133095 -1.6164918 -0.070239 -1.04213 -0.132683
7620 1.69372593 9.97570071 -1.40588091 -0.050865 -1.0557299999999998 0.054409000000000006
7640 1.7702145 9.34401519 -2.02243941 -0.055564 -0.97334 0.233732
7660 1.6753125600000003 8.5433328 -2.1734839800000003 -0.00144 -0.641799 0.39285
7680 1.7065966500000003 8.23811427 -2.25626076 0.104921 -0.7050609999999999 0.403288
7700 2.05223238 8.33286906 -2.29443147 0.085926 -0.896741 0.402333
7720 2.20147191 8.131842540000001 -2.36298375 -0.083204 -1.016548 0.406646
7740 2.2073088600000004 7.956400500000001 -2.6092245600000004 -0.34265100000000004 -0.906644 0.320303
7760 1.91990529 7.8261727500000005 -2.9479736700000005 -0.711059 -0.474051 0.35029
7780 1.83518613 7.85281671 -3.10409982 -0.744015 -0.206567 0.35399
7800 2.05522443 6.97385052 -3.01278834 -0.486289 -0.5749810000000001 0.088139
7820 2.16105471 7.78575555 -3.32787573 0.062305999999999986 -0.939449 -0.084887
7840 2.28305187 7.5654131399999995 -3.5103515400000007 0.170948 -0.8264600000000001 0.069551
7860 2.3185248300000003 7.55853633 -4.07542716 -1.118444 0.766111 0.125802
7880 2.36762388 8.231835870000001 -5.001402870000001 -1.304764 0.883703 -0.081817
7900 2.83929849 8.405325720000002 -5.81555439 -0.850068 1.529189 -0.191631
7920 3.13897437 8.597670390000001 -5.861514240000001 -0.944524 2.265971 -0.278693
7940 3.14555688 9.01036728 -6.024075750000001 -0.75478 2.085014 0.054013
7960 2.6153656200000004 8.461752839999999 -5.71122504 -0.7701520000000001 1.7780490000000002 -0.157209
7980 2.11375089 7.89502914 -5.23940328 -0.879476 1.728957 -0.57238
8000 1.32833286 7.9339552200000005 -5.232516659999999 -0.8906360000000001 1.244631 -1.188201
8020 0.88914897 8.224497990000001 -4.85276175 -1.06293 0.693148 -1.387387
8040 1.2249060300000003 9.65148021 -4.342916430000001 -0.782285 0.49414 -0.8820389999999999
8060 1.85045049 14.44510728 -5.26290804 -0.857841 0.099365 -0.128965
8080 2.8458810000000003 16.03825128 -4.75695729 -0.960688 -0.380965 0.198876
8100 2.04264801 9.40853556 -3.68518536 -0.923886 0.125368 0.35124
8120 -0.94183848 3.39449544 2.1257289 -0.786355 0.880972 0.417462
8140 -2.3540076 4.96787229 -0.5321434500000001 -0.678465 1.135249 0.405072
8160 3.9255892200000004 10.651099590000001 -3.2817785400000004 -0.65187 0.559181 0.320538
8180 7.5299401800000005 12.84224157 2.43573471 -0.671806 -0.128716 0.270005
8200 4.648282110000001 10.755438750000001 1.62367272 -0.720429 -0.328562 0.205829
8220 2.52779175 9.26333775 -1.4635048499999999 -0.6808109999999999 -0.323267 0.179393
8240 1.5798122100000003 6.699023370000001 0.85412727 -0.6192810000000001 -0.192337 0.150813
8260 1.2325382100000002 6.70725396 1.45213506 -0.5932689999999999 -0.109306 0.14341099999999998
8280 2.25939996 7.78127238 1.37159496 -0.609233 -0.111338 0.13262000000000002
8300 3.97917144 10.66202793 0.13486788 -0.644262 -0.11318 0.090717
8320 5.13012969 13.570634070000002 -0.27153099 -0.646756 -0.21322600000000005 0.070531
8340 4.43901519 12.00114198 -0.27303192 -0.647091 -0.29840500000000003 0.059956
8360 2.85621093 9.399108150000002 0.04101561 -0.6520560000000001 -0.245008 0.031011
8380 1.8176654700000001 8.852141790000001 0.11331531000000002 -0.590934 -0.134599 0.07295700000000001
8400 1.9516406400000001 9.15810588 -0.20956122 -0.512012 0.155708 0.132956
8420 2.61087264 9.63815823 -0.6412698900000001 -0.611883 0.457642 0.104098
8440 3.0320944200000004 9.49969989 -0.48902850000000003 -0.804899 0.417015 0.041913
8460 2.88615105 9.32456196 -0.39532338 -0.840275 0.094551 -0.005991
8480 2.9353972500000003 9.281594160000001 -0.40744854 -0.6356890000000001 -0.137578 0.057693
8500 3.05799282 9.25944318 0.0290376 -0.387928 -0.018328 0.124432
8520 3.0888256500000004 9.38203875 0.2806641000000001 -0.26674200000000003 0.346687 0.113061
8540 2.88615105 9.46691487 0.47361699000000007 -0.120465 0.583836 0.088141
8560 2.6021907900000003 9.3878757 0.33485454 0.028073 0.6153649999999999 0.066706
8580 2.54710764 9.37290564 0.36958194 0.00325 0.719066 -0.004103
8600 2.5957554300000005 9.32860368 0.40969503 -0.213764 0.59105 -0.036434
8620 2.9636892900000005 9.339227910000002 0.69276258 -0.393035 0.113348 -0.032801
8640 3.2799833100000004 9.058858110000001 0.93451041 -0.455521 -0.510629 -0.047393
8660 3.26740689 8.744810580000001 1.25573886 -0.5353479999999999 -0.8569129999999999 0.039019
8680 3.1166664300000004 8.96366187 1.55048031 -0.761969 -0.887288 0.105841
8700 2.91892626 9.21962439 1.21787226 -0.474407 -1.251485 0.091225
8720 2.6807787000000003 9.49145949 0.42765714000000005 0.1809 -0.928039 -0.110779
8740 2.87941158 9.45029673 0.14893542 0.602783 -0.704268 -0.225623
8760 3.3952410000000004 9.5987907 0.35880075000000006 0.685372 -1.054076 -0.197892
8780 3.69102231 9.76164651 0.5706182700000001 0.6031989999999999 -1.717673 -0.144205
8800 3.8669058 9.501043860000001 0.47450970000000003 0.944825 -2.186346 -0.186083
8820 4.038453270000001 9.34072884 0.73213011 1.344738 -1.967307 -0.16434300000000002
8840 4.54440402 8.920703880000001 1.1036544300000002 1.676129 -1.6274 -0.20626
8860 4.91817483 8.69467167 1.2350790000000003 1.832171 -1.362553 -0.239693
8880 5.0127726599999995 8.964554580000001 1.25918217 2.099751 -0.61928 -0.39901
8900 5.18551695 9.486525060000002 1.0877916599999997 2.072652 -0.268593 -0.42849
8920 6.1429238999999995 10.31340015 1.78384059 1.7530709999999998 -0.94046 -0.498228
8940 6.673272120000001 10.350079740000002 1.97079957 1.505227 -1.7310720000000002 -0.505355
8960 4.73944644 10.293642810000001 1.09602225 1.06314 -3.026842 -0.289934
8980 2.4530984100000004 10.075851 -0.14864112000000002 1.084712 -2.660662 0.025941
9000 2.3403815100000003 10.3824135 0.35386632 0.973553 -1.446152 0.098384
9020 3.9378615300000006 10.221195960000001 0.80457696 0.706137 -1.060917 0.162252
9040 3.9357621899999997 10.02929274 1.95254316 0.510576 -1.460304 0.308813
9060 2.7397564200000004 10.31340015 1.57397526 0.610039 -1.705307 0.486078
9080 1.7592959700000002 9.7519248 1.88816994 0.582041 -1.324758 0.449075
9100 1.6164918 9.436974750000001 1.9453524300000002 0.489209 -0.775065 0.526771
9120 1.5211386 9.78515127 1.19900763 0.479782 -0.563846 0.4612729999999999
9140 2.16584199 10.754683380000001 1.5751720800000002 0.542986 -0.217106 0.275399
9160 2.4062458500000004 11.397444390000002 1.4593159800000002 0.560153 -0.123819 0.108757
9180 2.60757648 11.60312085 0.8116107300000001 0.552045 -0.16478900000000002 -0.027979
9200 2.53198062 11.049424830000001 0.6620769 0.430365 -0.264149 -0.116296
9220 2.7075698100000003 10.435397309999999 0.6390234 0.225729 -0.265377 -0.164726
9240 2.7801638100000003 9.57992607 0.033530580000000004 0.040335 -0.193428 -0.147953
9260 3.39074802 9.274266090000001 -0.6661186200000001 -0.126019 -0.112141 -0.085126
9280 2.790945 9.49101804 -1.3169630700000001 -0.20004 -0.097392 0.020092
9300 1.9431059400000001 9.39521358 -1.11427866 -0.165212 -0.079815 0.122862
9320 1.13868594 9.4109292 -0.5812425 -0.079286 -0.060393 0.252692
9340 1.4060280600000001 9.26827218 -0.62001162 0.017871 0.08150700000000001 0.380307
9360 1.6762150800000002 8.64317898 -1.76468166 0.098839 0.389766 0.477686
9380 1.25154999 8.58569238 -2.45429523 0.119817 0.347993 0.516342
9400 1.2386694600000003 8.633143350000001 -2.53602234 0.192421 0.311716 0.467758
9420 1.27145448 8.323294500000001 -2.5725547800000004 0.15878499999999998 0.361089 0.404434
9440 1.06653339 7.8303714300000005 -2.60832204 0.178904 0.447777 0.286959
9460 0.99213435 7.40165481 -2.91608136 0.121492 0.576427 0.132569
9480 1.29914811 7.162457580000001 -2.9271666600000006 -0.144998 0.644403 0.14771199999999998
9500 1.5179895900000002 7.247628000000001 -3.0105418500000005 -0.486914 0.337552 0.190583
9520 1.6242711300000001 6.983876340000001 -3.20064003 -0.629925 -0.17212 0.165668
9540 1.6706724300000002 7.22667384 -3.4955286300000004 -0.6308560000000001 -0.014014 0.055432
9560 1.82679858 7.53517872 -3.8393691300000006 0.318854 1.010415 -0.143278
9580 1.6862409000000003 7.762260600000001 -4.227511590000001 1.985028 0.246283 0.358586
9600 1.52023608 7.795339920000001 -4.56041394 0.072532 2.423146 0.292231
9620 1.38462264 8.08319475 -4.96068156 -1.896317 1.049662 -0.045569
9640 1.0687798800000001 8.46280251 -4.78779012 -1.142697 3.958 -1.263942
9660 0.7159632300000001 8.98775523 -5.11771023 0.043504 4.101826 -2.028165
9680 0.58947309 8.94644532 -5.22593415 -0.139021 3.5692410000000003 -1.351504
9700 0.95845662 8.697065310000001 -5.56542882 -0.973717 2.563868 0.107418
9720 1.45033002 8.136933930000001 -6.088586310000001 -1.324306 2.025843 0.426125
9740 1.38686913 7.904466360000001 -6.973693560000001 -0.899026 3.20838 0.037679
9760 1.46605545 8.06927436 -7.62170292 -0.275121 3.749981 -0.080434
9780 1.59418386 7.96194315 -7.97780592 -0.421994 3.064886 0.343502
9800 1.18942326 9.47065248 -8.615181240000002 -1.039303 1.7778770000000002 0.384636
9820 1.96316739 15.991693020000001 -9.33234129 -1.330023 0.909782 0.344194
9840 7.018907850000001 27.251728740000004 0.49547367000000003 -1.009998 1.023222 0.469129
9860 2.99377656 13.993945380000001 -0.15313410000000002 -0.486757 2.044192 0.439429
9880 -2.8603998 -1.22325795 10.64227059 -0.220591 2.500798 0.308244
9900 -6.03245349 -2.32930602 -6.615344070000001 0.024413 2.327725 0.220446
9920 4.4506989 3.92004657 0.23411565 -0.033362 1.892877 0.05823
9940 8.3119149 10.42207533 7.486678080000001 -0.395182 1.324465 -0.005526
9960 6.7898835900000005 12.2770188 5.08058919 -0.37617 1.256323 -0.030943
9980 6.5012832000000005 15.44039064 -0.7982887500000001 -0.103845 1.47938 -0.104102
10000 4.7267228700000015 11.992764240000001 -6.971751179999999 -0.192924 1.45895 -0.245704
10020 2.8565052300000002 9.30045879 -0.18322137000000002 -0.270064 0.915913 -0.242342
10040 3.2976413100000004 8.80813413 2.0419024500000003 0.06675299999999999 0.919763 -0.165219
10060 2.42031339 9.12547782 1.14481719 0.287428 1.6856220000000002 -0.071723
10080 3.16861038 8.34963435 -0.10942074000000002 0.354625 1.930466 0.178396
10100 3.58758567 7.25556429 -0.28889469 0.492546 1.979163 0.401488
10120 2.7318201300000005 8.228235600000001 -0.8405011800000001 0.453787 1.7318790000000002 0.4699
10140 1.99744353 9.51077538 -0.37632141 0.310906 1.423806 0.379566
10160 2.95350651 9.76434426 -0.49681764000000006 0.364669 1.22145 0.321449
10180 3.83413059 8.84780577 -0.04027005 0.621321 0.425777 0.343489
10200 3.8943051300000002 7.84802943 0.24997842000000003 1.109869 -0.48272 0.406818
10220 4.231700460000001 8.098155 -0.27917298 1.480467 -1.338285 0.655126
10240 4.24487529 8.559646830000002 -0.30670965 1.969493 -1.764879 0.618496
10260 4.4102817000000005 9.18953712 0.09220419 2.83028 -1.688791 0.026207
10280 4.27855302 9.076221810000002 0.11795544000000001 2.911796 -0.473432 -0.280293
10300 3.4456840200000003 8.207732700000001 -0.23696055000000005 3.2029490000000003 0.624959 -0.821255
10320 3.81557007 8.340805350000002 -0.65533743 3.323405 1.059976 -1.553772
10340 5.8426496100000005 8.749156410000001 0.55070397 3.3104760000000004 0.582784 -1.2894
10360 5.803733340000001 8.77924368 0.35700552 2.857019 -0.93097 -0.8975219999999999
10380 6.25714173 8.62536402 0.05613282 2.2710470000000003 -2.282235 -0.532415
10400 7.33370094 9.115295040000001 -0.30926025 2.420691 -2.157089 0.008990999999999999
10420 7.164998370000001 9.528884640000001 -1.0124901 1.655847 -1.270733 0.393482
10440 5.471125290000001 9.56930184 -0.48304440000000004 1.023847 -1.0195610000000002 0.7327130000000001
10460 4.66385058 10.420132950000001 -2.121687180000001 0.93115 -1.749943 0.447786
10480 4.80979395 12.4329978 0.14893542 0.7137319999999999 -0.985608 -0.029003
10500 7.07308848 12.592714410000003 0.65743677 0.340991 -0.396137 -0.065477
10520 5.18581125 12.466822680000002 0.040711500000000005 -0.046667 0.540351 0.242536
10540 -0.47391129 12.605133870000001 -2.65323222 -0.290789 1.452447 0.398827
10560 -1.0707222600000001 14.190939990000002 1.0538098200000001 -0.481775 2.192291 0.428592
10580 -0.7475416199999999 15.751446120000002 2.2817079000000002 -0.815635 2.862686 0.367717
10600 -1.5494306400000002 16.8435738 1.00471077 -0.811092 3.536325 0.267541
10620 -2.15416809 16.04932677 0.75263301 -0.458587 3.555646 0.191998
10640 -1.14017706 12.275076420000001 0.8162508599999999 0.4699350000000001 2.251517 0.243952
10660 2.5101337500000005 10.641819329999999 0.84499416 0.29393400000000003 0.22757600000000006 0.109652
10680 3.3058719 8.54407836 1.63833867 0.219222 0.465365 0.116303
10700 4.72717413 7.25915475 -0.85008555 0.55284 1.038659 0.049532
10720 5.5815957 5.89040469 -0.83676357 0.4669970000000001 0.44754 -0.435282
10740 4.297564800000001 4.94945892 -1.59927525 0.347598 1.123461 -0.731812
10760 2.8943816400000006 3.4278690600000004 0.21959685 1.030431 1.767153 -0.325147
10780 1.25648442 3.0198221100000002 0.8720893800000001 0.54401 2.761686 -0.061696
10800 -0.47032083 4.00985712 0.8818209 -0.119216 2.48093 -0.670582
10820 -1.5874443900000004 4.82342004 -0.20013381 -0.104899 3.873506 -1.280085
10840 -1.4732363700000002 4.93733376 -2.02663809 -0.101898 4.183864 -1.639384
10860 -0.48065076 5.001245910000001 -3.45840759 -0.574534 3.640255 -1.948569
10880 0.8176046400000001 5.14959273 -4.757702850000001 -0.814685 5.337107 -1.175823
10900 1.78788231 6.640791210000001 -5.74774767 -0.655828 6.398523 -0.08328300000000001
10920 2.5450083 10.00279593 -9.59774103 -0.7297 3.663421 -0.150797
10940 6.4144647 12.74869341 -15.54442569 -0.984395 1.922208 -0.058477
10960 8.848551330000001 13.92554025 -15.29609535 -1.213918 1.009791 0.009455
10980 6.20445222 10.78866522 -8.54228313 -1.298835 0.662682 0.040285
11000 3.07969254 9.32860368 -6.63510141 -0.933767 0.6806840000000001 0.017174000000000002
11020 0.68452218 13.695172020000001 -7.73097651 -0.793771 0.960402 0.00818
11040 1.60376823 18.579963420000002 1.22280669 -0.6450020000000001 1.058979 0.002683
11060 -0.32467176000000003 10.49048046 2.91713103 -0.525127 0.893497 -0.010154
11080 -3.40945569 3.6730602 4.13021601 -0.746731 0.903983 -0.308681
11100 -4.194128160000001 4.997802600000001 -1.66109787 -0.905947 0.6157199999999999 -0.5433640000000001
11120 1.23747264 9.08640459 4.891972320000001 -0.8380350000000001 0.6054970000000001 -0.7095199999999999
11140 2.2927833900000003 10.12434183 7.756570800000001 -0.860825 0.646502 -0.8208260000000001
11160 4.328848890000001 10.19933928 5.57096166 -0.6261399999999999 0.6424770000000001 -0.817046
11180 8.63973567 10.814259510000001 2.7695395800000004 -0.087271 1.041636 -0.67172
11200 10.224933570000001 13.40267706 -1.87484796 0.062588 1.527497 -0.293145
11220 9.48277764 11.883637799999999 -1.0279114200000001 -0.012175 0.984777 -0.10496400000000003
11240 7.30930347 9.083863800000001 -0.23995260000000002 0.084339 0.6011270000000001 0.11518699999999997
11260 4.840636590000001 6.487509960000001 -1.07985537 -0.331127 0.099583 0.424848
11280 3.4937334000000004 6.34365612 -0.84124674 -0.217874 0.080345 0.60833
11300 3.6155834100000006 6.94345914 -0.8961827400000001 0.422443 -1.119042 0.557724
11320 4.61984292 7.691903280000001 -0.41882814000000007 0.8198350000000001 -2.466788 0.522702
11340 4.925659860000001 7.83156825 -0.9879454800000002 1.3740139999999998 -2.845907 0.27923200000000004
11360 4.5553225500000005 7.515127080000001 -1.57263129 2.412201 -2.95552 0.15095999999999998
11380 3.9206449800000005 8.30129067 -1.1846359800000001 2.6647 -1.23027 0.056509
11400 3.21561009 8.536446180000002 -0.8041257 2.449273 -0.63115 0.40034
11420 4.14113454 8.12270943 -0.26748927000000006 2.462047 -1.649347 0.337641
11440 4.2845371199999995 8.378671950000001 -0.16315992 2.383776 -1.510022 -0.8680379999999999
11460 4.83509394 8.62311753 -1.08000252 2.903548 -1.39856 -1.752243
11480 6.25953537 8.319547080000001 0.07619427 3.351401 -1.553958 -1.375038
11500 8.163420930000001 9.31378077 1.27998918 2.411058 -1.967491 -0.5094069999999999
11520 9.008415090000002 9.727517520000001 0.03637548 2.198087 -0.8992370000000001 -0.004858
11540 9.35778843 9.21558267 0.45415395000000003 1.743812 -2.004279 0.742208
11560 9.10616193 9.42379992 -0.41179437 1.534816 -2.837916 1.070829
11580 6.07077135 10.699148970000001 -0.20896281000000003 1.068722 -2.660268 0.739401
11600 3.14196642 13.31047287 -1.1472108300000001 0.630029 -1.829873 0.185139
11620 4.97460195 12.34842579 0.79754319 0.115496 -1.406395 -0.042256
11640 4.88853882 12.02135058 0.7370645400000001 -0.247417 -0.8855049999999999 0.279281
11660 0.36389214000000003 11.48831442 -1.58041062 -0.629558 -0.052852 0.442187
11680 1.87440651 12.379709879999998 2.1338123400000004 -0.937276 0.830131 0.475226
11700 3.65868855 11.66659155 4.07916477 -1.034999 1.705855 0.542855
11720 2.34202959 16.1988606 0.95890788 -0.861266 1.831251 0.469133
11740 1.2940567200000002 21.54739032 1.19481876 -0.669048 1.231493 0.304601
11760 -0.43948800000000005 16.38987111 0.42257556000000007 0.008865999999999999 -0.032627 -0.106718
11780 -0.31419467999999995 11.316168540000001 0.01601973 0.262195 -0.613124 -0.079636
11800 1.32309432 9.393565500000001 -0.20028096 0.219652 -0.5957720000000001 0.146508
11820 4.03770771 8.05504986 0.11900511 0.283188 -1.349405 0.212011
11840 4.39366356 6.83298873 1.2843252 -0.37682 -0.531392 -0.250847
11860 4.529277 5.15288889 1.95104223 0.6572859999999999 1.426309 -0.01326
11880 3.4636461300000003 3.07670049 1.68114951 0.562525 1.346282 0.101549
11900 1.34226306 0.66911067 1.11338595 -1.036575 1.637066 -0.367193
11920 0.25597233 1.70749917 0.5870794500000001 -0.340215 3.989546 -0.791564
11940 -0.49007817000000004 3.07461096 0.86549706 -0.279828 5.613105 -1.927674
11960 -0.43619184 4.31986293 -0.01122264 -0.396031 4.9785910000000015 -1.392493
11980 -0.37991187 4.90889457 -1.74057849 -1.139133 3.324377 -0.788814
12000 -0.1013373 4.68405918 -3.9092751900000002 -1.427252 2.807772 -0.8190069999999999
12020 0.6336279 6.429277800000001 -7.77363039 -1.815939 1.909524 -0.6934520000000001
12040 2.68226982 10.714423140000001 -11.30150259 -1.821951 1.4562190000000002 -0.281648
12060 3.8523870000000002 16.32565485 -14.62727898 -1.814218 0.8361770000000001 -0.009471
12080 4.40848647 17.20162899 -14.7323637 -1.931243 0.031063 0.29945900000000003
12100 3.2361228000000004 13.28622255 -10.25936667 -1.991028 -0.385412 0.605087
12120 1.35138636 9.8535564 -9.11948391 -1.844738 -0.312598 0.650881
12140 -0.35880075000000006 14.08316733 -7.42965255 -1.433323 -0.097099 0.482563
12160 3.30079032 17.11196559 0.13845833999999996 -1.055316 0.478739 0.27402600000000005
12180 1.1891289600000001 7.504493040000001 4.06270359 -1.34643 1.383312 -0.044292000000000005
12200 -6.953337810000001 1.2612815099999999 6.99824799 -1.367331 1.1970379999999998 -0.329415
12220 -5.473518929999999 4.74093756 -5.206019850000001 -0.709117 1.044148 -0.228481
12240 6.41640708 10.859316839999998 8.592127740000002 -0.606114 0.935026 -0.467972
12260 4.74229134 10.359811259999999 7.934995080000001 -0.958792 1.069179 -0.676774
12280 6.754400820000001 9.53292636 0.43963515000000003 -0.979643 0.923377 -0.693825
12300 8.979073379999999 10.04440995 0.5935148100000001 -0.681872 0.243834 -0.445183
12320 9.433835550000001 11.26302777 -1.5488322300000001 -0.237513 0.277889 -0.289367
12340 6.7705677 9.72377991 -0.90576711 -0.04975 0.5700649999999999 0.0074680000000000015
12360 4.78883979 9.771525180000001 -0.70608456 -0.0041 0.325892 0.29011
12380 4.49978814 7.785009990000001 -0.88391043 -0.097451 0.006489 0.326187
12400 3.62515797 7.0503390900000005 -1.1569423499999998 0.130786 -0.308212 0.505509
12420 3.5164827900000004 7.688312820000001 -0.7062317100000001 0.8752049999999999 -0.8000510000000001 0.313718
12440 3.2997406500000004 7.633828080000002 -0.54247338 1.498881 -1.922714 0.005456
12460 1.65450555 7.4241099 0.0085347 2.167383 -2.921273 0.057339
12480 1.26157581 8.25877413 -0.87388461 1.7703970000000002 -3.236791 0.716199
12500 2.8930376700000004 8.848698480000001 -1.9158635700000002 1.515822 -1.504854 0.4547600000000001
12520 4.36806927 8.13124413 -1.4735404799999998 2.372936 -1.686889 -0.052834000000000006
12540 4.07796795 8.267308830000001 0.09669717 3.051805 -1.111144 -0.498551
12560 3.26920212 8.50561335 0.22438413000000001 3.217369 -0.8212649999999999 -1.204929
12580 3.8723013000000006 9.53187669 -0.7044364800000001 3.3716470000000003 -0.992997 -1.2826799999999998
12600 5.27188419 9.63441081 -0.77403843 2.974847 -1.420816 -0.778566
12620 6.68255238 9.25286067 -0.621954 2.138875 -2.712108 -0.276414
12640 6.96277503 10.168653599999999 0.51193485 1.98311 -3.636108 0.225747
12660 6.541249140000001 10.445432940000002 0.37601730000000005 1.520983 -3.035292 0.625537
12680 7.0223511599999995 9.98827713 0.74964096 0.8981389999999999 -2.573628 0.798987
12700 6.296352300000001 10.61427285 -0.40041477000000003 0.588228 -2.699377 0.54702
12720 3.9767778000000003 9.69534072 -1.5507746100000002 0.239802 -2.335233 0.095466
12740 5.26215267 10.07989272 -2.54605797 -0.06508 -1.191797 -0.005337
12760 8.008648560000001 10.86036651 0.8180460900000001 -0.466513 -0.488489 0.285787
12780 7.83441315 9.84742515 0.09385227000000002 -0.8242649999999999 0.33758 0.475578
12800 8.14440915 13.871055510000001 4.1646393 -1.269915 1.301407 0.657101
12820 2.3599917 13.1705136 6.131554110000001 -1.69799 1.84144 0.777332
12840 1.14347322 15.936609870000002 1.3638156300000002 -1.700575 1.65431 0.68996
12860 2.04819066 18.146910780000002 2.44067895 -1.118626 1.0290780000000002 0.430975
12880 1.8735039900000001 17.82493677 0.5557953599999998 -0.199383 -0.301364 0.14534
12900 1.9464021 14.665753800000001 0.10073889000000001 0.524235 -0.26002800000000004 0.369327
12920 1.69103799 9.94082616 -1.7497116 0.603321 -0.637572 0.675875
12940 2.86594245 7.7646542400000005 0.99602892 -0.089612 -0.815893 0.8485879999999999
12960 6.04053693 6.267618810000001 1.74132405 -1.318007 1.3692959999999998 0.5049899999999999
12980 6.204599370000001 4.46761134 1.2317926500000003 -1.308157 3.5666839999999995 0.033294
13000 3.1216106700000004 3.1790874600000003 1.6164918 2.362757 -2.329386 -0.808383
13020 0.9111528000000001 2.3125407300000003 2.19683178 0.62352 1.510362 -0.49003
13040 -0.11945637 1.96586514 1.8184208400000001 -0.606558 2.3759900000000003 -0.113035
13060 -0.6412698900000001 2.7677443500000005 1.7316023400000002 -0.453468 4.087297 -0.896098
13080 -1.33267869 3.52771524 1.0428814800000001 -0.026593 3.011124 -2.002688
13100 -0.9741722400000001 4.3304969700000004 0.30311919 -1.217315 2.38591 -2.85944
13120 -0.8890018199999999 4.9193716499999995 -1.89730305 -2.317278 2.293613 -2.002814
13140 0.008230590000000001 5.39882559 -5.425763850000001 -1.601374 2.618073 0.947927
13160 1.89730305 8.314906950000001 -9.13011795 -2.278429 2.355547 0.5867479999999999
13180 3.1051396800000006 14.392123470000001 -13.95278262 -2.40061 0.418955 0.672766
13200 5.7725964 20.177443440000005 -16.852559760000002 -2.203868 -0.461428 0.88464
13220 7.13955123 16.348100130000002 -9.81269775 -2.191901 -0.926826 0.842591
13240 4.3803415800000005 9.32246262 -7.68621348 -1.633624 -0.30602 0.6875979999999999
13260 -0.9681881400000001 2.7879529499999998 -7.91224569 -0.913385 0.559975 0.34862
13280 -1.22819238 6.48227142 -2.10028176 -0.985722 0.6005159999999999 -0.13584100000000002
13300 4.0920453000000006 13.25254482 6.877594800000001 -1.156911 0.484917 -0.38258
13320 6.6951288 32.89034997 -9.08401095 -0.380305 0.748343 -0.33262800000000003
13340 -1.9115275500000002 6.37105545 8.91755487 -0.502709 1.008862 -0.374409
13360 -5.94982386 -2.03142537 2.57794047 -1.300025 0.730154 -0.580447
13380 1.14961428 3.89459943 4.2486129 -1.248163 0.370031 -0.6106020000000001
13400 2.71235709 9.71674614 7.81524441 -1.243291 0.5190939999999999 -0.595803
13420 4.71235122 10.27553355 5.45226066 -0.7856770000000001 0.326561 -0.530403
13440 7.68816567 12.378807360000001 4.567604670000001 -0.201216 0.120755 -0.45235
13460 13.696967250000002 17.615817000000003 -0.04699970999999999 -0.114385 0.271593 -0.15390299999999998
13480 10.05100227 10.603197360000001 -3.49777512 0.026027 0.180656 0.08754400000000001
13500 4.96996182 5.913154080000001 -3.23162982 -0.040264 -0.301672 0.350482
13520 2.0420496000000004 5.79414897 -1.65959694 0.311202 -1.313073 0.425804
13540 2.39352228 6.790629149999999 -1.20933756 0.839025 -2.5857 0.406553
13560 1.5492736800000002 7.293735000000001 -0.6822855 1.355404 -3.3977690000000003 0.307583
13580 1.83069315 8.530314930000001 -1.7013581100000001 1.900659 -3.090952 0.363341
13600 1.8672157800000002 8.726250060000002 -5.121899100000001 2.2153810000000003 -1.438821 0.118799
13620 4.51865277 9.2631906 -3.8941481700000002 2.518329 -1.080345 0.252916
13640 5.26724406 7.59910068 1.12132224 2.715267 -1.08248 0.349366
13660 4.01360454 7.69744593 2.19728304 2.861406 -0.612577 -0.6041380000000001
13680 3.3129154800000005 7.92078039 0.4770603 3.132285 -0.729593 -1.411808
13700 3.53654424 8.696614049999999 0.20881566000000004 3.51325 -1.1517309999999998 -1.137278
13720 4.37405337 9.683813970000001 -0.19459116000000004 2.812765 -1.384103 -0.761586
13740 4.3767511200000015 9.95385384 -0.27348318 1.810985 -3.347453 0.117352
13760 6.382729350000001 10.31879565 -0.34069149000000004 1.6727419999999995 -3.093723 0.986662
13780 8.96725233 10.65229641 0.36299943 1.057895 -2.273105 1.163982
13800 7.71256314 10.23691158 1.0464719400000002 0.748203 -2.426138 1.0744209999999998
13820 7.78575555 9.780815250000002 -0.10373094000000001 0.506401 -2.6436330000000003 0.530354
13840 7.170089760000001 10.145305800000001 -1.02417381 0.12032 -1.557421 0.158797
13860 7.2178448400000015 11.672879759999999 0.9500788800000001 -0.115047 -0.621816 0.289481
13880 7.4559923999999995 11.66449221 1.1115907199999997 -0.4970810000000001 0.045525 0.50067
13900 4.140693090000001 11.23099812 0.94618431 -1.013609 1.249815 0.549998
13920 2.12123592 12.79015047 3.24091008 -1.573679 2.354809 0.693153
13940 0.64141704 12.0020445 3.3263846100000003 -1.803997 2.338749 0.6467
13960 1.9383186600000002 13.890518550000001 1.58580612 -1.283297 1.096163 0.580358
13980 2.5257022200000003 19.39621428 2.31792642 -0.270251 -0.171019 0.37755
14000 1.63893708 20.680696440000002 0.8298769500000001 0.783848 -0.5213979999999999 0.505003
14020 0.99423369 13.397291370000001 0.54127656 0.443358 -0.444911 0.8529030000000001
14040 1.07461683 9.00602145 -0.8147597400000001 0.061822 -0.752925 0.688263
14060 2.66970321 7.73666631 0.46986957000000007 -1.09261 1.54054 0.376022
14080 5.463640260000001 6.148466550000001 2.7393051600000007 -1.215578 3.928684 -0.26455700000000004
14100 6.19202295 4.551280830000001 1.33402266 2.690767 -1.710692 -0.768429
14120 3.0228141600000002 2.89213515 1.8432695700000001 0.358984 1.123109 -0.653752
14140 1.1410795800000002 1.99265625 2.23933851 -0.8175979999999999 2.006724 -0.292429
14160 0.17917965 1.57936095 2.02888458 -0.7861560000000001 3.4660230000000003 -1.085632
14180 -0.9801661500000001 3.14555688 1.4784749099999999 -0.8387190000000001 2.62988 -1.862594
14200 -0.89050275 3.5560072799999998 1.0309034700000002 -1.794284 3.136006 -2.395482
14220 -0.69036894 4.08260808 0.32437746000000006 -1.0234379999999998 4.734032 -0.43089
14240 -0.9910846800000002 4.36806927 -1.35602649 -1.465292 3.016517 0.024355
14260 0.20402838 5.20886475 -4.603823190000001 -2.06103 1.046682 0.043015
14280 3.3732371700000003 9.57349071 -12.19259394 -2.274154 -0.468605 0.609625
14300 6.43975488 17.46643032 -16.88189166 -1.985665 -0.312195 0.672329
14320 9.45957699 23.568789870000003 -18.39494682 -1.7319240000000002 -0.460716 0.564264
14340 7.33040478 13.842312210000001 -7.86569724 -1.610884 -0.460707 0.457219
14360 2.74679019 6.63959439 -8.17375086 -0.78203 0.62849 0.15076099999999998
14380 -0.5007122100000001 4.41880659 -7.83305937 -0.822255 1.264017 -0.235963
14400 0.40640868 9.139692510000001 0.51732054 -0.991242 1.325551 -0.558757
14420 5.242101030000001 19.33918875 11.25853479 -0.586385 0.690443 -0.592503
14440 0.87118686 21.4827228 -0.09040896000000001 -0.994734 0.658149 -0.687181
14460 -6.740784540000001 0.0606258 5.3352077399999995 -1.509039 0.583486 -0.750498
14480 -2.99272689 -0.23351724 0.8840575800000001 -1.157609 0.203022 -0.748624
14500 2.6788265100000004 9.63845253 9.27336357 -0.399036 0.154778 -0.796675
14520 4.16239281 10.758430800000001 7.0913547 -0.208886 0.974273 -0.503704
14540 7.34343246 10.64107377 4.62103974 -0.17766300000000002 0.651247 0.063086
14560 11.61030177 14.215935870000001 -0.51972399 -0.075395 -0.15846300000000002 -0.000324
14580 10.91604807 12.180174480000002 -2.17303272 -0.338962 -0.421561 0.221431
14600 7.31722995 8.48031336 -2.59155675 -0.062399 -0.768821 0.7750100000000001
14620 3.84894369 5.97617352 -1.36994688 0.4817520000000001 -1.32101 0.930138
14640 2.5237500300000004 6.936572520000001 -0.62958618 0.93986 -3.451856 0.607056
14660 2.02064418 6.21373248 -0.8195470199999999 1.606294 -3.948929 0.193605
14680 0.75413394 6.831791910000001 -0.41418801000000005 2.233341 -2.135903 -0.064984
14700 2.0155626 8.76427362 -2.01286485 2.523725 -0.756921 0.086964
14720 3.34269864 9.05766129 -4.0983237 2.594117 -0.705088 0.383287
14740 4.8788073 8.805740490000002 -1.8086893200000003 2.790632 -0.297426 0.031624
14760 4.20415398 7.601641470000001 1.0506608100000001 2.876821 -0.395977 -0.970708
14780 3.9082255200000002 7.903563840000001 0.6629696099999999 3.08853 -0.6148640000000001 -1.293688
14800 3.9246867 8.53315983 -0.56253483 2.978178 -0.977538 -1.078213
14820 4.810843620000002 9.60792381 -1.9121259600000002 2.348129 -1.6617970000000002 -0.4450770000000001
14840 6.44544468 9.51436584 -0.12199716 1.738191 -2.88387 0.399328
14860 8.09307342 9.60672699 1.1798487 1.415036 -3.270429 1.177369
14880 6.78493935 9.58516461 0.26135802 1.082603 -2.467094 1.169744
14900 7.814802960000001 9.09329121 1.3638156300000002 0.853299 -2.445227 0.69596
14920 8.993003580000002 9.472898970000001 -0.04221243000000001 0.416405 -1.870621 0.436867
14940 9.14867847 9.87122421 -0.15672456 0.084356 -1.046786 0.364058
14960 7.128779850000001 11.73140622 1.8961062300000002 -0.412369 -0.5280630000000001 0.544726
14980 4.74079041 14.026877550000002 0.25985709 -1.04845 0.440092 0.608477
15000 0.65653425 13.58799777 -0.10014048 -1.589012 1.7966380000000002 0.698034
15020 0.6011469899999999 12.9422349 2.14323975 -1.859113 2.131524 0.8345870000000001
15040 2.02080114 11.85924033 3.8847207600000004 -0.867237 0.529507 0.73461
15060 3.3727859100000006 14.53866525 3.0624858 -0.129822 0.4240930000000001 0.349995
15080 3.66064074 20.212023690000002 2.7782214300000003 0.781279 -0.181522 0.22788000000000005
15100 2.23889706 19.695438900000003 0.028586340000000002 0.221119 0.200223 0.6187199999999999
15120 1.5073653599999999 12.34407996 0.53154504 -0.08356799999999999 -0.953211 0.55184
15140 -0.0073378800000000015 9.414372510000002 0.53588106 -0.8969729999999999 0.85195 0.312041
15160 1.90613205 7.6769332200000004 0.3962259 -1.5144540000000002 4.828886 -0.282754
15180 4.00387302 6.60695652 1.90868265 3.218721 -2.861295 -0.933114
15200 5.6019514500000005 5.2120137600000005 2.25640791 0.686495 1.726287 -0.995136
15220 3.80419047 3.4169407200000004 2.07918045 -0.6532819999999999 2.190563 -0.5874149999999999
15240 1.49134563 1.3873105800000003 1.81258389 -1.186066 3.948201 -0.641459
15260 -0.45130905 0.7908037200000001 2.04819066 -0.570661 2.869085 -1.442285
15280 -0.6939594 2.07722826 1.4277277800000001 -1.327288 2.473437 -2.276003
15300 -0.61432182 3.5887824900000003 0.78736041 -1.062386 5.088796 -0.66983
15320 -0.42901092 3.75793632 0.07858791000000001 -1.160439 4.175294 -0.17903
15340 -0.72374256 4.02842745 -1.41830037 -1.653213 2.127073 -0.360377
15360 0.16375833 5.53189824 -5.42157498 -2.169657 -0.578412 0.274006
15380 4.03306758 11.70864702 -17.98255404 -2.261169 -0.979673 0.532391
15400 9.25106544 20.77035984 -17.684222130000002 -1.7147849999999998 -0.387614 0.383761
15420 8.23303269 19.00283328 -15.697559790000001 -1.752794 -0.44442 0.237222
15440 4.86128664 10.074801330000001 -7.502403510000001 -1.091033 0.01592 0.161138
15460 0.85247919 5.06846403 -8.828195580000001 -1.020655 1.179971 -0.091963
15480 -1.3482471600000001 5.072201639999999 -2.9987109899999997 -1.035503 1.167261 -0.363378
15500 1.6766663400000001 10.368189 8.876539260000001 -0.540524 0.851543 -0.426814
15520 4.75141464 27.397377810000002 -3.1786362 -0.8794799999999999 0.8243540000000001 -0.526355
15540 -0.5161237200000001 16.87949802 2.38244679 -1.400281 0.60427 -0.714514
15560 -5.76301203 -2.8948329000000004 7.645501980000001 -1.422194 0.390572 -0.8009189999999999
15580 -1.1981051100000002 -0.9961760700000001 0.7836228 -1.0786129999999998 0.155043 -0.806763
15600 3.28596741 8.8350822 8.703049410000002 -0.39521 0.139517 -0.713307
15620 5.10348573 10.41369759 6.790482000000001 -0.117056 0.433238 -0.348545
15640 9.93334113 11.27305359 4.223764170000001 -0.100283 0.238969 6.2e-05
15660 11.697728490000003 15.26540967 -0.93150855 -0.101977 -0.148633 0.22807800000000006
15680 9.78964425 11.15286147 -3.5082522000000003 -0.033096 -0.359149 0.598433
15700 7.0048305 7.718400090000001 -3.16861038 0.536682 -0.980265 0.918335
15720 3.9204978300000004 5.54730975 -1.10336013 1.053332 -2.641629 0.620697
15740 2.95201539 6.10041717 0.00703377 1.563663 -4.231811 0.376336
15760 2.95934346 7.02414639 0.3817071 2.01715 -3.099775 0.07147300000000001
15780 1.84117023 6.93613107 0.14010642 2.367285 -1.618187 0.086975
15800 1.86302691 8.04098232 -2.6420095800000003 2.577083 -1.444188 0.347796
15820 4.59214929 9.155113830000001 -3.3871575600000003 2.94024 -0.936125 0.051647000000000005
15840 4.495000860000001 8.211323160000001 -0.19774017000000002 3.168629 -0.574642 -1.032534
15860 4.18230711 7.93230714 0.94498749 3.206498 -0.260572 -1.55076
15880 3.43865025 7.9327584 0.63123426 3.101748 -1.354575 -0.93693
15900 3.3861078900000003 8.542587240000001 -0.11360961 2.586918 -2.138863 -0.163992
15920 4.574187180000001 9.94172868 -1.16009136 1.831318 -3.143537 0.78594
15940 5.984256960000001 9.2375865 -1.24466337 1.509545 -2.840604 1.231957
15960 7.830969840000002 9.25959033 0.1764819 1.095966 -2.190998 0.844744
15980 7.932454290000001 10.05100227 0.7159632300000001 0.837922 -2.396979 0.365711
16000 8.336910779999998 9.234300150000001 1.47818061 0.384267 -1.828296 0.269946
16020 8.43496173 9.3272499 -0.19774017000000002 0.057092 -1.22876 0.074612
16040 7.6115201400000005 10.02510387 -0.13097330999999998 -0.241187 -0.566426 0.399624
16060 5.942338830000001 12.875320890000001 0.45101475 -0.672384 0.23883 0.530177
16080 5.012027100000001 12.94822881 0.8991846000000001 -1.276803 1.370914 0.597143
16100 3.0719132100000004 13.25224071 0.6032463299999998 -1.987904 2.440884 0.8386319999999999
16120 2.22048369 13.908176550000002 2.98688994 -2.07945 1.6682419999999998 0.731093
16140 1.8883269 12.24633312 2.93509314 -1.323015 0.537153 0.549819
16160 3.03015204 15.130983240000003 2.8258195500000003 0.6032109999999999 -0.138481 0.008664
16180 3.51903339 20.949833790000003 2.0737849500000003 0.854605 0.425702 0.426303
16200 2.01092247 19.249672500000003 -0.16241436 0.38784 -0.398179 0.66979
16220 1.29031911 12.7828224 0.12304683000000001 -0.5438729999999999 -0.7486520000000001 0.145643
16240 0.3176379900000001 8.79406659 0.29938158000000004 -0.822017 2.736247 -0.241052
16260 3.5112442500000003 7.7766322500000005 0.82418715 2.543134 -0.696546 -0.375517
16280 6.43257396 5.59087596 2.23186329 0.630722 1.14204 -0.5621470000000001
16300 4.83764454 3.95268444 1.8544922099999999 -0.673248 2.184648 -0.42304
16320 1.6679844900000003 2.21524515 1.5010771500000002 -0.555945 4.7789410000000005 -1.143391
16340 0.06660990000000001 1.19391624 2.25850725 -0.279785 3.284161 -2.130856
16360 -0.6185106900000001 0.95216841 1.83712851 -1.443871 2.453095 -2.947635
16380 -0.42152589 3.15019701 1.7438746500000002 -1.1950459999999998 4.685749 -0.993911
16400 -0.65803518 3.70374588 1.0210248000000002 -1.328253 3.937091000000001 0.127751
16420 -0.6197075100000001 3.82798953 0.31988447999999997 -1.778676 2.3687400000000003 -0.214149
16440 -0.7714976400000001 3.8107729800000003 -1.4894032499999998 -2.006655 0.22685 0.420459
16460 0.04730382 4.00282335 -4.2628374 -2.047293 -0.164278 0.764644
16480 2.63257236 8.647063740000002 -13.780793700000002 -1.97936 -0.020745 0.509629
16500 8.96216094 19.22901264 -19.14339096 -1.556194 -0.311155 0.306791
16520 10.542130109999999 27.48314664 -17.896481100000003 -0.933334 -0.041039 0.14949400000000002
16540 4.07932173 11.424696570000002 -8.959473000000001 -0.924997 0.757255 0.041707
16560 -1.21218246 6.137234100000001 -8.856487620000001 -1.229924 1.391478 -0.322295
16580 -1.83203712 8.606352240000001 -1.76662404 -0.617257 0.916605 -0.380432
16600 5.795345790000001 16.6727817 10.45694988 -0.725952 0.926645 -0.399364
16620 7.6133153700000005 24.65268696 -7.633671120000001 -1.256758 0.581038 -0.623751
16640 -5.940994860000001 1.2376296 6.74961354 -1.183082 0.472614 -0.745943
16660 -7.03776267 -0.52001829 -0.26853894 -1.231209 0.657183 -0.773221
16680 2.33858628 7.189847100000001 8.24664897 -0.7443 0.444825 -0.8368459999999999
16700 2.99736702 11.125462140000002 7.48803186 -0.27861 0.335673 -0.584557
16720 6.04024263 11.80789479 5.73801615 -0.28187 -0.043881 -0.236921
16740 11.86417476 11.633355270000001 2.5080344100000005 -0.12448499999999997 -0.193318 -0.032668
16760 12.52730133 14.333440050000002 -2.1862075500000007 -0.461816 -0.468915 0.448165
16780 8.434814580000001 9.705366540000002 -3.4750257300000005 0.022809 -0.841284 0.973319
16800 5.27742684 6.559662510000001 -1.99131228 0.683207 -1.923248 0.844723
16820 2.7225398700000003 6.064335990000001 -0.63572724 1.301694 -3.550583 0.474046
16840 2.39576877 7.03013049 -0.24309180000000002 1.94652 -4.134716 0.272063
16860 2.32885476 6.88942566 -1.89221166 2.51534 -2.15875 0.07588400000000001
16880 2.5900656300000002 7.825123080000001 -0.86625243 2.629476 -0.799504 0.2544
16900 3.10305015 8.454414960000001 -2.38469328 2.665676 -0.83354 0.475819
16920 4.0938405300000005 8.52716592 -2.59679529 2.968093 -0.8864700000000001 -0.401148
16940 5.0641182 7.76779344 -0.48304440000000004 3.075176 -0.93255 -1.489927
16960 4.736895840000001 7.580088900000001 0.3902418 3.113661 -1.818117 -1.44259
16980 3.2199559200000003 7.664808060000001 0.11211849 2.753382 -2.593524 -0.626923
17000 3.5372898000000004 8.08259634 0.6506973 2.415349 -2.770963 0.348366
17020 4.1185323 9.027426870000001 -0.90726804 1.794707 -3.270922 0.971718
17040 5.72499828 9.576188460000001 -0.42107463000000006 1.236301 -2.855787 1.003605
17060 7.37037072 9.960887610000002 -0.48962690999999997 0.890676 -2.700918 0.669844
17080 7.798783230000001 10.54003077 0.74230308 0.621425 -2.41313 0.330036
17100 8.457858270000001 9.37964511 2.64978891 0.210063 -1.399641 0.051331
17120 9.85520448 9.971217540000001 0.0005984100000000001 -0.067437 -0.728438 0.271791
17140 9.39865689 10.900038150000002 0.37646856 -0.504728 -0.161395 0.571385
17160 5.30496351 12.38449716 1.22520033 -1.064218 0.986555 0.627962
17180 4.41072315 13.787827470000002 0.25222491 -1.703093 2.1757720000000003 0.822802
17200 1.9597240800000002 12.51847233 -0.38620008 -2.192584 2.453412 0.813686
17220 2.0574709200000005 12.704077530000001 2.92207527 -1.53265 1.021964 0.437706
17240 2.4947124300000003 11.38876254 3.47397606 -0.258459 0.049461 0.109226
17260 3.60450792 14.302460070000002 2.5045911 0.941922 -0.030873 0.243764
17280 3.54448053 20.06412813 2.27437002 0.69863 -0.047885 0.712104
17300 1.68399441 19.40504328 0.09056592000000001 0.192416 -1.040524 0.302848
17320 0.9339120000000001 13.226195160000001 -0.14474655 -1.002842 0.929332 -0.032765
17340 1.11099231 8.91351315 0.03697389 0.6162529999999999 1.868125 -0.175414
17360 3.46139964 7.52111118 0.9090632700000001 1.185434 1.067059 -0.14157
17380 6.3418608899999995 6.551873370000001 1.3690541699999998 -0.351319 1.6901389999999998 -0.380634
17400 4.7806092 5.07999078 1.42428447 -0.756364 3.4161980000000005 -0.639912
17420 1.54089594 2.8473819300000005 1.70435997 0.040975 4.206412 -2.073182
17440 0.9339120000000001 0.97072893 2.0101671000000003 -0.5967060000000001 3.069611 -2.813252
17460 -0.5462109900000001 0.90741519 1.44704367 -1.842099 2.876291 -2.9392080000000003
17480 -0.7626686400000001 3.40047954 1.51021026 -1.36712 3.682175 -0.026018
17500 -0.3912816600000001 3.53384649 0.87881904 -1.965841 2.097581 0.092539
17520 -0.36599148000000004 3.6039095100000003 0.17035065000000002 -2.212349 0.5140100000000001 0.182577
17540 -0.57854475 3.20183685 -1.82979063 -2.095104 0.065134 0.711673
17560 -0.18367263 3.51199962 -4.4004030300000005 -2.160848 -0.099686 0.694334
17580 1.8510489 8.368047720000002 -15.355220220000001 -2.112005 -0.540272 0.542484
17600 7.811801100000001 18.317114280000002 -18.26232543 -1.7678490000000002 -0.8060579999999999 0.377517
17620 10.36849311 28.358826480000005 -16.43432022 -0.8650120000000001 -0.016837 0.164895
17640 4.37899761 12.337340490000003 -7.88110875 -0.742108 1.236377 -0.053770000000000005
17660 -0.8137100700000001 7.30002321 -9.23279922 -1.148752 1.851533 -0.356501
17680 -2.30565411 9.426644820000002 -2.88195237 -0.833132 0.8183560000000001 -0.398906
17700 6.0713697600000005 15.432307200000002 3.6125913599999997 -0.87156 0.525744 -0.450074
17720 7.308705060000001 17.04325635 -1.0030626900000001 -1.097187 0.7041 -0.634544
17740 -5.953865580000001 3.14990271 5.11816149 -0.989002 0.773073 -0.660582
17760 -8.07435594 1.1374891200000001 -1.7926695900000003 -0.8802559999999999 0.6188899999999999 -0.559212
17780 2.40849234 7.69579785 7.69819149 -0.576327 0.355756 -0.5535479999999999
17800 2.7596609100000005 9.833651910000002 7.261695540000001 -0.524158 -0.13331800000000002 -0.304729
17820 5.294339280000001 9.75027672 4.91009139 -0.313273 -0.5182359999999999 -0.132915
17840 10.543179780000001 11.30299371 3.87469494 -0.185489 -0.675707 0.240988
17860 14.89417965 16.433123400000003 -1.19047293 0.120463 -0.5474359999999999 0.664909
17880 10.0818351 10.58075208 -3.4657454700000003 0.746816 -1.839167 0.542752
17900 4.3439661 7.508240460000001 -2.1465359100000003 1.27017 -3.213814 0.465917
17920 2.3403815100000003 6.2646267600000005 -0.13501503 1.628442 -4.042495 0.395774
17940 2.4255519300000006 6.2945570700000015 -0.90636552 1.705634 -3.038093 0.367252
17960 1.20933756 7.48294047 -1.59867684 2.146689 -1.505792 0.142974
17980 0.94767543 7.6950522900000005 -0.88001586 2.8861830000000004 -1.1169440000000002 0.029069
18000 2.38484043 8.020469610000001 -2.03726232 3.241924 -0.477461 -0.6240859999999999
18020 3.8127251699999998 8.18362953 -2.39576877 3.250959 -0.411591 -1.385749
18040 4.43721996 8.172406890000001 -1.26592164 3.3646580000000004 -1.1631479999999998 -1.0838219999999998
18060 4.6809199800000005 7.82243514 -0.48110202 2.779682 -3.073412 -0.7874260000000001
18080 3.9709408500000003 7.982446050000001 -0.0205029 2.573818 -3.992954 -0.290962
18100 3.71497833 8.307127620000001 0.4776587100000001 1.924121 -3.506738 0.424926
18120 4.79737449 8.81471664 -0.46089342000000005 1.34257 -2.585132 0.892905
18140 6.2204621399999995 9.353599560000001 -0.12484206 0.982951 -2.659284 0.833873
18160 7.49281914 10.335256829999999 0.23486121000000001 0.638486 -2.863906 0.35637
18180 7.6669074 10.846740420000001 -0.22079367 0.381742 -1.904076 0.042494
18200 8.27194896 10.130934150000002 0.5522049 0.028795 -1.0287389999999998 0.161753
18220 9.130716360000001 10.484202060000001 -0.63677691 -0.317181 -0.346862 0.4362
18240 7.54880481 10.071358020000002 -0.46328706 -0.854351 0.666297 0.614884
18260 6.4358701200000015 12.231510210000001 0.37168128 -1.555146 1.847204 0.810369
18280 6.712943760000001 12.19933341 1.3720462199999999 -2.30389 2.952049 1.1541
18300 5.622454350000001 13.445792010000002 1.11458277 -2.197351 1.536602 0.7197560000000001
18320 2.5661096100000003 12.645698220000002 3.5109499500000005 -1.51921 0.577083 0.325139
18340 1.0891356300000001 12.589123950000001 2.65847076 0.866179 -1.260825 0.198878
18360 2.1157030800000003 16.321760280000003 2.23215759 1.226219 -0.235858 0.642323
18380 2.05837344 20.178934560000002 1.34540226 0.494192 -0.91534 0.703242
18400 0.48215169 16.81274097 1.04422545 -0.682868 -0.43544 0.526694
18420 0.82478556 11.15226306 -0.46448388 -2.152832 3.797892 -0.044473
18440 1.28448216 9.39102471 0.59920461 2.125046 -1.020813 -0.971954
18460 4.38108714 6.808444110000001 1.4498885700000002 1.7130580000000002 0.968976 -0.844922
18480 6.786734580000001 6.06928023 1.82919222 -0.261118 2.151664 -0.523737
18500 4.452337170000001 5.497916399999999 1.5224825700000002 -1.231792 3.956139 -0.18993
18520 1.3124700900000001 3.41499834 1.6272631800000001 -0.11267 4.612346 -1.424228
18540 0.60085269 2.3842420200000003 1.47577716 -0.393948 3.666187 -2.462224
18560 0.09160578000000001 2.33813502 1.55675871 -2.4754400000000003 1.980824 -2.498104
18580 -0.6330294900000001 2.9443734000000004 1.13269203 -1.274717 3.775178 0.8771559999999999
18600 -0.6179122800000001 3.1600756800000003 1.05395697 -1.603536 3.607209 0.277938
18620 -0.9624983400000001 3.23267949 -0.04939335000000001 -2.173981 1.122639 0.326275
18640 -1.15589268 2.9982695400000003 -2.08022031 -2.046848 -0.259372 0.569284
18660 -0.27677934 3.2707030500000003 -4.712949629999999 -1.7036490000000002 -0.547338 0.357338
18680 0.90442314 8.38287063 -14.72502582 -1.376324 -0.155247 0.322802
18700 6.05476143 18.816619860000003 -16.664992559999998 -1.045008 0.920603 0.321601
18720 11.23832619 32.47541640000001 -16.65272025 -1.021025 1.940164 0.27773400000000004
18740 5.04720576 11.69981802 -7.121294820000001 -1.37324 1.472406 0.076115
18760 -1.2954105 2.77972236 -9.17367435 -0.897642 0.758721 -0.348005
18780 -5.5682737200000005 3.7235032200000004 -5.307808410000001 -0.562106 0.881108 -0.342614
18800 1.53895356 8.66787075 7.20556272 -0.968159 0.8977569999999999 -0.42452
18820 8.32508973 28.75670046 -3.63503664 -1.097405 0.905388 -0.621985
18840 1.6697797200000002 14.897466 6.92834193 -0.973491 0.925255 -0.6361
18860 -6.84601641 -1.98143361 6.915922470000001 -0.873692 0.669941 -0.544277
18880 -1.9486485900000001 -1.29046626 -0.6535422000000001 -0.434394 0.161242 -0.518124
18900 3.09301452 9.23489856 8.70185259 -0.392068 -0.161545 -0.286679
18920 3.7576322100000006 11.40702876 6.39889623 -0.066997 -0.11204 -0.161626
18940 6.13933344 12.10562829 3.2515343100000003 -0.078878 0.02485 0.247245
18960 13.369597740000001 15.812964630000002 0.51837021 -0.106025 -0.684746 0.83335
18980 11.48351733 11.86507728 -2.4989013000000004 0.427574 -0.914359 1.047811
19000 6.58286316 8.118216450000002 -3.2400075600000005 0.8997069999999999 -2.874402 0.6231270000000001
19020 2.29502988 6.10685253 -1.9863680400000001 1.591682 -4.151132 0.156374
19040 0.83631231 7.09105059 -1.11008979 2.400415 -3.045818 -0.167337
19060 2.9180335500000005 6.8038039800000005 0.2989303200000001 2.8071740000000003 -0.604584 -0.159078
19080 4.06134981 6.464907720000001 0.95651424 2.70353 -0.150253 0.332066
19100 3.0380785200000004 7.040313270000001 -0.86384898 2.619574 -0.248342 0.159621
19120 2.58976152 8.47851813 -3.8248503300000003 2.934554 0.023979 -0.813814
19140 3.94623927 9.14987529 -2.2589487 3.070374 -0.618001 -1.292743
19160 4.88464425 7.64011629 0.49366863 3.127068 -1.812101 -1.094264
19180 4.173174 8.03813742 0.4625415 2.375068 -2.829272 -0.485054
19200 3.61123758 8.896149450000001 0.41913225000000004 2.001166 -2.634982 0.534374
19220 4.028721750000001 9.13325715 0.14684589 1.483528 -2.603435 1.085125
19240 4.71983625 9.708662700000001 -0.9349518600000001 1.0041639999999998 -2.282813 1.240531
19260 5.8998321 10.038425850000001 -0.24204213000000002 0.8202790000000001 -2.195728 0.934692
19280 7.50748509 11.617786800000001 -0.47062494000000005 0.6027560000000001 -1.932062 0.4553390000000001
19300 7.307204130000001 10.41009732 1.46694816 0.26870900000000003 -1.127305 0.09412
19320 9.05377653 10.439743140000001 2.15536491 -0.129775 -0.792291 0.309893
19340 10.217301390000001 11.1113946 0.13262139 -0.558654 -0.213825 0.409774
19360 9.02024595 11.809395720000001 2.76924528 -1.116797 0.663924 0.370567
19380 5.051394629999999 12.151431180000003 0.70039476 -1.671727 1.843949 0.394021
19400 1.8567387 13.77421119 -0.07289811 -1.919702 2.4679450000000003 0.406444
19420 -0.71581608 11.2762026 -0.7580285100000002 -1.044569 0.84577 0.386862
19440 1.54658574 10.521774359999998 2.4876786600000003 -0.262793 -0.1562 0.394675
19460 2.5950000600000007 10.770850260000001 1.9293425100000001 1.3048 -0.434976 0.286341
19480 3.1295469600000003 14.96677365 2.16480213 0.76503 -0.097757 0.6058100000000001
19500 2.5677576899999996 18.65735451 2.14189578 0.190064 -1.285693 0.343738
19520 1.0464719400000002 16.18913889 1.03075632 -1.22365 -0.012554 0.204045
19540 1.72306764 11.37424374 1.08134649 -1.292681 3.1863200000000003 -0.23103
19560 0.6491963700000001 9.55433178 -0.13546629000000002 2.492211 -1.248569 -0.279026
19580 2.25146367 8.17539894 0.42945237 0.198938 1.539676 0.005826
19600 4.96577295 7.768548810000001 0.04715667 -1.043723 2.932426 -0.091165
19620 5.407801740000001 6.543642780000001 1.0159334100000001 -0.778662 4.572319 -0.69496
19640 2.58048126 4.347409410000001 1.39359879 0.204845 4.330657 -1.851074
19660 1.2627726300000002 2.82462273 1.1530477800000003 -0.477392 2.405177 -2.725042
19680 0.44157753 1.25200125 1.2493035 -1.950196 1.542055 -3.2501740000000003
19700 -0.28425456 3.0847839300000004 0.7532314200000001 -1.265701 3.500449 -0.222698
19720 -0.61747083 3.86017614 0.55115523 -1.498048 2.702014 0.11426
19740 -0.28081125 3.6905710500000004 -0.14429529 -2.142367 0.319435 0.561466
19760 -0.39098736000000006 3.4982263800000006 -1.4694987600000002 -2.035924 -0.448885 0.799271
19780 -0.47077209 3.8552319 -3.6932688 -1.821522 0.310746 0.8574790000000001
19800 1.03449393 6.56938422 -9.71928693 -1.790331 0.333033 0.585272
19820 5.2097672699999995 14.009366700000003 -16.03390545 -1.453751 -0.400616 0.212549
19840 11.0100573 25.85977803 -18.948799800000003 -0.933756 -0.26953 0.014119
19860 7.83724824 15.96624588 -8.880286680000001 -0.8714209999999999 0.8250700000000001 -0.180196
19880 2.7643010400000003 6.751261620000001 -8.403677640000002 -1.012941 1.246898 -0.318458
19900 -2.1999709800000002 4.61969577 -8.9073819 -1.049729 0.988852 -0.22438
19920 0.05643693 9.15600654 -2.1038722200000004 -1.161099 0.329144 -0.318316
19940 9.349410690000001 21.8960181 10.634785560000001 -0.898172 0.187539 -0.565194
19960 4.35159828 19.40010885 -2.26703214 -0.8375540000000001 0.901836 -0.757966
19980 -7.244184690000001 -2.3366439000000003 7.23669966 -0.8804870000000001 0.918731 -0.683512
20000 -7.21739358 -0.6655202100000001 -1.6976205000000002 -0.282729 0.311417 -0.642239
20020 1.9380243600000002 8.603056080000002 7.9014645 -0.4411060000000001 0.226769 -0.382591
20040 2.8602526500000005 10.700198640000002 6.4891580399999995 -0.232828 0.046103 -0.138418
20060 4.947506730000001 10.859620950000002 4.35788649 -0.271287 -0.205049 0.097712
20080 7.172787510000001 11.682307170000001 2.80142208 -0.288598 -0.613363 0.457037
20100 12.975471180000001 15.672858210000001 -1.9056906 0.262129 -1.279899 0.696747
20120 10.24349409 10.61427285 -3.4319107800000004 0.8454809999999999 -2.723494 0.494368
20140 6.259084110000001 6.05176938 -2.12527764 1.42534 -3.731484 0.31811300000000003
20160 2.7512831700000002 6.2625274200000005 0.31165389 1.961007 -3.613480000000001 0.180698
20180 2.6676038699999998 7.2018251100000015 1.12355892 2.552171 -1.359773 0.038797000000000005
20200 1.50062589 7.21933596 -1.69207785 2.790639 -0.363092 0.202624
20220 1.55361951 8.36431011 -2.78360712 2.90469 -0.071916 0.281028
20240 2.6994863700000002 8.30637225 -1.8642237300000002 3.17619 0.124507 -0.588997
20260 3.9748354200000002 8.242008839999999 -0.01721655 3.293185 -0.244609 -1.355758
20280 4.27226481 8.15549445 0.34952049 3.182698 -1.789878 -1.105654
20300 4.1876928 7.68860712 -0.37587015 2.6083 -3.690492 -0.301791
20320 3.31710435 8.566533450000001 -1.2726513 2.18303 -3.623484 0.624505
20340 2.7876488400000006 8.87728482 0.8897473800000001 1.588445 -2.460241 1.1487
20360 3.51798372 9.32485626 0.05972328000000001 1.170656 -1.962073 1.073572
20380 4.5472391100000005 9.146579130000001 -1.1424235500000002 0.928479 -2.591245 0.915658
20400 7.379209530000001 9.70312005 0.38933928 0.558142 -2.07592 0.505418
20420 8.68434174 10.98205956 0.6390234 0.253776 -1.293719 0.164732
20440 8.002811610000002 10.376125290000001 1.6929803700000001 -0.06628099999999999 -0.716583 0.50252
20460 8.907676200000001 10.48808682 0.57884886 -0.452536 0.048317 0.5629350000000001
20480 9.22980717 11.379639240000001 0.055230299999999996 -1.007238 1.014331 0.55889
20500 7.03686996 11.997100260000002 1.2644207100000002 -1.623661 2.067704 0.606646
20520 6.8918193 11.822560740000002 1.05904836 -2.128704 2.372325 0.523679
20540 3.68698059 12.89088936 0.27303192 -1.368904 0.4312 0.446016
20560 1.4868624600000002 11.24222076 -0.5269049100000001 -0.474609 -0.182609 0.256497
20580 1.40452713 11.412414450000002 3.5146875600000005 0.914592 -0.171309 0.488376
20600 1.6462749600000002 12.466528380000002 1.92110211 0.556975 0.283746 0.75235
20620 1.96077375 15.32542725 2.41851816 0.013183000000000002 -0.804355 0.538438
20640 1.8209616300000002 19.6490376 1.47832776 -1.227746 0.907067 0.13554000000000002
20660 0.84499416 15.550115490000001 1.16053281 -1.217966 3.543321 -0.595229
20680 -0.01362609 10.26340839 0.25162650000000003 2.73996 -1.258881 -0.578521
20700 0.8827136099999999 8.57791305 0.6502460400000001 0.108932 2.410072 -0.464868
20720 4.837487580000001 7.853415120000001 0.73586772 -0.803344 3.022071 -0.073577
20740 6.90648525 6.721321500000001 1.13928435 -0.822593 4.614635 -0.849145
20760 4.05043128 5.28056604 1.10126079 -0.267692 3.454307 -1.800909
20780 1.42518699 3.71482137 1.1186244900000002 -1.004023 2.033057 -2.716493
20800 0.39053610000000005 2.2668849900000003 1.5208344900000001 -1.696425 3.3000769999999995 -1.686778
20820 0.01586277 3.5592936300000004 0.57540555 -1.102606 4.38654 0.222754
20840 -0.8514295199999999 3.93142617 0.8677435499999999 -1.746336 2.353119 -0.06542
20860 -0.29264211 3.6997041600000005 0.41868099000000003 -2.022379 -0.236287 0.369668
20880 -0.33949467 3.3813206100000004 -0.5954571900000001 -1.761573 -0.5865630000000001 0.626175
20900 -0.6620769 3.3940441800000003 -2.4557961600000002 -1.743067 -0.68285 0.446967
20920 0.27198225000000004 4.1296077900000006 -5.081629050000001 -1.545811 0.079955 0.525347
20940 3.05933679 8.116568370000001 -15.125450400000002 -0.857876 0.965957 0.272644
20960 9.59819229 18.48970161 -18.15514137 -0.98789 1.592095 -0.085853
20980 11.379639240000001 25.250243490000003 -15.3625581 -0.722483 1.052071 -0.333271
21000 3.95537238 10.762021260000001 -7.315738830000001 -0.446866 0.933772 -0.292738
21020 -1.60571061 3.87708858 -8.574616890000001 -0.662173 1.161648 -0.349013
21040 -3.3709906800000007 7.15871016 -1.91751165 -1.041259 0.8698239999999999 -0.568136
21060 2.46268278 12.628638630000001 7.14838023 -1.006578 0.882918 -0.675801
21080 8.71876503 31.76724231 -11.69188173 -1.133448 0.845242 -0.734323
21100 -1.09602225 6.1918758 7.26439329 -0.689632 -0.069396 -0.6948
21120 -6.852451770000001 -2.04953463 5.76989865 -0.15951700000000002 -0.007691 -0.601445
21140 -0.8442486 2.4840882 0.7689470400000001 -0.107984 0.274754 -0.150657
21160 1.97708778 9.39266298 7.63442649 -0.008537000000000001 -0.157953 0.080259
21180 4.4718002100000005 10.449170550000002 6.08693823 -0.165101 -0.664954 0.464375
21200 6.814575360000001 11.06394363 4.32435591 0.345416 -1.037156 0.925617
21220 12.78087021 15.36150843 -0.13756563000000002 0.744884 -1.7942 1.020177
21240 10.72474326 12.07404009 -2.78481375 1.18065 -4.089368 0.517688
21260 7.112014560000001 7.012913940000001 -4.40129574 1.998135 -4.032788 0.04583
21280 3.2332779 5.842796760000001 -0.63153837 2.545513 -1.3770639999999998 -0.159916
21300 1.9746941400000002 6.80065497 1.08629073 2.692694 -0.332858 0.185878
21320 2.15536491 6.652916370000001 1.7092944 2.6080240000000003 -0.683882 0.396176
21340 2.3441289300000006 7.888142520000001 -1.4106681900000002 2.669333 -0.837715 -0.346681
21360 2.5542885600000003 8.92654083 -3.01623165 2.792055 -1.187403 -1.181794
21380 3.64447386 9.036559980000002 -2.07573714 3.136475 -1.429613 -1.38204
21400 5.028498090000001 8.275990680000001 -0.6051887100000001 2.51568 -2.608532 -0.929803
21420 4.975651620000001 8.17510464 0.93031173 2.195659 -3.192291 0.142273
21440 3.7194615 7.711062210000001 0.41538483 1.6276700000000002 -3.141546 0.997091
21460 3.6452194200000005 8.299936890000001 0.7587740700000001 1.037151 -2.763421 1.254196
21480 4.204458090000001 9.66210444 -0.0782838 0.963187 -2.794462 0.823226
21500 4.29950718 9.68501079 -1.9984932000000002 0.705959 -2.224451 0.225699
21520 6.130504439999999 10.03228479 -0.5987533500000001 0.204391 -1.348043 -0.059870000000000013
21540 8.65380321 10.422977849999999 0.5334874200000002 -0.183032 -0.8387120000000001 0.243351
21560 7.571858310000001 10.18331955 1.00380825 -0.51783 -0.093822 0.467589
21580 8.483305410000002 9.500592600000001 0.92447478 -0.956933 0.962311 0.470646
21600 9.270969930000001 10.984904460000001 -0.52196067 -1.4501389999999998 2.176997 0.563921
21620 8.38376334 11.705056560000001 2.4665675400000002 -1.6801419999999998 2.017029 0.541155
21640 6.0917353200000015 13.45371849 -0.5060979 -0.8786799999999999 0.6303850000000001 0.293225
21660 2.09025594 12.99776931 0.29324052 0.417206 -0.6558229999999999 -0.19173
21680 1.25423793 13.11228144 0.27932013 1.366881 -0.327959 0.110381
21700 1.97020116 10.40112117 3.98830455 0.641027 -0.12523900000000002 0.393471
21720 2.61236376 12.45844494 2.13546042 -0.328759 -1.484593 0.450396
21740 3.0519989100000005 16.77965184 2.5715051100000004 -1.630864 0.753818 0.180991
21760 2.11180851 19.038463200000002 0.86430024 -1.778778 3.986026 0.002764
21780 1.17805347 14.264740620000001 0.97536906 1.987318 -1.124293 -0.815754
21800 1.2597805800000001 9.8851446 -0.07903917 0.8014760000000001 2.577438 -0.5617260000000001
21820 1.83114441 8.96605551 0.40266126 -0.83826 3.213323 -0.185161
21840 4.93298793 7.44312168 0.94498749 -1.456129 4.015748 -0.7823
21860 6.18588189 6.826102110000001 0.8948387700000001 -0.291607 3.480411 -1.914341
21880 3.0850880400000005 4.62194226 1.7961129 -0.8520709999999999 2.189853 -2.898298
21900 1.11682926 2.33993025 1.77785649 -2.126078 3.13314 -1.924574
21920 -0.26839179 0.25102809000000004 1.4690475 -1.473716 2.901432 0.8384290000000001
21940 -0.28620675 3.3015358800000003 1.09886715 -1.877431 2.329507 0.357779
21960 -1.0255177800000002 4.51311012 0.4337982 -2.072612 0.718385 0.633013
21980 -0.48619341000000005 4.18454379 -0.25536411 -1.91548 0.109526 0.909424
22000 -0.83361456 3.76751088 -1.32564492 -1.871245 -0.007959 0.681284
22020 -0.21599658 3.4058652300000003 -3.31216011 -1.6857540000000002 -0.226241 0.49592
22040 1.53910071 5.71466835 -9.53142543 -1.050809 0.373898 0.115026
22060 5.07100482 14.90750163 -15.972985350000002 -0.651219 0.76856 -0.09206
22080 8.61548535 29.22956208 -19.67643693 -1.061978 1.186627 -0.388157
22100 4.28484123 14.944318560000001 -11.1950739 -1.151242 0.986833 -0.430185
22120 0.9593591400000001 4.09308516 -8.808428430000001 -1.046473 0.617648 -0.371297
22140 -5.56767531 1.2829812299999999 -4.024081620000001 -1.347727 0.76879 -0.61074
22160 -0.45385965 5.12399844 4.2861852 -1.172166 0.29784 -0.738165
22180 5.3989727400000005 15.66567729 5.69190915 -0.858175 0.227123 -0.641877
22200 7.98289731 35.93861127 -14.13989856 -0.452993 0.29977600000000004 -0.514158
22220 -1.65555522 2.7623586600000003 11.56001571 -0.395511 0.002597 -0.306141
22240 -6.37015293 -2.40340095 2.2010206500000002 -0.331537 -0.310438 -0.134378
22260 1.1662226100000002 2.88419886 1.4112666 -0.234031 -0.408858 0.150577
22280 2.9912259600000004 8.37223659 7.12458117 -0.163354 -0.372577 0.606086
22300 5.29972497 9.82272357 4.71175281 0.504494 -1.276335 0.661048
22320 9.5122665 12.889251090000002 3.58354395 0.844424 -3.2410330000000003 0.449091
22340 14.37670215 18.38701053 -1.37594079 1.509701 -4.017009 0.252838
22360 9.13385556 10.09785483 -2.84528259 1.992303 -3.342824 0.13463599999999998
22380 4.656963960000001 6.360568560000001 -1.46230803 2.394788 -1.36407 -0.081937
22400 1.5476354099999998 5.849084970000001 -0.33500169 2.600014 -0.595432 0.128951
22420 1.49030577 7.21918881 -1.1418251400000001 2.705995 -0.507525 -0.101157
22440 2.16764703 7.998171480000001 -1.2087391500000002 2.931104 -0.550016 -0.8579680000000001
22460 1.5965775000000002 8.17075881 -1.4106681900000002 3.119246 -0.83575 -1.226961
22480 2.8259765100000003 7.806121110000001 -2.45235285 3.022549 -2.175412 -0.990911
22500 4.07452464 7.96268871 -1.4359681800000001 2.535745 -2.746498 -0.544926
22520 4.8270105 7.66600488 -0.56641959 2.150143 -2.68487 0.094303
22540 5.03029332 7.368428340000001 -0.17154747 1.312832 -2.969834 0.953011
22560 4.2926205600000005 8.57656908 -0.75473235 0.846511 -2.866331 1.313885
22580 3.8297847600000003 8.848845630000001 -1.09257894 0.704925 -3.129752 0.97888
22600 4.884497100000001 9.07353387 -0.62075718 0.461225 -2.299304 0.242245
22620 6.37509717 10.28660904 0.21555513 0.148677 -1.429648 0.14921700000000002
22640 7.823484810000001 12.0137184 0.32452461 -0.159645 -0.617228 0.246435
22660 7.537729320000001 11.005113060000001 1.23837516 -0.5641609999999999 0.264335 0.451851
22680 8.4331665 11.02187835 1.2463114499999999 -1.083523 1.316286 0.50456
22700 8.85678192 10.88641206 0.38410074000000005 -1.7306990000000002 2.35943 0.739052
22720 7.24463595 11.59788231 0.11152008000000001 -2.054031 2.270311 0.6621319999999999
22740 6.31806183 11.5076205 0.5185173599999999 -1.622389 0.705038 0.384074
22760 4.818632760000001 12.406952250000002 0.71027343 0.445887 -0.8733219999999999 0.095033
22780 2.43558756 11.57872338 -0.7050348900000001 1.484563 -0.8220700000000001 0.496396
22800 1.8618300900000002 10.69391043 3.4823538000000003 0.6741 -0.65542 0.815261
22820 2.1365100900000003 11.82032406 2.30730219 -0.5006470000000001 -0.574088 0.67556
22840 2.90904759 15.15793131 1.83383235 -1.78178 2.565341 0.439329
22860 2.34801369 18.253496430000002 1.3159134000000001 0.456258 1.706381 -0.34724
22880 1.4263838100000001 16.49106126 0.94094577 1.70405 -0.121472 -0.40348
22900 1.8080909100000002 11.24566407 0.13561344 -0.277033 2.4572580000000004 -0.475102
22920 2.1158502300000004 8.27704035 -0.09190989000000001 -1.152014 3.2026630000000003 -0.177725
22940 3.68503821 6.75963936 1.06368849 -0.468796 3.188548 -1.234747
22960 5.8246875000000005 6.952445100000001 0.6247989 -0.6569159999999999 1.886089 -2.228907
22980 4.72313241 6.354888570000001 1.45092843 -1.965655 2.426302 -2.721577
23000 2.3019165 4.17482208 1.33447392 -1.028996 5.071143 -0.280741
23020 0.5117877000000001 2.1275241300000003 1.9743900300000001 -1.489103 3.203033 0.28780100000000003
23040 -0.8035272900000001 1.5187449600000003 1.08898848 -2.162509 0.956847 0.218677
23060 -0.17064495 3.10873995 1.15275348 -2.009047 -0.116919 0.609958
23080 -0.8421492600000001 4.03186095 0.51073803 -1.808422 -0.261758 0.6927300000000001
23100 -1.10829456 3.77649684 -0.5641731000000002 -1.832664 -0.583846 0.5412859999999999
23120 -0.69889383 3.39374007 -2.4965076600000002 -1.4069120000000002 -0.50368 0.371105
23140 0.41688576 5.016372929999999 -6.306535080000001 -0.854657 0.14719300000000002 0.161552
23160 2.0809756800000003 10.98011718 -15.416738730000002 -0.839498 1.353047 -0.108011
23180 7.759111590000001 22.404205530000006 -18.10395279 -1.05546 1.4306299999999998 -0.407652
23200 9.90056592 24.908953590000003 -13.29385473 -1.081124 0.672377 -0.441043
23220 4.77147609 8.64392454 -7.236405360000001 -1.29434 0.372045 -0.541492
23240 -1.3953940200000001 2.4104347200000005 -9.84202965 -1.481264 0.392549 -0.711603
23260 -2.33889039 5.181328080000001 -1.6378972200000002 -1.23911 0.394865 -0.7013689999999999
23280 6.23617776 13.939313490000002 8.528519700000002 -0.531438 0.351428 -0.575661
23300 8.0081973 30.59098407 -7.7104638 -0.091106 0.530007 -0.328191
23320 -4.72177863 5.00588604 7.134763950000001 -0.153185 0.302147 -0.03564
23340 -7.29297963 -1.64942397 1.69178355 -0.116074 -0.06189400000000001 0.12745499999999998
23360 0.4263131700000001 4.06823643 3.3200964 -0.102768 -0.198142 0.355254
23380 2.79333864 10.10713509 7.1895528 0.263054 -0.763648 0.531586
23400 5.4748629 10.294986780000002 5.4586960200000005 0.8956780000000001 -2.181776 0.311359
23420 8.53749585 10.06626663 3.29629734 1.636873 -3.640824 0.106898
23440 12.107570670000001 15.35476896 -1.78338933 2.020469 -3.653198 0.204665
23460 10.410852690000002 11.35359369 -3.12893874 1.89959 -1.9245 0.104397
23480 6.615491220000001 6.843024360000001 -3.4468808400000004 2.270874 -1.087917 0.229832
23500 2.86953291 6.60501414 -0.88301772 2.617942 -0.71016 0.29907100000000003
23520 2.2260165300000003 6.76907658 -0.44367687000000006 3.179653 -0.8466049999999999 -0.430699
23540 2.30295636 7.03147446 -0.7605693 3.218817 -1.109413 -1.341282
23560 1.88996517 7.922575620000001 -1.51963767 3.070953 -1.552746 -1.168695
23580 2.2788630000000003 8.30607795 -2.19967668 2.362584 -2.57229 -0.536745
23600 3.7688646600000006 8.41564584 -1.3223487600000001 2.051217 -2.487977 0.225819
23620 4.20640047 7.861949820000001 -0.21974400000000002 1.321741 -2.849638 0.990307
23640 4.06749087 7.558085070000001 0.16016787000000002 0.984515 -2.695654 1.402224
23660 3.3688913400000002 7.46842167 -0.21735036 0.835038 -2.625426 1.019735
23680 3.6455235300000006 8.80559334 -0.7682014800000001 0.561888 -2.634269 0.538207
23700 4.951107 9.18429858 -0.7625116799999999 0.232355 -1.551434 0.162776
23720 6.137391060000001 9.870920100000001 -0.05134554 -0.1289 -0.8677959999999999 0.276881
23740 7.397770050000001 11.333826540000002 0.29728224000000003 -0.489725 -0.35130700000000004 0.365566
23760 7.761063780000001 11.114533800000002 1.0102534200000002 -1.055199 0.547918 0.555948
23780 8.54407836 11.21647932 1.0220744700000002 -1.500561 1.465317 0.626438
23800 7.82961606 11.659106520000002 0.35625996000000004 -1.514859 1.521108 0.53974
23820 5.842796760000001 11.618385210000001 -2.5282430099999997 -0.833277 0.17156 0.176626
23840 7.68097494 11.810435580000002 0.8089129800000001 0.510478 -0.410651 -0.046114
23860 5.97586941 10.60185339 -1.5621542100000003 1.314586 -0.626778 0.290928
23880 6.38242524 12.46742109 0.6273495000000001 0.25751 -0.025684 0.604309
23900 2.18246013 10.02015963 4.18454379 -0.5395479999999999 -0.57121 0.788516
23920 1.5988239899999999 11.522884860000001 3.3890999400000004 -1.643459 1.750003 0.419976
23940 2.14713432 15.39967914 2.12826969 -1.499656 4.285695 -0.32041
23960 1.9104778800000002 20.17474569 1.0415375100000002 2.563551 -1.304333 -0.78052
23980 0.28201788000000005 17.16226146 0.28455867 0.157356 1.875637 -0.8558819999999999
24000 0.38888802 10.3710339 -0.98151012 -1.372457 2.072242 -0.212
24020 1.41456276 8.34544548 0.20118348 -1.368224 3.7667 -0.648908
24040 5.54986035 7.5627252 0.00434583 -0.506707 2.865627 -1.43222
24060 7.140748050000001 6.752605590000001 0.9624983400000001 -1.435745 2.386185 -2.207214
24080 4.735100610000001 5.490735480000001 1.2826869300000001 -1.526091 3.971833 -0.928011
24100 1.49628987 3.28701708 1.13957865 -1.695401 2.736562 -0.095466
24120 0.88166394 2.41238691 1.6143924600000004 -2.230423 0.261828 0.392146
24140 -0.18621342 1.9107721800000002 1.3506408 -2.329105 -0.8930790000000001 0.780701
24160 -0.47122335000000004 3.3621616800000007 0.8372050200000001 -1.97531 -0.16726400000000002 0.649783
24180 -0.50789313 3.74760639 0.62824221 -1.817386 0.215014 0.5521189999999999
24200 -0.7018858800000001 4.07691828 -0.55340172 -1.377063 0.147325 0.314932
24220 -0.94917636 3.9441497400000003 -3.28776264 -0.935538 0.17736400000000002 0.145994
24240 0.42705873000000005 6.96052854 -8.089031700000001 -1.109708 0.962327 -0.199128
24260 3.1253482800000003 14.375054070000001 -14.84029332 -1.284411 1.371441 -0.325855
24280 9.26408331 23.88927276 -17.8873578 -1.005552 1.106859 -0.202859
24300 6.54184755 16.65346581 -13.00420467 -0.972942 1.163517 -0.280684
24320 3.3428457900000006 6.153557940000001 -8.92489275 -1.290531 1.062009 -0.461165
24340 -1.3769904600000002 2.5900656300000002 -9.65896524 -0.878668 0.062649 -0.518964
24360 0.13142457 6.54813576 -0.6524925300000001 -0.184484 0.16697 -0.568728
24380 5.32487781 12.124934370000002 13.02456042 -0.204371 0.481438 -0.338534
24400 4.69588023 31.329402390000002 -10.89538821 -0.178703 0.025609 0.143997
24420 -4.96472328 6.22270863 4.890177090000001 -0.08494299999999999 -0.262143 0.360802
24440 -4.2107463 -2.2968251100000003 2.3833395 0.085621 -0.495 0.635756
24460 2.07483462 5.069503889999999 4.34157246 0.730753 -1.31726 0.8421420000000001
24480 3.36425121 9.063949500000001 7.048543860000001 1.1249870000000002 -2.801826 0.659859
24500 5.361400440000001 10.4547132 3.91151187 1.633685 -4.253734 0.203801
24520 9.024287670000001 11.691440279999998 0.8641530900000001 2.215582 -3.445298 -0.272802
24540 10.870098030000001 14.51142288 -2.73256569 2.53546 -0.673361 -0.306166
24560 8.613690120000001 11.594144700000001 -2.1430926 2.592307 0.6556029999999999 -0.23056
24580 5.07474243 6.18124176 -1.85539473 2.62455 0.166689 -0.536288
24600 2.59979715 4.79766879 0.058977720000000004 2.709751 -0.647313 -0.843366
24620 1.1422764000000003 5.36453964 -0.51118929 2.876098 -1.494322 -0.958623
24640 2.1802136400000003 7.085066490000001 -1.81182852 2.874225 -2.223618 -0.7953319999999999
24660 2.3343974100000002 8.04906576 -2.0477394 2.3701380000000003 -2.0217970000000003 -0.479713
24680 2.74064913 8.634948390000002 -1.55780838 1.98048 -1.968455 0.10395
24700 3.79371339 8.347691970000001 -0.64321227 1.41883 -2.532952 0.831414
24720 3.89041056 8.45905509 0.59202369 1.100106 -1.989644 0.837038
24740 3.4465865400000006 8.54108631 0.42721569 0.753438 -1.764723 0.568341
24760 3.2403116700000005 9.24477723 -0.9518741100000001 0.638081 -1.152678 0.25803400000000004
24780 2.4689611800000004 10.360556820000001 -2.14323975 0.347271 -0.8214030000000001 0.250238
24800 4.724927640000001 10.93850316 0.7689470400000001 -0.049835 -0.512641 0.369914
24820 7.553140830000001 12.590320770000002 0.44771859 -0.581557 0.156943 0.416616
24840 9.10601478 12.11550696 1.1666738700000001 -1.173489 1.190029 0.454955
24860 9.35165718 11.418849810000001 1.45587267 -1.64395 1.945742 0.488088
24880 9.51915312 12.554092440000002 1.2337350300000003 -1.206874 1.0328389999999998 0.366261
24900 7.691304870000001 12.50874081 0.99468495 -0.259335 -0.259852 0.471744
24920 7.030434600000001 12.33704619 0.6051887100000001 0.88697 -1.364302 0.217315
24940 3.47711526 12.221631540000002 -1.19362194 0.808237 -1.040229 0.494088
24960 0.11226564 9.98872839 -1.4876080200000001 0.098613 -0.788665 0.536879
24980 1.5462816300000002 8.70185259 2.42585604 -0.795185 -0.825543 0.677029
25000 3.1106823300000004 11.19237615 3.8437051500000003 -1.986289 0.57063 0.7449
25020 3.77245512 15.37557597 1.20798378 -0.6146020000000001 2.77104 -0.06446
25040 2.6973870300000002 15.672406950000001 0.9262700100000001 1.910021 0.083703 -0.210024
25060 1.91856132 14.817386970000001 0.8854113600000001 -1.300934 1.647629 -0.647859
25080 1.78264377 11.577977820000001 0.43903674000000004 -1.3347639999999998 1.111701 -0.063091
25100 1.13868594 8.454414960000001 -0.20252745000000003 -0.818688 4.167507 -1.456363
25120 1.46141532 7.30780254 0.18441819 -0.200206 2.532521 -2.310935
25140 3.42293463 6.5649010500000005 0.74514798 -1.366863 3.30085 -1.899189
25160 4.01913738 5.69101644 1.1557455300000001 -1.855793 3.83227 -0.107604
25180 3.2335722000000002 3.47218083 0.18262296000000003 -1.76653 2.328854 -0.107191
25200 1.78548867 2.2968251100000003 1.09093086 -1.845686 1.690549 0.012715
25220 0.09370512 2.5427618100000005 0.80233047 -2.049392 0.878182 0.6116060000000001
25240 -0.6381208800000001 3.5708203800000002 0.37496763 -2.055426 0.143582 0.5067510000000001
25260 -0.24279750000000003 3.35078208 -0.24997842000000003 -1.977807 -1.391541 0.4547810000000001
25280 -0.31285071000000003 3.4865524800000003 -1.19601558 -1.917145 -1.511779 0.367765
25300 -0.29024847 4.33528425 -3.66198471 -1.379548 -0.33775 0.144621
25320 1.1876280300000004 7.291635660000001 -7.536228390000001 -0.949351 1.505185 0.036305
25340 3.5536136400000005 13.31331777 -14.786848440000002 -1.081611 2.1005700000000003 -0.089295
25360 7.3082538 20.90372679 -16.327597230000002 -1.008812 1.266919 -0.26718000000000003
25380 6.756353010000001 16.482075299999998 -12.44916468 -0.8862059999999999 0.376561 -0.426484
25400 4.37989032 8.65395036 -7.844890230000001 -0.969729 0.773176 -0.43719
25420 1.3233984300000001 3.7520993700000003 -8.5345038 -0.8524129999999999 1.277551 -0.397492
25440 -0.7059276 6.05999997 -6.87655494 -0.350879 0.70222 -0.278952
25460 6.08409333 12.42326628 -0.95711265 -0.280504 0.381735 -0.114612
25480 8.17210278 25.95377745 3.4545130200000003 -0.32703000000000004 -0.013159 0.110964
25500 -6.448289580000001 9.21213936 10.59811578 -0.30302 0.006445 0.248907
25520 -11.81507571 -1.03974228 -0.99648018 -0.051444 0.328881 0.382711
25540 -2.8515708 2.26314738 -3.0728059200000004 0.499117 -0.308421 -0.027097000000000003
25560 5.415139620000001 9.910287630000001 9.715696470000001 1.035489 -2.076335 -0.07022300000000001
25580 4.711007250000001 10.56023937 5.654945070000001 2.028669 -2.359864 -0.090696
25600 7.70223321 10.86979392 1.13883309 2.346288 -2.992108 0.300097
25620 10.373731650000002 11.833341930000001 -0.99752985 1.6394959999999998 -2.906182 0.736226
25640 9.89876088 13.012140960000002 -3.0937698900000004 1.760703 -0.625004 0.259859
25660 6.730003350000001 9.61525188 -1.33372836 3.103307 -1.356997 -0.33337100000000003
25680 4.684961700000001 6.20130321 -1.28013633 2.9942900000000003 -1.258337 -0.668612
25700 1.6742727000000002 5.03627742 -0.99737289 2.24834 -1.765093 -0.8996360000000001
25720 1.64852145 6.502332870000001 -2.07528588 2.56373 -2.360279 -0.450154
25740 2.51238024 7.788159000000001 -1.3362691500000001 2.723984 -1.329561 0.060255
25760 2.8648927800000004 8.7488523 -0.28500993 1.827819 -2.286936 0.75918
25780 3.01607469 8.06552694 -0.15074046 1.57056 -2.912675 1.353185
25800 3.57157575 8.23736871 -1.1802999600000001 1.307767 -3.146546 1.192484
25820 3.31111044 8.666830890000002 -0.8119148400000001 0.75254 -2.519568 0.72633
25840 2.8515708 8.58748761 -0.09999333 0.617884 -2.226903 0.116128
25860 4.223764170000001 9.477244800000001 0.042065280000000004 0.209107 -1.454711 -0.028722
25880 5.09989527 9.632017170000001 0.02110131 -0.207936 -0.7626689999999999 0.16296300000000002
25900 5.69685339 9.80191656 0.5513023800000001 -0.542184 0.082446 0.364644
25920 7.03326969 12.22732134 0.32332778999999995 -0.945897 0.76218 0.4261140000000001
25940 7.9156889999999995 12.741953940000002 0.41119596 -1.2663 1.419427 0.444398
25960 7.73770617 12.215500290000001 0.58498011 -1.335243 1.428515 0.36272
25980 5.09690322 12.00937257 -1.25992773 -0.656072 0.340796 0.325061
26000 3.96136629 11.54983293 -1.24915635 0.11275 -0.103504 0.21136
26020 7.05842253 10.85333274 -2.8234259100000005 0.75755 -0.609036 0.332948
26040 8.96291631 9.821075490000002 -0.09580446000000001 0.26155500000000004 -0.942276 0.448483
26060 6.58735614 9.20945142 -0.66566736 -0.299105 -1.0499889999999998 0.697873
26080 8.119717379999999 11.566892520000001 4.37525019 -1.560192 1.024358 0.39585
26100 3.25213272 11.367955530000001 5.97842001 -0.864297 3.556576 -0.221034
26120 1.6462749600000002 15.239658420000001 -0.65204127 2.317734 -0.8093279999999999 0.05141
26140 0.9800091900000001 15.89394618 1.13538978 -0.69593 2.192967 -0.352707
26160 0.5987533500000001 15.823892970000001 -0.07304525999999999 -1.173276 2.343719 -0.342347
26180 0.28934595 12.320732160000002 0.6222581100000001 -0.576339 4.279387 -1.140757
26200 2.36044296 10.686425400000001 -0.46897686000000005 -0.232452 2.6629240000000003 -2.126525
26220 3.3858135899999997 8.59198059 -0.40940073 -1.799239 2.363108 -2.780154
26240 5.7925008899999995 5.96778597 1.6069074300000001 -1.685139 3.318109 -0.613159
26260 5.611084560000001 3.19719672 0.92507319 -1.627428 2.109216 -0.179645
26280 3.1798330200000002 1.8482040000000002 1.08853722 -2.029408 0.484116 0.040752
26300 0.7879588200000001 0.9286734600000001 2.26314738 -2.234354 -0.529991 0.475386
26320 -1.6537599900000002 3.0529014300000004 1.85374665 -2.1902790000000003 -0.575362 0.594325
26340 -1.67710779 4.13455203 0.9015782400000001 -2.082809 -0.457158 0.77759
26360 -0.35685837000000004 4.28244759 0.0011968200000000001 -1.6852049999999998 -0.181082 0.657168
26380 -0.35116857000000007 4.11090012 -0.92059002 -1.134019 0.039135 0.253743
26400 -0.5751014400000001 4.175714790000001 -3.50301366 -1.04124 0.982525 0.018173
26420 1.05051366 6.027813360000001 -6.89331042 -1.338226 1.607702 -0.221847
26440 3.75898599 10.926378 -13.874194710000001 -1.250033 1.080927 -0.4320640000000001
26460 7.52380893 19.14698142 -16.120282500000002 -1.114107 0.432894 -0.463399
26480 8.31640788 19.20146616 -13.542489180000002 -1.1334 0.5929840000000001 -0.521423
26500 6.2804895300000005 10.726097039999999 -8.132588100000001 -0.76761 0.60431 -0.474017
26520 1.9970020800000001 4.2150823200000005 -9.15226893 -0.181382 0.565699 -0.384415
26540 -0.96848244 8.68688253 -5.77633401 -0.317012 0.2416 -0.20335
26560 4.18125744 16.160846850000002 5.99428278 -0.388896 -0.249427 0.108698
26580 5.70223908 24.930653310000004 -2.00343744 -0.339636 -0.283277 0.272524
26600 -5.266351350000001 5.304070800000001 6.28393284 0.0798 -0.691809 0.308024
26620 -8.72356212 -1.5236793900000003 0.714168 0.752903 -2.387898 0.299944
26640 0.7815234600000001 4.38093999 1.99415718 1.454832 -2.467865 0.241924
26660 4.988228040000001 10.38779919 8.23796712 1.804481 -3.535211 0.190186
26680 6.21926532 11.04358788 5.507343810000001 2.128567 -3.289562 0.016947
26700 9.04883229 10.23437079 0.32631984 2.48917 -0.754096 -0.056422
26720 11.169322650000002 13.71238857 -3.7332347400000003 2.619801 0.28627800000000003 -0.069662
26740 7.237749330000001 11.05615449 -2.85935013 2.722302 -1.011178 -0.436888
26760 5.5741106700000005 7.72363863 -1.25918217 2.855532 -0.690819 -1.278127
26780 3.58519203 5.325329070000001 -0.88316487 3.230921 -0.941488 -1.254887
26800 3.5121467700000006 6.11627994 -1.45497015 2.919766 -1.930286 -0.663998
26820 2.68915644 7.1654496299999995 -1.15095825 2.257488 -1.861645 0.059815
26840 1.2220611300000002 7.41992103 -1.67606793 1.79876 -2.398467 0.703573
26860 1.37833443 8.62371594 -0.36224406000000003 1.116983 -2.850865 1.207864
26880 2.47704462 8.20024767 -0.40430934 0.884807 -2.583494 1.146079
26900 2.9636892900000005 8.59721913 -0.9693849600000001 0.6954100000000001 -2.224089 0.6764140000000001
26920 3.33281997 8.697663720000001 -0.72658746 0.587253 -1.469291 0.092511
26940 3.6658792800000004 9.341474400000001 -0.69515622 0.285211 -1.021878 0.088759
26960 4.9021551 9.9605835 -0.8162508599999999 -0.210857 -0.322201 0.304452
26980 5.56751835 9.30794382 0.64650843 -0.78581 0.406454 0.534511
27000 7.395072300000001 11.01394206 0.7608636000000001 -1.415224 1.311272 0.713757
27020 9.02099151 12.38060259 1.0795512600000001 -1.631739 1.3545200000000002 0.742099
27040 9.36722565 12.727435140000003 1.16143533 -0.560296 -0.125208 0.627566
27060 7.71450552 12.77757405 -0.20133063 0.391438 -0.361981 0.13993
27080 6.479720820000001 12.788355240000001 -1.0186311599999998 0.939526 -1.057715 0.224767
27100 8.048310390000001 12.03751746 0.74545209 -0.066833 -0.490236 0.376175
27120 6.571032300000001 11.06514045 -1.18284075 -0.3821 -1.052685 0.644954
27140 2.31987861 10.23227145 -2.0622582 -1.280493 -0.520516 0.475627
27160 3.2693492699999998 9.81823059 3.04391547 -2.086803 3.2822370000000003 0.17990699999999998
27180 3.89669877 11.17307007 5.19614118 1.7885099999999998 -0.4301430000000001 -0.275376
27200 3.8799334800000005 16.157246580000002 1.7754530400000001 0.905695 0.944545 -0.695638
27220 2.02528431 17.82089505 0.26270199 -1.250987 2.604821 -0.834607
27240 0.6403673700000001 16.238983500000003 1.2283493400000003 -1.760909 2.565477 -0.41083
27260 0.21075804 11.65566321 -0.15313410000000002 -0.691746 2.249518 -1.7093919999999998
27280 0.18262296000000003 8.26776009 0.21794877000000001 -1.404917 1.821525 -2.75
27300 1.91676609 6.7731183 0.6336279 -2.032821 3.476237 -0.960826
27320 5.126843340000001 6.590044080000001 0.5004081 -2.099488 1.536846 0.308105
27340 5.13088506 4.18080618 1.2494506500000002 -2.311383 0.526301 0.391241
27360 3.3437483100000005 2.7701379900000003 1.0865948400000003 -2.433301 0.0048850000000000005 0.886713
27380 1.18044711 1.54688004 2.2312648800000003 -2.436478 0.104652 0.981635
27400 -0.8671451400000001 0.6500988900000001 1.57876254 -2.355751 -0.009474 0.947093
27420 -1.0463247900000001 3.10783743 0.9774684000000001 -2.129741 -1.070027 0.6359739999999999
27440 -0.42167304000000005 3.82739112 0.87013719 -1.361754 -0.31148400000000004 0.486542
27460 -0.34593003000000005 4.29352308 -0.4568517 -1.01849 1.203443 0.163327
27480 -0.1300806 5.3510705100000004 -3.49208532 -1.3201 2.012715 -0.289538
27500 1.9592728200000002 8.35382322 -10.33376571 -1.315841 1.2893059999999998 -0.5374770000000001
27520 7.26798375 15.716267460000001 -16.940869380000002 -1.101071 0.743713 -0.680556
27540 8.824595310000001 21.196967309999998 -17.042962050000003 -0.8931709999999999 0.701484 -0.689732
27560 4.86922293 12.3291099 -12.23226558 -0.428894 0.631285 -0.321067
27580 2.85965424 8.001614790000001 -7.49281914 -0.180358 0.8298469999999999 -0.109145
27600 -0.28650105 3.70090098 -7.112456010000001 -0.166175 0.798357 0.027726
27620 0.16705449 7.02085023 -2.5243484400000002 -0.315074 0.262857 0.339293
27640 5.054092379999999 12.71860614 7.3926786600000005 -0.1717 0.13763599999999998 0.360752
27660 6.06523851 30.405673170000004 -9.6827643 0.078599 -0.785293 0.244042
27680 -4.83045381 5.61647025 9.01350648 0.698045 -2.240736 0.30898600000000004
27700 -7.4603382300000005 -2.28125664 3.30512634 1.35383 -2.935944 0.169179
27720 -0.7138638900000001 2.8584574200000006 -3.75823062 1.813878 -3.4814230000000004 0.051314
27740 4.66774515 9.52379325 7.640410590000001 2.195816 -2.42442 -0.075559
27760 5.90342256 11.430376560000001 5.29688988 2.340476 -0.608686 -0.060852
27780 10.161472680000001 12.693159000000001 -0.48438837 2.261835 -0.941074 0.012732
27800 10.718464860000001 15.48171036 -5.19958449 2.451391 -1.259503 -0.7055170000000001
27820 5.87917224 9.099432270000001 -1.80524601 2.918664 -1.385611 -1.540646
27840 3.92573637 7.014414870000001 0.45130905 3.3475050000000004 -1.573662 -1.239376
27860 2.5276446 5.4486702000000005 0.032932170000000004 3.004925 -1.478032 -0.8819
27880 2.08322217 6.353093340000001 -1.0933245 2.451962 -1.426416 -0.523702
27900 0.39412656000000007 7.279363350000001 -2.08741104 2.032208 -2.251243 0.181586
27920 0.4251163500000001 7.39312992 -0.81056106 1.397061 -2.616019 0.8441870000000001
27940 1.8357845400000001 8.26116777 -0.30985866000000006 1.095415 -2.598694 1.035406
27960 2.33484867 9.05631732 -1.51215264 0.991392 -2.207737 0.593003
27980 3.0192237 9.122632920000001 -2.15222571 0.827652 -1.400849 0.084488
28000 3.91196313 8.43750252 -0.47361699000000007 0.37161 -0.622306 0.256562
28020 4.78734867 9.361231740000001 -0.50564664 -0.222173 0.169348 0.466112
28040 6.164329320000001 9.979742430000002 0.0047872800000000005 -1.01415 1.230235 0.651501
28060 6.6376422 11.88992601 0.8297199900000001 -1.576743 2.218181 0.76381
28080 7.100782110000001 12.92082948 1.85045049 -1.297576 1.316427 0.654752
28100 8.18662158 12.32297865 0.7668575100000001 -0.170165 0.467068 0.8260850000000001
28120 9.02832939 12.278666880000001 0.5522049 0.656435 -0.282852 0.368143
28140 8.06328045 11.35763541 -0.430659 0.773253 0.269886 0.568008
28160 7.6640625 10.813209839999999 0.11316816 -0.354049 -0.6040260000000001 0.310222
28180 8.63404587 11.15076213 -0.11570895 -0.455356 -1.809339 0.519362
28200 4.28169222 11.09582613 -1.34420544 -1.344674 0.970456 0.102595
28220 3.1757913 10.34543961 1.10724489 -1.7863759999999995 4.515159 0.086422
28240 3.60106461 10.55095911 4.55847156 2.556311 -1.144844 -0.4325350000000001
28260 3.0889728 13.718971080000001 2.7653507100000003 0.6836899999999999 2.120172 -0.926226
28280 1.24136721 18.408268800000002 2.08306521 -0.77767 2.635729 -0.715972
28300 0.57046131 19.17347823 0.68272695 -1.789532 3.11406 -0.377549
28320 0.24983127000000002 12.94089093 1.01369673 -0.949409 2.880056 -1.193912
28340 -0.02829204 8.752599720000001 0.26135802 -1.124066 2.774514 -2.086962
28360 1.91033073 7.13880567 0.9517171500000001 -1.765198 4.381882 -0.966526
28380 3.81990609 6.67102563 1.4898545100000002 -1.586054 3.015694 0.068378
28400 4.12452621 6.70545873 1.94026104 -1.731939 1.413927 -0.173075
28420 3.06412407 4.98792393 1.8383253300000002 -2.117983 0.5227069999999999 0.323162
28440 1.8498520800000002 2.86848324 2.398309560000001 -2.324716 -0.616391 0.3157
28460 0.07215255 0.61282089 2.32421463 -2.0565580000000003 -1.850287 0.4259770000000001
28480 -1.37189907 2.07124416 1.1859799500000001 -1.931137 -0.7482439999999999 0.446805
28500 -1.00320984 2.8398969000000003 0.70907661 -1.412802 0.482034 0.292889
28520 -0.7881157799999999 2.78869851 -0.1038879 -1.099695 1.907796 0.182154
28540 -0.82763046 3.94594497 -2.22722316 -1.382467 1.985972 -0.207686
28560 0.9098088300000001 6.26238027 -7.09943814 -0.903235 1.618439 -0.619406
28580 5.21545707 11.95443657 -18.24615855 -0.937182 1.051311 -0.755649
28600 8.40666969 21.258937080000003 -16.961077980000002 -1.588718 0.6158939999999999 -0.793825
28620 5.44852305 15.81745761 -15.95711277 -0.725182 -0.034674 -0.822211
28640 4.675230180000001 9.04134726 -8.319399930000001 -0.280408 0.5068 -0.487581
28660 0.9981282600000001 3.78637551 -8.12570148 0.096125 0.644523 -0.090953
28680 -0.84305178 6.66189252 -3.0108361500000003 0.048519 0.597522 0.248469
28700 1.78489026 7.30435923 5.811512670000001 -0.028803 0.16891199999999998 0.407643
28720 2.91413898 21.43976481 4.00746348 0.245389 -0.6370140000000001 0.31445100000000004
28740 1.9214062200000002 24.033420900000003 -2.9138446800000004 0.863137 -2.123893 0.25016900000000003
28760 -6.6184832700000005 -1.45542141 10.44857214 1.539133 -2.846702 0.334865
28780 -5.598204030000001 -1.2328325100000002 -4.39785243 1.925638 -3.460718 0.370399
28800 2.81863863 7.247775150000001 4.57672797 2.209909 -2.3116950000000003 0.226702
28820 4.223018610000001 10.746756900000001 7.58652426 2.668159 -0.673243 0.081457
28840 9.33279255 11.046432780000002 2.6849675700000004 2.958775 -0.639814 0.26076900000000003
28860 11.370957390000001 12.68671383 -0.61282089 2.780232 -0.9834 -0.24103400000000005
28880 9.49191075 12.56202873 -2.00688075 2.604634 -0.465283 -1.251326
28900 5.82813081 8.848551330000001 -1.4929937100000004 3.256643 -0.539462 -1.115286
28920 3.2091747300000004 6.51654756 -0.52181352 2.824113 -2.027239 -0.8440040000000001
28940 1.97275176 6.2989029 -1.6789128300000002 2.365142 -1.8845 -0.17868599999999998
28960 2.2023744300000003 6.960822840000001 -0.45460521000000004 1.816215 -1.993208 0.309002
28980 1.99909161 7.146889110000001 1.31501088 1.0603049999999998 -2.399018 1.214367
29000 1.80914058 7.2968742 0.026496810000000003 0.960543 -3.0492220000000003 1.397169
29020 2.56955292 8.382115259999999 -3.17879316 0.825767 -2.646319 0.924625
29040 3.16831608 8.69631975 -2.51925705 0.284934 -1.894676 0.705172
29060 4.17975651 8.43271524 1.05426108 -0.07668 -1.163832 0.469905
29080 3.3702451200000003 8.64287487 -0.2881491300000001 -0.376236 -0.63749 0.7053520000000001
29100 4.611465180000001 10.19096154 -1.66378581 -0.816763 0.21472600000000006 0.821892
29120 6.79526928 11.43801855 -0.2633004 -1.29912 1.206832 0.88989
29140 6.97026006 11.95443657 -0.06960195000000002 -1.829289 2.086815 0.80067
29160 8.21192157 10.96918884 1.4810157 -1.4549299999999998 1.235763 0.450794
29180 9.7692885 10.768309470000002 1.0743127199999998 -0.744178 0.047711 0.16886099999999998
29200 7.460936640000001 10.97172963 -0.1761876 0.775016 -1.151869 -0.062545
29220 4.51311012 10.810364940000001 -0.79769034 0.7686069999999999 -0.330745 0.526017
29240 7.134165540000001 10.930125420000001 1.06309008 -0.468295 -0.192257 0.266167
29260 7.148684340000001 11.51135811 0.67210272 -0.669388 -0.270753 -0.175244
29280 2.87163225 12.5314902 -0.0836793 0.3796 1.326215 -0.049254
29300 1.62307431 12.42415899 3.65509809 1.24994 1.388977 0.549608
29320 1.5593093100000002 11.5887492 2.29173372 -0.789034 1.780523 -0.226779
29340 2.22586938 15.34443903 1.7335447199999998 -0.545542 2.638871 -0.371456
29360 1.96586514 20.07654759 0.96280245 -0.117591 5.40794 -1.910255
29380 1.1499085800000002 17.46148608 0.38484630000000003 0.365819 3.450304 -2.945886
29400 1.0500624 10.69017282 0.73227726 -1.579821 2.07003 -3.470454
29420 0.7071342300000001 8.183482380000001 -0.31808925000000005 -1.621738 2.96732 -0.589834
29440 4.422249900000001 6.089635980000001 0.82628649 -1.7112150000000002 1.180947 -0.269839
29460 5.86525185 6.3818268300000005 1.30154175 -2.036887 0.13517 -0.06888
29480 5.15572398 6.46535898 2.22632064 -2.1573990000000003 -0.17799 0.559862
29500 2.56102803 4.53122919 2.4819888600000004 -2.2350220000000003 -0.6631020000000001 0.729789
29520 0.49232466 2.74260132 1.44104976 -2.19727 -0.458092 0.844089
29540 0.02634966 0.96563754 1.3723503300000002 -2.078791 -0.54864 0.741416
29560 0.10208286000000001 2.64754242 0.8746301700000001 -1.794387 -0.707172 0.44664
29580 -0.74021355 3.9215475 0.67165146 -0.927607 -0.038587 0.064073
29600 -0.82942569 4.3683635700000005 -0.01691244 -1.226057 1.401608 -0.46115
29620 -0.29862621000000006 3.8202102 -1.6660323000000001 -1.27946 1.042171 -0.5710890000000001
29640 0.10552617 5.104986660000001 -4.41506898 -1.030727 0.586486 -0.583723
29660 2.35909899 9.6767802 -12.438236340000001 -1.282533 0.7782140000000001 -0.62632
29680 7.63906662 17.40655008 -15.42108456 -1.083964 0.128631 -0.590986
29700 9.99427104 23.70815073 -17.20940832 -0.280936 0.270789 -0.606923
29720 5.40840015 12.48478479 -9.39117186 -0.128648 1.060242 -0.227652
29740 2.4827344200000003 11.236236660000001 -9.33653016 -0.191196 0.125554 -0.063453
29760 2.39576877 15.939601920000001 -6.861133620000001 -0.525591 -0.642594 -0.018871
29780 7.82123832 16.329990870000003 4.26537819 -0.31458200000000003 -0.960559 0.192382
29800 0.13936086 3.0858336000000004 9.77018121 0.207937 -1.840677 0.322141
