time Ax Ay Az Gx Gy Gz
20 -1.21666563 19.91833191 -5.87168721 0.563549 2.046721 1.292794
40 -5.2935937200000005 13.73663889 -2.38843089 0.217874 1.863194 0.868667
60 -9.12547782 9.92166723 3.8261943 0.205592 1.117083 0.71785
80 -5.679038429999999 6.29979561 1.7651329199999999 0.240475 0.519436 0.428303
100 0.35805518999999997 2.9952676800000004 -0.59081706 -0.094488 0.217297 0.352643
120 3.41469423 3.2356715400000002 -1.33672041 0.597867 -0.282768 -0.13433
140 3.971088 5.748650189999999 -1.85539473 -0.27574 -0.075022 -0.4462100000000001
160 3.13762059 9.238341870000001 -0.48723327000000005 -1.372926 -0.215044 -0.974987
180 0.6243476400000001 9.77437008 1.65885138 -1.55463 0.201393 -2.392184
200 -5.16141378 8.04726072 1.44943731 -2.437951 1.14051 -3.3759120000000005
220 -6.733750770000001 7.24597992 -1.33342425 -2.435714 0.82983 -3.472707
240 -5.510041560000001 8.334664290000001 -2.0254412700000004 -2.136043 -0.705504 -2.600182
260 -5.073251310000001 9.691750260000001 -0.11226564 -2.087531 0.701447 -1.7748419999999998
280 -4.1267727 10.26280998 0.41868099000000003 -2.169026 1.533815 -1.801047
300 -7.647601320000001 10.4373495 -4.84647354 -1.64451 1.04369 -1.964466
320 -8.979671790000001 12.66276762 -0.99468495 -1.178536 0.193259 -2.282724
340 -6.9787849500000005 11.52977148 2.00851902 -0.801743 -0.8505280000000001 -2.654769
360 -5.86764549 9.70207038 -0.55849311 -0.454275 -2.229626 -2.532002
380 -5.7464037 12.22133724 0.95516046 -0.473688 -2.960341 -2.265214
400 -4.796471970000001 18.217268100000002 3.70673793 -0.4646270000000001 -3.346624 -1.577789
420 0.3412899 22.522759380000004 -2.39681844 -0.283315 -3.4774830000000003 -0.979219
440 3.67006815 21.72178269 -2.39261976 0.21141 -3.4093440000000004 -0.5998359999999999
460 3.3025855500000003 19.52913978 1.9862208900000002 0.918519 -2.973817 -0.105141
480 0.29683098 15.000304230000001 3.8962475100000002 1.962618 -2.262671 0.701339
500 -2.51970831 11.243417580000001 1.63175616 2.826085 -1.152469 1.503909
520 -5.276082870000001 8.564738220000002 -0.97312257 1.228121 -0.115851 1.530943
540 -4.68585441 5.168447550000001 -1.40572395 -1.11116 -1.419717 0.356185
560 -2.7399035700000005 4.23035649 -2.21763879 -0.5761310000000001 -2.794269 -1.616663
580 0.31494024000000004 1.1229605100000002 -2.40175287 -0.26126900000000003 -0.832202 -1.580659
600 2.1254346 -1.4956914600000002 -2.5445570400000004 -0.098289 0.71267 -0.447048
620 1.78922628 -0.31584275999999994 -1.4991347700000002 0.382674 3.521715 0.7544609999999999
640 1.8503033400000002 0.21345579 -1.2603789900000002 0.300479 3.149984 1.34509
660 1.12371588 -0.7994855700000001 -0.1038879 0.428032 1.504046 0.990236
680 0.31883481 0.00808344 2.1306731400000003 0.68818 2.019371 0.8322280000000001
700 -3.0103947 2.8175889600000006 6.02855892 0.974219 2.425061 1.693625
720 -10.69017282 16.201705500000003 11.35179846 2.201185 1.888026 3.059525
740 -13.67585613 38.5861635 13.943806470000002 2.524992 1.200288 3.203673
760 -6.012097740000001 22.177731870000002 12.91214763 2.49616 0.03922 3.474152
780 -0.7369173900000001 -3.04931097 4.10312079 2.215425 0.055547000000000006 2.566318
800 2.5864751700000004 5.952217500000001 5.35286574 1.200751 0.6501819999999999 1.263783
820 -1.03389552 26.30180682 -0.26779338 0.792817 0.825779 0.330287
840 7.055126370000001 20.020866030000004 -4.55502825 1.089778 1.616146 0.089931
860 -2.58676947 3.9881574000000004 -2.9195246700000004 1.733454 1.55831 0.674545
880 -0.06795387 3.63279996 0.14579622 1.193812 0.871258 1.128855
900 -0.40940073 7.02010467 -7.94771865 0.63765 1.605628 0.97982
920 -0.20297871000000003 15.0098886 -7.81315488 0.524478 2.109597 0.7882399999999999
940 -1.52786826 14.11968996 -3.7470079800000002 0.288021 1.329136 0.63056
960 -4.08456027 10.17704115 -0.7894597500000001 0.26915300000000003 0.954125 0.6554770000000001
980 -7.08192729 9.1476288 3.85628157 0.138095 0.499669 0.398771
1000 -2.5972465500000004 4.61819484 1.45467585 -0.034803 -0.239087 0.14640999999999998
1020 1.5769673100000001 3.4968824100000004 -1.71677943 0.679862 -0.647115 -0.465508
1040 3.72440574 5.09375421 -1.6706724300000002 -0.972686 -0.382545 -0.4602979999999999
1060 3.80808504 8.446488480000001 -0.5322906000000001 -1.7060240000000002 -0.098551 -1.046897
1080 -0.60803361 8.82160326 1.3994357400000002 -2.169776 0.868851 -2.540478
1100 -4.601429550000001 7.421117850000001 0.51223896 -2.71023 2.093494 -3.5627690000000003
1120 -6.15385224 8.55875412 -1.4949459 -2.274984 0.075956 -3.4310940000000003
1140 -5.08762296 9.832150980000002 -1.5423968700000001 -2.009429 -0.682801 -2.2607
1160 -4.15251414 9.751473540000001 -0.22572810000000001 -2.051869 0.401684 -1.7005009999999998
1180 -6.51161313 10.23182019 -0.14250006 -1.988748 0.881819 -2.211286
1200 -10.73686842 8.92982718 -3.6854894700000003 -1.415554 0.083477 -2.595092
1220 -10.33376571 12.456492750000002 -1.45003572 -1.161324 -0.777166 -2.574053
1240 -4.8705669 12.419371710000002 4.6328706 -0.888942 -1.524332 -2.441938
1260 -4.84557102 9.5381649 -2.6690949900000005 -0.5426300000000001 -2.739159 -2.372801
1280 -4.33963008 10.71651267 2.86503993 -0.371118 -3.002895 -2.102073
1300 -4.78675026 14.69703789 2.75996502 -0.377826 -2.990195 -1.543456
1320 -2.49021945 21.69468747 -2.5361793000000006 -0.098295 -3.035396 -0.8727389999999999
1340 0.59681097 22.98694896 -2.9026122300000003 0.396703 -3.134434 -0.245313
1360 0.37795968 20.710038150000003 -0.01406754 1.255176 -2.817216 0.400142
1380 -0.45489951000000006 17.745299190000004 3.9330742499999998 2.6399220000000003 -1.736795 1.2715530000000002
1400 -2.67389208 13.00061421 2.85501411 2.561967 0.032512 1.634074
1420 -2.8358551800000003 8.40202956 -0.8674492500000001 0.129948 -0.7711180000000001 1.182281
1440 -1.90628901 3.68069238 -1.6919307000000001 -0.71701 -3.177363 -0.79783
1460 -1.3189054500000001 3.59148024 -2.2162948200000003 -0.028518 -1.2951290000000002 -1.366932
1480 -0.08532738000000001 2.30610537 -2.28035412 0.065692 -0.311835 -0.927426
1500 2.05732377 -0.21780162 -2.3683792500000003 0.15093800000000002 2.061647 0.050755
1520 1.78338933 -0.31194819 -1.39450131 -0.418232 4.158206 1.317414
1540 1.6245752400000002 -0.23860863000000002 -0.9710330400000001 0.14894300000000002 1.374792 0.5227069999999999
1560 1.1021535 -2.13575472 0.6717986100000001 0.781763 2.705979 0.8747299999999999
1580 -0.7396151400000001 -1.9719963900000002 2.8225332 0.275397 2.907786 1.461662
1600 -5.83112286 2.5468035300000005 6.11837928 1.225857 2.33134 3.066031
1620 -13.342953779999998 15.589335870000001 8.98087842 2.005622 1.438878 3.395224
1640 -14.260247640000003 36.181114470000004 11.81717505 2.256214 0.229957 3.402797
1660 -5.36319567 19.980595980000004 9.82257642 2.279125 0.371225 2.954123
1680 -0.8628091200000001 1.2087391500000002 4.54844574 1.7826799999999998 0.957337 1.469348
1700 0.96908085 13.79650932 6.140235960000001 1.128028 0.90968 0.369909
1720 0.4713705 31.981443660000004 -0.9017253900000001 0.988918 1.148301 0.224422
1740 3.5500133700000003 13.16047797 -3.3015358800000003 1.472948 1.3754959999999998 0.530887
1760 -0.31749084 -0.7186511700000001 -3.06292725 1.819512 0.684077 1.308654
1780 1.71244341 1.9110762900000002 -0.01406754 0.973953 0.33658000000000005 1.562771
1800 0.45370269 6.95783079 -8.14321233 0.6340020000000001 1.379574 1.568674
1820 -0.18516375000000002 15.451770240000002 -7.0680069 0.213955 1.457481 1.098827
1840 -2.7643010400000003 13.815668250000002 -3.01683006 0.10641 1.269076 0.622959
1860 -6.6503657700000005 11.17381563 -0.20956122 0.324489 0.72558 0.219254
1880 -8.65964016 9.858794940000001 3.06517374 0.121956 0.037115 0.202698
1900 -4.08275523 4.47194736 0.98270694 0.481887 -0.583195 -0.029002
1920 1.4642504099999998 3.35183175 -1.2742993800000002 -0.431959 -0.25939 -0.292173
1940 3.43430442 4.94212104 -1.5037749000000002 -0.952675 -0.390491 -0.887437
1960 3.42263052 8.0053524 -1.06158915 -1.3017729999999998 -0.263984 -2.382344
1980 0.94094577 9.98827713 1.80015462 -2.206649 0.485205 -3.269839
2000 -4.14877653 8.3958885 2.1375597600000003 -2.286492 0.590677 -3.203234
2020 -6.800056560000001 8.57671623 -0.83556675 -2.017479 -0.8234549999999999 -2.51054
2040 -5.506902360000001 7.625587680000001 -1.8197648100000001 -1.990779 0.443097 -1.7204240000000002
2060 -5.60764125 9.07802685 -1.3233984300000001 -1.97314 1.130856 -1.6335879999999998
2080 -5.07504654 9.687708540000001 -1.3477959000000002 -1.630629 0.607907 -1.689277
2100 -9.2893833 9.906098759999999 -3.53056014 -1.307302 0.118775 -2.192729
2120 -9.57559005 11.635905870000002 0.45654759 -0.983623 -0.43996 -2.606359
2140 -7.328158290000001 11.230242750000002 -1.09676781 -0.34922 -1.195502 -2.558231
2160 -6.392902320000001 11.355231960000001 -0.40864536 -0.136491 -2.313511 -2.342736
2180 -6.63825042 14.58162324 0.95591583 -0.2944 -2.737998 -1.813457
2200 -5.12744175 17.87043555 2.7351162900000006 -0.261933 -2.9812950000000003 -1.206168
2220 0.3614985 21.36193227 -1.5364029600000002 0.179724 -3.036753 -0.774655
2240 4.28917725 20.35017792 -1.6416348300000003 0.811053 -3.029418 -0.22653
2260 4.655021580000001 18.52488027 1.49988033 1.590767 -2.622523 0.704544
2280 1.70151507 14.093046000000001 3.0825374400000003 2.311358 -1.995348 1.478961
2300 -2.2788630000000003 11.0738223 1.6706724300000002 1.7333009999999998 -0.467987 1.774205
2320 -4.69438911 8.668322009999999 -0.41119596 -0.4689640000000001 -0.92323 1.113131
2340 -4.13933931 5.97003246 -1.4331232800000002 -0.6368159999999999 -3.403586 -1.303317
2360 -2.51806023 4.95185256 -1.02177036 -0.08860499999999999 -1.341175 -2.053091
2380 0.20731473 1.9561336200000001 -1.67382144 -0.331506 0.7338060000000001 -1.000975
2400 1.04752161 -0.22812174000000002 -1.8067469400000002 -0.129232 2.852274 0.511394
2420 0.60219666 -0.1995354 -1.24017039 -0.5945560000000001 3.86404 2.039745
2440 0.95381649 0.057633750000000004 -1.6992685800000003 -0.912572 0.8116399999999999 1.613078
2460 0.11645451 -0.30297204000000005 -1.27116018 0.142354 2.452409 1.170759
2480 0.44981793 0.8102667600000001 1.04826717 0.763454 3.465567 1.676932
2500 -1.1373321599999997 1.75659822 4.797227340000001 2.103071 2.679475 2.8911830000000003
2520 -6.52298292 10.89524106 10.07030835 2.931573 0.6814100000000001 3.13988
2540 -11.906387190000002 31.45034988 9.81014715 2.911018 -0.366498 3.342973
2560 -9.61345665 31.72008564 12.596010569999999 2.2776240000000003 0.617729 2.583123
2580 -6.69123423 4.85740188 5.958505710000001 1.467586 0.368191 0.956224
2600 5.91195726 0.5951628900000002 6.09038154 0.923272 0.608082 0.046262
2620 1.5501762000000001 22.6916091 5.08971249 1.009651 1.109494 0.320756
2640 8.14440915 24.687414360000002 -5.331460320000001 2.055162 1.017982 0.720214
2660 -1.61589339 3.31096329 -0.56462436 1.742977 -0.18075 1.330592
2680 -1.20424617 1.84461354 -1.9217005200000001 0.858928 0.63402 1.3393959999999998
2700 -0.7994855700000001 7.23356046 -8.15234544 0.490916 1.884564 1.148284
2720 -1.5852077100000002 13.99155174 -9.02173707 0.073104 1.456673 0.624622
2740 -3.84565734 12.808710990000002 -5.71062663 0.294894 1.243483 0.200224
2760 -5.845494510000001 11.05346655 -0.7093709100000001 0.239477 0.857634 0.036893
2780 -8.92144944 11.22665229 5.219498790000001 -0.255483 0.113971 0.224532
2800 -4.099824629999999 6.12870921 3.02730714 0.742105 -0.32340100000000005 -0.220865
2820 1.75390047 2.82088512 -0.75607632 -0.440802 -0.196191 -0.637351
2840 4.33138968 3.35063493 -2.6676038699999998 -1.623029 -0.188162 -1.0867950000000002
2860 4.31911737 6.61235202 -1.85045049 -1.7934009999999998 0.256522 -2.385377
2880 1.7371351800000001 9.42589926 2.5414178400000003 -3.065456 1.396005 -3.321871
2900 -3.4566123600000003 9.01769535 3.2358186900000003 -2.675942 0.6205350000000001 -3.40575
2920 -6.28018542 8.06552694 -1.2331366200000002 -2.187728 -1.086322 -2.1610150000000004
2940 -5.803733340000001 8.01089505 -2.16599895 -1.739541 0.25840100000000005 -1.30503
2960 -4.85140797 9.4832289 -0.53408583 -2.022239 0.77685 -1.507427
2980 -3.09137625 10.35412146 -0.72194733 -1.376396 0.067361 -2.062823
3000 -6.46385805 9.902802600000001 -3.5750190600000002 -1.0336 -0.405577 -2.370675
3020 -13.257479250000001 13.91266953 -4.0302226800000005 -0.607686 -0.866051 -2.404498
3040 -8.139621870000001 13.06528173 6.343361820000001 -0.233897 -2.046303 -2.480491
3060 -7.155865260000001 9.59056011 -2.63572137 -0.138653 -2.751506 -2.299461
3080 -5.7637674 10.28391129 1.1091970800000002 -0.296001 -2.977086 -1.695657
3100 -5.764365810000001 13.27244931 3.5423811900000004 -0.09995 -3.01162 -0.956102
3120 -2.92910904 20.90178441 0.29429019 0.363781 -3.009095 -0.39205
3140 1.19107134 23.60770614 -5.28655995 0.964953 -2.766476 0.21752
3160 2.4343907400000004 18.94311 -1.3817777400000002 1.943323 -2.047301 0.938073
3180 0.5364892800000001 15.987504150000001 3.84341085 2.203322 -0.384321 1.490029
3200 -1.70764632 13.110633360000001 3.07820142 0.351864 0.281254 1.2861
3220 -3.2042403000000004 9.728115930000001 0.30462012 -0.907564 -2.18652 -0.134929
3240 -3.0320944200000004 5.773194810000001 -1.0267146 0.061869000000000014 -2.526037 -1.58264
3260 -2.1519216 3.99309183 -1.6078099500000003 -0.115083 -1.019316 -1.534533
3280 -0.68587596 2.8243284300000004 -2.18320569 -0.107074 0.728175 -0.8530540000000001
3300 1.0910780100000002 0.023347800000000002 -2.90275938 0.750269 3.854958 0.483137
3320 1.39165641 -0.9497747700000001 -1.7595902700000001 0.5386340000000001 3.49017 2.112233
3340 1.37668635 -0.14594337000000002 -1.0870362900000001 -0.601742 -0.285646 1.623065
3360 1.2593293200000002 -0.49651353 -0.13053186 -0.382163 1.894589 0.996895
3380 -0.6692578200000001 -0.32751666 2.1977343 0.476263 2.82682 1.555035
3400 -3.0067944300000002 1.8540409500000001 6.29995257 1.717589 2.434361 2.717889
3420 -10.26790137 10.45575306 9.72048375 2.846946 1.507376 2.853015
3440 -13.35103722 27.69301197 7.74384723 2.947168 0.8049109999999999 2.878117
3460 -8.880580980000001 29.33868852 11.924055000000001 2.671393 1.057491 2.2915490000000003
3480 -5.54222817 7.10092926 6.478082550000001 1.672922 0.696829 1.177291
3500 -0.9322639200000001 -0.43843833 7.4961153000000005 1.139256 0.13509200000000002 0.6594
3520 -0.66282246 14.120435520000001 4.62343338 0.8721770000000001 0.975471 0.389402
3540 5.65688745 24.59864367 -8.94719088 1.526548 0.989659 0.8020149999999999
3560 7.988891220000001 14.619352500000002 5.3245737 1.239505 0.593172 1.367744
3580 -3.6389312100000004 4.782855690000001 0.97956774 0.690481 0.929563 1.369888
3600 -1.53775674 7.0105203000000005 -4.52448972 0.681708 1.51685 1.297503
3620 -1.32115194 8.49752991 -9.265878540000001 0.455363 1.313668 0.890258
3640 -1.7368408800000001 12.26519775 -6.78104478 0.172519 1.470294 0.5953890000000001
3660 -3.02895522 11.726167680000001 -4.2514578 0.063042 1.013859 0.28222
3680 -6.04323468 10.92832038 -0.24100227 -0.046338 0.240488 0.10619
3700 -7.7884533000000005 7.809711570000001 4.55652918 0.58816 -0.5703600000000001 -0.400017
3720 -1.50347079 4.627926360000002 1.01982798 -0.68248 -0.541632 -0.621505
3740 1.38462264 3.94444404 -0.9710330400000001 -1.663599 -0.228364 -1.12121
3760 3.4236801900000002 6.08978313 -2.17004067 -1.935237 0.660032 -2.471274
3780 3.1368750300000006 9.381587490000001 0.11406087000000001 -2.90893 2.09077 -3.508606
3800 -1.8625756500000001 8.54782578 1.31112612 -2.168667 0.307396 -3.591949
3820 -4.69244673 7.3688796000000005 -0.71506071 -1.944467 -0.875066 -2.188429
3840 -5.73487695 9.03041892 -1.17789651 -2.02845 0.581925 -1.507221
3860 -5.630243490000001 9.55911906 -0.23186916000000002 -2.074717 0.871065 -1.845472
3880 -5.0331382200000006 9.69024933 -0.66566736 -1.545886 0.054178 -2.348137
3900 -5.952521610000001 10.48150431 -2.00568393 -1.315369 -0.7642680000000001 -2.469392
3920 -11.841729480000001 10.375968330000001 -3.90882393 -0.99209 -1.177892 -2.40892
3940 -10.49781834 12.46817646 2.3652302400000003 -0.490217 -2.44437 -2.345039
3960 -7.65463509 11.3080851 1.22924205 -0.349026 -3.102985 -2.132769
3980 -4.98762963 8.31805596 -1.13164236 -0.294852 -3.2866120000000003 -1.5478379999999998
4000 -4.621186890000001 12.301867529999999 3.18986865 -0.104684 -3.236844 -0.839411
4020 -3.70374588 18.37159902 1.8362358000000003 0.316674 -3.164936 -0.273607
4040 -0.84619098 23.80888962 -3.65390127 1.263176 -2.64807 0.4512560000000001
4060 2.4673229100000005 20.50869771 -1.4199484500000001 2.663292 -1.66694 1.364562
4080 0.56627244 18.301388850000002 0.9442321200000001 2.302595 -0.15449100000000002 1.4712
4100 -2.0284333200000004 15.69112443 3.4320677400000004 0.13389 -1.282608 1.218215
4120 -4.44470499 11.01020445 1.39031244 -0.4099100000000001 -2.946325 -0.7660710000000001
4140 -3.3841655100000003 6.424039260000001 -1.05605631 0.101889 -1.349473 -1.475978
4160 -2.21673627 3.3434442000000004 -1.37144781 -0.05637200000000001 -0.519759 -1.039108
4180 -0.905463 3.29615019 -1.94999256 0.15903399999999998 1.9147 -0.23742
4200 0.7071342300000001 1.37443986 -2.77582779 1.174911 5.30781 1.225588
4220 1.58669883 -0.18022932 -2.0872638900000005 -0.423663 0.8209049999999999 1.802352
4240 1.3304322000000002 0.15148602000000003 -1.6919307000000001 -0.64222 0.929698 1.159753
4260 1.8378740700000002 -1.00485792 -0.84573972 -0.08884600000000001 2.536142 0.944711
4280 1.08255312 -2.6596675800000003 1.42114527 1.124324 2.587751 2.169823
4300 -1.94520528 -0.16076628 4.25580363 2.342241 1.613999 2.733985
4320 -10.40726223 8.72925192 9.56600568 2.556133 0.4122520000000001 2.843842
4340 -14.18539734 27.429564420000002 6.90169797 3.014263 -0.130906 2.680027
4360 -7.79713515 31.998208950000002 14.85780417 2.8314220000000003 1.64323 1.927653
4380 -2.19458529 8.647220700000002 6.60980142 1.038278 0.916458 0.8830879999999999
4400 0.28590264 -0.61582275 5.66766864 0.731004 0.466481 0.192515
4420 -1.5646950000000002 13.250445480000002 3.64237452 1.297775 1.514697 0.23786
4440 3.5417827800000006 23.72611284 -7.43998248 1.798685 0.730119 1.00187
4460 6.92534988 18.56410065 4.71040884 1.085568 0.689876 1.293906
4480 -3.9013389000000003 4.71354804 -0.54756477 0.744207 1.347534 1.227654
4500 -0.51477975 6.366258360000002 -4.850368110000002 0.234635 1.5266309999999998 0.8382370000000001
4520 -0.27018702 7.04091168 -9.75865446 -0.070628 1.492342 0.35438000000000003
4540 -1.2832853400000002 12.02629482 -7.6175140500000005 0.016906 1.18556 0.2742
4560 -2.92537143 12.375364050000002 -3.8553790500000003 -0.016367 0.268166 0.350987
4580 -5.5556973 11.26677519 -0.61327215 1.055777 -0.660605 -0.082578
4600 -7.92286992 7.00602732 7.297619760000001 -0.212605 -0.449499 -0.625819
4620 -2.38170123 4.22795304 1.5892494300000002 -1.435743 -0.330251 -0.881275
4640 0.63962181 4.065989940000001 -1.0816506000000001 -1.59528 -0.029644 -2.12298
4660 3.6158777100000004 6.69123423 -2.54246751 -2.699416 1.166923 -3.094694
4680 2.9069580600000005 7.97616765 0.66147849 -2.543945 1.548815 -3.360084
4700 -2.42181432 8.12435751 1.7329463100000002 -2.078727 -0.331543 -2.39623
4720 -5.98440411 9.26797788 0.79589511 -2.15807 0.17458900000000002 -1.561015
4740 -6.794072460000001 9.72932256 -0.72105462 -2.273642 0.96257 -1.646153
4760 -4.8270105 9.22052691 -0.7866148500000001 -1.917358 0.48383 -2.113069
4780 -2.70921789 8.947494990000001 -1.4202427499999999 -1.561394 -0.8913059999999999 -2.454924
4800 -6.340212810000001 8.884328400000001 -4.04069976 -1.172296 -0.954477 -2.445716
4820 -14.04050364 11.38801698 -4.11584436 -0.532315 -1.677991 -2.420022
4840 -8.28931266 13.79605806 6.489609300000001 -0.227589 -2.5765830000000003 -2.276805
4860 -6.57268038 10.836567450000002 -3.63579201 -0.24193 -2.943734 -1.824577
4880 -6.01314741 12.595108050000002 1.4379105600000002 -0.188631 -3.05716 -1.211968
4900 -5.4545071499999995 14.35604229 2.23529679 0.154345 -2.910203 -0.698083
4920 -3.2708502 20.86481052 1.7866854900000002 0.8340540000000001 -2.58982 -0.15643
4940 1.21098564 20.988004500000002 -2.72627748 1.955655 -1.843208 0.771255
4960 3.2947964100000005 17.937045450000003 -0.98255979 2.591421 -0.775061 1.632109
4980 0.7116174 16.394952690000004 1.7592959700000002 0.8715799999999999 0.014542 1.466329
5000 -2.9494647900000004 13.29220665 3.11412564 -0.6726810000000001 -2.012964 0.480717
5020 -4.2888829500000005 9.42859701 0.48170043 -0.156255 -2.427034 -1.377056
5040 -3.16023264 5.56108299 -1.52652429 -0.157048 -0.770262 -1.443278
5060 -2.02379319 4.03410744 -1.43611533 -0.054725 0.010194 -0.635987
5080 -1.02925539 3.5354945700000004 -1.7335447199999998 0.831974 3.3981550000000005 0.362516
5100 0.70099317 1.0659349800000002 -2.5352767800000002 1.1676959999999998 4.813336 2.342463
5120 1.3973462100000003 -0.14744430000000003 -1.67441985 -0.929866 -1.2326979999999998 2.710505
5140 1.4012407800000002 0.21675195 -1.2772914300000002 -0.5121939999999999 0.64807 1.146067
5160 1.3980917700000002 -0.50370426 -0.30985866000000006 0.314771 2.173345 0.746101
5180 0.27557271000000005 -1.48565583 1.45213506 1.1365040000000002 2.869896 1.399359
5200 -1.32504651 0.5396284800000001 4.13574885 2.093944 2.1080490000000003 2.210326
5220 -9.580681440000001 8.6964669 8.11492029 2.387978 0.40673 2.506184
5240 -14.041396350000001 25.194856230000003 6.012401850000001 2.88793 -0.258289 2.411184
5260 -9.55897191 34.04774358 14.26398525 2.841374 1.142932 1.823678
5280 -5.06038059 10.48913649 7.828419240000001 0.965069 1.241633 0.880024
5300 -1.50557013 -1.02805857 5.123400030000001 0.659709 0.832832 0.28021
5320 -0.19878984000000002 1.24196562 3.4251811200000004 1.264171 1.586488 0.428745
5340 1.9315791900000001 16.20605133 -3.32488368 1.743427 0.3563 1.292519
5360 10.40681097 24.383843910000003 -3.7723079700000004 1.129972 0.140087 1.548089
5380 -4.58167221 15.218998560000001 5.887854090000001 0.8181689999999999 1.000966 1.518103
5400 -6.3626679 4.59095247 -4.313878830000001 0.352247 1.216963 1.186627
5420 -1.76273928 5.519321820000001 -5.799544470000001 -0.001008 1.768204 0.571362
5440 0.06646275 8.749303560000001 -7.450606710000001 0.17511 1.726068 0.034263
5460 -0.6652161000000001 11.2910157 -5.218449120000001 0.041326 0.8703620000000001 0.222432
5480 -2.7149076900000004 11.157197490000001 -2.2129986600000002 0.5052 -0.323472 0.26779400000000003
5500 -6.374341800000001 11.234137320000002 2.8922823000000006 -0.26463000000000003 -0.088242 -0.08078400000000001
5520 -5.96254743 7.073843850000001 5.75088687 -0.873607 -0.558081 -0.6046600000000001
5540 -1.6015217400000001 5.08672044 -0.19623924 -0.996494 -0.790623 -1.7503540000000002
5560 1.8574842599999999 4.64409324 -2.04833781 -1.958487 0.213628 -2.9697240000000003
5580 4.53048363 6.905886840000001 -2.3623853400000003 -2.421582 1.7218830000000005 -3.589119
5600 1.7794947600000002 8.77220991 1.5947822700000003 -2.344677 0.732541 -2.932494
5620 -3.5551047600000003 8.67670956 1.8375797700000003 -2.256969 -0.7135739999999999 -1.810532
5640 -5.37546798 8.9165052 0.5161237200000001 -2.309342 0.5943039999999999 -1.429082
5660 -5.210218530000001 8.283171600000001 0.03307932 -2.339977 1.245811 -1.558317
5680 -5.357505870000001 9.45209196 -1.6762150800000002 -1.799373 0.513798 -1.984097
5700 -4.284694080000001 11.841729480000001 -1.48969755 -1.054561 -0.391484 -2.6795560000000003
5720 -8.116872480000001 12.00338847 -3.38625504 -0.596122 -0.741373 -2.956848
5740 -12.56741442 13.56119685 0.40461345 -0.369837 -2.425958 -2.524751
5760 -9.64848816 12.894332670000002 0.9499219200000001 -0.329805 -3.088074 -1.88269
5780 -7.01097156 12.97067409 -2.84947146 -0.34825500000000004 -3.24499 -1.254503
5800 -4.75860537 9.998155800000001 -1.6384956300000002 0.028683 -3.18213 -0.785138
5820 -6.118075170000001 13.12859547 2.8111536 0.548866 -2.850129 -0.346095
5840 -2.91099978 18.36995094 3.44283912 1.261115 -2.048857 0.32121900000000003
5860 1.7193202200000002 20.04017211 -1.60257141 2.269578 -1.142854 1.180611
5880 5.50913904 17.507740230000003 -2.0231947800000003 2.768637 0.164146 1.836174
5900 3.94400259 15.144158070000001 1.59612624 0.7556470000000001 0.473618 1.847354
5920 -1.04991525 12.572652960000001 3.3733843200000004 -1.164459 -2.846948 0.342687
5940 -4.01958864 9.97585767 -0.78212187 -0.179214 -3.341816000000001 -1.695442
5960 -5.9302136700000005 7.26439329 -1.445994 -0.17059100000000002 -1.004405 -1.751788
5980 -4.29053103 4.321216710000001 -1.68279759 0.119743 1.667786 -0.526866
6000 -2.7533727 1.5985296900000001 -1.70016129 0.291969 4.37261 0.898016
6020 0.18126918000000003 -0.7634142 -2.5176187800000003 0.26626700000000003 1.177335 1.048277
6040 1.21082868 -0.56911734 -1.1054496600000001 0.17479 1.89704 1.232586
6060 1.58700294 0.67329954 -0.66686418 0.368245 2.687753 0.995779
6080 1.08299457 0.78302439 -0.24294465 0.971732 1.823601 2.122735
6100 0.020355750000000002 0.38036313000000005 1.2448105200000001 1.641896 1.25337 2.949609
6120 -1.6866921599999998 0.8677435499999999 3.97034244 1.856422 0.495578 3.125131
6140 -7.665857730000001 5.00305095 7.1693442 2.089584 -0.009535 2.966105
6160 -13.21272603 18.489250350000002 6.008958540000001 2.420055 0.922954 2.054957
6180 -12.61950552 38.51774856 12.14903754 1.597906 0.886493 0.965016
6200 -7.68965679 17.75682594 9.76300029 0.951804 0.679887 0.179897
6220 -2.49426117 0.7478457300000001 5.5283077800000004 1.255468 1.417669 0.296441
6240 1.41949719 10.51652601 3.16935594 1.75912 0.807629 1.0997709999999998
6260 5.026094639999999 24.496855110000002 -6.014942639999999 1.377071 0.273385 1.299681
6280 7.24014297 10.93476555 1.12656078 0.608848 1.035238 1.121355
6300 -1.02237858 4.336785180000001 -2.15896518 0.299794 1.987794 0.8071229999999999
6320 -0.19683765 7.5537392400000005 -3.1931550000000004 0.14457 1.306809 0.477899
6340 -1.14871176 8.733440790000001 -8.87100642 0.16611800000000002 0.934728 0.5340739999999999
6360 -1.9529846100000001 13.539948390000001 -5.954915250000001 0.16019 0.656235 0.386974
6380 -3.35661903 11.681404650000001 -2.3622381900000002 0.135542 0.401582 0.155324
6400 -5.44716927 10.14291216 -0.47795301 0.6723319999999999 -0.360674 -0.16362100000000002
6420 -6.8196667500000006 7.60822398 2.33020854 -0.5434859999999999 -0.239462 -0.383776
6440 -2.9228208300000005 4.347409410000001 1.65196476 -1.497955 -0.068372 -0.7827
6460 0.5203224 4.328996040000001 -0.49098069000000005 -1.846106 0.18004 -2.128205
6480 2.5970994000000003 5.9823145800000015 -1.9333842300000001 -2.582543 1.123535 -3.267942
6500 2.95335936 8.245305 0.26929431000000004 -2.297684 1.106522 -3.522304
6520 -1.23672708 9.22801194 1.49823225 -1.88503 -0.6529550000000001 -2.373101
6540 -4.54364865 9.808803180000002 2.54725479 -2.04412 0.303343 -1.623409
6560 -6.69498165 9.6511761 -0.34906923 -2.168982 0.987655 -1.8826
6580 -4.64543721 8.215364880000001 -2.08306521 -1.610896 0.83716 -2.292979
6600 -3.4935862500000003 6.9846219000000005 -0.69949224 -1.166203 -0.055478 -2.427598
6620 -5.0430168900000005 8.72939907 -0.74081196 -0.8052050000000001 -0.678976 -2.662491
6640 -7.933651110000001 9.88634142 -3.4302627 -0.130295 -2.031816 -2.72975
6660 -10.553205600000002 12.32761878 -3.4009308000000007 0.000224 -3.071079 -2.421995
6680 -7.65208449 11.97344835 3.94968258 -0.26100500000000004 -3.524656 -1.7214169999999998
6700 -6.69153834 9.46811169 -0.9469298700000001 -0.244114 -3.629587 -1.070617
6720 -5.9222871900000005 10.21461345 2.28799611 0.208339 -3.487732 -0.7076479999999999
6740 -6.551873370000001 14.1397416 0.90007731 0.967221 -3.101642 -0.149503
6760 -3.9353207400000003 21.346805250000003 1.7004654000000003 2.086072 -2.273982 0.758831
6780 1.57531923 22.112917200000002 -2.80337427 2.884331 -1.031042 1.7231459999999998
6800 3.4979222700000006 18.475781220000002 -0.01466595 1.112308 0.153411 1.694295
6820 0.6650689500000001 17.07529581 2.15207856 -0.43135 -1.576477 0.872813
6840 -1.14452289 14.82756975 3.76377327 -0.06016000000000001 -2.870582 -1.3619290000000002
6860 -3.2013954000000004 10.88042796 0.94707702 -0.052265 -0.928512 -1.652783
6880 -3.8487965400000004 7.0597665 -1.31770863 -0.24374 0.33715500000000004 -0.984899
6900 -3.4509225600000004 5.642221500000001 -1.0666805400000001 -0.004189 2.704554 0.314835
6920 -2.20341429 3.58534899 -1.61738451 -0.064724 4.157416 1.474776
6940 -0.19878984000000002 -0.13053186 -2.6765800200000003 -0.28838600000000003 1.246219 1.085975
6960 1.01099898 -1.3058875799999998 -1.78817661 0.568504 2.7758990000000003 1.15623
6980 1.8443192400000001 -0.48888135 -1.88907246 0.8863969999999999 3.3412269999999995 1.496352
7000 2.20341429 -1.34315577 -1.5138007199999999 1.774821 2.643902 3.013918
7020 1.95104223 -1.7606399400000001 0.25626663 2.201977 1.202696 3.148003
7040 1.01683593 -0.10837107 3.3202435500000003 2.265648 -0.234727 3.45046
7060 -6.127355430000001 6.16223979 8.0400798 2.440572 0.146259 3.128591
7080 -14.781011490000001 23.110142940000003 7.66375839 1.204481 1.342307 1.602617
7100 -12.972027870000002 37.26860202 12.572800110000001 0.620096 0.840274 0.31838
7120 -5.9619490200000005 13.973893740000001 8.63883315 0.889534 1.7211150000000002 0.120444
7140 2.1254346 2.6503873200000005 6.99210693 1.81549 1.342648 0.7223970000000001
7160 0.92463174 12.94971993 6.199812090000001 1.6468459999999998 0.06234600000000001 1.360588
7180 1.2461544900000001 25.2448578 -3.30198714 0.8426319999999999 0.801236 1.095514
7200 4.23260298 12.26864106 -0.68976072 0.5101720000000001 1.990426 0.76586
7220 -1.29510639 0.65174697 -2.44995921 0.227626 1.563983 0.295483
7240 0.30761217 2.49456528 -3.5404388100000004 0.358736 0.8708049999999999 0.102871
7260 -0.24983127000000002 8.785384740000001 -9.389229480000001 0.368415 0.6005020000000001 0.291292
7280 -0.69260562 19.30221486 -7.71825294 0.141559 0.545516 0.385918
7300 -2.9524568400000004 13.326934050000002 -2.86249914 0.434482 -0.292836 0.127324
7320 -6.08470155 9.23279922 0.49471830000000006 0.068596 -0.775332 -0.372405
7340 -8.10159831 7.963885530000001 5.8218426 -1.303869 -0.796646 -0.778275
7360 -3.1055909400000004 5.745805290000001 0.21510387 -1.289663 -0.453394 -2.1790540000000003
7380 0.56507562 2.96952624 -2.01136392 -2.367192 0.319791 -3.323092
7400 3.04347402 4.54844574 -3.20154255 -2.697207 1.851736 -3.855061
7420 2.64664971 9.32052024 0.0865242 -2.309969 0.148642 -2.930435
7440 -2.31194232 9.47095659 3.10933836 -2.139389 -0.356225 -1.500384
7460 -6.95109132 7.4760538500000004 2.69963352 -2.149637 0.69096 -1.496456
7480 -8.38751076 7.675442100000001 -1.70495838 -1.878009 0.930264 -1.635871
7500 -5.51992023 8.813068560000001 -2.1489295500000005 -1.333185 -0.247428 -2.499021
7520 -2.6818185600000004 10.28914983 -0.18097488 -1.083443 -1.3164280000000002 -3.115475
7540 -2.17168875 11.39640453 -0.03562992 -0.703471 -1.840244 -2.72118
7560 -9.05452209 10.869499620000003 -3.86211852 -0.6489779999999999 -3.030152 -2.503494
7580 -14.2982712 12.256663050000002 -2.0161610100000003 -0.618433 -3.2870470000000003 -1.95709
7600 -8.74631151 11.49250329 3.82140702 -0.519049 -3.3410300000000004 -1.331417
7620 -5.851635570000001 9.56286648 -2.6933453100000007 -0.033564 -3.287281 -0.8089390000000001
7640 -4.607266500000001 11.449241190000002 -1.9140683400000003 0.558322 -2.907478 -0.13231099999999998
7660 -5.323680990000001 14.78071719 2.5951570200000003 1.6672240000000005 -2.002749 0.692533
7680 -2.70802107 21.147868260000003 1.9158635700000002 2.703026 -0.442994 1.344044
7700 1.0479728700000002 22.56003738 -2.3553515700000003 1.356072 0.628026 1.341808
7720 3.9321717300000003 20.613036870000002 -1.01563911 0.117156 -1.338483 1.0867790000000002
7740 2.16435087 16.673831370000002 3.0576887100000003 0.286761 -2.820151 -0.156753
7760 -3.15468999 12.182715270000001 2.11090599 0.342289 -1.84611 -1.097648
7780 -6.46416216 9.9719631 -0.49382559000000004 0.168194 0.288082 -1.057802
7800 -4.946466870000001 6.13873503 -1.5471841500000003 -0.586737 2.988453 -0.112614
7820 -2.00597823 4.321363860000002 -2.2369448700000003 -1.79516 2.052516 0.29141
7840 0.42107463000000006 2.40175287 -2.55878154 0.09652 1.889322 0.8336030000000001
7860 2.1595635900000003 -0.8491830300000001 -2.8922823000000006 -0.249202 3.409617 1.894257
7880 2.47151178 -0.64426194 -1.5067669500000003 0.546981 3.472262 2.852592
7900 1.89072054 -0.5837832900000002 -0.50908995 2.048617 1.975882 3.863786
7920 1.2428681400000001 -2.33080695 1.0118916900000001 3.200368 -0.060674 3.602044
7940 -0.41344245 -2.4911219700000005 3.15364032 2.614159 -0.000826 3.529507
7960 -6.10879491 1.9754397000000001 6.04173375 1.457508 1.495756 2.435264
7980 -13.488298740000001 9.787692060000001 8.15533749 1.408642 0.446564 0.855299
8000 -14.4169722 22.591772730000006 5.56662564 1.133968 0.937677 0.023811
8020 -6.18169302 26.506129500000004 9.70491528 1.044639 1.592667 0.139852
8040 -2.63362203 15.70684005 7.92826542 1.6627470000000002 1.156501 1.051649
8060 0.023347800000000002 15.74979804 10.626702120000001 1.948025 0.202805 1.671228
8080 0.8911011600000001 29.30231304 4.265231040000001 1.416311 0.003761 1.55881
8100 2.5346783700000004 13.978828170000002 -2.14323975 0.74732 0.699499 1.311827
8120 2.80217745 -7.29058599 -1.9862208900000002 0.430053 1.254712 1.003388
8140 3.86331534 -2.0450514600000003 -1.01713023 0.369089 0.837814 0.617869
8160 0.45953963999999997 5.59072881 -12.7512342 0.40372 0.508269 0.415571
8180 -0.45625329000000003 18.805397220000003 -8.494989120000001 0.182972 0.541905 0.187522
8200 -4.584065850000002 18.739680030000002 -2.98988199 0.110513 -0.196004 -0.097253
8220 -9.2230677 11.94695154 2.83181346 1.139845 -0.388738 -0.476513
8240 -10.39543137 7.7594157 3.4024219200000005 0.319817 -0.703609 -0.4113350000000001
8260 -3.9881574000000004 5.407203330000001 0.6536893500000001 -1.497041 -0.7664340000000001 -0.973011
8280 1.07835444 3.7753000200000004 -0.7806307500000002 -1.50552 -0.30569 -2.431784
8300 3.8751462 3.7383261300000004 -0.9577110600000001 -2.534634 0.58875 -3.305378
8320 3.0726587700000003 5.18925456 -0.42736284 -2.748907 1.382843 -3.50124
8340 -0.66028167 8.587791720000002 0.93031173 -2.379865 -0.383793 -2.388653
8360 -3.3525773100000005 8.93806758 2.34353052 -2.170972 -0.6016729999999999 -1.364626
8380 -5.54297373 9.20017116 4.531376340000001 -2.011718 0.255946 -1.520573
8400 -6.59872593 8.77355388 0.4568517 -1.84786 -0.082308 -1.522199
8420 -5.174441460000001 7.57949049 -1.81512468 -1.3923020000000002 -1.133959 -1.860569
8440 -4.32690651 8.129144790000002 -0.91504737 -0.979096 -0.930771 -2.680474
8460 -4.88105379 9.154809720000001 -1.2871701 -0.558471 -1.7346240000000002 -2.353903
8480 -6.952592250000001 8.621018190000001 -4.072582260000001 -0.567577 -2.740389 -2.043961
8500 -8.50411242 12.752283870000001 -4.468209750000001 -0.5551689999999999 -2.929316 -1.429405
8520 -4.790791980000001 15.904580220000001 3.6158777100000004 -0.258396 -3.039145 -0.862102
8540 -7.75746351 13.06887219 -3.2401645200000004 0.203385 -2.86043 -0.400838
8560 -6.2818335 12.581481960000001 -3.44493846 0.7418899999999999 -2.526098 0.238087
8580 -5.520969900000001 13.368400920000001 1.5012243 1.606837 -1.897011 0.94194
8600 -3.9570204600000003 18.89326539 3.76212519 2.197288 -0.512245 1.517925
8620 -0.05478885000000001 20.09960109 -2.48348979 0.539274 0.939897 1.314339
8640 3.3277285800000005 18.27175284 -2.1517744500000004 -0.7687649999999999 -1.658639 0.13455599999999998
8660 4.18110048 16.48566576 0.93735531 0.176135 -2.983412 -1.588734
8680 -0.53708769 12.75901353 2.9921284800000003 0.14287 -1.113899 -1.81462
8700 -4.13665137 10.58853141 -0.17318574 0.29483400000000004 0.021263 -0.776702
8720 -6.2095338 7.525300050000001 -0.9979713 0.460405 2.452144 0.429499
8740 -3.58279839 4.589902800000001 -1.2573869400000002 1.523942 4.07886 1.6269790000000002
8760 -1.7302485600000002 2.44291563 -1.8497049300000001 -0.3875 -0.526874 2.620453
8780 0.57465018 -0.22498254 -2.10102732 -1.067226 0.251898 0.800867
8800 1.3515433200000002 -0.67165146 -1.91377404 0.385917 2.146164 0.555421
8820 1.7341431300000003 -0.06765957 -1.87709445 1.502077 3.5437199999999995 1.206632
8840 1.70869599 -0.4837899600000001 -1.2084350400000001 1.841126 2.048263 1.663843
8860 1.34570637 -0.52271604 1.20334365 2.207408 0.190784 2.586385
8880 -0.32901759 0.40311252 4.90126239 2.487531 -1.125706 2.5622540000000003
8900 -6.44544468 6.858141570000001 8.781784470000002 3.255802 0.202303 1.728433
8920 -12.501255780000001 24.261101190000005 8.36534997 1.523667 2.461974 0.778744
8940 -12.24783405 33.89416803 11.070526140000002 0.8551479999999999 0.975457 0.141456
8960 -7.48263636 10.41848487 5.75133813 0.958793 1.899045 0.319389
8980 -2.29816908 -2.37869937 6.193366920000001 1.90214 1.669344 0.999253
9000 2.71311246 1.61304849 7.6095777600000005 1.546308 -0.322237 1.98422
9020 0.69784416 13.918055220000001 -2.5144697700000003 1.095422 0.659625 1.923196
9040 11.532017970000002 19.328260410000002 -2.7544223700000003 0.613698 1.32126 1.517332
9060 -0.83915721 29.963340270000003 11.4583743 0.262639 1.524758 1.01576
9080 -10.42566579 5.45854887 -7.719744060000001 0.01615 1.844506 0.389787
9100 -2.93584851 1.35618345 -7.43803029 -0.148819 1.482463 -0.30311
9120 0.6197075100000001 7.162751879999999 -8.49573468 -0.130074 0.128802 -0.12926
9140 0.7240466700000001 9.417364560000001 -5.41573803 0.769489 -0.996272 -0.340521
9160 -1.62861696 13.20613371 -3.3611120100000003 -1.182381 -0.302981 -0.727852
9180 -5.785467120000001 14.506929900000001 0.74530494 -1.831742 -0.138494 -1.604268
9200 -7.58757393 8.24111613 7.391324880000001 -2.263927 0.5271899999999999 -3.064126
9220 -1.05350571 5.433248880000001 1.64388132 -2.953841 1.903989 -3.912469
9240 1.9251438300000001 5.898635280000001 -1.7807013900000002 -2.1962900000000003 0.352376 -3.0954770000000003
9260 3.0320944200000004 7.125336540000001 -3.96600642 -1.7682790000000002 -0.440422 -1.545754
9280 4.09458609 8.19455787 -1.83922785 -1.563344 0.477451 -1.35856
9300 -0.64950048 9.20046546 2.31014709 -1.7867529999999998 1.216818 -1.713581
9320 -5.6046492 7.887249810000001 1.14706368 -1.181869 -0.227631 -1.7213919999999998
9340 -5.73876171 7.46347743 0.18172044 -1.150791 -1.012758 -2.541631
9360 -6.2483029199999995 8.6070978 -0.01915893 -0.6289899999999999 -0.9434 -2.490005
9380 -6.527171790000001 9.45239607 -1.07146782 -0.357343 -2.453755 -2.244754
9400 -6.0273621 10.89928278 -2.3243617800000003 -0.561621 -3.224407 -1.953569
9420 -10.64406582 10.49482629 -5.44687497 -0.551959 -3.279232 -1.3060889999999998
9440 -11.535461279999998 11.647275660000002 2.00777346 -0.146263 -3.174074 -0.783166
9460 -7.32262545 10.786418730000001 -0.5860297800000001 0.37574 -3.159491 -0.35438600000000003
9480 -5.15737206 9.87421626 -1.8043434900000002 1.039945 -2.621103 0.29477
9500 -5.84923212 13.99125744 2.1844123200000003 2.070138 -1.631005 1.151002
9520 -5.34583197 22.529204550000003 4.7265757200000005 2.390435 0.064197 1.850752
9540 0.12453795000000001 23.480019180000003 -4.3188230700000005 0.356314 0.7715850000000001 1.738429
9560 2.8527676200000003 19.38977892 -2.6818185600000004 -1.318306 -3.183271 -0.664222
9580 2.8497755700000003 17.07843501 2.5207579800000004 0.108425 -2.466394 -2.151754
9600 -1.5667943400000004 13.62496185 4.54096071 -0.522046 0.589388 -1.482821
9620 -5.09121342 10.89210186 -0.08457201 -0.017657 2.317801 0.074887
9640 -5.93126334 6.63510141 -0.43948800000000005 -1.023728 3.804364 1.086106
9660 -3.35587347 3.65270445 -1.31127327 0.132221 1.275535 0.5836060000000001
9680 -1.53715833 3.2606674200000003 -2.67418638 0.539176 2.504979 1.000412
9700 1.14407163 0.20956122 -3.5968659300000003 0.246129 3.13336 1.553035
9720 2.8142928000000005 -1.60541631 -2.1472814700000002 1.314306 2.26622 3.024003
9740 3.28431933 -0.14041053 -1.2775955399999999 2.208345 1.061749 3.491127
9760 2.4960564 -0.10238697000000001 -0.22812174000000002 2.465044 -0.493235 3.455389
9780 0.6197075100000001 -0.08906499000000001 1.26831528 2.200674 0.202291 2.911062
9800 -1.6872905700000003 0.47002653 3.6950640300000006 1.585602 0.958286 1.402809
9820 -6.715190250000001 4.68645282 7.50973158 1.203164 0.385906 0.219418
9840 -13.18832856 19.752778350000003 6.730748909999999 0.873718 1.142248 -0.026339
9860 -15.075448830000001 40.486605749999995 10.897634700000001 1.543319 1.532133 0.459606
9880 -7.80956442 14.972767560000001 10.008789839999999 1.926239 0.415415 1.269152
9900 2.39771115 3.44642958 7.86569724 1.459191 0.025016 1.534513
9920 0.9985697100000002 18.95808006 8.382566520000001 0.795693 0.5555770000000001 1.563382
9940 3.44943144 29.805723 -8.458613640000001 0.182779 1.219823 1.151257
9960 1.5663430800000002 0.29653668000000005 -1.0484241300000001 -0.096378 1.292942 0.424959
9980 1.40452713 -1.89864702 -0.08427771 0.117776 1.096606 0.054965
10000 0.68872086 3.8703491100000003 -4.52793303 0.134938 0.462584 0.351795
10020 -0.18531090000000003 11.84276934 -9.55447893 1.19604 -0.637085 0.307205
10040 -2.6345245500000005 19.02034413 -5.78127825 0.22452800000000006 -0.40024 -0.270315
10060 -6.227201610000001 13.496980590000001 -1.14002991 -0.998644 0.109209 -0.603183
10080 -8.96485869 9.05706288 2.71775259 -1.048852 -0.276145 -1.692627
10100 -6.71758389 5.0814819 2.49785163 -2.278498 0.378183 -2.818346
10120 -1.14002991 4.173174 0.26210358 -2.588135 1.690635 -3.356302
10140 2.7990284400000003 3.8369754900000004 -0.6965001900000001 -2.0977900000000003 -0.512891 -2.849057
10160 3.36724326 5.60973078 -1.6847497800000002 -2.045201 -0.51236 -1.963134
10180 1.72261638 8.625216870000001 0.29414304 -2.095561 0.924628 -1.902302
10200 -1.07296875 8.39064996 2.08306521 -2.028715 1.019448 -1.962846
10220 -4.81174614 8.523428310000002 2.94393195 -1.550089 0.31961 -1.857124
10240 -7.071597360000001 8.92114533 0.5348412000000001 -1.272081 -0.259895 -2.099063
10260 -4.9633793100000005 7.25226813 -1.3765392 -0.778864 -0.611459 -2.52032
10280 -2.9244689100000003 8.76771693 -1.4733835200000003 -0.212194 -1.7883369999999998 -2.541559
10300 -2.0538804600000002 10.690015859999999 -4.09967748 -0.30706700000000003 -2.395455 -2.215636
10320 -9.935293320000001 11.593987740000003 -6.01913151 -0.425989 -2.535212 -1.529421
10340 -10.74944484 14.46591429 5.74760052 -0.234482 -2.764142 -0.923176
10360 -8.26820154 12.169098990000002 -1.5808618800000003 0.304838 -2.934965 -0.497242
10380 -6.04143945 10.516378860000001 -1.63489536 1.123031 -2.780659 0.164163
10400 -5.32592748 11.87091423 1.4049783900000001 2.302302 -2.1752 1.175753
10420 -5.91540057 15.83123085 2.8213363800000004 2.163477 -0.515969 1.678995
10440 -2.95994187 21.030216929999998 -2.39457195 0.09917 -0.4357 1.244661
10460 1.2391207199999998 22.31918226 -2.07289224 -0.6802699999999999 -2.90875 -0.870557
10480 2.34008721 19.181257560000002 1.33133472 0.010257 -2.264367 -1.70725
10500 1.8835298100000002 14.684167170000002 2.8538172900000003 0.12845399999999998 -0.3814010000000001 -1.433236
10520 -0.10193571 11.095678979999999 1.45092843 0.247056 2.172588 -0.33648
10540 -2.8830020400000005 7.9258717800000005 -0.5751014400000001 0.5565829999999999 4.1906089999999985 1.4267299999999998
10560 -4.00387302 4.9075407900000005 -0.93869928 -0.823457 0.04315 1.908447
10580 -2.85711345 4.08860199 -1.14526845 -0.165629 1.169676 1.472559
10600 -0.7999368299999999 1.80390204 -1.45497015 0.460458 2.846042 1.29105
10620 1.12924872 -1.13718501 -1.73279916 1.50114 2.628113 2.405276
10640 1.32894108 -0.5074418700000001 -1.4606599500000002 2.568989 1.474836 2.706906
10660 1.48491027 -0.043114950000000006 -0.78481962 2.714219 0.074797 3.179732
10680 0.6009998400000001 -0.4107447 0.31134978 2.666748 -0.6052850000000001 3.329823
10700 -0.99602892 -0.91070154 2.03651676 1.935857 -0.409411 1.86848
10720 -5.4142371 2.0574709200000005 5.574257820000001 1.153201 0.598551 0.63113
10740 -13.190869350000002 14.321471850000002 9.78919299 0.728817 1.271307 0.05900900000000001
10760 -14.56336683 33.458868900000006 9.77646942 1.390562 1.509149 0.478865
10780 -7.2811585800000005 22.58338518 12.15442323 1.821029 0.78633 1.31067
10800 -6.82430688 4.35549285 6.0535646100000005 1.408941 0.142757 1.437871
10820 1.70271189 0.76311009 7.3827999900000005 0.8214670000000001 1.041251 1.2980200000000002
10840 -1.41275772 19.02409155 2.78391123 0.233829 1.479231 0.970752
10860 9.57932766 23.949594450000003 -4.133502360000001 -0.006804999999999999 1.420972 0.564289
10880 -0.77553936 6.880743810000001 3.5390948399999997 0.119573 1.635071 0.194225
10900 -2.5077303000000004 4.565809440000001 -2.21060502 0.091502 1.424903 0.295779
10920 -1.54044468 6.678814770000001 -8.44049457 0.440257 0.288748 0.136233
10940 -0.8137100700000001 11.61314667 -8.23841838 0.745082 -0.223986 -0.309634
10960 -2.0686935600000007 11.518548840000001 -3.9972905100000005 -0.8916219999999999 0.052059 -0.257327
10980 -3.96166059 12.04096077 -1.9309807800000003 -1.560916 -0.558242 -1.033544
11000 -7.181910810000001 13.49413569 2.9553017400000003 -1.650149 0.29554 -2.410063
11020 -4.40878077 5.776186860000001 4.3246600200000005 -2.478257 1.653107 -3.390737
11040 1.19706525 2.4984500400000003 -0.17154747 -2.021712 1.092517 -3.456265
11060 4.04698797 3.42233622 -1.8510489 -2.169671 -0.934841 -2.22945
11080 3.8260471500000004 6.372252270000001 -1.71558261 -1.983126 -0.662845 -1.680497
11100 0.36135135 8.53570062 0.62180685 -2.057757 0.61224 -1.603604
11120 -3.6419232600000004 8.64302202 2.3992120800000003 -1.6454369999999998 0.35990700000000003 -1.728587
11140 -6.376588290000001 7.820639910000001 0.46687752000000005 -1.2681440000000002 -1.123642 -2.416259
11160 -4.88673378 7.351515900000001 -1.88039061 -0.969269 -1.26482 -3.0666740000000003
11180 -3.4687375200000004 10.088721720000002 -2.1475855800000003 -0.347685 -2.128446 -2.884969
11200 -1.52443476 11.286375570000002 -0.97387794 -0.167384 -3.17457 -2.50315
11220 -5.928575400000001 10.27194309 -3.1984033500000004 -0.25600900000000004 -3.3776050000000004 -1.736525
11240 -13.12634898 11.17291311 -3.962259 -0.15468800000000002 -3.3097550000000004 -0.944352
11260 -9.42979383 13.70445228 5.68831869 0.312165 -3.138721 -0.431768
11280 -8.03289888 12.3837516 -1.37953125 0.865965 -2.711814 0.219964
11300 -5.526954000000001 9.398804040000002 -1.58355963 1.911597 -1.72026 0.965206
11320 -4.02917301 11.011401270000002 1.44479718 2.535166 -0.234883 1.393879
11340 -5.2693433999999995 16.488814769999998 3.10200048 0.8593930000000001 0.795706 1.397945
11360 -3.1346285400000005 21.339918630000003 0.036071370000000005 -1.032993 -2.401679 0.498995
11380 0.9448305300000001 20.05918389 -2.8189427400000002 -0.305756 -2.850711 -1.057091
11400 1.7028590399999999 19.75651596 -0.7725473100000001 -0.163144 -1.0245 -1.528452
11420 0.48289725 16.25499342 3.3055776 0.159194 1.927247 -0.976644
11440 -2.66385645 11.14777008 0.39352815 0.397259 4.473696 0.8355959999999999
11460 -4.5334756800000005 7.842643740000001 -1.3524360300000002 -0.428164 0.8350209999999999 0.6753279999999999
11480 -2.6301787200000004 3.47787063 -1.4988306599999999 0.100033 0.96483 0.788878
11500 -1.4633577 4.09743099 -1.81856799 -0.119552 2.814549 1.410952
11520 -0.13561344 1.04138055 -2.10462759 1.2646110000000002 3.048425 2.993812
11540 1.6681316400000001 -1.34525511 -2.12422797 2.363651 2.256114 3.841058
11560 2.70322398 -0.98988786 -1.3491398700000001 2.591397 0.906826 3.805922
11580 2.07229383 -0.51882147 -0.37512459000000004 2.92245 -0.5670109999999999 3.925491000000001
11600 0.46223739 -1.10231046 1.16592831 1.419138 -0.564843 2.025303
11620 -1.3967478000000002 -0.25492266 3.8188564200000004 1.09854 0.209239 0.534039
11640 -6.5650482000000006 3.4435846800000003 6.690782970000001 1.230268 1.564209 -0.363016
11660 -12.403508940000002 16.624281059999998 6.71428773 1.349785 1.814214 -0.11681
11680 -11.86223238 35.930831940000004 11.39026347 2.088214 0.397488 0.81738
11700 -6.401289870000001 20.027752650000004 10.34828451 1.932648 -0.197533 1.36719
11720 -6.03469998 3.7848745800000003 5.313802320000001 0.7534569999999999 0.567678 1.238332
11740 -2.57599809 8.933123340000002 6.337073610000001 0.402945 1.643587 1.014451
11760 -0.57165813 27.840005010000002 -4.18110048 0.092304 0.979368 0.6232310000000001
11780 8.95273353 14.86169874 1.59807843 0.412896 1.171718 0.461786
11800 0.7499450700000001 -0.18590931 2.4801936300000005 0.321766 0.5162640000000001 0.61795
11820 0.8828607600000001 3.4850515500000006 -2.8247796899999997 0.385186 -0.166601 0.30307399999999995
11840 0.24488703 6.983876340000001 -12.26235285 0.555433 -0.401238 -0.307527
11860 -1.53116442 14.659465590000002 -8.48406078 -0.5989680000000001 -0.157575 -0.300948
11880 -2.7372058200000002 12.95630244 -3.2358186900000003 -0.930261 -0.761912 -1.262819
11900 -6.033954420000001 12.40200801 -0.6782437800000001 -1.714359 -0.262392 -2.688603
11920 -10.45904922 10.69735374 7.2314611200000005 -2.511388 1.496143 -3.536046
11940 -3.72994839 3.59133309 2.76295707 -2.389788 0.7842 -3.2907300000000004
11960 1.6543584000000002 2.8898886600000004 -0.75832281 -2.161714 -0.6362909999999999 -2.038565
11980 4.10236542 3.9947399100000003 -2.48289138 -2.1378220000000003 0.787432 -1.655662
12000 3.682193310000001 7.43114367 -1.0033668 -2.181576 1.474777 -1.6782130000000002
12020 1.19975319 9.330850170000001 1.91751165 -1.735284 0.547813 -1.489106
12040 -4.0203440100000005 7.792946280000001 4.65127416 -1.22814 -0.269311 -1.913941
12060 -7.25526018 8.792114399999999 -0.23306598000000003 -0.960927 -0.479036 -2.710836
12080 -4.43513043 9.10586763 -2.66026599 -0.33777 -1.587198 -2.649516
12100 -2.26119519 9.51810345 -0.87298209 -0.356175 -2.779179 -2.117211
12120 -2.6622181800000004 11.44220742 -1.49224815 -0.539521 -3.050642 -1.471869
12140 -10.507402710000001 10.242002970000001 -4.054473 -0.361544 -3.29938 -0.961834
12160 -11.746072170000001 12.91513968 0.29593827000000006 0.162449 -3.3379830000000004 -0.5543359999999999
12180 -7.24702959 12.976069590000002 1.4579720100000002 0.961155 -2.774532 0.104273
12200 -6.652170810000001 10.06806186 -4.03755075 1.932676 -2.145808 1.0727209999999998
12220 -4.907844900000001 10.3129587 -0.9256716 2.116823 -0.815595 1.790148
12240 -5.362450110000001 14.92261884 2.4758478 -0.133284 0.066967 1.481675
12260 -3.22938333 21.436468650000002 1.33911405 -1.051025 -2.786042 -0.865826
12280 1.59028929 22.643118270000002 -3.1025988900000003 -0.010875 -2.170959 -2.136943
12300 4.62163815 20.64162321 0.00793629 -0.123475 -0.063631 -1.560385
12320 3.76991433 16.85869101 2.61042138 -0.294473 1.915143 -0.22136
12340 -0.23650929 11.86208523 1.98217917 -0.183985 3.906687 1.409103
12360 -3.82589019 9.11813994 -0.6970986 -1.00669 0.75977 1.612487
12380 -5.698354320000001 5.714217090000001 -1.6657380000000002 0.139145 1.499007 1.168754
12400 -3.6794955600000003 2.63736945 -2.05852059 0.430342 2.684657 1.183156
12420 -1.3807280700000002 1.0717719300000002 -1.8818817300000001 1.25425 2.918967 2.078439
12440 1.29031911 -1.66334436 -2.20985946 2.26074 2.061762 3.515849
12460 1.69776765 -0.41748417 -1.4516838 2.770465 0.5889220000000001 3.763783
12480 1.7058510900000003 0.5041555199999999 -1.2752019000000003 2.705501 -1.332524 3.4763040000000003
12500 1.45092843 -0.28485297000000004 -0.81684927 2.474231 0.455932 2.115754
12520 0.5022033300000001 -0.10956789 0.81056106 1.310897 1.189535 0.5556300000000001
12540 -1.20350061 1.0583028 4.36941324 0.8539770000000001 1.334722 -0.190162
12560 -8.577461790000001 10.387053629999999 9.82078119 1.291228 1.677875 0.195944
12580 -15.02366184 32.12664147 10.51099317 1.781454 0.6781560000000001 1.224006
12600 -10.173293730000001 30.25942569 12.99597408 1.230235 0.414408 1.591167
12620 -5.50704951 4.60008558 5.749395750000001 0.629664 1.379418 1.345386
12640 4.5991830600000005 -0.42272271 8.14741101 0.356597 1.775844 1.013958
12660 -1.0473744600000001 22.671704610000003 6.21223155 0.100365 1.446494 0.4827520000000001
12680 7.45988697 27.28915389 -6.408470790000001 0.356973 1.201006 0.113118
12700 -1.7082447299999999 3.9210962400000002 0.80472411 0.093416 0.401268 0.270398
12720 -0.7717919400000001 2.52449559 -1.25664138 0.371567 -0.952098 0.411876
12740 -0.54756477 5.676193530000001 -7.0064785800000005 0.012628 -0.41176 -0.13611700000000002
12760 -0.8433460799999999 10.007593020000002 -8.175850200000001 -1.286183 -0.314572 -0.66981
12780 -1.83502917 14.304108150000001 -4.03111539 -1.157766 -0.275957 -1.911305
12800 -4.53976389 14.50752831 -3.8484924300000003 -2.277501 0.352544 -3.067202
12820 -8.35338177 13.60476306 2.3020636500000005 -2.605327 1.724429 -3.53379
12840 -6.116427090000001 5.57171703 4.83973407 -2.231994 -0.419918 -2.806316
12860 0.18666468 1.8510489 0.12649014 -1.996899 -0.6786270000000001 -1.717961
12880 4.46850405 2.90860614 -1.573524 -2.0908130000000003 0.484099 -1.497917
12900 5.18057271 6.41042298 -1.2025980900000002 -1.961792 0.559869 -1.643459
12920 2.2233285900000004 9.72377991 0.9035206200000001 -1.358314 -0.230784 -2.111453
12940 -2.39935923 7.47859464 2.56701213 -0.974618 -0.723703 -2.519407
12960 -6.5452908600000015 6.97968747 -0.09640287000000002 -0.564513 -1.347235 -2.522152
12980 -6.78239856 8.361759509999999 -1.7238132000000002 -0.319514 -2.486342 -2.3865220000000003
13000 -5.501663820000001 9.55538145 -1.4792204699999998 -0.301327 -2.801151 -1.998227
13020 -4.2471217800000005 11.34011475 -0.9232779600000001 -0.26352 -3.013693 -1.36103
13040 -6.98222826 11.045383110000001 -3.5127451800000005 0.091429 -3.093511 -0.8894989999999999
13060 -12.385693980000001 13.023363600000001 -3.2693492699999998 0.636572 -3.168429 -0.476466
13080 -8.664731549999999 13.894707420000001 5.91704865 1.413524 -2.666812 0.213048
13100 -6.95409318 11.07547038 -3.2967486000000004 2.449617 -1.600899 1.019018
13120 -5.026251600000001 10.194404850000002 -0.92507319 1.862743 0.12443 1.099234
13140 -5.56258392 12.754530360000002 3.5938738800000003 -0.007691 -0.703807 1.251736
13160 -3.39374007 19.19772855 1.6887915 -0.221262 -2.62885 -0.403033
13180 1.03225725 21.26807019 -3.4548171300000003 0.122752 -1.480255 -1.023807
13200 3.50870346 18.83817243 -1.6527103200000002 -0.192918 -0.18092 -0.941151
13220 2.11330944 16.136890830000002 2.49351561 0.405471 3.556781 0.224738
13240 -0.92222829 12.370272660000003 2.86339185 0.631386 4.475213 0.253981
13260 -3.57965919 9.93498921 0.25597233 1.061191 2.040951 0.706619
13280 -4.4656591500000005 6.8311935 -1.19496591 -0.029161000000000006 2.155307 1.291719
13300 -2.65113288 3.95896284 -1.2939095699999998 -0.159912 2.22888 2.451869
13320 -0.6509916 2.3725681200000004 -1.8405718200000003 1.284999 1.379529 3.67655
13340 0.7908037200000001 -0.21360294000000002 -2.5457538600000005 1.906244 0.793259 3.496839
13360 1.66992687 -0.36329373000000004 -2.2998171600000004 2.480003 0.403906 3.397728
13380 1.8363829500000002 0.8122091400000001 -1.59612624 2.9688950000000003 0.679876 2.426571
13400 2.09624004 0.66147849 -0.6036975900000001 1.819685 1.661931 1.059575
13420 0.06406911000000001 -0.32706539999999995 2.07902349 0.892342 0.663371 0.099387
13440 -3.44329038 1.19900763 5.886804420000001 0.980658 1.24714 0.023412
13460 -12.07599228 9.77317326 11.08295541 1.6952459999999998 0.903248 0.686868
13480 -12.77323803 25.807981230000003 8.58525093 1.518202 0.157623 1.355294
13500 -6.87655494 31.521305610000002 14.455594170000001 0.5408229999999999 1.276551 1.306441
13520 -3.6426786300000003 9.19642374 7.17472989 0.170735 1.958674 1.008152
13540 0.78871419 6.38736948 7.159161419999999 -0.067978 1.295774 0.757371
13560 -2.41882227 22.43280168 2.0389104000000002 0.40401 1.01876 0.625358
13580 4.834348380000001 20.382668640000002 -10.8367146 0.324468 0.238888 0.450614
13600 3.10993677 -0.98255979 -0.19549368000000003 0.359785 -0.23540500000000006 -0.050596
13620 3.3432970500000003 3.03314409 4.7199834 -0.353115 -0.207878 -0.455126
13640 1.10290887 6.03544554 -6.5547182699999995 -1.300848 -0.6844600000000001 -0.8638549999999999
13660 -0.8062250400000001 13.076661330000002 -8.34604389 -1.564144 -0.453761 -2.11581
13680 -3.64148181 15.47571645 -5.44252914 -2.364663 1.111316 -3.3315660000000005
13700 -6.339320100000001 11.81507571 -2.0568725100000003 -2.430366 1.471294 -3.785412
13720 -8.31865437 9.52574544 2.306850930000001 -2.160677 -0.482912 -2.832443
13740 -6.446190240000001 3.9585213900000005 4.12632144 -2.080242 -0.053845 -1.778096
13760 0.04595004000000001 3.49643115 0.32512302000000004 -2.1467650000000003 0.79877 -1.55319
13780 3.33521361 3.82499748 -1.74896604 -1.824663 0.682975 -1.645864
13800 4.14488196 7.80192243 -2.42166717 -1.322538 -0.106262 -2.113499
13820 2.14099326 9.99606627 1.5340093200000002 -0.946261 -0.793276 -2.727423
13840 -4.70112858 8.649015930000001 2.27706777 -0.6256619999999999 -1.6920389999999998 -2.555252
13860 -7.205866830000001 8.141574060000002 -1.3970421 -0.466108 -2.639953 -2.206819
13880 -4.35339351 8.49707865 -2.8856997900000003 -0.493141 -2.965582 -1.737642
13900 -3.5494149600000005 10.09186092 -1.46694816 -0.261343 -3.3826730000000005 -1.264402
13920 -6.934482990000001 11.04777675 -1.8685597500000002 0.225758 -3.602069 -0.900728
13940 -13.91700555 10.599459750000001 -2.4081882300000004 0.837052 -3.444853 -0.254658
13960 -9.426644820000002 13.030250220000001 3.09016962 2.089376 -2.576178 0.670579
13980 -7.487276490000001 11.968661070000001 -2.430192060000001 2.898153 -1.333519 1.429869
14000 -5.64041646 10.31624505 -0.13157172 0.955872 -0.371949 1.076444
14020 -4.58346744 11.56645107 2.40534333 -0.557417 -2.321019 0.162519
14040 -3.52592001 20.14001829 3.230433 0.372902 -2.603846 -1.30904
14060 1.2003516 22.28685831 -2.50818156 -0.073504 -0.440398 -1.422821
14080 3.82708701 21.03006978 -0.6577310700000001 -0.032852 1.314975 -0.87572
14100 3.4835604300000003 18.889969230000005 1.46440737 -0.218219 4.51095 0.844068
14120 -0.51628068 13.66193574 3.3229413000000005 -0.4799229999999999 1.883717 1.1361629999999998
14140 -3.8336793300000003 9.965979 0.35985042 0.231798 2.347122 1.581716
14160 -5.76451296 7.175034000000001 -1.43581122 0.061322 3.211246 1.683036
14180 -4.3742005200000005 3.8499933600000005 -1.6108020000000003 1.048272 2.547536 2.435331
14200 -1.5399934199999998 2.08231965 -2.0112167700000003 2.41516 1.646234 3.399956
14220 1.17146115 -0.06720831000000001 -2.78900262 3.031364 0.601264 3.648085
14240 2.47151178 -1.1802999600000001 -2.7524799900000003 2.642772 0.496295 3.595299
14260 2.3088031200000003 -0.03891627 -2.2697298900000002 1.705324 0.841693 1.950724
14280 2.105971560000001 -0.8328690000000001 -1.3212990900000001 1.390313 0.6011449999999999 0.576167
14300 0.97851807 -1.96751322 1.21606722 1.00212 1.323569 0.072602
14320 -1.6679844900000003 0.5644772100000001 3.58729137 1.379881 1.529225 0.262984
14340 -10.4345046 8.65155672 9.30495177 1.583929 0.8239549999999999 1.164756
14360 -14.60048787 24.46063659 6.06882897 1.041755 0.7111850000000001 1.330961
14380 -9.18774189 33.5194947 14.17926609 0.5131020000000001 1.986039 1.060715
14400 -5.063823899999999 12.2220828 7.518717540000001 0.30359200000000003 1.825028 0.748606
14420 4.45683015 6.507718560000001 9.796678020000002 0.17183099999999998 0.863959 0.378244
14440 0.5751014400000001 23.017330530000006 6.843024360000001 0.347401 0.8522129999999999 0.233139
14460 7.52156244 24.579190440000005 -9.994418190000001 0.032699 0.294511 0.380138
14480 1.19975319 -0.60982884 1.5908877000000001 0.737862 -0.49609 0.077361
14500 1.08643788 0.9981282600000001 -1.3073787000000001 -0.333302 -0.383312 -0.29025700000000004
14520 -0.09580446000000001 5.91195726 -8.19486198 -1.121517 -0.788868 -0.750305
14540 -1.16263215 13.87165392 -9.22141962 -1.255234 -0.5730390000000001 -2.125249
14560 -4.05147114 15.990947460000001 -4.991818500000001 -2.206976 0.869841 -3.2874260000000004
14580 -6.32315322 11.153302920000002 -0.74514798 -2.474342 1.569912 -3.634158
14600 -7.67140038 10.979970029999999 2.2957754400000003 -2.1454 -0.695704 -2.645125
14620 -5.879623500000001 4.99272102 2.61820071 -2.02271 -0.493045 -1.485507
14640 0.08067743999999999 2.29847319 -0.08172711 -2.136014 0.8571610000000001 -1.512597
14660 3.9046350600000013 3.2698005300000004 -0.6590750400000001 -1.959685 0.792089 -1.6426740000000002
14680 4.82865858 7.521405479999999 -0.28965006000000004 -1.410013 0.019139 -2.22857
14700 1.16502579 9.146883240000001 0.63243108 -0.7481770000000001 -0.691475 -2.782785
14720 -4.06060425 8.144262000000001 2.351457 -0.546294 -1.824459 -2.542778
14740 -7.156463670000001 8.818915319999999 -0.7370645400000001 -0.469616 -2.48977 -2.464478
14760 -6.50532492 9.3152817 -2.4736013100000003 -0.396788 -2.63056 -1.95211
14780 -4.3297416 9.18280746 -0.58662819 -0.187514 -2.817442 -1.2208139999999998
14800 -2.6411070600000004 10.31340015 -0.57465018 0.304162 -3.191268 -0.603741
14820 -8.503818120000002 10.86395697 -4.7047190400000005 0.98233 -3.244557 0.14561500000000002
14840 -12.930561 13.621528350000002 -0.7417046700000001 2.065258 -2.688919 1.179029
14860 -8.51414805 12.41697807 2.69709273 2.270308 -0.969044 1.669639
14880 -7.1753283 10.64227059 -2.6223993900000004 0.384857 -0.484541 1.489206
14900 -5.04615609 10.37866608 -0.48199473000000004 -0.8640959999999999 -2.881655 -0.295036
14920 -6.14995767 16.256043090000002 3.8723013000000006 -0.12943 -1.983709 -1.442598
14940 -2.27511558 20.84534748 0.12603888 -0.24167 -0.7066100000000001 -1.304013
14960 1.83967911 21.400397280000004 -2.7274743000000004 0.124748 1.90397 -0.454495
14980 4.56041394 19.936441170000002 -0.49411989 0.266635 4.8672580000000005 1.095894
15000 2.8690816500000005 15.354317700000003 2.4905235600000006 0.330885 1.412023 0.910627
15020 -1.4868624600000002 11.424990870000002 1.98127665 0.57686 2.403625 1.5381209999999998
15040 -4.43453202 9.0611046 -0.5613282000000002 -0.049479 2.564883 1.7140689999999998
15060 -4.271215140000001 5.3134982100000006 -1.3103707500000001 1.251927 1.869284 2.9749380000000003
15080 -2.1457903500000004 3.2186021400000002 -2.08411488 2.447092 1.465794 3.474117
15100 0.39772683000000003 0.55354887 -2.35011303 3.013249 1.137887 3.466742
15120 2.09908494 -1.6703781300000002 -2.292930540000001 2.116817 1.530685 2.718631
15140 2.27242764 -1.01833686 -1.9562807700000002 1.220789 0.09851 1.477206
15160 1.95283746 -0.78422121 -1.3507879500000002 1.0965200000000002 -0.287937 0.724805
15180 0.8937891 -1.3013946 0.33141123 0.984713 1.250228 0.312924
15200 -1.04228307 -0.6336279 2.6897548500000004 1.550165 1.131773 0.673812
15220 -9.04134726 6.061795200000001 7.398662760000001 1.494299 0.4945020000000001 1.313035
15240 -15.387397020000002 21.468204000000004 7.312746780000001 0.934588 1.021787 1.27213
15260 -12.786412859999999 37.74999834 13.571830890000001 0.7396659999999999 1.789527 1.255898
15280 -4.63840344 17.062415280000003 9.20840175 0.226642 1.053092 0.718079
15300 2.34427608 1.8220113000000002 5.698501470000001 0.371759 1.183952 0.368548
15320 -1.39165641 14.285547630000002 5.843993580000001 0.273898 0.572682 0.403899
15340 2.30131809 26.37275274 -10.45890207 0.532988 -0.037162 0.306077
15360 6.81487947 4.858147440000001 0.6014511 -0.136156 0.338016 -0.228915
15380 2.17961523 0.9517171500000001 0.7450008300000001 -1.081507 0.011249 -0.542748
15400 1.2760946100000001 5.30376669 -3.4512266700000005 -1.169601 -0.590905 -1.728318
15420 -0.28276344 10.399777200000003 -8.88627078 -1.977019 -0.30856500000000003 -3.1678740000000003
15440 -3.111732 16.36426701 -7.302868110000001 -2.466726 1.511662 -3.725897
15460 -6.15370509 13.77525105 -2.6461984500000004 -2.083667 -0.377123 -3.246511
15480 -8.47762542 9.849073230000002 3.8360729700000005 -1.959588 -0.501814 -2.01062
15500 -6.43616442 5.232369510000001 2.32900191 -2.119384 0.73777 -1.772974
15520 -0.72479223 3.17789064 0.6197075100000001 -1.911212 1.109356 -1.904456
15540 1.8329396400000002 2.67958188 -1.7265109500000002 -1.366105 0.4401350000000001 -2.319602
15560 3.9375574200000005 5.79759228 -0.9741722400000001 -0.6961579999999999 -0.4331100000000001 -2.703705
15580 2.5908111899999997 10.00085355 1.37534238 -0.400593 -1.4851219999999998 -2.813523
15600 -2.62644111 9.74952135 2.3802003000000003 -0.315943 -2.521145 -2.7432380000000003
15620 -6.930284310000001 9.03760965 -0.49143195 -0.445928 -2.999566 -2.070553
15640 -6.45907077 7.130575080000001 -2.4002617500000003 -0.412874 -3.1849380000000003 -1.2977610000000002
15660 -4.09039722 7.134763950000001 -0.61941321 0.091803 -3.254233 -0.657486
15680 -2.38050441 10.19604312 -1.90418967 0.772709 -3.331396 -0.067246
15700 -8.227490040000001 12.055185269999999 -4.481826030000001 1.935511 -3.154832 0.856117
15720 -13.01528016 14.390475390000002 4.343514840000001 2.5494790000000003 -1.624641 1.807025
15740 -10.428069240000001 11.79741771 -0.73586772 0.044343 -0.353122 1.4204290000000002
15760 -9.1681317 11.064993300000001 -0.5423262300000001 -0.800391 -2.188473 -0.005991
15780 -7.03790982 12.30561495 0.16106058000000004 0.150143 -2.417417 -1.649461
15800 -4.456683 19.1281266 4.82791302 -0.13899 -0.654855 -1.547985
15820 1.34734464 23.126005709999998 -2.34112707 -0.279677 2.196975 -0.383988
15840 4.21134471 23.1049044 -1.69597242 -0.024422 4.718007 1.3760629999999998
15860 3.89715003 20.395833660000005 1.37998251 -0.4776220000000001 0.786483 1.666355
15880 0.81924291 14.00039055 3.45541554 0.008956 2.318419 1.7596580000000002
15900 -1.60915392 11.01199968 1.07985537 0.440366 3.051262 1.934784
15920 -3.9790242900000004 8.39693817 -1.14137388 1.973866 2.2533 2.487039
15940 -2.8789603200000005 4.51910403 -1.54508481 3.146686 1.951689 2.83638
15960 -0.60578712 0.9369040500000001 -2.7756806400000005 3.002476 1.4069999999999998 3.0443740000000004
15980 1.1011136400000001 -3.3319174499999997 -3.1744473300000005 1.748186 1.094447 2.640771
16000 1.75195809 -3.44927448 -2.34681687 1.259802 0.6961510000000001 1.704244
16020 1.9170603900000003 -1.19422035 -1.57098321 1.424214 0.223314 0.727507
16040 1.6277144399999999 -0.07334936999999998 -1.34540226 1.020972 1.293589 0.360124
16060 0.17169462000000002 -0.46478799 0.28755072000000004 1.327753 1.913623 0.6157090000000001
16080 -2.3740592400000002 0.71087184 4.79123343 1.587007 1.014707 1.145305
16100 -11.96402094 11.20555098 12.573408330000001 1.453847 0.4396600000000001 1.47626
16120 -15.458499900000001 30.18188745 7.956704610000001 0.863391 1.194171 1.381439
16140 -6.994059120000001 33.79267377 14.079125610000002 0.475625 2.104771 0.971639
16160 -3.9763265400000005 6.958429199999999 6.21687168 0.092353 1.527624 0.447341
16180 6.09458022 4.078115100000001 7.708668570000001 0.35635 1.221672 0.27332
16200 1.19735955 22.68472248 1.16997003 0.175512 0.48157 0.363804
16220 10.0963539 17.52076791 -3.89579625 0.278112 -0.627892 0.402262
16240 -0.7668575100000001 2.09473911 0.057633750000000004 -0.215925 -0.4111800000000001 -0.083234
16260 -0.45250587000000003 5.397923070000001 -2.09788812 -1.392816 -0.681041 -0.573946
16280 -1.64358702 9.68336271 -9.24507153 -1.247181 -0.402785 -2.084819
16300 -2.47615191 13.78768032 -7.02579447 -2.374181 0.8950889999999999 -3.329219
16320 -4.27556097 11.319906150000001 -3.99055104 -2.432975 1.885514 -3.740028
16340 -6.287229000000001 10.042320420000001 -0.09265545000000001 -2.2590060000000003 -0.49758 -2.808542
16360 -6.3595287 8.96979312 3.0205676700000006 -2.310129 -0.965526 -1.627914
16380 -3.6143865900000005 6.311626470000001 1.02910824 -1.985243 0.182469 -1.550204
16400 0.61747083 3.56363946 -0.33904341000000005 -1.75158 1.00022 -1.923497
16420 2.45340252 4.4557804800000005 -1.18224234 -1.37391 -0.646279 -2.620571
16440 2.91997593 8.4624984 -0.97821396 -0.887813 -1.887144 -2.820684
16460 0.7204562099999999 8.38720665 -1.06518942 -0.539104 -1.931893 -2.588524
16480 -1.6887915 6.781947300000001 1.05799869 -0.364034 -2.8867700000000003 -2.376706
16500 -6.09621849 7.19209359 1.16368182 -0.38943 -2.990146 -1.811661
16520 -6.36297201 8.06133807 -2.20701456 -0.246153 -3.302924 -1.240897
16540 -4.21058934 9.405837810000001 -1.89730305 0.194544 -3.691221 -0.690392
16560 -3.50181684 13.21062669 -1.1365866 0.756371 -3.79614 0.017625
16580 -7.898472450000001 13.533356070000002 -2.5715051100000004 1.821737 -2.905929 0.781296
16600 -13.120668990000002 11.197467540000002 -1.22115861 2.329641 -0.982677 1.032343
16620 -10.116415349999999 11.730209400000001 3.86855388 0.549904 0.6554770000000001 1.03704
16640 -7.190298360000001 10.97308341 -4.7518659 -1.162534 -2.587523 -0.065693
16660 -5.29419213 12.039312690000001 -0.18875421000000003 -0.229158 -2.530967 -1.1637879999999998
16680 -5.86121013 16.19048286 3.66377994 -0.004302 -0.782193 -1.256325
16700 -3.57262542 19.51730892 1.2783410999999998 -0.027022000000000004 1.892474 -0.6446149999999999
16720 0.04864779000000001 20.7395172 -2.63871342 1.277743 5.749932 0.8625440000000001
16740 2.9585979000000004 20.07146601 -3.6069015600000003 -5.8e-05 1.524392 1.0684049999999998
16760 1.52338509 16.22970324 1.4545287000000002 0.434332 1.724623 1.23462
16780 -2.90021859 12.43180098 3.2078307600000002 -0.05837100000000001 2.154096 1.619461
16800 -3.97438416 9.928848150000002 -0.8873537400000001 0.889552 2.518708 2.589151
16820 -3.0427186500000003 5.56153425 -1.55646441 2.180095 2.587412 3.4686790000000003
16840 -1.6211319300000002 2.40190983 -2.06256231 3.069571 1.643373 3.547672
16860 -0.11795544000000001 0.18741024 -2.6375166 2.826824 0.816348 3.3184370000000003
16880 2.03965596 -1.8187151400000001 -2.86429437 1.513358 1.361147 2.216841
16900 2.7056274300000003 -0.83930436 -2.43124173 1.107817 -0.178975 1.171261
16920 2.92372335 -0.08696565000000002 -2.1095620200000003 0.749007 0.511922 0.268427
16940 2.7098163000000004 -0.39966921 -0.27707364 0.894669 1.361349 0.041893
16960 -0.63558009 0.77838426 3.41753913 1.957785 1.348876 0.640061
16980 -7.13955123 5.174441460000001 7.80132402 1.351612 0.396571 1.15193
17000 -12.772041210000001 19.27961262 9.57199959 0.5767260000000001 1.397893 1.03414
17020 -10.901980530000001 35.50257639 11.86687251 0.526645 1.575093 0.7205739999999999
17040 -4.92999588 15.561642240000003 9.16200045 0.450309 0.648796 0.397556
17060 -3.2108228100000002 0.51537816 4.57358877 0.328764 0.700217 0.430824
17080 -1.4923952999999999 9.78156081 6.4264329 0.111184 0.561088 0.513872
17100 0.28051695 27.08483121 -8.29081359 0.378931 -0.076373 0.122386
17120 8.725210200000001 18.16487289 4.92191244 0.137762 -0.5222640000000001 -0.31563
17140 -0.65473902 2.2444299 1.2240035100000002 -1.340128 -0.615075 -0.599299
17160 0.18262296000000003 3.36156327 -0.9803133 -1.314973 -0.390334 -1.943235
17180 0.6017454 6.53450967 -9.477990360000002 -2.370296 0.569224 -3.0937650000000003
17200 -0.51253326 13.60835352 -9.20675367 -2.768869 2.038561 -3.627202
17220 -3.48251076 12.481498440000001 -4.83479964 -2.108295 -0.27928800000000004 -2.6507400000000003
17240 -5.279074919999999 11.44565073 -0.6894664200000001 -1.867827 -0.928212 -1.486004
17260 -9.08910234 8.75678859 6.07017294 -1.795318 0.275195 -1.460334
17280 -3.5536136400000005 4.4976986100000005 1.2769971300000003 -1.941836 0.995264 -1.851113
17300 0.30955455000000004 3.2747447700000003 -0.7520346000000001 -1.513264 -0.1596 -2.461935
17320 2.30266206 3.7922124600000005 -2.28424869 -0.944604 -1.386481 -2.501256
17340 3.02640462 9.206155260000001 -1.45018287 -0.600939 -1.609094 -2.274244
17360 -0.15822549 9.48936996 2.5595271 -0.451019 -2.539073 -2.139545
17380 -5.88964932 7.154374140000001 0.92971332 -0.708095 -3.333349 -1.7557630000000002
17400 -6.95378907 8.48884806 -2.2785588900000002 -0.593603 -3.065966 -1.322676
17420 -5.0430168900000005 10.0300383 -1.9053864900000002 -0.091899 -2.989799 -0.825751
17440 -2.21958117 9.72258309 -0.33036156 0.515089 -2.814566 -0.153029
17460 -3.4045212600000005 11.6957763 -1.2960089099999998 1.539934 -2.214693 0.7912600000000001
17480 -9.70491528 11.46930264 -4.08874914 2.354345 -1.10112 1.592415
17500 -10.89315153 12.27237867 1.2593293200000002 0.8190930000000001 0.018782 1.517231
17520 -8.45696556 11.09133315 -1.1268550800000001 -0.994807 -1.956606 0.518987
17540 -7.05347829 11.29161411 -0.5174775 -0.130211 -2.64413 -1.454576
17560 -5.927378580000001 12.52280835 1.0282155300000004 -0.15986 -0.760356 -1.520222
17580 -4.832249040000001 19.547553150000002 4.2290027100000005 -0.350229 0.161794 -0.7290449999999999
17600 -0.6885639 21.48317406 -2.1225897000000002 0.233253 3.365046 0.370127
17620 1.93308012 20.10947976 -2.8327061700000007 0.056955999999999986 3.7127 1.493287
17640 2.18724741 18.7407297 -0.46373832000000004 0.051912 0.7477189999999999 1.311181
17660 -2.24143785 13.85278929 3.8191605300000004 0.040073 2.043669 1.444034
17680 -3.4498728900000004 11.322005490000002 1.24091595 0.614538 2.400721 1.698621
17700 -3.0699708300000004 8.01164061 -1.6281657 1.71377 2.354247 2.775649
17720 -1.4287774500000001 4.44231135 -1.29061341 2.736084 1.752936 3.078389
17740 -0.09999333 1.63190331 -1.64358702 3.021575 0.960375 3.0963540000000003
17760 1.78039728 0.8544215700000001 -3.6628872300000004 1.686291 1.39989 2.235091
17780 1.6854953400000003 0.30880899 -2.0041830000000003 1.2807879999999998 -0.337545 0.982529
17800 1.61005644 0.08457201 -1.6801096500000001 1.025332 -0.082872 0.387555
17820 1.7603358300000003 -0.84873177 -1.06069644 0.8817889999999999 0.881016 0.29238200000000003
17840 0.8467893900000001 -1.2873270600000002 0.45909819 1.463233 1.189863 0.607969
17860 -0.37272114 -0.09759969 3.4048155600000003 1.825879 0.688268 1.320444
17880 -7.267836600000001 6.909781410000001 7.8493734 1.544099 -0.088141 1.520296
17900 -14.010269220000001 23.263277040000002 7.951760370000001 0.8678899999999999 0.471193 1.557585
17920 -12.78925776 35.420839470000004 12.50035326 0.534486 1.452648 1.230327
17940 -5.617068659999999 12.973371840000002 8.27448975 0.031562 1.217198 0.6075470000000001
17960 0.016765290000000002 0.22453128 6.4990367099999995 0.2812 1.2140879999999998 0.370013
17980 0.03233376 13.130841960000001 6.81397695 0.103608 0.450564 0.188153
18000 0.5387259600000001 27.402165090000004 -7.58532744 0.493363 -0.668346 -0.056586
18020 7.00274097 9.480531150000001 2.08186839 -0.345935 -0.383225 -0.5670149999999999
18040 -0.11420802000000001 1.1570895 0.78436836 -1.332912 -0.42255 -1.06524
18060 -1.12431429 4.48946802 -3.33880407 -1.309875 -0.052538 -2.505517
18080 -1.56739275 8.812175850000001 -9.24162822 -2.663989 0.998296 -3.313216
18100 -1.5919373700000001 14.92111791 -6.624771480000001 -2.518443 1.289858 -3.358506
18120 -4.219271190000001 12.849432299999998 -2.74619178 -2.092207 -0.965192 -2.165845
18140 -7.8802160400000005 10.404260370000001 2.0999874600000004 -1.906196 -0.380785 -1.421812
18160 -8.15968332 8.186327279999999 2.84992272 -2.015463 0.372075 -1.520748
18180 -2.1068642700000004 5.52546288 0.8448470100000001 -1.908969 0.32569000000000004 -2.000644
18200 1.07521524 3.9971335500000005 -0.90875916 -1.303857 -0.480267 -2.372467
18220 2.51073216 4.41880659 -1.67546952 -0.703706 -1.228472 -2.530754
18240 2.5569863100000005 7.84324215 -1.11204198 -0.403929 -1.97721 -2.561884
18260 0.09504909 9.35269704 -0.5905227600000001 -0.237181 -2.721898 -2.425169
18280 -1.1126403900000001 8.960816970000002 2.40130161 -0.19785 -2.765447 -1.959094
18300 -5.02744842 9.29656422 1.9697499 -0.14333900000000002 -3.040972 -1.30354
18320 -5.0687583300000005 8.70844491 -0.97163145 0.233516 -3.094787 -0.694088
18340 -3.4599085200000004 7.6495437 -1.51963767 0.793543 -3.046727 -0.145445
18360 -4.20340842 10.69720659 -1.98143361 1.54693 -2.381826 0.490284
18380 -8.64138375 11.129052600000001 -3.89191149 2.423159 -1.284546 1.050474
18400 -13.360915890000001 12.78041895 -0.23306598000000003 1.962102 0.519854 1.227608
18420 -8.8934517 11.352544020000002 2.9045644200000003 -0.02134 -0.299539 1.131482
18440 -7.1299766700000005 11.2446144 -2.2222789200000004 -0.611005 -2.706413 -0.648142
18460 -5.35212018 13.46165478 0.22931856000000003 -0.122788 -0.955732 -1.17895
18480 -5.67095499 17.99692569 4.10461191 -0.209984 0.21468 -1.021894
18500 -2.4927700500000003 20.85029172 -1.55840679 0.65428 3.522164 0.141062
18520 1.7378905500000001 20.640426390000002 -3.38237028 1.152001 5.462454 1.732635
18540 2.7664003800000003 17.15926941 0.67210272 -0.219319 -0.380026 1.184681
18560 -0.29129814000000004 12.9100581 2.65547871 0.291215 1.763178 1.3072780000000002
18580 -2.3568525 10.98745506 1.7730594000000002 -0.012398 2.250465 1.456221
18600 -3.48789645 9.136102050000002 -0.97013052 0.915994 2.515227 2.63741
18620 -3.0620345400000004 6.39919053 -1.3052891699999998 1.759598 1.884457 3.269021
18640 -2.18515788 4.86802611 -1.37848158 2.071485 0.703339 3.196869
18660 -0.34652844000000005 3.33416394 -1.5808618800000003 2.720788 -0.249743 2.81593
18680 1.4200956 0.72569475 -2.04100974 2.498653 0.4523430000000001 1.660867
18700 1.2237092100000002 0.02439747 -1.69597242 1.088753 0.783844 0.437094
18720 1.63998675 -0.01946304 -1.26157581 0.81587 1.223826 -0.130465
18740 1.49703543 -0.09026181000000001 -0.21316148999999998 1.107073 1.7404240000000002 0.164668
18760 -0.01721655 0.66880656 2.14099326 1.7794759999999998 1.040837 0.8379
18780 -2.42645445 2.5801869600000003 5.36424534 1.192043 0.465444 1.116544
18800 -8.199502110000001 9.21409155 7.994424060000001 0.648803 1.418442 1.160667
18820 -12.07599228 24.398509860000004 6.7475142 0.478797 1.504425 0.851721
18840 -9.53232795 32.27334021000001 13.19745186 0.279417 0.624926 0.653835
18860 -5.3112517200000005 9.76419711 7.006184280000001 0.5430590000000001 0.800135 0.565721
18880 -1.0102534200000002 1.54074879 5.4326504700000005 0.239936 0.381978 0.172102
18900 -3.05364699 15.088917960000002 1.61199882 -0.051159 -0.376323 -0.151563
18920 5.6495495700000005 25.073908740000004 -10.882517490000001 -0.255889 -0.529466 -0.570471
18940 4.69543878 9.98394111 7.751028150000001 -2.0055810000000003 -0.677231 -0.72885
18960 -3.2506416000000002 2.4078939300000006 3.44238786 -1.801727 0.268517 -2.18142
18980 -2.43723564 6.50532492 -2.6270395200000003 -3.016035 1.506485 -3.287484
19000 0.15552774 8.893010250000001 -7.776033840000001 -2.510093 1.131466 -3.715031
19020 -0.7170129000000001 10.739713320000002 -7.42351149 -2.246646 -0.813028 -2.787755
19040 -3.10289319 10.22134311 -5.11651341 -2.0731330000000003 -0.376518 -1.54476
19060 -5.83501743 11.38158162 -0.7277842800000001 -1.463511 0.283704 -1.212336
19080 -8.47597734 8.98925616 4.740192 -1.859901 0.675534 -1.885382
19100 -2.122884 4.01809752 2.7286711200000004 -1.281023 -0.675079 -2.425469
19120 2.04235371 3.9800739600000004 -0.04685256 -0.949912 -0.656796 -2.48941
19140 3.36470247 5.97423114 -2.18560914 -0.529891 -1.271485 -2.314772
19160 2.81145771 9.66030921 -1.7003182500000003 -0.161976 -2.204032 -2.259733
19180 -0.96563754 9.45089514 1.8666173700000002 -0.24450500000000006 -2.533728 -1.790937
19200 -6.094276110000001 7.699388310000002 1.54613448 -0.266486 -2.768381 -1.166949
19220 -6.708902040000001 8.40322638 -2.1525200100000004 0.073722 -2.859537 -0.511772
19240 -4.703070960000001 8.53959519 -2.81609784 0.469288 -2.743143 0.140321
19260 -4.50817569 10.21565331 -0.56297628 1.1842780000000002 -1.93062 0.921939
19280 -5.942495790000001 12.09948723 0.20462679 2.30156 -0.85015 1.48063
19300 -10.3915368 11.59534152 -2.4480070200000004 1.59215 0.508638 1.156672
19320 -9.043897860000001 12.91439412 0.93764961 -0.711676 -1.892507 0.494177
19340 -6.14786814 11.687996970000002 -1.0310604300000001 -0.394303 -2.508866 -0.953461
19360 -5.40301446 12.37566816 0.76925115 0.14319400000000002 -0.712442 -1.244702
19380 -5.16380742 13.86431604 2.23065666 0.194726 1.056874 -0.730658
19400 -4.17406671 16.92934263 0.94408497 1.667852 4.003548 0.6239520000000001
19420 -0.98405091 19.947369509999998 -3.42263052 0.385662 1.994759 1.653745
19440 1.35169047 20.06398098 -2.7286711200000004 0.07276 -0.8554219999999999 1.002528
19460 2.276910810000001 18.77021856 -2.02124259 -0.406786 1.353923 1.426841
19480 -1.18807929 14.23599732 5.1757854299999995 0.446508 1.70642 2.311496
19500 -4.07961603 10.722800880000001 0.26958861 1.831723 1.456244 2.933584
19520 -2.7419930999999997 7.019506260000001 -0.35685837000000004 2.532671 0.7039 2.657433
19540 -1.82455209 4.2311020500000005 -0.6782437800000001 2.911261 0.472318 2.6998990000000003
19560 -0.9168426000000001 2.93465169 -1.7497116 2.239242 1.502218 2.273006
19580 0.92238525 0.8059209300000001 -2.5896143700000005 1.368269 0.685581 1.057673
19600 1.38581946 -1.46560419 -2.19264291 1.110229 0.628987 0.250504
19620 1.3518376200000002 -0.5644772100000001 -1.15095825 0.659569 1.147608 0.150551
19640 1.72366605 -0.43829118000000006 -0.08217837 1.188697 1.376074 0.632518
19660 1.11173787 -0.01437165 1.3298337900000001 1.961311 0.918931 1.328572
19680 -1.46455452 1.6414876800000002 3.95343 1.387723 0.184317 1.452625
19700 -7.74698643 6.20938665 7.3344465 0.798212 1.477378 1.210773
19720 -17.01467001 19.17347823 5.77603971 0.498801 2.099013 0.793415
19740 -14.43927033 35.330126400000005 13.06393776 0.331834 0.949208 0.232906
19760 -6.13933344 12.725041500000001 7.01875089 0.612743 0.6632140000000001 0.114525
19780 -2.02948299 0.42841251 7.06605471 0.060912 -0.169665 0.28479
19800 -2.69664147 11.48396859 -0.77733459 0.407854 -0.752962 0.132
19820 4.9752003600000005 23.416705440000005 -9.13535649 -0.294953 -0.104672 -0.47408
19840 3.94295292 11.806697970000002 9.28923615 -1.670007 -0.337523 -0.990792
19860 -3.1870237500000003 2.22931269 5.279967630000001 -1.999544 0.072632 -2.041545
19880 -0.8608569300000001 7.47770193 -6.159542040000001 -2.874635 1.294629 -2.911279
19900 1.0767063600000002 10.45575306 -8.748558000000001 -2.526328 1.2226709999999998 -3.332838
19920 -0.03622833 12.153373560000002 -6.96516867 -2.034779 -0.8724059999999999 -2.508462
19940 -2.7214902000000003 11.121420420000002 -4.100727150000001 -1.7634740000000002 -0.132269 -1.355972
19960 -6.174364949999999 11.750859450000002 2.00897028 -2.038017 0.837583 -1.496933
19980 -7.60493763 8.9597673 4.34531007 -2.23931 -0.267706 -1.971213
20000 -1.92289734 4.297859100000001 1.4890991400000002 -1.684351 -1.368349 -2.398556
20020 1.96751322 4.05266796 -0.8270320499999999 -1.210255 -0.8785040000000001 -2.231366
20040 3.7845802800000006 5.123400030000001 -1.8191664 -0.805134 -1.838887 -2.173894
20060 3.47412321 7.99637625 -1.39285323 -0.5931890000000001 -2.487896 -2.027372
20080 1.8685597500000002 8.09591832 -1.7887848300000002 -0.459949 -2.566872 -1.84047
20100 -3.07670049 8.176144500000001 2.9654845200000004 -0.29472600000000004 -2.734886 -1.260124
20120 -7.155865260000001 7.5139204500000005 0.8271792000000001 0.111097 -2.666642 -0.5641010000000001
20140 -6.3462067200000005 7.782017939999999 -3.2687508600000004 0.734347 -2.373463 0.169472
20160 -6.0791589 9.64698723 -1.3793841 1.797088 -1.723359 1.040254
20180 -5.5543533300000005 13.30702956 -0.5465151 2.504434 -0.674689 1.382478
20200 -8.24619771 12.540476159999999 -3.71137806 0.970877 0.073573 1.270394
20220 -11.112287310000001 14.49510885 -1.2386694600000003 -0.9461 -2.101402 0.456488
20240 -6.4321227 13.289361750000001 3.81227391 -0.201216 -2.207386 -1.1223459999999998
20260 -5.73277761 13.08743271 -1.00171872 -0.340114 -0.412847 -1.421514
20280 -5.4660339 11.688889679999999 -0.01886463 0.056686 2.516274 -0.604237
20300 -6.84721323 15.09745266 3.43805184 -0.143827 4.682316 1.081513
20320 -2.88240363 18.707493420000002 -1.7380377 0.118076 1.086589 0.6937770000000001
20340 1.04542227 19.50054363 -2.9121966 0.319261 2.294591 1.056829
20360 3.31575057 17.35835355 -1.2509515800000002 -0.16833499999999998 2.803528 1.811209
20380 0.7505434800000002 13.89305934 3.0976546500000004 1.409675 1.417893 3.033234
20400 -3.78907326 11.097925470000002 0.46418958 2.659307 0.701267 3.205251
20420 -2.88240363 7.83965169 -0.5343899400000001 3.165798 0.823177 2.91594
20440 -1.7191730700000003 4.46746419 -0.48902850000000003 1.628297 1.323358 2.24333
20460 -1.20663981 4.046389560000001 -1.22115861 1.136141 -0.626077 1.068414
20480 -0.77209605 5.0569372800000005 -2.6440991100000004 1.449407 -0.489918 0.580114
20500 0.6243476400000001 2.5685130600000003 -2.17662318 1.207716 0.853938 0.387629
20520 1.9127243700000003 0.27917298 -1.65062079 1.364447 0.951024 0.747522
20540 2.6973870300000002 -1.40258475 -0.9891423 1.7502259999999998 0.50305 1.351131
20560 1.39180356 -1.7747074800000002 1.15649109 1.7284580000000005 0.131608 1.551213
20580 -0.35910486 -0.5472606600000001 3.4033244399999996 0.900625 0.506742 1.43065
20600 -6.28812171 4.49874828 6.25714173 0.485448 1.268239 1.035805
20620 -11.965963320000002 16.73235783 8.99764371 0.13811600000000002 1.182647 0.364781
20640 -11.66344254 33.662151720000004 12.273575490000002 0.28649600000000003 1.025177 0.188695
20660 -5.78053269 22.14630063 10.927574820000002 0.312279 0.155659 0.229513
20680 -2.25850725 4.6687948200000005 7.36648596 1.034358 -0.707287 -0.111509
20700 -1.3638156300000002 15.669414900000001 5.20572555 -0.47328 0.038934 -0.534262
20720 3.60944235 26.28877914 -9.39026934 -1.276355 0.258211 -0.860619
20740 3.17220084 1.87904664 2.67717843 -1.7407740000000005 0.216551 -2.026035
20760 0.40700709 0.25461855 1.5533154000000002 -3.040337 1.294797 -3.075874
20780 1.22220828 3.4682862600000006 -3.1491473400000003 -2.702385 2.041922 -3.460099
20800 -0.17453952 11.34250839 -11.734545420000002 -1.905099 -0.949786 -2.716828
20820 -3.2967486000000004 16.5777228 -7.2362484 -1.578984 -0.375952 -1.581902
20840 -7.30390797 13.1098878 0.02889045 -1.722429 0.998523 -1.524845
20860 -8.936566650000001 8.68598982 3.5206814700000004 -1.609421 0.713599 -2.031096
20880 -5.37831288 5.91629328 1.8049419 -1.028527 -0.444133 -2.589576
20900 -0.50999247 4.62658239 0.90711108 -0.644423 -0.9003969999999999 -2.574558
20920 2.29502988 4.30773777 -1.01145024 -0.39479 -2.057121 -2.300003
20940 3.94564086 5.68802439 -1.281186 -0.242335 -3.207332 -2.237644
20960 1.97694063 7.468568820000001 -0.21046374 -0.406274 -3.43635 -1.83364
20980 -1.09946556 9.77347737 1.0129413600000001 -0.306485 -3.186636 -1.231854
21000 -4.23679185 9.98139051 2.9318067900000004 0.123974 -2.956165 -0.633074
21020 -6.476581620000001 8.67955446 0.31120263000000004 0.692963 -2.86956 -0.141034
21040 -4.60502001 6.277497480000001 -2.29816908 1.58152 -2.194808 0.5778810000000001
21060 -3.16576548 8.29784736 -2.63527011 2.566576 -1.021401 1.45279
21080 -4.92595416 10.61292888 -4.0288689 1.405685 0.403617 1.473834
21100 -11.686201740000001 12.61142208 -4.0701886200000015 -0.6819890000000001 -1.085461 1.108646
21120 -9.0813132 14.09888295 5.95357128 -0.472472 -2.732721 -1.115022
21140 -8.07674958 11.789628570000001 -1.45407744 -0.513728 -0.602857 -1.439574
21160 -6.15340098 9.886939830000001 0.9336078900000001 0.082531 2.356404 -0.341069
21180 -5.98874994 11.715690600000002 2.4789968100000004 -0.738622 3.916904 0.668142
21200 -3.8757446100000004 17.56252908 3.76706943 0.956911 2.4389990000000004 0.090085
21220 -0.54067815 23.3884134 -4.30369605 0.983668 3.635794 1.274464
21240 1.9646683200000001 21.528378540000002 -3.0455635500000007 -0.166297 2.895742 1.925405
21260 0.58648104 18.259176420000003 2.26508976 0.727009 2.3070630000000003 3.175809
21280 -1.7154354600000004 14.443164900000001 4.07332782 1.957791 1.2569290000000002 3.64936
21300 -3.7519522200000006 10.52281422 0.7439511600000001 2.1470580000000004 0.913106 3.686374
21320 -4.21254153 6.77161737 -1.07581365 1.819321 1.532085 3.158795
21340 -2.1263273100000006 3.75359049 -1.5621542100000003 1.34776 0.621154 2.000852
21360 -0.75233871 3.22399764 -2.44635894 1.072155 -0.218732 0.755525
21380 1.4431491 0.5060979 -3.4509225600000004 0.92278 0.8642989999999999 0.17518499999999998
21400 3.0686170500000003 -0.9122024700000001 -2.1713846400000003 1.498571 1.20248 0.352894
21420 2.52001242 0.30536568000000003 -1.07132067 1.983216 0.472788 0.991738
21440 2.23634646 0.6107313599999998 -0.39472497000000006 1.361266 -0.568385 1.363674
21460 0.8270320499999999 -0.048353490000000006 0.96848244 0.671189 1.010078 1.231849
21480 -0.89124831 0.6197075100000001 3.34119771 0.564496 1.502316 0.7722060000000001
21500 -7.89278265 6.683150790000001 8.034242850000002 0.238087 0.804409 0.294393
21520 -13.92644277 20.98022517 6.308477460000001 0.402355 0.905666 0.40437
21540 -12.278362770000001 37.40167467 12.52325961 0.16056900000000002 0.346977 0.468558
21560 -5.47665813 14.851064700000002 10.39079124 0.28746900000000003 -0.421465 0.18735
21580 0.9648919800000001 12.163850640000001 6.63839757 -0.056486 -0.336089 -0.351409
21600 2.07349065 25.645419720000003 -0.44592336000000005 -1.458607 -0.14066199999999998 -0.587916
21620 0.5029587000000001 10.51728138 -6.368652 -1.578697 -0.106419 -1.852506
21640 1.7265109500000002 -5.049746550000001 -1.8476055900000001 -2.603052 0.8424450000000001 -3.0198970000000003
21660 2.90516283 1.4299742700000002 3.41155503 -2.612371 1.992096 -3.5982760000000003
21680 2.12273685 6.664590270000001 -4.0082188499999996 -2.063959 -0.406233 -2.910914
21700 0.04371336 14.70706371 -8.70335352 -1.846907 -1.331839 -1.798329
21720 -3.77649684 16.001424540000002 -6.1719615 -1.804059 0.14665999999999998 -1.543551
21740 -7.31768121 12.32477388 0.005542650000000001 -1.876474 0.423625 -2.011225
21760 -8.64781911 8.875793700000001 1.8624285 -1.60505 -0.452039 -2.510271
21780 -6.1975656 4.98688407 1.21278087 -0.97619 -1.112367 -2.558444
21800 -0.94064166 3.00186 -0.30252078000000004 -0.6718149999999999 -1.60088 -2.401868
21820 1.5780169800000001 3.77350479 -2.15072478 -0.34780500000000003 -2.25141 -2.504525
21840 2.39352228 6.53271444 -1.66363866 -0.381385 -2.532694 -2.196751
21860 2.0727352800000003 9.5612184 0.026496810000000003 -0.463264 -2.76303 -1.53473
21880 -2.0787291900000002 9.076221810000002 3.8845736100000003 -0.111143 -2.732054 -0.796305
21900 -6.71069727 8.22284991 0.34757811 0.474258 -2.699142 -0.211146
21920 -5.67604638 8.632996200000001 -2.74918383 1.2528780000000002 -2.371951 0.407033
21940 -2.7217943100000004 9.06590169 -1.3082812199999998 2.294275 -1.6126049999999998 1.150407
21960 -1.87500492 11.196417870000001 -1.2190690800000001 2.080863 -0.128205 1.217517
21980 -7.049593530000001 12.093797430000002 -3.74086692 -0.007936 -0.674534 0.858591
22000 -11.590397280000001 13.07740689 -2.4903665999999998 -0.695074 -2.667623 -0.419112
22020 -6.80409828 12.86859123 4.72193559 0.06054800000000001 -1.943987 -1.417821
22040 -6.6723794100000005 10.62325881 -3.46395024 0.009884 -0.4108270000000001 -1.430822
22060 -6.183645210000001 10.91829456 0.62015877 0.192684 2.837843 -0.153978
22080 -6.6722224500000005 13.774358340000001 2.9812001400000003 0.277321 4.087944 1.501823
22100 -3.6386369100000002 18.42997833 1.03584771 -1.42298 0.13302999999999998 1.2642790000000002
22120 -0.09355797 20.67485949 -3.3096193200000004 -0.137767 1.949091 1.274133
22140 2.30026842 20.36380401 -2.0446002 -0.001639 3.048165 1.7607849999999998
22160 1.18643121 16.540601759999998 1.6732230300000004 1.087163 3.157691 2.463663
22180 -2.71190583 12.391835040000002 3.21785658 2.196551 2.176198 3.192651
22200 -2.6195544900000005 10.244847870000001 -0.18710613 2.768636 0.278217 3.1446
22220 -2.30895027 7.461829350000001 -0.49277592000000003 2.745009 0.104265 3.242934
22240 -1.22355225 5.6576330100000005 -0.67643874 1.04196 0.205813 1.970406
22260 -0.35970327 3.62111625 -2.00463426 1.278217 -0.206579 0.734516
22280 1.0115973900000002 0.63453042 -2.22242607 1.330302 1.249906 0.094217
22300 1.45033002 -0.12857967 -1.85808267 1.315526 1.779432 0.351944
22320 1.8519514200000002 -0.92193399 -1.27011051 1.623374 0.814243 1.1618389999999998
22340 1.5187449600000003 -1.38207204 -0.44577621000000006 2.132273 0.263306 1.566683
22360 0.00928026 -1.07102637 1.19601558 1.367259 -0.039547000000000006 1.509385
22380 -1.32639048 0.58198806 3.6109432800000003 0.701624 1.039231 1.374098
22400 -9.27575721 7.32636306 7.6728915 0.274214 1.421547 0.709393
22420 -15.07709691 21.94421463 7.16171202 0.23223 1.035044 0.16587000000000002
22440 -11.416309020000002 34.61147523 11.977195770000002 0.408528 0.7705850000000001 0.080915
22460 -7.26544296 14.052775950000001 6.921906570000001 0.07001 0.076849 0.168101
22480 -1.4715882900000001 1.5667943400000004 6.47628732 0.5838260000000001 -0.386851 -0.200525
22500 -0.32033574000000004 12.307557330000002 3.1347855 -0.8336110000000001 0.0903 -0.546459
22520 4.745136240000001 23.65651089 -3.5354945700000004 -1.240853 -0.476816 -1.426655
22540 3.4857971100000005 11.69428518 7.56152838 -1.956882 -0.388112 -2.740342
22560 -0.82029258 2.54022102 0.68452218 -2.763521 1.107538 -3.372803
22580 -0.7318260000000001 4.768788150000001 -3.00290967 -2.6033310000000003 0.657583 -3.143576
22600 -0.49098069000000005 6.533312850000001 -8.889262830000002 -2.145878 -1.012934 -1.902307
22620 -1.24555608 12.73925619 -7.75447146 -1.831641 0.083345 -1.403726
22640 -2.8551612600000005 13.091180130000001 -4.4839253700000015 -1.949311 0.477841 -1.653949
22660 -6.675371460000001 12.11251491 0.54591669 -1.700804 0.578547 -2.0112650000000003
22680 -8.931475260000001 9.73904427 4.13904501 -0.961641 0.214007 -2.331442
22700 -3.6039095100000003 5.23731375 1.37354715 -0.567971 -0.6560050000000001 -2.485674
22720 1.1047041 3.5714187900000005 -0.16136469000000003 -0.344412 -2.087857 -2.382933
22740 3.3793684200000005 3.5371426500000003 -1.6913322899999998 -0.413928 -2.610513 -2.155218
22760 3.46933593 7.40420541 -1.43506566 -0.40374 -2.806936 -1.528917
22780 -0.61282089 9.242677890000001 -0.44726733 -0.246167 -2.896572 -0.829084
22800 -2.2210821000000003 8.6358411 2.6092245600000004 0.178176 -2.820623 -0.210922
22820 -5.69864862 8.92563831 3.8785797000000004 0.740749 -2.68308 0.335488
22840 -6.806344770000001 8.419844520000002 -2.08561581 1.583268 -2.15367 0.94424
22860 -4.386776940000001 8.22270276 -2.5828749 2.139843 -0.709134 1.52098
22880 -3.1431632400000002 10.58389128 -1.1677235400000001 0.537791 0.375295 1.317189
22900 -5.4308552400000005 11.28249081 -2.52719334 -0.798778 -1.698869 0.364066
22920 -11.470048199999999 12.56456952 -3.18582693 -0.014204 -2.2427740000000003 -1.22568
22940 -9.465119640000001 13.13787573 4.8383901 -0.08823099999999999 -0.977761 -1.294048
22960 -8.053705890000002 11.319464700000003 -3.0397266000000003 -0.249434 1.055996 -0.658984
22980 -6.843171510000001 12.36878154 0.02185668 0.665687 4.347183 0.8055869999999999
23000 -6.96875913 15.187420170000001 3.6106391700000002 -0.213963 3.106403 2.29868
23020 -2.6030835 19.56985128 1.8510489 -0.135023 0.410982 1.50045
23040 2.52420129 20.74940568 -4.08860199 0.157084 2.763048 1.529387
23060 4.934488860000001 18.869309370000003 -1.43372169 0.70086 2.834177 1.917654
23080 2.12273685 14.870527740000002 1.9243982700000002 1.7757349999999998 1.720907 2.597432
23100 -1.82710269 12.413681910000001 3.0220686000000003 1.924907 1.306753 2.940836
23120 -2.9121966 9.708957000000002 0.20252745000000003 2.475255 0.531658 3.156113
23140 -3.68683344 6.8591814300000005 -0.5171733900000002 3.033763 0.282864 2.552514
23160 -3.04421958 4.95919044 -1.2308901300000001 1.668127 1.11207 1.235477
23180 -1.6164918 3.44927448 -1.92125907 0.969415 0.8574959999999999 0.237477
23200 0.45116190000000006 -0.055230299999999996 -2.18769867 1.173382 1.351168 0.214768
23220 1.22565159 -1.06039233 -1.9398195900000001 1.7065990000000002 0.77152 1.11761
23240 1.69312752 -0.32227812 -1.3228000200000003 1.232932 0.075489 1.3630209999999998
23260 1.2328325100000002 -0.21884148000000003 -0.65653425 0.5703779999999999 1.479659 1.104493
23280 0.17035065000000002 -0.3409956 0.8264336400000001 0.432459 1.945224 0.682054
23300 -0.7232913 0.74964096 4.27615938 0.225985 0.8517600000000001 0.185289
23320 -8.07705369 7.27786242 8.66353473 0.475587 0.831752 0.177445
23340 -13.241910780000001 23.558459940000006 7.03417221 0.206487 0.159058 0.27043
23360 -9.72961686 34.257461760000005 11.805354000000001 0.439831 -0.76477 0.126898
23380 -6.26477391 11.223513089999999 6.88852314 0.343818 -0.7625270000000001 -0.35020300000000004
23400 -1.573524 0.26839179 7.116654690000001 -1.537373 -0.673691 -0.688196
23420 -1.3674060900000002 12.561577470000001 4.3294473 -1.419056 -0.321646 -1.980369
23440 5.61617595 25.15219254 -6.7837425300000005 -2.492019 0.569559 -3.0721830000000003
23460 8.05325463 16.28208864 5.767956270000001 -2.674275 1.696378 -3.65174
23480 -2.84528259 3.93860709 -0.28410741 -2.165222 -0.600915 -2.888939
23500 -1.3181598900000002 6.65995014 -5.42068227 -1.9432080000000005 -0.868315 -1.747253
23520 -1.22430762 7.807160970000001 -9.65731716 -2.025937 0.099716 -1.59952
23540 -1.4587175700000001 11.409422400000002 -6.71039316 -1.979864 0.407096 -2.050382
23560 -2.9936294100000005 11.116927440000001 -3.01263138 -1.421504 -0.322246 -2.62666
23580 -6.12646272 11.473785809999999 -0.54785907 -0.8300620000000001 -1.065269 -2.741218
23600 -8.67565989 7.755069870000002 6.2724060900000005 -0.6024109999999999 -2.213052 -2.552286
23620 -2.5981490700000003 3.9700481400000003 1.55856375 -0.385297 -3.063708 -2.33283
23640 1.34959113 2.8687873500000003 -1.5033236400000003 -0.430054 -3.186255 -1.751873
23660 4.3354314 6.25953537 -1.61409816 -0.238016 -3.248135 -1.096701
23680 2.5122232800000006 10.064020140000002 0.997677 0.329829 -3.139313 -0.565172
23700 -3.45675951 9.60552036 3.30497919 0.8591270000000001 -2.943478 0.084548
23720 -7.735763790000001 7.99308009 0.7048877400000001 1.7840779999999998 -2.164768 0.8815639999999999
23740 -6.98447475 7.910303310000001 -2.43843246 2.534865 -0.525648 1.64635
23760 -4.5452967300000005 8.211774420000001 -1.2795379199999999 0.742991 0.514001 1.616478
23780 -3.9739329000000003 10.274336730000002 -0.96444072 -0.605683 -1.787504 0.517216
23800 -6.56639217 12.01745601 -2.54171214 -0.019643 -2.392451 -1.352645
23820 -12.142896480000001 13.45552353 -3.9818691900000003 -0.17191199999999998 -0.770146 -1.4594049999999998
23840 -8.731341450000002 14.03227305 7.86509883 -0.211482 0.631274 -0.506487
23860 -7.50554271 11.822717700000002 -2.93389632 1.180184 3.933112 0.8118479999999999
23880 -4.94062992 11.396100420000002 -0.42286986 1.05419 4.208914 2.54327
23900 -5.857315560000001 13.92554025 2.72822967 -0.946544 -0.479632 1.947781
23920 -3.4331076 18.71019117 0.5041555199999999 -0.033469 1.58882 0.969812
23940 0.38874087000000007 20.863613700000002 -3.23253234 1.031928 2.345262 1.353367
23960 2.7756806400000005 19.19967093 -1.1437675200000001 2.110258 2.092355 2.125002
23980 1.19735955 15.355220220000001 1.86078042 1.943319 1.313191 2.647195
24000 -1.6557023700000002 12.10188087 3.0985571700000003 1.921319 -0.194246 2.950212
24020 -3.33910818 9.315576 -0.13037490000000002 3.238025 -1.308263 2.277174
24040 -3.09032658 5.90356971 -0.77688333 3.855175 1.621961 1.298171
24060 -1.9681116300000001 3.3917976899999998 -1.88608041 0.903319 2.22486 0.407247
24080 -0.9324110700000001 1.3235455800000002 -2.20701456 0.8628170000000001 1.378573 0.024556
24100 0.78915564 -0.3555144 -2.60324046 1.645317 1.481751 0.981676
24120 1.28582613 0.18427104 -1.64926701 1.040184 0.738109 0.993357
24140 2.28051108 0.13217994000000002 -1.3823761500000002 0.674977 2.056086 0.719925
24160 2.14039485 -0.48304440000000004 0.1995354 0.5970340000000001 1.801662 0.47722
24180 0.60085269 -0.20058507 2.77508223 0.4124930000000001 1.21146 0.11456
24200 -3.59657163 3.2621683500000005 6.73479063 0.48164 1.252311 -0.037765
24220 -11.563154910000002 15.733631160000002 10.60035246 -0.110621 0.8247559999999999 0.037695
24240 -13.5784134 33.84072315 10.481357160000002 -0.074572 -0.47995 0.208397
24260 -6.842121840000001 23.642580690000006 11.599824690000002 0.174675 -0.323523 -0.497225
24280 -2.75097906 3.63399678 6.793022790000001 -1.701639 -0.060157 -0.795884
24300 2.30595822 -2.5273404900000003 6.35773347 -1.788534 0.311369 -1.986966
24320 0.5322906000000001 13.288616190000003 -1.3736943 -2.8675490000000003 1.622847 -3.21182
24340 8.10609129 22.552552350000003 -6.25399272 -2.791283 2.273955 -3.865874
24360 0.5423262300000001 18.957923100000002 7.8501287699999995 -2.152061 -0.207226 -3.050653
24380 -6.5152035900000005 7.807160970000001 -3.0805950600000003 -1.892143 -0.35849699999999995 -1.679184
24400 -2.76924528 5.7769324200000005 -6.859632690000001 -1.981182 0.364764 -1.320741
24420 -1.5989711400000002 5.87213847 -8.88672204 -1.816951 1.227243 -1.630484
24440 -1.44090261 8.87084946 -5.26844088 -1.162153 -0.360086 -2.446407
24460 -2.55937995 12.354262740000001 -3.56154012 -0.865604 -1.072871 -2.6741580000000003
24480 -5.34898098 13.11692157 -0.10373094000000001 -0.498429 -1.663482 -2.348234
24500 -4.53122919 6.02496846 5.36094918 -0.25655900000000004 -2.76644 -2.192375
24520 1.21127994 3.6803980800000002 2.00433015 -0.339414 -3.2831620000000004 -1.83871
24540 3.67470828 4.54619925 -1.1379305700000002 -0.35841300000000004 -3.285769 -1.171201
24560 3.50406333 8.848698480000001 -1.5444864 -0.06058300000000001 -2.844106 -0.5244800000000001
24580 -0.9157929300000001 8.98102557 1.57846824 0.517609 -2.730302 0.084026
24600 -4.833602820000001 7.378905420000001 1.1258054100000001 1.507919 -2.123344 0.8849229999999999
24620 -5.94264294 7.37127324 -1.8685597500000002 2.520903 -1.049491 1.856295
24640 -4.912936290000001 9.369462330000001 -1.3572233100000002 1.160875 0.181435 1.836672
24660 -4.45862538 12.087666180000001 -0.25117524 -0.95079 -1.405963 0.772826
24680 -3.8064369600000005 13.641285690000002 -0.05792805 -0.246364 -3.010493 -1.376938
24700 -10.514436480000002 11.92315248 -4.49350974 -0.05829400000000001 -1.053249 -1.622755
24720 -12.538072710000002 13.07261961 0.37781253 -0.396534 0.193294 -0.8405030000000001
24740 -7.538622030000001 10.667570580000001 0.9262700100000001 0.792045 3.300276 0.365567
24760 -5.585637419999999 7.64894529 -2.15072478 0.801662 4.200204 1.7446240000000002
24780 -4.89662226 9.66749994 1.39359879 -0.445441 -0.163805 1.387923
24800 -5.37996096 17.174985030000002 4.247416080000001 -0.211587 1.518616 1.3639
24820 -1.99669797 22.29463764 -1.40063256 0.054535 1.762247 1.744666
24840 1.76797782 20.442539070000002 -2.38678281 0.902727 1.446647 2.1441
24860 1.59104466 17.75203866 -0.87747507 1.80432 0.335377 2.208438
24880 -1.16921466 14.67652518 4.11090012 2.50069 -0.2602 2.159586
24900 -5.34898098 11.52618102 0.9401904 2.988768 -0.030141 2.2791360000000003
24920 -5.602402710000001 7.910901720000001 -0.97072893 3.650657 0.90839 1.700376
24940 -2.5566822000000005 4.64543721 -0.90726804 1.614194 0.8422370000000001 1.095509
24960 -0.96399927 2.9322482400000003 -1.47832776 0.693693 0.8231350000000001 0.544311
24980 0.93525597 1.7595902700000001 -2.73077046 1.290159 2.00053 0.759545
25000 2.88000999 -0.3555144 -2.80397268 1.701025 0.975039 1.37582
25020 1.12880727 -0.062273880000000004 -0.4167288 1.408936 0.078032 1.373861
25040 1.46859624 -0.13546629000000002 -0.40311252 0.903683 0.98479 1.227096
25060 0.47151765 -1.64253735 0.043114950000000006 0.542342 1.50686 0.720771
25080 0.07170129 -0.42601887000000005 2.0528307900000007 0.082969 1.347372 -0.021443
25100 -5.037327090000001 5.27413068 6.903797310000001 0.034745 1.187137 -0.13480599999999998
25120 -13.48336431 21.2772033 9.90924777 0.19718 0.412824 0.220902
25140 -13.73783571 39.69804852 11.822717700000002 1.200195 -1.005259 0.200883
25160 -6.85933839 13.89934755 9.15585939 -0.285193 0.051403 -0.352435
25180 -1.69013547 -0.8960355900000001 6.47328546 -1.326456 0.189566 -0.7006479999999999
25200 -0.70668297 5.40571221 4.2716664 -1.485585 -0.09364 -1.6660009999999998
25220 0.05134554 19.61057259 -4.518505620000002 -2.707612 0.87156 -2.751473
25240 9.434277 17.99797536 0.46433673000000003 -2.775064 2.539342 -3.647115
25260 -3.2925499200000004 6.01898436 4.45773267 -2.222629 0.857476 -3.378318
25280 -2.6252442900000004 7.331307300000001 -1.5232281300000001 -1.697988 -1.039073 -1.880986
25300 -2.9318067900000004 8.03753901 -5.8308285600000005 -1.715355 -0.5395449999999999 -1.312385
25320 -3.24360783 9.6338124 -7.456590810000001 -1.983506 0.8194459999999999 -1.537121
25340 -3.08389122 9.876609900000002 -4.52284164 -1.392397 -0.189452 -2.560397
25360 -3.28162158 9.379341 -1.90868265 -0.993087 -1.567106 -2.577207
25380 -4.0689918 9.06574473 -0.19040229 -0.659146 -2.043264 -2.339255
25400 -3.3175556100000003 6.9888205800000005 5.6736527400000005 -0.324961 -3.194846 -2.357878
25420 0.78601644 5.404358429999999 3.1524435000000004 -0.371885 -3.592215 -2.045776
25440 1.4904529199999998 5.27652432 -0.51088518 -0.363601 -3.329231 -1.486307
25460 3.08793294 7.241643900000001 -1.9928034 0.074621 -3.188601 -0.8051050000000001
25480 -0.18306441 8.609344290000001 -0.21390705000000002 0.586886 -3.200521 -0.133873
25500 -3.51349074 9.090897570000001 2.44740861 1.477655 -2.4356310000000003 0.419367
25520 -6.874004340000001 9.30899349 1.6949227500000001 2.728255 -0.789196 1.319026
25540 -6.2644698000000005 8.47208277 -0.30311919 1.725434 0.448799 1.353164
25560 -3.7631748600000003 8.427025440000001 -1.89236862 -0.103868 -0.539375 0.974184
25580 -1.63295298 10.86350571 -2.65457619 -0.31964000000000004 -2.516459 -0.717921
25600 -5.612281380000001 12.09859452 -6.499331010000001 0.059814 -1.192824 -1.452972
25620 -11.93438493 14.728773240000002 -1.2777426900000002 -0.181195 -0.514018 -1.034646
25640 -9.23310333 14.07418137 5.669905320000001 0.593683 3.263791 0.071535
25660 -6.8154778799999995 10.76845662 -4.28798043 0.976857 4.672786 1.6928990000000002
25680 -5.9459391 9.91283823 0.80787312 -1.033392 -0.223387 1.3465049999999998
25700 -5.9401021499999995 9.80655669 2.83973994 0.07561699999999999 1.751961 0.836837
25720 -4.8499168500000005 16.852255650000004 3.1720536900000003 0.432644 2.4091560000000003 1.345895
25740 -1.5655975200000003 22.62260556 -1.5197848200000001 1.378329 2.2062630000000003 2.245794
25760 1.44405162 19.667450970000004 -2.17812411 1.930782 1.575431 2.612588
25780 0.37287810000000005 16.15096818 -0.21929274 2.248286 0.630089 2.714294
25800 -4.44336102 12.64495266 3.2135205600000005 2.467963 -0.236218 2.583411
25820 -6.0879879 9.763147440000001 0.37077876000000004 2.568955 0.581441 1.816085
25840 -2.6337691800000003 6.7702734 -0.89139546 1.573878 1.138381 0.865181
25860 -1.2039420600000001 3.97693476 -1.2666672 0.728534 1.048463 0.375487
25880 -0.5161237200000001 2.5020503100000004 -2.47405257 0.767027 1.898894 0.25716100000000003
25900 1.28508057 0.5719622400000001 -3.1257995400000005 1.6934240000000005 1.6852740000000002 0.926203
25920 2.43064332 -0.41553198 -1.7618367600000002 1.821394 0.096377 1.48995
25940 1.57502493 0.21465261000000002 -0.5683717800000001 1.070887 0.294836 1.794238
25960 1.0497681 0.23815737 0.13950801 0.472502 1.6511779999999998 1.452898
25980 -0.61462593 -0.40340682000000005 1.61499087 -0.103312 1.874764 0.651696
26000 -1.98412155 1.05366267 4.38648264 0.026855 1.637714 0.412559
26020 -9.919872000000002 9.787996170000001 9.14628483 0.094845 0.769645 0.321211
26040 -13.55416308 25.952286330000003 8.212372830000001 0.004659 -0.372813 0.253679
26060 -7.2359541 31.97231055 13.071265830000002 0.110235 -0.662032 -0.5036510000000001
26080 -4.213738350000002 8.394397380000001 6.356978100000001 -1.388858 -1.043242 -1.107565
26100 -0.46118772 -1.54314243 5.4313065 -1.422525 -0.574611 -2.651981
26120 -3.63744009 12.55124754 1.24091595 -2.638783 0.968987 -3.730677
26140 5.69640213 22.978267110000004 -4.92610131 -2.809524 1.483914 -3.682323
26160 1.6714278 14.75197389 9.75042387 -2.346321 -0.15548199999999998 -2.503011
26180 -4.68840501 4.925807010000001 -1.2638223 -2.204367 0.045993 -1.596425
26200 -1.2835796400000001 4.97086434 -3.3260805 -2.324976 0.401586 -1.705614
26220 -1.4596102800000001 5.59551609 -8.56608219 -1.944636 0.22567 -1.998629
26240 -1.9815807600000002 11.69233299 -5.88500919 -1.33248 -0.200118 -2.609103
26260 -2.3785522200000004 11.99979801 -3.11382153 -0.59148 -1.049589 -2.8730990000000003
26280 -3.8517885900000004 11.90489607 -0.8408052900000001 -0.472124 -2.78081 -2.673494
26300 -6.61010553 9.86897772 3.6588455100000004 -0.517492 -3.36745 -2.183813
26320 -3.00949218 5.56019028 3.4105053600000006 -0.35305 -3.551013 -1.444288
26340 0.55849311 4.60278333 0.65263968 0.102357 -3.447475 -0.825944
26360 2.0134632600000004 4.5176031 -2.26418724 0.664944 -3.334322 -0.30727600000000005
26380 2.4231582900000004 7.73770617 -2.94063579 1.30785 -2.718372 0.411066
26400 1.07146782 8.96890041 -0.9930368700000001 2.371008 -1.668118 1.113627
26420 -2.65113288 8.60051529 3.0770046 2.205655 -0.399115 1.19203
26440 -6.15849237 8.68628412 0.41373675 0.381713 -0.162152 1.3231959999999998
26460 -5.285059020000001 8.53689744 -1.51125993 -0.8741770000000001 -2.126831 0.093827
26480 -4.4771859 9.44445978 -1.41380739 0.151553 -2.383055 -1.452942
26500 -5.682933 10.17867942 -1.30273857 -0.398393 -1.410256 -1.559511
26520 -10.682089379999999 9.480982410000001 -3.1608310500000005 0.057519000000000015 1.639048 -0.479194
26540 -12.560527800000001 11.944410750000001 -1.4287774500000001 -0.784482 4.525549 0.082725
26560 -8.58360285 11.562252390000001 -1.12880727 1.195036 2.5474240000000004 -0.323929
26580 -6.1748064000000005 13.754601 -2.70682425 0.569813 3.163268 1.252951
26600 -4.7921359500000005 16.778611980000004 4.390965810000001 -0.419632 2.497473 2.108948
26620 -2.85740775 19.9151829 4.008513150000001 0.601739 1.490674 3.647066
26640 1.21023027 20.48295627 -2.37001752 2.184988 0.538342 4.132568
26660 3.78907326 17.959804650000002 -1.01638467 3.306536 0.371164 3.67594
26680 2.07992601 16.12641375 1.5582596400000002 2.70227 2.096892 2.873682
26700 -3.3383626200000003 12.56801283 3.1216106700000004 1.965306 1.402165 1.159201
26720 -5.30825967 10.53029925 0.65174697 1.150673 -0.058445 0.297601
26740 -5.02011054 7.604339220000001 -1.25619012 0.6423300000000001 0.650234 0.404237
26760 -3.28491774 4.81548375 -1.7092944 1.314371 1.47836 0.7849520000000001
26780 -1.2298404600000001 1.46709531 -2.41088598 1.572395 0.690707 1.46288
26800 0.96204708 -1.39075389 -2.7732870000000003 0.796709 0.8310620000000001 1.1357469999999998
26820 2.64545289 -1.29450798 -1.63893708 0.459881 2.4868 0.82042
26840 2.1764760300000003 -0.20417553000000002 -1.1870296200000001 0.464762 2.137418 0.8091510000000001
26860 1.6691813100000001 -0.9729754200000001 -0.18097488 0.342822 0.711899 0.161716
26880 0.27228636 -1.09497258 2.5523461800000002 0.465772 0.813449 -0.031972
26900 -4.372856550000001 1.8244049400000002 6.05535984 -0.053379 0.589963 0.362067
26920 -11.52304182 9.890235990000003 10.23107463 0.335798 0.031482 0.094172
26940 -12.201727049999999 27.15008733 11.28608127 0.955966 -0.036399 -0.516705
26960 -6.42539304 32.10463764 13.323647700000002 -0.524684 0.398512 -0.368439
26980 -1.48491027 10.217007090000001 6.9907629600000005 -1.394009 0.649756 -0.639753
27000 -2.49141627 14.019098220000002 9.01904913 -1.644346 0.605016 -1.487476
27020 -1.8646749900000001 28.43756154 1.33162902 -2.666555 0.526317 -2.497575
27040 2.65921632 10.34872596 -9.26797788 -2.6280490000000003 1.2057209999999998 -3.268365
27060 5.047058610000001 -5.777383680000001 -1.23119424 -2.173893 -0.254493 -3.465215
27080 6.086643929999999 0.64306512 2.9412342 -1.641572 -0.725654 -2.252734
27100 1.26351819 7.984996649999999 -8.38526427 -1.6105040000000002 0.47519 -1.551166
27120 -2.4041465100000003 17.85696642 -8.88163065 -1.506822 0.254314 -1.816146
27140 -7.05797127 20.290307490000004 -5.06142045 -1.116973 -0.427707 -2.3584110000000003
27160 -10.00114785 12.071646450000001 1.06907418 -0.765596 -1.174264 -2.712854
27180 -8.80738857 6.734947590000001 2.51970831 -0.41162 -2.274354 -2.572239
27200 -2.35071144 3.75554268 1.53924786 -0.21970100000000006 -3.294208 -2.376244
27220 2.8373463000000005 2.57794047 0.15926535 -0.172501 -3.514505 -1.938729
27240 4.662957870000001 4.1712218100000005 -0.53020107 -0.04809 -3.485381 -1.338625
27260 4.06015299 7.05737286 -0.8434932300000001 0.324319 -3.100302 -0.725494
27280 0.018707670000000003 11.66778837 2.18396106 0.846828 -2.63233 -0.192606
27300 -4.484229480000001 9.49865022 3.8872615500000003 1.48245 -1.76378 0.499724
27320 -8.188426620000001 7.63307271 -1.6093010700000001 2.407639 -0.473672 1.280063
27340 -8.15040306 7.3543608 -2.9207214900000005 2.448819 0.851621 1.754011
27360 -5.65928109 8.70859206 -0.76011804 0.652837 0.556277 1.778164
27380 -2.0549301300000002 9.19493262 -0.01406754 -1.022211 -3.275774 -0.16638
27400 -3.5702219700000004 8.800197840000001 -3.0828415500000004 -0.068065 -2.823417 -1.694262
27420 -9.90370512 8.7169698 -5.43056094 -0.12603599999999998 -1.181757 -1.395532
27440 -7.10138052 13.81657077 1.6154421300000001 -0.143985 1.272872 -0.640365
27460 -6.31925865 16.280597519999997 3.45675951 1.907761 4.637912 0.817095
27480 -7.269484680000001 10.20233133 -1.9978947900000001 1.309138 2.404942 2.171348
27500 -7.434891090000001 9.63172287 1.34839431 -0.983881 -1.201933 1.4592
27520 -7.940233620000001 9.51585696 0.54441576 -0.34973000000000004 1.092956 0.572996
27540 -4.51745595 16.315324920000002 1.51963767 0.703168 2.853096 1.181641
27560 0.031136940000000002 21.841533360000003 -1.4422465800000002 1.496632 3.017927 1.896271
27580 3.12280749 20.48864607 -0.40789980000000003 2.103613 1.893971 2.457427
27600 1.5380510399999998 16.852108500000003 1.44209943 2.556507 0.340436 2.687976
27620 -2.105971560000001 12.819786480000001 2.01375756 3.331931 0.166631 2.32401
27640 -5.11202043 9.43622919 0.45670455000000004 1.572036 2.135773 1.3253620000000002
27660 -4.9732579800000005 5.557041270000001 -1.28223567 0.7452880000000001 0.609085 0.481921
27680 -3.1811868000000003 4.75171875 -1.48057425 0.800327 1.672035 0.217092
27700 -0.54740781 3.15019701 -2.2538671200000002 1.436641 1.707687 0.8720379999999999
27720 1.62262305 0.79350147 -2.30984298 1.069687 0.728346 1.54371
27740 1.7717154300000002 1.3997398499999998 -0.99662733 0.577391 0.955529 1.633984
27760 1.6097523300000003 1.84042467 -0.21630069000000005 0.360264 1.502944 1.590105
27780 0.8177517900000001 1.52458191 0.84708369 -0.056065 1.913176 0.861348
27800 -0.35087427000000004 0.38799531000000004 2.7036752400000004 -0.043868 1.7648970000000002 0.370241
27820 -0.57390462 0.57136383 4.9135347 0.048864 1.050659 0.149614
27840 -5.6510505 4.37001165 7.09300278 0.389259 -0.181752 0.092683
27860 -12.40320483 16.1957214 5.4664851599999995 -0.119287 -0.17553 -0.222798
27880 -15.732130230000001 35.706300660000004 10.265203620000001 -1.112388 0.068703 -0.498172
27900 -8.04622086 16.44330618 9.643995180000001 -1.171671 -0.047715 -1.435268
27920 -3.8221525800000005 0.42571475999999997 5.38160904 -2.020494 0.092993 -2.585443
27940 0.06196977000000001 -1.00770282 4.02108957 -2.158177 1.413391 -3.394604
27960 1.3181598900000002 14.43283497 -6.97698972 -1.910773 -0.008661 -3.365416
27980 10.81351395 22.261411170000002 -7.678130040000001 -1.542502 -1.238379 -2.256726
28000 1.02836268 18.46739367 12.138707609999999 -1.53754 0.4912220000000001 -1.627589
28020 -8.29350153 7.54117263 -3.74356467 -1.779997 1.321089 -1.68803
28040 -1.77066576 5.6308419 -6.49679022 -1.137858 0.702411 -2.0395380000000003
28060 0.6072880500000001 8.052352110000001 -8.28527094 -0.804583 -0.082356 -2.6792740000000004
28080 0.75562506 10.48689 -5.41289313 -0.405803 -0.961075 -2.791799
28100 -1.9874177100000001 13.52976561 -3.93996087 -0.243578 -2.2584310000000003 -2.437558
28120 -7.41468249 13.91192397 1.9625689800000001 -0.260534 -2.948439 -1.96357
28140 -7.67709018 6.834185550000001 6.23947392 -0.201942 -3.200803 -1.242856
28160 -1.4952402 3.7323420300000003 0.33530580000000004 0.02227 -3.333732 -0.696326
28180 2.29098816 3.77305353 -1.4678506800000002 0.4164640000000001 -3.3926730000000003 -0.151909
28200 4.0288689 7.6350248999999994 -1.2253474800000002 1.06023 -2.8946810000000003 0.493951
28220 0.9328623300000001 8.98700967 0.53603802 1.897789 -2.080572 1.305266
28240 -3.08628486 8.4678939 0.75966678 1.859349 -0.485262 1.722765
28260 -6.29515548 9.55942317 0.50459697 -0.140621 -0.004086 1.14202
28280 -5.49566991 9.12038643 -0.07334936999999998 -1.020563 -3.1206810000000003 -0.8566389999999999
28300 -5.41559088 7.55029593 -1.4406083100000002 -0.129584 -2.366868 -1.793553
28320 -5.920335000000001 8.78822964 -1.61140041 0.053829 -0.438276 -1.264905
28340 -10.86096492 10.068513120000002 -4.3146243900000005 0.016721 0.528745 -0.106315
28360 -11.369005200000002 13.372736940000001 2.85111954 0.829407 3.443509 0.743795
28380 -8.58015954 13.090581720000003 0.75966678 0.811509 3.464707 2.382295
28400 -6.627165120000001 11.136694590000001 -0.04011309 -0.801208 -0.033894 0.910981
28420 -5.887108530000001 9.97241436 -0.08471916 0.193896 2.23385 0.638357
28440 -7.30510479 13.82016123 2.4905235600000006 0.728492 3.195352 1.350158
28460 -2.8614494699999997 19.90814913 0.2576106 1.871305 2.615225 2.642887
28480 1.76273928 21.913980210000002 -2.8252211400000005 2.45401 1.793864 3.210963
28500 4.17078036 20.14151922 0.7791298200000001 2.644427 0.31761300000000003 3.522901
28520 2.21868846 16.420703940000003 2.8999242900000004 2.074264 0.138499 2.723322
28540 -1.02896109 11.33413065 1.68774183 1.425657 0.64285 1.303819
28560 -3.7910156400000004 8.64961434 -0.35386632 1.038424 0.312986 0.482211
28580 -3.6633286800000002 5.62589766 -1.3192095600000002 0.596372 1.366062 0.187218
28600 -2.60248509 3.71722482 -1.57502493 1.29936 2.054143 0.664469
28620 -0.40296537000000004 1.7187218100000001 -2.1808120500000006 1.562163 0.805721 1.480821
28640 0.58318488 -0.08876088000000001 -1.8775457100000001 0.886601 0.798212 1.280627
28660 1.1455725600000002 1.10455695 -0.88121268 0.571523 2.129793 1.02462
28680 1.14916302 1.3216032000000002 -0.51882147 0.26965100000000003 1.854923 0.495162
28700 0.77599062 1.0731159000000003 0.08517042 0.195381 1.008134 0.26712800000000003
28720 -0.05268951 1.15949295 1.5846093 0.367792 0.572362 0.402419
28740 -1.5358045500000002 1.8197648100000001 5.29194564 0.284011 -0.019671 0.41007
28760 -8.62880733 9.25570557 9.617949630000002 0.61227 -0.858031 0.122881
28780 -13.999183920000002 26.22935997 7.24269357 -0.409709 -0.279764 -0.278105
28800 -11.62392786 27.179880300000004 11.89545885 -1.13068 -0.542401 -0.839348
28820 -6.11867358 5.72424291 6.592888980000001 -1.413211 -0.483436 -2.018577
28840 0.97072893 -3.230433 6.00880158 -2.253083 0.409646 -2.982715
28860 1.8279954 8.917103610000002 6.37314498 -2.556927 1.6631790000000002 -3.443643
28880 2.5990417800000003 25.01911989 -6.69527595 -2.067975 -0.396336 -2.718675
28900 11.688889679999999 28.071128610000002 4.9353913799999996 -1.843211 -0.799956 -1.613114
28920 -7.00154415 5.188656149999999 -1.9454995800000001 -1.981477 0.398344 -1.459655
28940 -0.38888802 4.60247922 -3.3588655200000006 -2.011002 0.511115 -1.662968
28960 0.16630893 4.191430410000001 -8.91785898 -1.530348 0.185273 -2.11212
28980 -0.018413370000000002 10.85333274 -8.24679612 -0.836708 -0.26250300000000004 -2.356665
29000 -2.84573385 13.69187586 -3.99758481 -0.50198 -1.19822 -2.27942
29020 -7.333995240000001 14.12822466 -0.22453128 -0.266725 -2.184743 -2.197464
29040 -9.926307360000001 10.26190746 4.85544969 -0.322633 -2.449965 -1.890935
29060 -3.18088269 3.9541755600000013 1.6259192100000002 -0.238467 -2.628285 -1.327166
29080 1.6085555100000002 3.25647855 -0.4281084 0.004574 -2.756309 -0.6918489999999999
29100 4.56206202 4.313280420000001 -1.2807347400000002 0.424986 -2.64079 -0.109015
29120 5.285804580000001 8.883877140000001 -0.84798621 1.158755 -2.254064 0.5782079999999999
29140 -0.50983551 10.29394692 0.79484544 2.200207 -1.724798 1.316537
29160 -5.49911322 8.23662315 2.4171741900000003 2.039479 -0.262281 1.748306
29180 -7.81824627 7.6148163 -0.44202879000000006 -0.166023 -1.236048 1.289768
29200 -5.90207859 7.390726470000001 -2.10282255 -0.534033 -3.5721010000000004 -1.075921
29220 -4.70202129 8.728496550000001 -0.9379537200000001 0.057655999999999985 -1.822855 -1.603867
29240 -4.70621016 10.76531742 -1.0093509 -0.080384 -0.727054 -1.1266040000000002
29260 -8.14097565 11.184891120000001 -3.26081457 -0.140181 1.796473 -0.248972
29280 -11.315118870000001 12.999721500000001 -0.61776513 1.176556 4.738887999999998 1.240215
29300 -7.287446790000001 12.544812180000001 2.5038455400000004 -0.912865 0.640041 2.699678
29320 -6.13858788 12.668908680000001 -2.0450514600000003 -0.918254 0.475963 1.114609
29340 -4.83075792 11.223807390000001 -1.7173778400000002 -0.108579 2.258926 1.022908
29360 -6.159237930000001 14.711105430000002 2.94587433 1.330934 3.062662 1.775416
29380 -3.0386769300000003 18.45886878 1.72246923 2.207578 2.547395 2.531023
29400 0.8616123 19.79139051 -2.8901927700000005 2.430309 1.581541 3.048699
29420 3.48325632 18.525625830000003 -0.43829118000000006 2.902977 -0.113729 3.0093080000000003
29440 1.22160987 14.779520370000002 1.91616768 2.565129 1.101521 1.763049
29460 -1.64462688 11.4874119 2.3074493400000002 1.222608 0.569824 0.828204
29480 -3.2254887599999997 9.779010210000001 0.44547210000000004 0.64909 0.886916 0.084582
29500 -3.60585189 7.4329389 -1.13568408 1.021953 2.3232 0.22101
29520 -2.9562042600000003 5.278770810000001 -0.87013719 1.71207 0.7547560000000001 1.308881
