time Ax Ay Az Gx Gy Gz
20 1.58760135 9.633665250000002 1.8979014600000002 -0.187965 0.752296 -0.156101
40 1.12027257 9.55792224 1.22864364 -0.289187 0.392243 -0.070889
60 0.49876002 9.68126337 0.2083644 -0.247491 0.153559 -0.091656
80 -0.30641535000000003 10.149494670000001 -0.34712685000000004 -0.154702 0.061963 -0.176348
100 0.01601973 9.7465293 -0.24952716000000003 -0.115928 -0.129777 -0.21215100000000006
120 0.8502327000000002 8.76532329 -0.21061089 -0.0108 -0.309784 -0.043476
140 1.9835231400000002 8.67206943 -0.0013439700000000003 0.101139 -0.443716 0.318537
160 1.7208211500000001 8.637185070000001 0.16854561000000004 0.272727 -0.5546 0.7258020000000001
180 3.0279055500000003 9.839940120000001 0.9165483000000001 0.564513 -0.445643 1.19665
200 3.25992186 9.67317993 0.84244356 1.044436 -0.494042 1.428664
220 3.81092994 9.10481796 -0.063765 1.442812 -0.359237 1.470798
240 4.5782289 9.07203294 -1.18209519 1.6558849999999998 -0.090863 1.571287
260 4.32765207 9.561365550000001 -1.7065966500000003 2.005741 0.16344 1.608656
280 3.5200830600000006 10.81411236 -1.72965015 2.098318 0.5234260000000001 1.547953
300 4.04204373 12.106972260000001 -1.25723979 1.845814 0.827952 1.536185
320 3.51813087 13.975541819999998 -0.48858705 1.778316 0.891484 1.4245370000000002
340 2.86235199 13.8328848 -0.12843252 1.749621 0.520332 1.026365
360 1.52982045 13.263914610000002 0.55414728 1.733129 -0.041318 0.570839
380 -1.1723636700000002 12.480900029999999 0.9984225600000001 1.558668 -0.51537 0.456996
400 -1.0976703300000001 10.816653149999999 1.5995695500000002 1.085453 -0.582151 0.5178699999999999
420 -1.15065414 8.681948100000001 1.66663071 0.650135 -0.493662 0.6108560000000001
440 -0.7243409700000001 8.60874588 1.217421 0.486608 -0.5103310000000001 0.6588729999999999
460 0.44876826000000003 9.751326390000001 0.048353490000000006 0.414476 -0.528698 0.785511
480 0.01691244 12.12868179 0.40385808000000006 0.275957 -0.391191 0.883712
500 -1.02836268 12.991481100000001 -0.34877493 0.201842 -0.25674 0.891568
520 -0.67284828 12.856318920000001 -1.43207361 0.296373 -0.341374 0.662669
540 -0.22722903 12.811408740000001 -2.1312715500000006 0.27228600000000003 -0.6114430000000001 0.290037
560 0.6405145200000001 12.39303186 -2.01391452 -0.062779 -0.764289 -0.090258
580 1.05156333 11.10436083 -0.97971489 -0.580464 -0.891199 -0.404564
600 2.57330034 9.35704287 -1.00036494 -1.171386 -0.997249 -0.54422
620 2.0279820600000003 8.30098656 -1.29316401 -1.829635 -0.983274 -0.538153
640 1.50526602 7.30481049 -2.14383816 -1.638673 -0.929727 -0.242059
660 1.24167132 6.608908710000001 -2.86863039 -0.462869 -0.252454 0.662593
680 2.07169542 6.28543377 -3.29195151 0.8623540000000001 -0.045676 1.08285
700 2.70023193 6.15445065 -3.1022947800000003 1.472717 -0.528229 0.816403
720 3.6994098600000003 6.18453792 -2.9018666700000004 1.016555 -0.583741 0.176628
740 3.72021687 5.69415564 -2.8436345100000002 -0.06971799999999999 -0.080833 -0.237529
760 2.94362784 4.7981200500000005 -2.22153336 -1.205603 0.92999 -0.021363
780 2.55937995 3.5718700500000002 -0.85951296 -2.2000490000000004 1.16677 0.235238
800 2.68242678 3.55271112 0.26748927000000006 -1.280376 0.288588 0.069735
820 2.6912557800000005 4.65816078 -0.33395202000000007 -0.17927 0.366313 -0.341416
840 2.4807920400000003 5.38534665 -2.23574805 0.172879 0.289717 -0.672144
860 2.3441289300000006 8.509949370000001 -5.34059343 0.382804 -0.271338 -0.940218
880 5.827532400000001 15.177982950000002 -7.41258315 0.094554 -0.657772 -1.287841
900 6.93103968 19.87597233 -8.26132473 -0.7583260000000001 -0.806814 -1.1056
920 3.7393758000000004 11.05167132 -8.398439100000001 -2.000971 -0.49668 -0.862577
940 3.4757712900000004 6.72880653 -7.165145520000001 -1.985444 0.481712 -0.7269899999999999
960 3.07026513 4.14981639 -4.92071562 -1.360961 1.288125 -0.469424
980 4.738995180000001 8.3378133 -2.7782214300000003 -1.282664 1.7060400000000002 -0.6189640000000001
1000 6.43886217 17.31509145 0.7039852200000001 -0.967608 1.326674 -0.5938439999999999
1020 2.3861844000000003 18.98142786 -0.40117014 -0.696442 0.997197 -0.485774
1040 -1.5911918100000002 11.729758140000001 -3.19436163 -0.5765100000000001 0.8869379999999999 -0.455953
1060 -0.70099317 10.003100040000001 -3.0151819800000004 -0.612483 0.761181 -0.411178
1080 1.94879574 8.130488759999999 -2.15536491 -0.748862 0.513652 -0.463088
1100 0.39667716000000003 6.62148513 -1.4602086900000002 -0.847341 0.226281 -0.440975
1120 0.07380063 6.0848487 0.8451413100000001 -0.821816 0.374552 -0.512558
1140 2.4788496600000003 7.182214920000001 3.7546401600000006 -0.554967 0.672724 -0.7172430000000001
1160 1.7485147800000003 6.5948313600000015 4.33618677 -0.380373 1.154211 -0.8640549999999999
1180 0.29548701 8.58045384 0.896634 -0.243758 1.518552 -0.986413
1200 -0.43080615000000005 11.602973700000002 0.00494424 -0.192223 1.511236 -1.06616
1220 -0.44981793 12.3809067 -0.22393287 -0.163472 1.244883 -1.082709
1240 1.08629073 9.75640797 -0.20028096 -0.161281 0.994749 -0.8697969999999999
1260 1.8887683500000003 8.53091334 0.46313991000000004 -0.128907 0.827652 -0.403612
1280 2.5765965 8.18662158 0.42361542 -0.076606 0.774659 0.015563999999999996
1300 2.3354470800000002 8.649163080000001 0.6050415600000001 -0.056520000000000015 0.650396 0.170755
1320 1.1177219699999998 8.39888055 1.42054686 0.079127 0.400834 0.125021
1340 0.16002072 9.907148430000001 1.99296036 0.177974 0.09788 0.143191
1360 0.0489519 9.97914402 2.15371683 0.431011 -0.273859 0.445605
1380 -0.19534653000000002 9.54220662 -0.7111759500000001 0.82694 -0.527325 0.8834620000000001
1400 1.57203288 9.79682517 -1.18958022 1.291184 -0.517977 1.339619
1420 1.24915635 9.26079696 -1.36530675 1.686366 -0.35227600000000003 1.6498150000000005
1440 1.63654344 8.96291631 -0.60803361 2.011448 -0.172259 1.903955
1460 2.98464345 9.39416391 0.40071888000000006 2.1080520000000003 0.24161 1.951102
1480 4.95559017 9.37634895 1.0496209500000002 1.954265 0.846341 1.6384
1500 5.31185013 8.88777171 0.5110421400000001 1.651515 1.16994 1.429704
1520 4.16194155 10.040073930000002 -1.00784997 1.317932 1.157621 1.33659
1540 3.09406419 11.781554940000001 -1.8871300800000002 1.212677 0.8039390000000001 0.898337
1560 3.37263876 12.298875480000001 -1.29914811 1.248052 0.373197 0.428051
1580 3.8347290000000003 12.155021640000001 -1.0529073 1.163363 -0.212326 0.406845
1600 3.1326861600000004 12.171934080000002 -0.37391796 0.91055 -0.680157 0.403542
1620 2.43678438 11.01514869 1.4296799699999998 0.540966 -1.2191 0.435834
1640 0.90142128 9.63277254 1.6741157400000002 0.321006 -1.6564740000000002 0.512839
1660 0.06331374000000001 8.29964259 0.7697024100000001 0.200098 -1.830262 0.6542899999999999
1680 0.6086320199999999 9.393565500000001 -1.43446725 0.08976100000000001 -1.7485810000000002 0.836081
1700 0.5051953800000001 14.454093240000002 -0.90322632 0.12549000000000002 -1.511636 0.957804
1720 -0.8420021099999999 15.62959611 -0.97612443 0.22435500000000005 -1.439196 0.871876
1740 -0.44652177000000004 15.106438620000002 -2.12123592 0.022946 -1.4108120000000002 0.608718
1760 0.7687998900000002 14.97380742 -2.5723978200000004 -0.433941 -0.957904 0.164839
1780 1.17221652 13.558508910000002 -2.03666391 -0.918585 -0.493245 -0.263226
1800 2.2667378400000002 11.441903309999999 -1.35857709 -1.629032 -0.406977 -0.4413510000000001
1820 3.6781515900000006 8.54603055 -2.44516212 -2.348799 -0.341538 -0.464622
1840 2.6427551400000002 6.83657919 -3.0882272399999997 -1.757623 -0.341143 -0.010772
1860 3.0009574800000003 5.01157584 -3.09480975 0.341891 0.021964 0.869756
1880 2.8303125300000005 4.541853420000001 -2.56206789 1.166134 -0.130912 0.823367
1900 2.9574010800000003 4.30340175 -2.19563496 1.017189 -0.768636 0.32642
1920 3.21321645 4.1872415400000005 -1.8214128900000002 0.465814 -0.436892 -0.105145
1940 2.9168367300000004 4.577934600000001 -1.5991281 -0.5826899999999999 0.671149 0.232215
1960 1.9429587900000003 4.53063078 -1.4162010300000003 -1.340279 0.5974079999999999 0.415025
1980 1.2814803000000001 4.2079014 -0.84439575 -0.117636 0.724499 0.07409400000000001
2000 0.97522191 3.6613863 -0.04190832 0.32489 1.042742 -0.506472
2020 1.41575958 4.341719610000001 -0.19518957000000003 0.246227 0.812924 -1.040838
2040 1.87230717 6.610399830000001 -1.23687423 -0.323923 0.156697 -1.606933
2060 2.8193841900000005 8.78283414 -3.2699476800000005 -1.049434 -0.631989 -1.6814919999999998
2080 6.49334691 15.506706240000002 -6.6144415500000004 -1.847003 -0.522597 -1.440444
2100 8.669518830000001 21.78210438 -9.66270285 -1.928011 0.500232 -1.145355
2120 4.619538810000001 13.20509385 -8.446929930000001 -1.180487 1.70748 -0.800918
2140 1.70121096 4.36387059 -8.609344290000001 -0.957309 2.305178 -0.481795
2160 2.4614859599999996 7.269484680000001 -5.1980933700000005 -0.602481 2.070128 -0.616816
2180 6.0760197 19.99855809 -2.3486121000000004 -0.5051 1.480461 -0.558764
2200 3.66692895 21.82520952 1.92454542 -0.582358 1.2162540000000002 -0.487394
2220 -2.25700632 11.03789808 -0.5201654400000001 -0.7250270000000001 1.122692 -0.409223
2240 -3.0461619600000005 6.5129571 0.06287229000000001 -0.98245 0.849686 -0.378624
2260 -0.6222581100000001 7.297776720000001 -0.043114950000000006 -1.128935 0.468164 -0.213584
2280 -0.92447478 7.16784327 -0.57705363 -1.066194 0.6140720000000001 -0.259266
2300 0.29757654 6.69991608 0.09789399 -0.5874739999999999 0.942837 -0.572538
2320 2.7590625 8.136482670000001 3.1849244100000007 -0.171242 1.043269 -0.7406739999999999
2340 1.34600067 8.13468744 3.11606802 0.06977699999999999 1.287219 -0.949743
2360 0.51059088 10.66801203 0.38155995000000004 -0.051022000000000005 1.100686 -1.083876
2380 0.49172625000000003 12.00757734 -0.34054434000000006 -0.343805 0.750214 -1.097222
2400 -0.9286734600000001 10.430757180000002 -0.61207533 -0.382887 0.470921 -0.749965
2420 0.74739447 7.24523436 -0.59411322 -0.212944 0.620425 -0.19029
2440 2.1155461200000003 6.577624620000001 -0.47900268000000007 0.038591 0.881396 0.12946300000000002
2460 3.45855474 6.80949378 0.13531914 0.161779 0.471021 0.083848
2480 3.38805027 7.60223988 1.20185253 0.201592 -0.048381 0.202296
2500 2.62285065 9.60118434 1.61589339 0.495196 -0.57928 0.577836
2520 2.11450626 10.312056180000003 2.04429609 0.938959 -1.001659 1.124134
2540 1.3248993599999999 10.33884729 0.32272938000000007 1.371034 -1.117543 1.4904959999999998
2560 1.8838339200000003 9.92360961 -2.74050198 1.836998 -1.124704 1.545035
2580 2.41762545 9.56286648 -1.9540342800000001 2.098605 -0.960961 1.66202
2600 2.6467968600000003 8.01403425 -1.6254679500000002 2.076854 -0.233842 1.530613
2620 2.9844963 8.585545230000001 -0.40925358 1.814455 0.696013 1.258397
2640 3.9737857500000002 9.636363 0.6905160899999999 1.524671 1.304061 1.299391
2660 4.872371940000001 9.47454705 0.53693073 1.409972 1.459835 1.337914
2680 4.24367847 10.598262929999999 -1.37130066 1.478532 0.994174 1.046297
2700 3.1777434900000006 13.00061421 -2.2080544200000003 1.420833 0.289899 0.596007
2720 4.42869507 14.30514801 -1.1533518900000002 1.1639959999999998 -0.524541 0.4286140000000001
2740 4.70412063 13.77375993 -0.8358610499999999 0.735156 -1.124379 0.289655
2760 4.40728965 12.989538720000002 0.7011403200000002 0.349981 -1.6119709999999998 0.28118000000000004
2780 1.5988239899999999 10.295595000000002 2.2129986600000002 0.082187 -1.766904 0.363897
2800 0.29982303 8.15100147 1.6178357700000001 -0.092421 -1.814672 0.472766
2820 0.19399275000000002 8.33227065 -0.6599775600000001 -0.21995100000000006 -1.635537 0.54108
2840 0.7925989500000001 12.1497831 -1.71049122 -0.162794 -1.401769 0.639456
2860 -0.6719555700000001 15.091919820000001 -0.59081706 -0.003098 -1.308304 0.571017
2880 -1.58116599 14.246170290000002 -1.15290063 -0.139606 -1.3726120000000002 0.255021
2900 -0.14519781 13.314808890000002 -2.21374422 -0.55014 -0.995724 -0.13289
2920 0.7038380700000001 12.955860990000001 -2.01032406 -1.086675 -0.552711 -0.430966
2940 1.4286302999999998 11.98827126 -1.54119024 -1.911889 -0.367917 -0.373942
2960 3.4509225600000004 9.899212140000001 -1.8775457100000001 -2.127482 -0.226127 -0.214328
2980 3.3871575600000003 8.035439669999999 -2.19847986 -0.7443390000000001 0.012664 0.408186
3000 2.0657015100000002 5.84250246 -2.5257022200000003 0.836198 0.316568 1.092885
3020 2.56416723 5.08986945 -2.58467994 0.814105 0.301009 1.007293
3040 2.07887634 4.6448388000000005 -2.5828749 0.792567 -0.123497 0.625263
3060 1.95718329 4.465816110000001 -2.55055095 0.6654899999999999 -0.352337 0.420638
3080 2.51551944 4.79887542 -1.94625495 -0.349724 -0.075829 0.351236
3100 2.76130899 5.357505870000001 -1.75435173 -0.593557 0.120457 -0.038483
3120 2.0646518400000002 4.91727231 -1.8658718100000002 -0.23665100000000006 0.8779040000000001 -0.35635900000000004
3140 1.20304935 4.05880902 -0.90112698 -0.239317 0.822048 -0.770777
3160 1.0469232 4.347105300000001 -0.01018278 -0.540788 0.364089 -1.335249
3180 0.87118686 6.687045360000001 -0.7667103599999999 -0.982411 -0.284493 -1.5276459999999998
3200 1.3841713800000002 7.92286992 -1.44973161 -1.559073 -0.639252 -1.288733
3220 2.0938464 12.449458980000001 -5.77439163 -1.679245 -0.352019 -1.086978
3240 6.51489948 20.13911577 -7.77857463 -1.275046 0.492795 -0.917526
3260 7.69175613 14.240039040000001 -6.71698548 -0.997049 1.391884 -0.625112
3280 3.1439088000000006 5.9282712900000005 -7.8902418600000015 -0.839074 1.807206 -0.462171
3300 4.03965009 10.98356049 -6.511309020000001 -0.599975 1.542399 -0.514641
3320 6.738832350000001 19.16150022 -2.46866688 -0.592763 1.304589 -0.45767
3340 1.7205268500000002 17.02304775 0.07589016 -0.703153 1.282245 -0.368682
3360 -1.79491608 9.31168143 -0.40416219000000003 -0.843144 1.036483 -0.326616
3380 -1.7603358300000003 6.40248669 -0.39233133000000003 -0.906901 0.619116 -0.32652600000000004
3400 -0.50235048 6.589749780000001 -0.8674492500000001 -0.912983 0.4816 -0.297551
3420 0.4309533 8.4795678 -0.7493368500000002 -0.736498 0.708333 -0.407704
3440 2.46073059 9.16049952 0.12199716 -0.326284 0.869605 -0.60053
3460 4.038149160000001 9.671983110000001 2.44740861 -0.092671 1.118942 -0.818203
3480 1.5274268100000001 9.19208772 2.7828615600000006 -0.150955 1.003847 -1.022493
3500 0.00913311 9.88469334 1.27654587 -0.336116 0.770543 -1.126036
3520 -0.18950957999999998 10.40112117 0.4564004400000001 -0.399155 0.6254310000000001 -1.013059
3540 -1.0788057 10.02075804 -0.40789980000000003 -0.236212 0.425355 -0.670902
3560 -0.16645608 7.5854745900000005 -0.6674625900000001 -0.01914 0.473005 -0.254977
3580 1.79522019 7.1867079 -0.42451794000000004 0.099994 0.5698840000000001 -0.07694400000000001
3600 2.9870370900000003 6.94824642 0.039367530000000005 0.044846 0.340241 -0.143264
3620 2.62943316 7.4702169000000005 0.63228393 0.13203900000000002 0.04695 -0.133734
3640 2.4321442500000003 9.07233705 0.9877983300000001 0.360219 -0.155335 0.171494
3660 2.04924033 10.39049694 1.3058875799999998 0.850375 -0.575293 0.604881
3680 1.90404252 10.47356802 0.52496253 1.295245 -0.804646 1.097528
3700 1.7185746599999998 10.5099435 -1.0734200100000002 1.628313 -0.826628 1.51008
3720 2.6292860100000004 9.33069321 -1.04826717 1.966683 -0.772373 1.767679
3740 2.8309109400000003 8.5430385 -1.2985497000000001 2.172829 -0.347524 1.904239
3760 3.20962599 8.63239779 -0.9304686900000001 2.021135 0.502146 1.60833
3780 3.87154593 9.51541551 -0.29593827000000006 1.805764 1.094733 1.455447
3800 4.406681430000001 9.59145282 0.018707670000000003 1.453366 1.205902 1.399431
3820 4.57777764 10.156979699999999 -0.43514217000000005 1.33668 0.881288 1.160819
3840 3.2572241100000006 11.54055267 -1.4383618200000001 1.451393 0.339322 0.730753
3860 2.59545132 12.38239782 -1.2810388499999998 1.343205 -0.38938 0.571766
3880 3.78173538 11.91147858 -0.8747773200000001 1.0213290000000002 -0.903402 0.458013
3900 4.2599925 12.454697520000002 -0.9381008700000001 0.6265569999999999 -1.386713 0.45267
3920 3.7703557800000005 12.166695540000001 0.4363389900000001 0.340113 -1.686335 0.504464
3940 2.18006649 9.92166723 1.95418143 0.111755 -1.755499 0.682419
3960 0.76042215 7.76435013 1.1817910800000002 -0.163443 -1.55396 0.870382
3980 0.53543961 8.06492853 -0.14983794 -0.214449 -1.180236 0.961414
4000 0.70293555 11.93977062 -1.2380710499999998 -0.006505 -0.989114 0.938053
4020 -0.71955369 15.46494507 -0.14849397 0.051403 -1.227777 0.6321829999999999
4040 -1.2946551300000002 14.541215850000002 -1.2608302500000002 -0.210276 -1.223102 0.22335700000000006
4060 -0.18965673000000005 13.40626752 -2.4060987 -0.723092 -1.046155 -0.158602
4080 0.52166637 13.0780053 -2.5836302700000005 -1.538973 -1.100358 -0.281736
4100 0.5343899400000001 12.40021278 -1.6518176100000002 -2.43432 -1.079414 -0.21431
4120 3.39942987 10.198289610000002 -2.0246859 -2.405795 -0.6830579999999999 0.00864
4140 3.4437416400000003 7.80806349 -2.4789968100000004 -0.800331 -0.242132 0.5053300000000001
4160 2.92521447 5.6199135600000005 -2.80576791 0.663141 -0.453098 0.844835
4180 2.23770024 5.14136214 -2.66251248 0.911934 -0.861093 0.6281100000000001
4200 2.4161245200000003 5.128187310000001 -2.40758982 0.4325600000000001 -0.937295 0.386646
4220 2.5403681700000003 4.91877324 -2.4840882 -0.199425 -0.5261170000000001 0.406274
4240 3.17489859 5.38400268 -2.3870869200000002 -1.100692 0.322533 0.482212
4260 3.2310314100000004 5.99099643 -2.6319739500000003 -0.542235 0.213856 0.269403
4280 2.9068011000000005 5.99787324 -2.6945421300000003 -0.122697 0.206148 -0.031031
4300 3.0529014300000004 5.142706110000001 -0.9876413700000001 -0.305339 0.035669 -0.396352
4320 3.1190600699999997 4.90604967 0.58648104 -0.503555 -0.444076 -0.930165
4340 2.7795654000000005 6.32659653 0.22677777 -0.709483 -1.191166 -1.200906
4360 2.74349403 7.019202150000001 -0.6418683000000001 -1.492665 -1.541619 -1.060649
4380 2.93688837 9.19343169 -4.18694724 -2.004037 -1.37038 -0.816613
4400 4.86128664 15.62106141 -8.14741101 -1.658436 -0.6015729999999999 -0.503264
4420 6.289622639999999 17.66161989 -8.50307256 -1.331495 0.092562 -0.148288
4440 4.13993772 9.37529928 -6.87041388 -0.873416 0.389347 -0.172174
4460 2.5942545000000004 6.51161313 -6.0555069900000005 -0.501692 0.183681 -0.476962
4480 3.6895311900000003 12.90841002 -2.86654086 -0.394629 -0.001924 -0.508023
4500 5.4426861 18.20888055 0.96848244 -0.531308 0.023911 -0.456668
4520 1.47967173 15.26076954 1.0571059800000002 -0.80119 0.087483 -0.403087
4540 -0.8376562800000001 9.03191985 -1.03060917 -0.851203 0.117482 -0.402407
4560 -1.1599344 6.1022124 -2.12737698 -0.80418 0.17044 -0.366895
4580 0.5116405499999999 6.396345629999999 -1.5976271700000002 -0.722101 0.372634 -0.385808
4600 1.10963853 6.36985863 -1.0464719400000002 -0.587516 0.521799 -0.508973
4620 3.41110377 6.796014840000001 0.5394813299999999 -0.511383 0.6639430000000001 -0.690221
4640 4.74497928 9.537262380000001 3.37907412 -0.526775 0.863901 -0.864705
4660 3.84609879 10.54646613 2.5267420800000004 -0.571138 0.8347459999999999 -0.994233
4680 1.65046383 11.04957198 0.84813336 -0.4823939999999999 0.639494 -0.994431
4700 -0.18231885 11.074871970000002 -0.28979721 -0.190301 0.535462 -0.806387
4720 -1.6691813100000001 10.3479804 -1.4582663100000002 0.107848 0.54675 -0.4251
4740 -0.48034665000000004 8.35711938 -1.2789395099999998 0.215704 0.548696 -0.206431
4760 1.14362037 8.28362286 -0.41837688 0.269448 0.494863 -0.110915
4780 2.1860505900000002 8.59333437 0.51762465 0.277564 0.382103 0.108271
4800 1.7254612800000002 9.130559400000001 1.14092262 0.370724 0.139442 0.504475
4820 1.45362618 9.18594666 1.60047207 0.5220779999999999 -0.149479 0.963102
4840 0.6737508 9.63561744 1.33762293 0.7741239999999999 -0.445815 1.324164
4860 0.66896352 9.159302700000001 0.7756865100000001 1.19882 -0.580801 1.412762
4880 0.94214259 9.501936570000002 -1.02865698 1.6750189999999998 -0.519528 1.394645
4900 2.02768776 10.08797616 -1.2698064 1.962988 -0.228943 1.469991
4920 2.3215266900000002 9.88079877 -0.9955776600000001 1.911027 0.281645 1.434791
4940 2.7394523100000003 9.82616688 -0.86011137 1.55318 0.773413 1.309884
4960 3.31739865 10.23152589 -0.7125199200000001 1.197295 1.0189780000000002 1.214148
4980 3.0047049 9.90040896 -0.20627487000000003 1.100923 0.820591 1.09302
5000 4.1435379900000004 9.143439930000001 -0.00329616 1.151934 0.214511 0.7672770000000001
5020 2.41358373 9.50149512 0.12229146 1.11445 -0.539641 0.518018
5040 2.6714984399999997 10.48329954 0.21570228000000002 0.8883719999999999 -1.020243 0.488213
5060 3.28776264 11.30913477 -0.20522520000000002 0.5136609999999999 -1.327792 0.46783
5080 3.2189062500000003 11.9069856 -0.48768453 0.208383 -1.518797 0.546059
5100 3.07116765 12.21010479 -0.059428980000000006 -0.047388 -1.582269 0.656517
5120 2.74289562 10.829229569999999 0.41239278 -0.280872 -1.460357 0.741255
5140 1.11458277 9.917772660000002 0.8961827400000001 -0.412555 -1.313996 0.75083
5160 0.36194976 9.40719159 -0.02679111 -0.36229 -1.219743 0.580145
5180 0.61432182 9.888735060000002 -1.3066331400000002 -0.394447 -1.29945 0.29480700000000004
5200 0.07978473 12.06939996 -1.83952215 -0.7241489999999999 -1.304809 0.05643400000000001
5220 -0.53169219 12.61037241 -2.41073883 -1.195537 -1.188535 -0.107241
5240 -0.08203122 12.92233041 -2.58272775 -1.583261 -1.054007 -0.113326
5260 1.65450555 12.38015133 -2.08755819 -1.868854 -0.867042 -0.001261
5280 2.24458686 10.375526879999999 -1.53924786 -1.669734 -0.737577 0.216813
5300 3.8977484400000004 8.72445483 -1.8901221300000002 -0.729378 -0.772073 0.568462
5320 3.2980925700000006 7.55928189 -2.25760473 0.172675 -0.7565850000000001 0.70827
5340 2.30086683 6.492444389999999 -2.4587882100000003 0.519832 -0.58023 0.793791
5360 2.3141888100000005 6.149212110000001 -2.8862982 0.503629 -0.130813 0.574116
5380 2.3284035000000003 6.42374496 -3.04885971 0.189187 0.133449 0.29598
5400 2.54934432 7.09255152 -3.10828869 -0.151199 -0.016075 0.154925
5420 2.93420043 7.274419110000001 -3.05649189 -0.748822 -0.310058 0.131899
5440 2.8759682700000004 6.94196802 -2.5047382500000004 -0.860657 -0.560851 0.075892
5460 2.81325294 6.20250003 -1.64178198 -0.05895 -0.572761 -0.038134
5480 2.9404886400000003 5.50719666 -0.49516956 0.14826 -0.284897 -0.277405
5500 2.9624924700000004 5.98859298 0.09789399 0.006954999999999999 -0.094069 -0.45703
5520 2.6927469000000004 7.25571144 -0.60623838 -0.345976 -0.10751 -0.5192979999999999
5540 2.32780509 8.204142240000001 -2.38603725 -0.825816 -0.28163 -0.516018
5560 2.338733430000001 10.42701957 -4.98388221 -1.37655 -0.459113 -0.40961
5580 2.9274609600000003 13.845157109999999 -6.29395866 -1.539801 -0.602749 -0.31229
5600 2.90275938 13.709092410000002 -5.168447550000001 -1.189647 -0.734168 -0.251992
5620 2.9734208100000004 10.154134800000001 -4.16194155 -0.911661 -0.8745459999999999 -0.28619
5640 2.74005072 7.566011550000001 -3.5586952199999997 -0.6179279999999999 -0.941047 -0.427194
5660 3.0229613100000003 7.75162656 -3.52741113 -0.31440100000000004 -0.627678 -0.468205
5680 4.10730966 10.842100290000001 -2.50444395 -0.218381 -0.194171 -0.270469
5700 4.08769947 13.8881151 -2.2103009100000004 -0.323612 0.132272 -0.030204
5720 3.2189062500000003 17.071999650000002 -0.9342063 -0.465744 0.270485 0.160906
5740 1.68145362 14.825166300000001 -1.04078214 -0.5470649999999999 0.255701 0.198813
5760 0.42361542 9.00063576 -2.31628815 -0.581009 0.191274 0.0897
5780 1.2310372800000002 6.476130360000001 -2.6153656200000004 -0.476164 0.110532 -0.055811
5800 1.55287395 5.8348702800000005 -1.9249966800000002 -0.371232 0.11687 -0.13306600000000002
5820 1.5473313000000002 5.56947054 -0.38395359 -0.276979 0.14976099999999998 -0.181588
5840 2.0718425700000003 6.77640465 0.9143018100000001 -0.203877 0.242309 -0.212174
5860 2.70907074 9.30495177 1.21801941 -0.125305 0.380581 -0.226758
5880 2.93584851 11.371104540000001 0.40356378000000004 -0.08867699999999999 0.481565 -0.204199
5900 1.75390047 11.471990580000002 0.85008555 -0.070239 0.580443 -0.17215
5920 0.2083644 10.60065657 0.80936424 -0.031688 0.6143890000000001 -0.16978800000000002
5940 -0.19025514000000002 9.633213990000002 0.41253993 0.037428 0.570441 -0.161771
5960 0.5469663599999999 9.4860738 -0.11436498 0.080863 0.459671 -0.204055
5980 0.8765725499999999 9.70117767 0.02754648 0.056239 0.364189 -0.281016
6000 1.1199684600000002 9.42035661 0.31943322 -0.090639 0.38093 -0.34402
6020 1.5057172800000003 9.417511710000001 0.55324476 -0.257935 0.467636 -0.30364
6040 1.83038904 9.930653190000001 0.91774512 -0.255902 0.556663 -0.191576
6060 1.93547376 10.261309050000001 1.07686332 -0.224035 0.572343 -0.144372
6080 2.31837768 10.22509053 0.63632565 -0.129688 0.44097 -0.14034000000000002
6100 2.1444365700000003 9.91253412 -0.0868185 -0.058644000000000016 0.34166 -0.141853
6120 2.03172948 9.711654750000001 -0.43349409 -0.049234 0.319175 -0.121462
6140 1.6983660600000001 9.49789485 -0.32796792 -0.009919 0.314652 -0.090203
6160 1.48476312 9.509578560000001 -0.155979 0.025283 0.333623 -0.069685
6180 1.68923295 9.66420378 -0.08726976 0.040013 0.332326 -0.024715
6200 1.71842751 9.98528508 -0.18546786 0.058545000000000014 0.238294 0.031082
6220 1.6646883300000002 10.21880232 -0.29010132000000005 -0.002621 0.177714 0.048892000000000005
6240 1.46290644 10.486438740000002 -0.5116405499999999 -0.07388 0.133598 -0.045553
6260 1.02177036 9.85415481 -0.35161983 -0.049637 0.098128 -0.253641
6280 0.73407249 8.89509978 -0.02185668 -0.02684 0.059141999999999986 -0.38055
6300 1.39015548 8.89360866 0.006141059999999999 -0.027293 0.127595 -0.449007
6320 2.2897913400000003 10.328517360000001 0.69066324 -0.024807 0.390921 -0.50167
6340 2.23005825 10.246191839999998 0.76102056 -0.006151 0.663888 -0.582006
6360 2.16913815 9.67468086 0.30641535000000003 0.041167 0.903736 -0.663168
6380 1.7724609900000001 9.44835435 0.26629245 0.123092 1.048499 -0.7055100000000001
6400 1.6965708300000002 9.780962400000002 0.4837899600000001 0.230237 0.922383 -0.694986
6420 1.39629654 9.85909905 0.53169219 0.310273 0.690933 -0.693062
6440 1.2578382000000001 9.21184506 0.29533986 0.252658 0.33060700000000004 -0.577635
6460 1.18657836 8.932672080000001 -0.19863287999999998 0.090707 0.011157 -0.470467
6480 1.4244414300000001 9.02563164 -0.7668575100000001 -0.123059 -0.04468 -0.44091
6500 1.78683264 9.712253160000001 -0.48902850000000003 -0.319069 -0.045856 -0.509575
6520 2.4706092600000003 10.62655497 0.07708698000000001 -0.417515 0.024142 -0.6129020000000001
6540 2.57509557 10.58703048 0.30282489 -0.412678 0.102087 -0.6621060000000001
6560 1.7757571500000002 10.19469915 0.23261472000000002 -0.295189 0.235483 -0.556771
6580 1.6325017199999998 9.75895857 0.43289568 -0.149072 0.405755 -0.374371
6600 1.30873248 9.548190720000001 0.37751823000000007 -0.032244 0.478086 -0.182436
6620 0.51537816 9.66195729 0.02080701 0.079458 0.292906 -0.057504
6640 -0.28006569000000003 9.59145282 0.09834525 0.053985000000000005 0.139376 -0.003006
6660 -0.03307932 9.18565236 0.0205029 -0.038196 0.041701 -0.005661
6680 0.78601644 9.62244261 -0.22976981999999999 -0.06683099999999999 -0.198786 -0.047214
6700 2.3703216300000003 11.1950739 -0.8243343 -0.079338 -0.468926 -0.1463
6720 3.33880407 11.405527830000002 -0.58887468 -0.147078 -0.669689 -0.23090500000000005
6740 3.05529507 9.68201874 -1.0976703300000001 -0.266065 -0.748292 -0.184634
6760 2.96593578 8.7109857 -1.01009646 -0.401089 -0.754721 -0.05845
6780 2.5653640500000003 8.299789740000001 -0.2874035700000001 -0.437938 -0.797546 0.026805
6800 1.7215667100000003 8.251593210000001 -0.04475322 -0.380797 -0.880923 0.048675
6820 1.1268550800000001 8.936419500000001 0.0928026 -0.211645 -0.95409 0.084134
6840 1.09437417 9.90056592 -0.19968255000000001 0.13126600000000002 -0.8953629999999999 0.285143
6860 2.06839926 10.23960933 -0.6797349 0.454701 -0.709492 0.674929
6880 3.056796 10.327918949999999 -0.8186445 0.691561 -0.578631 1.043884
6900 3.44029833 9.43622919 -1.0756665 1.056932 -0.607887 1.382963
6920 3.68533251 8.774897850000002 -1.05635061 1.285814 -0.50621 1.598076
6940 3.91151187 8.736285689999999 -0.7803266400000001 1.416486 -0.46578 1.763443
6960 3.62486367 8.8698096 -0.60968169 1.389769 -0.101912 1.900591
6980 3.4444872 9.48667221 -0.30357045 1.70983 0.260786 2.02948
7000 3.62051784 9.42245595 0.019306080000000003 1.810635 0.092308 1.983399
7020 4.09188834 8.971441200000001 0.44502084000000003 1.716279 -0.28561 1.469409
7040 4.23394695 8.571771990000002 0.38679849 1.657748 -0.910097 1.046784
7060 3.40466841 8.53151175 0.19235448000000002 1.367429 -0.994189 0.750035
7080 2.93509314 8.91920295 -0.57136383 0.937987 -0.800198 0.8279719999999999
7100 3.27099735 10.523569590000001 -1.50347079 0.595515 -0.707763 0.919465
7120 3.9246867 13.527666270000001 -0.7424600400000001 0.349137 -0.5540579999999999 1.056416
7140 3.15199224 14.418914580000001 -0.08322804 0.334534 -0.559966 1.214418
7160 2.2586544 14.215935870000001 -0.26449722000000003 0.348936 -0.891418 1.2395120000000002
7180 1.0912349700000001 13.82853897 -0.46358136 0.258639 -1.32566 0.954223
7200 0.25372584000000004 12.75886638 0.37257399 0.107513 -1.725862 0.467639
7220 -0.66851226 10.958260500000002 0.7244979300000001 -0.206075 -1.963539 -0.028834
7240 -0.27228636 9.75087513 -1.3189054500000001 -0.7003199999999999 -1.819051 -0.301663
7260 0.42107463000000006 12.772041210000001 -2.79633069 -1.18709 -1.54397 -0.206071
7280 0.51432849 15.77539233 -3.5206814700000004 -1.662899 -0.777423 0.318393
7300 1.06548372 16.083907019999998 -4.09697973 -1.628789 0.334146 0.965618
7320 -0.07858791000000001 12.90496671 -2.3067037800000003 -0.621865 0.23082800000000006 1.154381
7340 1.24091595 9.41392125 -1.2317926500000003 0.295093 -0.581237 0.707833
7360 1.8468600300000002 7.5857787000000005 -0.40220999999999996 0.063126 -0.551236 0.599352
7380 1.30349394 4.32525843 -0.6509916 -1.175868 0.017111 1.001234
7400 1.7727651000000002 4.62598398 -1.4462883000000002 -0.6391979999999999 -0.310458 0.668913
7420 2.5743500100000003 4.597534980000001 -2.07842508 0.453249 -0.001734 0.040556
7440 3.3892569000000003 4.80186747 -2.77867269 0.071085 1.013065 -0.324473
7460 3.40811172 4.703070960000001 -3.15768204 -0.511744 1.1172959999999998 -1.10848
7480 3.0710106900000005 4.08769947 -2.9639835900000002 -0.93232 -0.0059960000000000005 -1.951737
7500 2.98868517 3.35976804 -2.5741930500000003 -1.68118 -0.524045 -2.020397
7520 3.08987532 2.5903599300000004 -2.08262376 -1.9621 -0.280393 -1.703273
7540 3.9176529300000005 2.6150615100000003 -1.2927127500000002 -1.27878 0.746537 -1.497922
7560 4.69543878 4.21254153 -0.98524773 -0.903667 1.7979900000000002 -1.296892
7580 6.27345576 6.330638250000001 -2.37391209 -0.7575810000000001 2.370245 -0.941955
7600 7.57949049 10.126146870000001 -5.2491348 -0.552163 2.321457 -0.641356
7620 6.6386918700000015 15.07470327 -8.402627970000001 -0.451772 2.10073 -0.408567
7640 2.05866774 13.704903540000002 -10.35037404 -0.4562479999999999 1.959556 -0.265276
7660 0.85247919 15.286658130000001 -9.150473700000001 -0.571013 1.6486459999999998 -0.203722
7680 6.396649740000001 30.81731058 -1.7283061800000001 -0.722627 1.151677 -0.20094
7700 -0.84798621 22.825133010000002 1.34525511 -0.7906489999999999 0.908222 -0.265196
7720 -3.38625504 6.94166391 -1.2892694400000002 -0.947649 0.963682 -0.411642
7740 -2.2008735 1.22729967 -2.41193565 -0.8795620000000001 1.261196 -0.546144
7760 -1.7022606300000003 4.870272600000001 -1.42069401 -0.624265 1.134327 -0.741819
7780 -2.56012551 6.95319066 -0.06780672000000001 -0.429593 1.211549 -0.774741
7800 1.3709965499999999 11.5625565 2.17976238 -0.135249 1.178592 -0.780121
7820 4.49485371 13.36645854 4.9769955900000005 0.01919 1.096235 -0.565292
7840 -0.13621185 10.845994860000001 2.13366519 -0.055934000000000005 0.835205 -0.490707
7860 -1.75599981 9.950704830000001 1.40931441 -0.229945 0.584364 -0.480918
7880 -0.64395783 9.83798793 1.3124700900000001 -0.053999 0.6738569999999999 -0.369777
7900 0.43245423 8.2973961 -0.18367263 0.305452 0.747859 -0.273358
7920 1.79821224 8.374188779999999 -0.6039918900000002 0.561979 0.555567 -0.093995
7940 2.7388539 8.593030259999999 0.25985709 0.7700060000000001 0.180623 0.24977
7960 3.34764288 7.444465650000001 1.10575377 1.0032299999999998 -0.175675 0.703713
7980 2.83765041 6.42703131 0.83212344 1.403391 -0.314708 1.026085
8000 2.56746339 7.4354895 0.17633475 1.821548 -0.220727 1.136776
8020 1.94161482 9.508823190000001 0.47615778 2.100967 -0.03198 1.112848
8040 2.38079871 10.042614720000003 1.10994264 2.083528 0.312359 1.064215
8060 1.7079504300000001 8.86965264 -0.47945394 1.6611169999999995 0.699882 0.957151
8080 2.86654086 8.64422865 -1.80285237 1.532096 0.93795 0.940989
8100 3.15229635 9.80909748 -1.4768268300000003 1.6534259999999998 1.01578 1.085947
8120 3.34150182 10.280624940000001 -0.9382480200000001 1.7626849999999998 0.900249 1.111427
8140 3.056796 10.85916969 -0.91339929 1.617805 0.522277 0.920756
8160 2.3842420200000003 11.502529110000001 -0.35491599000000007 1.307027 -0.165297 0.775257
8180 2.5960497300000003 11.43337842 -0.21764466000000002 1.013909 -0.618985 0.7331979999999999
8200 3.33760725 11.146122000000002 -1.2478025700000002 0.670895 -0.793343 0.677614
8220 3.6046550700000006 11.05435926 -1.23553026 0.411216 -0.90847 0.655652
8240 3.0286511099999998 11.401044660000002 -0.54546543 0.286947 -1.046424 0.630392
8260 2.4201662400000004 11.157197490000001 0.26569404 0.25647600000000004 -1.16038 0.6495529999999999
8280 1.0837499400000001 10.13542713 1.45901187 0.223523 -1.113474 0.669559
8300 0.33560010000000007 8.80708446 1.4705386200000001 0.174581 -1.086658 0.665978
8320 -0.0663156 9.211246650000001 0.78706611 0.034024 -1.100781 0.5902390000000001
8340 -0.00628821 10.4985639 -0.78182757 -0.20286 -0.972778 0.486939
8360 -0.02365191 12.27058344 -0.41433516000000004 -0.516305 -0.696802 0.474782
8380 -0.66760974 11.734702380000002 -0.09968922 -0.843513 -0.390975 0.4689
8400 -0.2809682100000001 11.40313419 -1.4890991400000002 -1.01587 -0.241409 0.511301
8420 1.22474907 12.12718086 -2.0240874900000003 -0.909879 -0.286961 0.6221270000000001
8440 1.5934383 12.18974904 -1.28762136 -0.575203 -0.540825 0.680337
8460 2.04759225 11.162583180000002 -0.76401261 -0.28522 -0.903713 0.602711
8480 3.16756071 9.29686833 -1.5669414900000003 -0.210746 -1.158798 0.393119
8500 2.53213758 7.9339552200000005 -2.1923388000000004 -0.334466 -1.161626 0.142294
8520 2.35101555 6.962323770000001 -2.84857875 -0.599753 -1.014067 -0.031732
8540 2.0395088100000005 7.19987292 -3.1726521 -1.027417 -0.600989 -0.131388
8560 1.65016953 7.538170770000001 -3.4500298500000004 -1.5031450000000002 0.10918 -0.159122
8580 1.95942978 7.453147500000001 -3.0570903000000005 -1.7185 0.494041 -0.04682
8600 2.2119489900000002 7.465429620000001 -2.5382688300000003 -1.158968 0.313328 -0.095023
8620 2.5565350500000004 7.361688870000001 -1.8618300900000002 -0.724136 0.22748 -0.315134
8640 2.75996502 7.12099071 -1.3009433400000001 -0.370734 0.311258 -0.526417
8660 2.80142208 6.59573388 -1.10740185 -0.211499 0.203784 -0.693946
8680 3.0620345400000004 6.739283610000001 -1.59777432 -0.327108 -0.05186 -0.8653420000000001
8700 3.02161734 7.00857792 -2.43648027 -0.531449 -0.256429 -0.945555
8720 2.90485872 7.992177570000001 -3.37727889 -0.759954 -0.254745 -0.902288
8740 3.42891873 9.24507153 -4.27406004 -0.884799 -0.374112 -0.780162
8760 4.10161986 10.31774598 -4.99885227 -0.985555 -0.662665 -0.727085
8780 4.665047400000001 9.67946814 -5.082825870000001 -1.037848 -0.920212 -0.744212
8800 4.50083781 8.643777390000002 -4.77222165 -0.961871 -0.8841979999999999 -0.758682
8820 3.6952111800000003 7.4485073700000015 -3.8188564200000004 -0.877014 -0.7301350000000001 -0.731581
8840 2.8569564900000004 7.0501919399999995 -3.09705624 -0.7624810000000001 -0.503143 -0.586862
8860 2.19099483 7.63397523 -3.28207284 -0.659913 -0.298595 -0.4133560000000001
8880 2.5990417800000003 10.78357383 -2.92641129 -0.618943 -0.32371 -0.295533
8900 3.7449086400000007 15.90262803 -1.21383054 -0.592895 -0.429397 -0.26210100000000003
8920 2.6250873300000004 14.18165973 -2.2646385 -0.605803 -0.460215 -0.269629
8940 2.10791394 10.622061990000002 -3.06397692 -0.5657439999999999 -0.374953 -0.314324
8960 2.0899518300000004 9.711350640000001 -3.4696302300000004 -0.5230100000000001 -0.18736 -0.377291
8980 2.33260218 8.98117272 -2.9532122100000002 -0.469808 -0.045607 -0.441194
9000 1.793268 8.30997252 -2.03381901 -0.427592 0.01951 -0.5114850000000001
9020 1.82620017 7.98275016 -1.04557923 -0.394313 0.043981 -0.5326489999999999
9040 2.7211959000000006 8.587791720000002 -0.07349652000000001 -0.364355 0.103369 -0.491923
9060 3.2766871500000003 9.38413809 0.85487283 -0.349323 0.188282 -0.427834
9080 2.5727019300000005 8.97323643 1.4633577 -0.340423 0.279823 -0.417207
9100 1.94520528 8.486150310000001 1.5549634799999998 -0.272588 0.392608 -0.442515
9120 1.9553880600000002 8.83088352 1.4198013 -0.18873 0.543551 -0.433576
9140 1.4498885700000002 8.999586090000001 0.82358874 -0.141999 0.57609 -0.353175
9160 1.24690986 9.72946971 0.34442910000000004 -0.07800399999999999 0.4284810000000001 -0.258535
9180 1.09961271 10.14739533 0.1272357 -0.026571 0.283252 -0.215261
9200 1.2126239099999998 9.755515260000001 0.24249339000000003 0.024569 0.043334 -0.201778
9220 1.34854146 9.32021613 0.36823797 0.089473 -0.171263 -0.139093
9240 1.6338555000000001 9.21289473 0.7044364800000001 0.122481 -0.31350100000000003 -0.028653
9260 1.24226973 9.29716263 1.0681814699999999 0.205598 -0.325441 0.220839
9280 1.11682926 9.59953626 1.2627726300000002 0.284908 -0.222369 0.482975
9300 1.15364619 9.80162226 1.01668878 0.476244 -0.152575 0.711753
9320 1.4286302999999998 9.83829204 0.6723970199999999 0.790378 -0.139345 0.8602770000000001
9340 1.96706196 9.66509649 0.54127656 1.176806 -0.248609 0.943233
9360 2.07019449 9.24822054 0.33590421000000004 1.507938 -0.356457 0.986276
9380 1.75225239 9.11709027 -0.041309910000000005 1.770046 -0.394812 1.026612
9400 1.5670886400000001 9.346418640000001 -0.26839179 1.881738 -0.164306 1.094395
9420 1.93817151 9.57918051 -0.07559586 1.752659 0.121457 1.139061
9440 2.61221661 9.7146468 -0.01616688 1.535803 0.080583 1.158963
9460 3.4955286300000004 9.596691360000001 -0.17453952 1.296752 -0.180607 1.149082
9480 3.3621616800000007 9.44670627 -0.032932170000000004 1.092121 -0.756675 0.99884
9500 2.97446067 9.31228965 0.01482291 0.948702 -1.419493 0.911093
9520 2.43977643 9.540705690000001 -0.06615864 0.720018 -1.7213060000000002 0.928042
9540 2.81669625 9.881397179999999 0.23321313 0.330258 -1.68737 1.03744
9560 2.60248509 11.152410210000001 0.45385965 -0.086048 -1.624582 1.147683
9580 2.0956416300000003 12.39272775 0.7286868000000001 -0.297872 -1.659377 1.24132
9600 1.7655743700000002 13.374385020000002 0.5373819900000001 -0.374827 -1.804482 1.364882
9620 1.70495838 13.73947398 0.1998297 -0.507067 -1.981054 1.413323
9640 1.5603589800000002 13.51928853 0.45774441000000005 -0.710795 -2.035475 1.346808
9660 1.1469165300000004 12.188699370000002 0.659232 -0.8775950000000001 -1.818995 1.16804
9680 0.7174543500000001 10.63538397 0.43529913000000003 -1.030773 -1.456474 0.952861
9700 0.45999090000000004 9.18415143 -0.25985709 -1.161667 -1.099443 0.75921
9720 0.9617527800000001 9.40344417 -1.3208576400000003 -1.231901 -0.977131 0.6026020000000001
9740 0.6333336 10.52012628 -1.54658574 -1.201168 -1.116414 0.508992
9760 0.70833105 10.80528336 -2.3343974100000002 -0.963746 -1.221658 0.515058
9780 1.3097723400000003 11.00945889 -2.34023436 -0.403181 -1.253864 0.6237
9800 2.15612028 10.23167304 -1.44973161 0.015528 -1.137111 0.633953
9820 2.9014154100000003 8.93746917 -0.9800091900000001 0.154157 -0.854582 0.456166
9840 3.3635056500000005 7.86733551 -1.00021779 -0.118514 -0.5202939999999999 0.212415
9860 3.43430442 7.337438550000001 -1.27160163 -0.420766 -0.192009 -0.103106
9880 3.2108228100000002 7.16799042 -1.8931141800000002 -1.154516 0.28366 -0.404738
9900 2.6538306300000003 7.30181844 -2.5791372900000002 -2.20799 0.937933 -0.605215
9920 2.9361428100000007 7.77183516 -3.0199692600000003 -1.953659 0.459123 -0.700033
9940 2.7930443400000002 8.12076705 -2.6613156600000005 -1.049711 -0.275303 -0.306082
9960 3.33910818 7.82138547 -2.0547731700000003 -0.5007060000000001 -0.332886 -0.500862
9980 3.2971900500000006 7.50748509 -1.3757936400000002 -0.178859 -0.353635 -0.918399
10000 2.86099821 6.682101120000001 -0.85128237 -0.17249 -0.396234 -1.192833
10020 2.56057677 6.35084685 -0.80247762 -0.294213 -0.469108 -1.244864
10040 2.5611751800000007 6.814575360000001 -1.20379491 -0.6593859999999999 -0.40975 -1.120373
10060 2.7066672900000004 7.90910649 -2.11929354 -0.7959189999999999 -0.006177 -0.960542
10080 3.59956368 10.005493680000002 -3.1299884100000006 -0.486042 0.473699 -0.82226
10100 4.950802889999999 11.88767952 -3.57651018 -0.367235 0.852297 -0.7653
10120 5.2135048799999995 11.371398840000001 -3.5503174800000004 -0.39781 1.049015 -0.649329
10140 4.0698845100000005 9.20106387 -3.12893874 -0.532984 0.959803 -0.333965
10160 3.0202733700000004 6.8276030400000005 -2.2799126700000008 -0.756445 0.759729 -0.189992
10180 2.6885580300000003 5.2898463 -1.81407501 -0.783809 0.438893 -0.119269
10200 2.45639457 4.64619258 -1.3563306 -0.621219 0.107891 -0.06857100000000001
10220 1.38716343 6.66054855 -1.34226306 -0.372929 -0.191269 -0.063248
10240 3.01248423 14.21788806 1.1693716200000002 -0.16358699999999998 -0.051845 -0.212584
10260 4.52838429 23.74482051 -0.33380487 0.004492 0.185643 -0.340969
10280 2.4899251500000004 14.81379651 -1.7754530400000001 0.051273 0.25100900000000004 -0.477459
10300 0.05687838 10.58374413 -1.28582613 0.076921 0.26369000000000004 -0.474091
10320 -0.83631231 8.01523107 -0.16930098000000005 0.035079 0.329409 -0.355895
10340 -0.44802270000000005 7.538170770000001 0.36898353 -0.063984 0.281197 -0.201633
10360 -0.0058369500000000005 8.6793975 0.5768966700000001 -0.072521 0.126427 -0.118173
10380 -0.13561344 9.577836540000002 1.2819315599999999 -0.005265 0.232331 -0.020631
10400 -0.00808344 10.08363033 0.9804604500000001 0.120797 0.330718 0.041012
10420 0.118701 9.955649069999998 0.88510725 0.273291 0.319515 0.046365
10440 -0.07484049000000001 8.83791729 1.2543948900000002 0.433686 -0.058219000000000014 0.063993
10460 1.0777560300000004 8.38182096 1.20334365 0.563393 -0.455672 0.243801
10480 3.11113359 8.72340516 1.11592674 0.679552 -0.619369 0.586653
10500 3.39897861 9.273667679999999 1.2578382000000001 0.921363 -0.642713 0.8864059999999999
10520 4.16733705 10.30397274 0.61282089 1.189728 -0.593155 1.047382
10540 3.8408602500000004 10.64960847 0.09145863 1.518255 -0.437335 1.222529
10560 2.8948329000000004 10.27403262 0.10313253 1.879782 -0.314585 1.380858
10580 1.53969912 9.80162226 -0.13172868000000001 1.808676 -0.222756 1.388789
10600 0.97761555 9.50164227 -0.9229836600000001 1.514126 -0.321547 1.30781
10620 0.88945308 9.29641707 -1.7601886800000002 1.112545 -0.7895 0.931727
10640 1.7613855 8.747214029999999 -1.74641544 0.692396 -1.288543 0.620715
10660 2.8747714500000003 8.67221658 -1.51918641 0.375229 -1.712003 0.4994020000000001
10680 3.86541468 9.06559758 -1.01145024 0.118192 -1.650559 0.541325
10700 4.1065641 9.159302700000001 -0.51418134 -0.045448 -1.306697 0.73843
10720 4.553978580000001 9.04105296 -0.3700332 -0.169854 -1.021541 0.930544
10740 4.613858820000001 9.43876998 -0.6825798 -0.177783 -0.998582 1.056509
10760 3.9999784500000004 10.587785850000001 -0.9129480300000001 -0.258092 -1.297658 1.059536
10780 4.05955458 11.59878483 -0.26659656 -0.384365 -1.4842959999999998 0.956344
10800 3.2633651700000006 12.915738090000001 -0.02140542 -0.5742470000000001 -1.5483360000000002 0.8856649999999999
10820 2.19713589 12.81050622 -0.08098155 -0.849196 -1.610766 0.752434
10840 2.06540721 11.75834448 -0.16346403 -1.186919 -1.4225370000000002 0.593873
10860 2.1564145800000003 10.937904750000001 -0.22244175000000002 -1.395903 -0.880914 0.39303
10880 2.45280411 10.18362366 -1.2359815200000002 -1.413976 -0.402608 0.143395
10900 3.14795052 10.381059720000001 -2.6304828300000005 -1.244321 -0.17315999999999998 -0.106746
10920 2.96563167 10.31280174 -3.8202102 -0.926905 0.041504 -0.25115
10940 1.9669050000000001 10.27508229 -4.36821642 -0.5481779999999999 0.170675 -0.115143
10960 1.6685829000000003 10.02824307 -3.36799863 -0.265234 0.311001 -0.021479
10980 1.84805685 8.67431592 -1.22879079 -0.281204 0.369442 0.029609
11000 2.80950552 7.88081445 -0.48993102000000005 -1.164388 0.487275 0.099133
11020 2.85561252 7.14763467 -0.87238368 -2.249611 0.811182 0.224665
11040 3.28357377 7.410787920000001 -1.86736293 -2.196475 0.4854100000000001 0.66022
11060 3.08389122 7.9415873999999995 -2.6839179 -0.857331 -1.133038 0.90452
11080 2.44441656 7.821689580000001 -3.46993434 0.365427 -1.4026610000000002 0.138946
11100 1.94565654 7.238043630000001 -3.8408602500000004 0.765283 -0.418391 -0.7279869999999999
11120 1.74731796 6.7791024 -2.8984233600000002 0.500963 0.338608 -1.460399
11140 2.40280254 6.794523720000001 -1.7794947600000002 0.004697 0.12151 -1.883398
11160 2.77088355 6.75709857 -0.98464932 -0.862075 0.231055 -2.152376
11180 2.60264205 6.3310797 -0.51418134 -1.372005 0.785538 -1.845795
11200 2.44845828 6.2149293000000005 -0.76236453 -1.146636 1.650653 -1.270626
11220 2.28439584 6.22839843 -1.97903016 -0.921226 2.51039 -0.948619
11240 2.33289648 6.975047340000001 -3.37084353 -0.525904 2.374048 -0.495961
11260 3.57920793 8.876539260000001 -3.7826379 -0.505259 1.85061 -0.151179
11280 5.18970582 9.73904427 -4.168985129999999 -0.6490090000000001 1.460176 0.108964
11300 5.7392129700000005 9.63531333 -4.237684560000001 -0.776787 0.77693 0.320454
11320 6.03859455 8.7516972 -3.5714187900000005 -0.94448 0.314962 0.375423
11340 5.72454702 7.50150099 -2.9156399100000003 -0.707913 0.5809350000000001 -0.008893999999999999
11360 3.95252748 8.9657514 -3.46335183 -0.282989 1.228736 -0.139215
11380 7.70357718 25.184977560000004 0.95666139 -0.095427 1.452611 -0.343291
11400 4.099373370000001 29.03707026 -1.9552311 0.0239 1.436027 -0.561422
11420 -5.05214019 11.12665896 -4.23439821 -0.053242 1.561092 -0.601645
11440 -4.12227972 6.045922620000001 -3.0256590600000006 -0.198849 1.572814 -0.476627
11460 -3.62276433 4.03276347 -0.786762 -0.198359 1.397341 -0.285187
11480 -3.94534656 4.20835266 1.3867121699999998 -0.078947 1.482796 -0.180845
11500 -3.459751560000001 5.84578881 2.74184595 -0.007851 1.4089969999999998 -0.168503
11520 1.0334540700000001 9.836045550000001 4.27151925 -0.022636 1.197091 -0.17688099999999998
11540 3.00155589 11.766879180000002 2.94422625 -0.022427 1.006405 -0.176635
11560 2.25446553 12.722039640000002 2.5253981100000003 0.150024 0.8358110000000001 -0.022456
11580 2.92192812 10.29334851 2.5047382500000004 0.318824 0.799575 0.367603
11600 3.3720403500000002 7.12757322 1.41875163 0.5704100000000001 0.532538 0.861084
11620 3.3223428900000003 6.824758139999999 0.7129711799999999 1.001123 0.250989 1.36545
11640 3.59372673 7.166048040000001 -0.39682431 1.513903 0.203342 1.64683
11660 2.9198287800000005 9.369619290000001 -0.76775022 2.005307 0.429257 1.734363
11680 1.17595413 10.653051779999998 0.55385298 2.286093 0.8547610000000001 1.642843
11700 0.46522944000000005 10.059232860000002 0.57165813 2.318692 1.127637 1.3073
11720 1.09063656 10.456057170000001 0.8795744100000001 2.138119 1.345311 1.1081379999999998
11740 0.10298538000000002 9.5350257 -1.0870362900000001 1.932653 1.698565 1.12441
11760 1.9273903200000002 8.52163308 -1.3680045 1.9229 1.822492 1.044067
11780 3.5672299200000004 8.91021699 -0.5427676800000001 1.844134 1.694549 0.873833
11800 3.5691821100000003 9.342219960000001 -0.02065986 1.6558099999999998 1.425216 0.725448
11820 3.3425514900000004 9.301802760000001 -0.25342173 1.381059 0.965303 0.625842
11840 2.8972265400000006 9.593552160000002 -1.15545123 0.98392 0.543222 0.495422
11860 2.98958769 10.63777761 -1.02746016 0.664984 0.279244 0.45294
11880 3.09137625 10.983256380000002 -0.52092081 0.584761 -0.034609 0.421804
11900 3.5173853100000003 11.693529810000001 -0.47450970000000003 0.695468 -0.374628 0.374943
11920 3.36664485 12.51173286 -0.50714757 0.789652 -0.668479 0.25206300000000004
11940 1.949247 12.5027469 -0.43738866000000004 0.5976600000000001 -0.888458 0.0192
11960 1.4419522800000002 12.435391440000002 1.0309034700000002 0.026212 -0.8787950000000001 -0.303134
11980 1.00800693 11.33577873 1.674567 -0.733762 -0.617909 -0.682654
12000 -0.19833858000000001 11.295812790000001 0.77673618 -1.47123 -0.136323 -0.8625430000000001
12020 -0.44248005 12.58313004 -1.15844328 -2.044369 0.681057 -0.710565
12040 -0.53588106 15.530358150000001 -0.8445429000000001 -1.811095 1.156302 -0.14766
12060 -1.5826571100000002 14.3651754 -0.7188081300000001 -0.155472 0.83252 0.531958
12080 -0.46762308 12.219836310000002 -0.86534991 1.143566 0.458503 0.4977140000000001
12100 0.60968169 10.925779590000001 -1.47039147 0.626848 -0.197723 0.150978
12120 1.0180327500000002 10.42237944 -1.2948120900000002 -0.433331 0.102036 -0.099298
12140 2.31239358 9.21693645 -1.3293825300000004 -1.1478540000000002 1.365984 0.386542
12160 2.63960613 7.275615930000001 -1.8965574900000002 -1.31959 0.26499 0.942229
12180 2.0630135700000003 5.61871674 -2.13770691 0.487607 -0.46499 0.242215
12200 3.08313585 3.97857303 -2.8134000900000005 0.655506 0.533593 -0.273843
12220 4.04383896 3.5031608100000002 -2.89887462 -0.35118 1.635933 -0.943516
12240 4.9573952100000005 4.15626156 -3.15648522 -0.427568 0.7676189999999999 -1.912883
12260 4.922814960000001 4.26628071 -3.1181673600000006 -1.174239 0.606 -1.874094
12280 4.46910246 4.6533735 -2.76848991 -2.080845 1.270267 -1.505264
12300 3.96840006 4.1504148 -2.26404009 -1.058156 2.324753 -1.292237
12320 3.4169407200000004 3.81526596 -1.9034441100000001 -0.561717 3.353128 -1.285814
12340 2.8159408800000003 3.48999579 -1.7169265800000002 -0.234317 3.286197 -1.082615
12360 2.8342071 4.06779498 -2.4530984100000004 -0.108819 2.674706 -0.653666
12380 3.4118591400000002 6.011048070000001 -3.73069395 -0.214215 2.215126 -0.450852
12400 5.1970437 11.822560740000002 -5.069356740000001 -0.454579 1.823326 -0.298205
12420 7.24088853 15.70608468 -7.7406982200000005 -0.647645 1.444521 0.02674
12440 5.83142697 12.90930273 -8.324638470000002 -0.761595 1.330622 0.10407
12460 3.8179637100000003 6.43931343 -7.04270691 -0.486451 1.670773 -0.481966
12480 2.11525182 8.80619175 -6.30624078 -0.139769 1.7754009999999998 -0.839669
12500 7.9361919 28.32080292 -0.6373753200000001 0.087323 1.933406 -1.122432
12520 1.7384889600000002 26.81523279 1.3392612000000002 0.247103 2.140364 -1.334158
12540 -4.1077609200000005 6.779700810000001 -0.9026181 0.228161 1.916901 -1.378869
12560 -3.76571565 1.8844323300000003 0.74485368 0.027769 1.251886 -1.134794
12580 -2.6023379399999995 4.89916305 1.0976703300000001 -0.143234 0.717901 -0.650331
12600 -2.8442329200000005 9.41033079 0.5343899400000001 -0.191271 0.8604360000000001 -0.023803
12620 -0.07349652000000001 10.875336569999998 2.7550207800000006 -0.022376 0.695904 0.215801
12640 1.5597605700000001 11.7620919 4.10027589 0.07702 0.219542 0.17544500000000002
12660 0.33904341000000005 11.429778149999999 -0.3962259 0.19294 -0.13641 0.378605
12680 0.020355750000000002 12.463085070000002 1.6381915200000001 0.693258 -0.515584 0.727621
12700 1.1195172 9.998008650000001 1.58370678 1.309464 -0.6399279999999999 1.185011
12720 2.7012816 7.58262969 1.16038566 1.7960040000000002 -0.475958 1.582373
12740 3.3519789 7.34432517 1.2880726200000001 2.04025 -0.04515 1.793967
12760 3.22968744 7.048995120000001 2.44426941 2.223752 0.596851 1.724991
12780 3.4643916900000002 8.35622667 2.245028310000001 2.266327 1.28466 1.245844
12800 2.9045644200000003 9.35733717 1.79342496 1.901654 1.528968 1.205596
12820 0.32677110000000004 8.992395360000002 0.3381507 1.842191 1.535901 1.387838
12840 2.507436 8.47432926 -1.9728989100000003 2.025192 1.236675 1.200424
12860 2.22766461 9.390426300000001 -1.7401272300000001 1.823584 1.140636 0.6180260000000001
12880 3.50990028 7.864500420000001 -1.2214627199999997 1.610855 0.242658 0.523687
12900 5.01187995 8.496333089999998 -1.1578448700000001 1.175966 -0.328088 0.573724
12920 6.245458020000001 10.298881350000002 -0.06151851 0.641804 -0.627028 0.669721
12940 5.339847870000001 8.61653502 0.29159244 0.378908 -0.95425 0.6768489999999999
12960 6.05925441 8.414449020000001 -1.4561767799999998 0.293121 -1.2544959999999998 0.7108180000000001
12980 3.84729561 11.915069040000002 -2.7111602700000006 0.31452600000000003 -1.541825 0.884388
13000 3.1281931800000002 13.77375993 -2.26554102 0.386572 -1.77053 1.005893
13020 2.7523230300000003 13.77151344 -1.49688828 0.402306 -1.958622 0.8769889999999999
13040 2.04295212 14.670089820000001 -0.8083145700000001 0.151926 -1.912997 0.607058
13060 1.6302552300000002 12.80602305 1.4471908199999999 -0.5025189999999999 -1.210341 0.215958
13080 -0.01152675 9.55208529 2.1585139200000003 -1.276957 -0.596839 -0.153433
13100 0.13816404 8.500374810000002 0.05747679000000001 -2.3009470000000003 0.16839 -0.155157
13120 1.2614286599999998 12.517422660000001 -0.90007731 -2.566757 0.8234870000000001 -0.17921700000000002
13140 -0.057329639999999994 16.36546383 0.07813665 -0.917452 0.632317 0.376273
13160 -0.6027950700000001 14.49346077 -0.30161826 1.271127 -0.049406 0.330477
13180 0.39517623 12.712013820000001 -1.81138707 1.136686 -0.548575 0.069531
13200 0.43155171000000003 12.792396960000001 -2.74289562 0.930674 -0.5279010000000001 -0.12635
13220 -0.82358874 12.610225260000002 -0.56282913 -0.691099 0.220233 0.401883
13240 2.18216583 9.389072520000001 -1.16697798 -0.929254 0.140211 0.373616
13260 3.1621750200000003 6.817724370000001 -1.87065909 0.697747 0.363406 -0.108823
13280 3.30467508 2.799774 -2.81444976 0.494905 1.038246 -0.59501
13300 3.49777512 2.7792711000000003 -3.71018124 -0.285598 0.966878 -1.250917
13320 4.120327530000001 3.67605225 -3.0828415500000004 -0.735456 -0.227715 -1.820823
13340 4.90380318 3.7892204100000004 -3.0620345400000004 -1.803159 -0.403935 -1.582364
13360 4.7204346600000004 4.255352370000001 -2.8836004500000003 -2.770178 0.218459 -1.345293
13380 3.32743428 4.0577593499999995 -2.08351647 -1.893491 0.969306 -0.997232
13400 3.0021543000000004 3.63503664 -1.6108020000000003 -1.397787 1.870877 -0.715051
13420 2.28035412 3.9833701200000005 0.07215255 -0.907598 1.996929 -0.694697
13440 1.08315153 5.43370014 -0.01362609 -0.48149 1.390317 -0.680261
13460 2.31897609 6.42958191 -0.5897772000000001 -0.305386 0.923143 -0.686978
13480 2.37960189 7.447016250000001 -3.44943144 -0.375389 0.782749 -0.681946
13500 3.2560272900000005 15.057486720000002 -7.7109150600000005 -0.7441180000000001 0.621114 -0.700338
13520 7.878715110000001 21.04129242 -12.284650980000002 -0.972378 0.6315029999999999 -0.703014
13540 3.3311718900000002 10.89134649 -10.10369178 -1.0174 0.8870629999999999 -0.637426
13560 3.6080983800000004 7.9974161100000005 -6.467752620000001 -0.687887 1.475371 -0.7256090000000001
13580 6.07272354 21.4420113 -2.7605634300000004 -0.130165 1.538875 -0.839299
13600 4.518358470000001 25.75065159 3.9912966 0.175761 1.7877490000000005 -1.004124
13620 -2.1215400300000002 12.989234609999999 -1.08210186 -0.058769000000000016 1.514038 -1.083391
13640 -2.9413813500000003 1.9959524100000001 0.0868185 -0.286266 0.816792 -1.013584
13660 -1.31711022 2.91488454 -0.15822549 -0.291444 0.054633 -0.621674
13680 -0.6441147900000002 5.67530082 -0.5204695500000001 -0.167721 -0.027308 -0.217986
13700 2.03456457 7.140296790000001 0.15642045 0.204128 0.428141 0.114109
13720 3.4652942100000006 10.16506314 5.051698740000001 0.370681 0.171015 0.0686
13740 1.6214262300000002 11.20629654 2.3724209700000003 0.489136 -0.105012 0.262061
13760 1.4691946500000002 11.193572970000002 -0.9448305300000001 0.968353 -0.388412 0.654604
13780 1.19226816 10.827434340000002 0.09714843000000001 1.587373 -0.792045 1.156169
13800 0.19339434 9.36078048 -0.9186378300000001 1.98913 -0.8435 1.6867419999999995
13820 1.05125922 7.33594743 -0.37855809 2.108658 -0.787432 2.213071
13840 2.14997922 6.67596987 -0.3441348 2.266102 -0.338738 2.289439
13860 2.0658584700000002 6.6842004600000005 0.73077633 2.008412 0.419612 1.746147
13880 1.5829612199999998 7.56631566 1.49778099 1.503536 0.673454 1.574584
13900 1.14452289 8.66038572 1.46141532 1.273022 0.408945 1.322281
13920 0.94034736 9.215288370000001 0.8698428900000001 1.259481 -0.05744700000000001 1.018341
13940 1.2169697400000001 9.59159997 -1.3765392 1.101444 -0.23644 0.6297020000000001
13960 2.28335598 10.205774640000001 -1.99744353 1.023305 -0.7497050000000001 0.6479729999999999
13980 4.12541892 7.5630195 -1.44509148 0.716263 -1.3465200000000002 0.712823
14000 5.94084771 7.792799130000001 -1.64926701 0.345597 -1.719955 0.914743
14020 5.2374609 8.995838670000001 -0.65803518 0.000595 -1.973643 0.985297
14040 5.75657667 9.89382645 0.28620675 -0.277618 -2.063596 1.077473
14060 6.1947207 12.07014552 -0.8331632999999999 -0.4549760000000001 -2.142782 1.053903
14080 2.71311246 15.36914061 -2.00433015 -0.538788 -2.228011 0.862215
14100 3.75733791 15.67630152 -1.5423968700000001 -0.59078 -2.271185 0.515803
14120 4.46117598 14.224019310000001 -1.39435416 -0.808715 -2.051387 0.084574
14140 4.60352889 12.48449049 0.5450141700000001 -1.349002 -1.297136 -0.25452
14160 2.31897609 8.70110703 1.3841713800000002 -2.17572 -0.556978 -0.018757
14180 0.93525597 6.46610454 0.22079367 -2.704594 0.098598 0.331359
14200 1.9717020900000002 8.73298953 -2.2472748 -1.716325 0.542143 0.7083659999999999
14220 0.62958618 16.45124247 -0.9624983400000001 0.387032 0.073141 1.085787
14240 -1.36186344 16.65436833 -0.5816937600000001 0.724425 -0.235494 0.720002
14260 0.3376994400000001 13.64457204 -1.0005219 0.722754 -0.7919930000000001 0.295551
14280 0.80218332 11.767928849999999 -2.87701794 -0.103744 0.08523 0.619803
14300 1.05694902 11.366317259999999 -2.3336518500000003 -0.528154 -0.014963 0.469552
14320 1.1829879 9.932742720000002 -0.9789595200000001 1.378031 0.021393 0.115352
14340 2.65053447 7.67214594 -1.33342425 0.674553 1.145258 -0.33965500000000004
14360 2.7419930999999997 4.00492269 -1.96586514 -0.486775 1.525861 -1.271198
14380 2.85680934 2.34128403 -2.28888882 -1.16749 0.191543 -2.129889
14400 3.0710106900000005 2.32421463 -2.1025282499999998 -2.1099900000000003 -0.003981 -2.23343
14420 3.58219998 2.88330615 -2.0441489400000004 -2.681519 0.57643 -1.963633
14440 3.21756228 3.22354638 -2.4291522000000003 -1.5262129999999998 1.681889 -1.293614
14460 3.0244622400000005 4.06959021 -2.4351363000000004 -1.25928 2.463001 -0.7928229999999999
14480 2.60443728 4.006717920000001 -2.5355808900000003 -0.753009 2.616763 -0.523496
14500 2.50818156 4.58796042 -1.9026887399999999 -0.503586 2.040956 -0.334077
14520 2.9678781600000006 6.530320800000001 -0.36658989000000003 -0.512456 1.494489 -0.331302
14540 4.96187838 8.288567100000002 0.9096616800000001 -0.517653 1.28466 -0.334274
14560 3.3876088200000005 8.70110703 -1.39120515 -0.732931 1.013047 -0.4219560000000001
14580 3.88666314 15.859817190000001 -4.4718002100000005 -1.008568 0.8872969999999999 -0.7035939999999999
14600 7.118292960000001 20.72171205 -11.02801941 -0.999638 1.107137 -0.8095680000000001
14620 1.3192095600000002 10.373133240000001 -10.08677934 -0.668909 1.588413 -1.03861
14640 0.17782587000000002 10.33824888 -7.870484520000001 -0.109504 1.556018 -1.147893
14660 4.611759480000001 26.155863450000002 -3.4057180799999998 0.129372 1.977154 -1.176674
14680 2.8509723900000004 28.56151089 5.013371070000001 0.121104 1.528944 -0.971059
14700 -3.5052601500000002 8.24126328 1.93113774 -0.117726 0.704994 -0.641591
14720 -3.6797996700000004 0.021552570000000004 2.22646779 -0.193589 0.28744699999999995 -0.32005100000000003
14740 -3.1127816700000004 2.78855136 1.0591955100000001 0.033154 0.453848 -0.038806
14760 -2.31163821 5.63144031 0.35356221 0.360969 0.200659 0.122973
14780 2.19862701 10.43779095 2.8252211400000005 0.497681 -0.313832 0.527307
14800 2.56057677 13.886319870000001 3.97768032 0.898286 -0.956121 0.960354
14820 2.0764827 13.774505490000003 -1.42353891 1.435527 -1.2392450000000002 1.499648
14840 1.74297213 10.49961357 0.75518361 1.959573 -1.28735 1.885794
14860 1.12341177 9.42814575 0.06960195000000002 2.297836 -1.130382 2.032166
14880 1.5518242800000004 7.52979303 -0.13097330999999998 2.1802330000000003 -0.4506350000000001 1.5764790000000002
14900 1.69147944 6.33767202 -0.05343507 1.825513 0.187258 1.137349
14920 2.6168567400000002 5.3889469199999995 0.02664396 1.687225 0.635737 1.257586
14940 2.6728424100000003 5.992036290000001 0.6277909500000002 1.618344 0.8623860000000001 1.380728
14960 1.13988276 8.08917885 2.13620598 1.468492 0.8591790000000001 1.247226
14980 1.78353648 9.48277764 1.8263473200000002 1.300108 0.431392 1.013725
15000 1.5141048300000002 10.187959679999999 1.5660389700000001 1.181593 -0.28731 1.026637
15020 1.9014919200000002 9.95400099 -1.70749917 0.8305100000000001 -0.864188 0.939466
15040 4.072876560000001 8.11132983 -2.70802107 0.457253 -1.306037 0.936357
15060 5.821244190000001 8.03708775 -2.6200057500000002 0.196862 -1.889589 0.841282
15080 6.077962080000001 9.039100770000001 -1.0785114 -0.100605 -2.334847 0.825888
15100 5.43953709 9.980193690000002 0.02994012 -0.348831 -2.542574 0.7742140000000001
15120 5.67589923 11.57243517 -0.7912549800000002 -0.518165 -2.719965 0.527568
15140 4.65427602 14.05143198 -2.25057096 -0.683942 -2.640397 0.220796
15160 4.72387797 14.627583090000002 -1.7377335900000002 -0.8680040000000001 -2.083664 -0.050395
15180 4.213287090000001 13.117225680000002 -0.15747012000000002 -1.191008 -0.992141 -0.206805
15200 3.3082655400000003 10.904374169999999 1.10051523 -1.899861 0.039727 -0.029345
15220 1.00246428 8.30188908 1.0150407000000001 -2.2881970000000003 0.648932 0.339971
15240 1.02132891 9.16604217 -1.36934847 -1.243257 0.8368 0.670701
15260 1.1771509500000001 15.463444140000002 -1.7583934500000002 0.551411 0.053541 1.049572
15280 -1.20963186 16.879645170000003 0.029184750000000002 0.78186 -0.154263 0.602795
15300 -0.9818044200000001 14.471005680000001 -0.0170694 0.4550300000000001 -0.189743 0.168996
15320 0.16466085 11.92884228 -2.31942735 -0.08379299999999999 0.22354 0.114496
15340 1.08329868 11.808797310000001 -2.38484043 -0.987387 0.380577 0.25433
15360 0.12304683000000001 12.475053270000002 -0.82672794 0.63554 0.168215 0.00636
15380 3.63220155 9.914633460000001 -1.79417052 0.757876 0.8565799999999999 -0.414547
15400 3.32593335 7.7251395600000015 -2.50069653 -0.25921700000000003 1.4512969999999998 -0.937296
15420 3.6229114800000004 3.4937334000000004 -3.13567821 -0.928525 0.343591 -1.733173
15440 2.77178607 2.9216240100000004 -3.3733843200000004 -1.619983 -0.403912 -1.746659
15460 3.16187091 3.24569736 -2.53094076 -2.749352 -0.027271 -1.7165740000000005
15480 3.4271235 3.33791136 -1.8895237200000001 -1.832611 0.787614 -1.433477
15500 3.20064003 3.3033311100000002 -1.8333909000000002 -1.13339 1.745541 -1.035647
15520 2.71610451 3.1469106600000005 -1.96406991 -0.8382290000000001 2.333888 -0.837786
15540 2.6568226800000003 3.54986622 -1.42518699 -0.489261 1.868369 -0.6093569999999999
15560 2.5604296200000003 4.53601647 -0.51477975 -0.464847 1.431257 -0.543465
15580 2.55294459 6.41999754 -0.41658165 -0.508236 1.3183049999999998 -0.49769
15600 3.1850813700000002 7.18146936 -1.1020063500000001 -0.827292 1.006476 -0.561476
15620 1.4931408600000002 9.79338186 -4.462372800000001 -1.007216 0.7804949999999999 -0.63615
15640 4.12273098 20.39853141 -7.48937583 -0.840929 1.170016 -0.6878310000000001
15660 2.8629504 17.47181601 -9.18025686 -0.5052300000000001 1.668986 -0.817516
15680 0.92387637 6.934482990000001 -8.076151170000001 -0.146118 1.7043830000000002 -0.922944
15700 2.62853064 13.1158719 -7.132664610000001 0.117889 2.014663 -0.956749
15720 8.541841680000001 26.122931280000003 -0.13053186 -0.008941 1.812677 -0.950966
15740 1.43985294 22.93844832 1.8615259800000001 -0.276648 1.206052 -0.8644649999999999
15760 -1.70390871 5.707477620000001 -0.22438413000000001 -0.186012 0.5939300000000001 -0.5137390000000001
15780 -1.62307431 1.91945403 0.008985960000000001 0.003322 0.6586529999999999 -0.080937
15800 -2.02484286 4.6331649 1.0135397700000002 0.330847 0.679897 0.183037
15820 -0.08726976 6.94780497 0.39158577000000006 0.479657 0.195285 0.297929
15840 4.0374036 9.89157996 3.46813911 0.695806 -0.34345 0.569322
15860 2.19324132 11.413464120000002 4.096234170000001 1.221301 -1.025372 0.948812
15880 0.17767872 11.65207275 -1.13868594 1.683083 -1.304793 1.426686
15900 0.17499078 11.743227270000002 0.6197075100000001 1.980356 -1.280599 1.77804
15920 -0.21195486000000002 10.03139208 0.35116857000000007 2.036656 -1.062447 2.052687
15940 0.9879454800000002 7.13730474 0.19759302 1.976762 -0.45273 1.743839
15960 1.64598066 6.70335939 0.18367263 1.6708009999999998 0.230333 1.421428
15980 2.98793961 6.57822303 0.22048956 1.528297 0.405242 1.493916
16000 1.8805377600000002 7.53548283 0.9562101300000001 1.42694 0.227343 1.315043
16020 1.3398596100000002 9.198071820000001 1.46829213 1.370881 0.013649 0.991254
16040 0.9693849600000001 9.73126494 1.61319564 1.110543 -0.60487 0.849223
16060 1.9270960200000002 9.45014958 0.7499450700000001 0.805946 -1.127146 0.919335
16080 3.0358418400000002 9.42754734 -1.51918641 0.437874 -1.529888 0.988851
16100 4.534074090000001 7.46512551 -1.4569223400000002 0.075424 -1.86661 1.060458
16120 4.95379494 7.30046466 -2.0806715700000002 -0.280799 -2.032798 1.104117
16140 4.7837484 9.0292221 -1.67082939 -0.5161560000000001 -2.124861 1.153865
16160 5.448218939999999 10.37687085 -0.66775689 -0.665246 -1.927921 1.051091
16180 5.73846741 11.36466918 -1.70121096 -0.656501 -1.656365 0.799772
16200 4.0547673 13.054500540000001 -2.67927777 -0.536258 -1.585134 0.465098
16220 4.235595030000001 14.64853725 -1.60257141 -0.509031 -1.318639 0.131662
16240 4.06943325 13.982271480000001 -0.71955369 -0.803222 -0.5337310000000001 -0.095725
16260 3.6591398100000005 11.93333526 1.14916302 -1.397261 -0.108242 0.041653
16280 2.50923123 8.24575626 1.85973075 -1.69661 0.011076 0.29898800000000003
16300 1.5362558099999999 7.15721904 0.36389214000000003 -1.23453 0.34591500000000003 0.61157
16320 3.2524368299999997 11.217823290000002 -1.71063837 -0.148075 0.362623 0.552908
16340 1.5549634799999998 17.14174875 -0.07648857 0.611617 0.075697 0.253071
16360 0.34503732000000004 15.492334589999999 -0.27138384000000004 0.008686 -0.14938800000000002 0.054731
16380 1.5982255800000003 12.15562005 -2.1106116900000003 -0.979978 1.040008 -0.024201
16400 1.3763920500000002 11.37739275 -3.0776030100000002 -2.295195 0.576385 0.6391180000000001
16420 0.43394535 11.73439827 -1.6143924600000004 0.251989 -0.659032 0.486509
16440 1.93248171 9.92092167 -1.1150340300000001 1.022212 0.162928 -0.338104
16460 2.15297127 8.13782664 -1.4305726800000003 0.190599 1.482149 -1.05063
16480 2.3067037800000003 4.18664313 -2.485883430000001 -0.133853 0.825131 -2.1640740000000003
16500 2.28544551 3.5372898000000004 -2.8104080400000004 -1.195172 0.432321 -2.378219
16520 2.4501063600000004 3.3392553300000003 -2.35505727 -2.436875 1.055118 -2.2701860000000003
16540 3.00440079 3.3663505500000004 -2.25356301 -1.826139 1.699464 -1.964438
16560 2.87986284 4.10416065 -2.4339394800000003 -1.2811549999999998 2.719985 -1.369076
16580 3.08119347 4.950351629999999 -3.04931097 -0.625054 3.000963 -1.075365
16600 2.45190159 5.65014798 -3.41469423 -0.380051 2.162125 -0.638881
16620 2.5755468300000004 6.1918758 -2.5737516 -0.59405 1.331983 -0.380802
16640 3.27324384 6.95632986 -0.8911011600000001 -0.762793 0.851045 -0.110036
16660 4.13784819 7.7784274799999995 0.56897019 -0.820674 0.787454 0.12465
16680 2.87013132 8.89929846 -1.3528872900000002 -0.901021 1.331298 -0.209894
16700 4.55083938 12.48059592 -4.18829121 -0.72458 1.721169 -0.623631
16720 7.3922274 13.68663732 -8.50351401 -0.259986 1.672253 -0.781624
16740 5.06756151 9.928848150000002 -8.725357350000001 0.121559 1.546325 -1.055467
16760 2.53243188 4.6288288799999995 -6.35503572 0.29402399999999995 1.635471 -1.120607
16780 2.5026487200000003 10.23092748 -4.78854549 0.081997 1.379915 -0.964732
16800 9.26423046 34.47226152 1.15619679 -0.192487 0.685024 -0.644224
16820 -2.4400805400000003 25.74885636 -0.10822392 -0.168982 0.461318 -0.39915
16840 -6.2980003799999995 3.6268060500000003 0.8728349400000001 0.172224 0.520543 -0.055012
16860 -4.1872415400000005 2.31763212 1.0523088900000002 0.40236 -0.041587 -0.071912
16880 -3.52592001 4.82476401 -0.24833034 0.466745 -0.497385 0.103242
16900 -0.41897529 7.0064785800000005 0.5718150900000001 0.921512 -0.8547819999999999 0.6399199999999999
16920 2.36778084 11.83992444 6.38706537 1.673402 -1.3770870000000002 1.13295
16940 5.0008044599999995 12.82697721 1.55107872 2.126617 -1.276776 1.7608970000000002
16960 3.1507954200000006 11.80340181 0.25042968 2.225047 -1.130235 2.32435
16980 1.49478894 9.920166300000002 1.8522457200000002 2.316782 -0.443475 2.0645330000000004
17000 0.6996492000000001 7.48772775 0.49636638 1.883382 0.555455 1.4502700000000002
17020 2.10118428 6.117928020000001 0.36958194 1.670074 0.834132 1.475129
17040 1.76273928 4.81683753 0.29938158000000004 1.554762 0.681669 1.340991
17060 2.9762657100000003 6.21268281 0.30686661000000004 1.491642 0.16089 1.094458
17080 3.0356848800000003 8.15114862 1.58595327 1.2999379999999998 -0.101274 0.754829
17100 1.1612881800000001 8.466098670000001 0.81416133 1.053582 -0.804512 0.74119
17120 2.2837974300000004 9.715549320000001 0.06586434000000001 0.77208 -1.558393 0.901492
17140 2.33574138 10.23511635 -1.8383253300000002 0.410577 -1.799736 1.0958290000000002
17160 4.40683839 8.51025348 -1.57756572 0.136663 -2.248186 1.059239
17180 6.36581691 8.35666812 -1.5636453300000002 -0.15256199999999998 -2.68949 1.113332
17200 5.870039129999999 9.22007565 -0.87762222 -0.466207 -2.880315 1.154114
17220 5.747894820000001 10.260710640000001 -1.0065060000000001 -0.647226 -2.718209 0.998818
17240 6.22315989 12.38479146 -2.3593932900000008 -0.6887340000000001 -2.507053 0.710906
17260 4.50143622 14.184798930000001 -3.3614063100000005 -0.8305889999999999 -1.868236 0.38863
17280 6.06928023 13.85683101 -1.69986699 -1.165679 -0.966902 0.119147
17300 5.616774360000001 13.67302104 -1.1618865900000004 -1.801892 -0.132442 0.316596
17320 4.05701379 11.92615434 0.8077161600000001 -2.318155 0.436978 0.623113
17340 1.9552311 8.80992936 1.93412979 -1.618509 0.583942 0.826501
17360 1.02192732 7.65583191 -0.22408002000000002 0.128797 -0.091414 1.168583
17380 1.3012474500000002 12.259203840000001 -0.9660888000000001 0.5673199999999999 -0.6488729999999999 0.602999
17400 -1.10679363 17.56447146 0.04221243000000001 0.7939649999999999 -0.941022 0.20650900000000005
17420 -0.75712599 16.6235355 0.77463684 0.27873200000000004 -0.21578000000000006 0.439126
17440 0.47990520000000003 12.87038646 -0.99722574 -0.682379 -0.117983 0.259236
17460 1.20933756 11.66764122 -2.8187857800000007 0.628099 -0.178574 -0.109684
17480 1.3985430300000004 11.77466832 -2.0477394 0.196725 1.257277 -0.499097
17500 2.01630816 9.545797080000002 -1.6066131300000002 -0.750286 2.054948 -1.220306
17520 2.95635141 7.653879720000001 -2.09114865 -1.231968 1.0238040000000002 -2.144225
17540 3.74461434 3.2090275800000003 -2.7988812900000006 -1.862577 0.460519 -2.457692
17560 2.257310430000001 1.33672041 -2.672244 -2.400328 0.5249510000000001 -2.386755
17580 2.3932279800000003 2.11510467 -2.4617802600000003 -1.746584 1.091039 -1.99515
17600 2.63976309 2.67418638 -2.0570196600000004 -1.574958 1.941239 -1.107348
17620 3.2359756500000003 3.31949799 -1.75899186 -0.954814 2.082791 -0.547722
17640 2.98793961 3.47098401 -2.26838592 -0.557247 1.740704 -0.32659
17660 2.76205455 3.6125913599999997 -2.28214935 -0.564075 1.188844 -0.308839
17680 2.8551612600000005 5.15138796 -1.12072383 -0.6524800000000001 0.722658 -0.333428
17700 3.7411710300000003 7.92317403 -0.6536893500000001 -1.001784 0.225032 -0.261523
17720 5.41184346 8.466844230000001 0.17633475 -1.409928 0.168518 -0.426671
17740 3.5600490000000002 9.0175482 -1.9754397000000001 -1.229401 0.88394 -0.47226
17760 4.96682262 16.769027610000002 -5.2172523 -0.58739 1.167735 -0.603804
17780 7.32142863 21.528378540000002 -11.822266440000002 -0.018335 1.091849 -0.767442
17800 0.43963515000000003 8.4331665 -11.02383054 0.17108099999999998 1.2136129999999998 -1.011966
17820 3.0699708300000004 15.29983296 -7.027285590000001 0.034869 0.8591790000000001 -0.969735
17840 8.18917218 27.040970700000003 0.3176379900000001 -0.320599 0.404335 -0.6693279999999999
17860 0.032785020000000005 20.52861201 1.57292559 -0.441921 0.15708 -0.27034400000000003
17880 -3.1031973 5.57889795 0.86804766 -0.13355 0.561348 0.128671
17900 -3.9987816300000003 1.7583934500000002 1.0374957900000001 0.264687 0.601601 0.106832
17920 -4.18694724 4.392319590000001 0.6939594 0.41423 0.313927 0.25566
17940 -3.1623221700000004 5.55674697 0.14295132 0.830885 0.003501 0.534569
17960 2.22168051 10.15503732 2.88165807 1.535116 -0.485434 0.982359
17980 3.9231955800000002 12.0569805 3.4557098400000004 2.051548 -0.6884399999999999 1.484017
18000 3.72021687 13.99724154 -0.52615935 2.244075 -0.836887 1.942752
18020 4.249515420000001 11.120969160000001 1.29780414 2.1992 -0.745544 2.049143
18040 2.32915887 7.847735129999999 0.01197801 2.085591 -0.127592 1.592495
18060 1.08614358 5.369032620000001 0.053886329999999996 1.80495 0.434283 1.4509459999999998
18080 1.12924872 4.57074387 0.05194395 1.759775 0.663181 1.524045
18100 1.8134766 4.37689827 -0.77599062 1.617525 0.561394 1.261467
18120 2.51611785 5.847741 -0.91834353 1.421277 0.396503 0.842633
18140 1.82470905 9.30016449 1.20828789 1.340951 -0.161364 0.827831
18160 2.09923209 10.75408497 0.5683717800000001 1.072668 -0.6859609999999999 0.648237
18180 1.79536734 12.409198739999999 0.5884234200000001 0.5420520000000001 -0.955958 0.6961510000000001
18200 2.20865283 8.95706955 -2.24802036 0.17674700000000002 -1.315705 0.667355
18220 3.57621588 6.690939930000001 -2.47825125 -0.024928 -1.825159 0.638825
18240 5.58712854 8.059984290000001 -1.0910780100000002 -0.23393000000000005 -2.033245 0.6429729999999999
18260 4.934783159999999 9.50358465 0.03053853 -0.360493 -2.043062 0.543825
18280 3.96840006 10.93640382 -0.050590170000000004 -0.42481 -2.116427 0.298847
18300 3.87933507 14.248720890000001 -1.1018592 -0.557662 -2.014825 0.047825
18320 2.21613786 15.421977270000001 -1.43132805 -0.8723920000000001 -1.273586 -0.163627
18340 4.60831617 14.70287484 -0.80682345 -1.424762 -0.29244000000000003 0.041697000000000005
18360 4.83479964 14.120886780000001 -0.45176031000000005 -1.93693 0.40201 0.5125890000000001
18380 4.07617272 11.247910560000001 1.2552876 -1.575302 0.763575 0.8885290000000001
18400 1.4826637800000002 8.21356965 1.1124834300000002 -0.012528 0.253243 1.147927
18420 1.4898545100000002 7.548647850000001 -1.31576625 0.7096899999999999 -0.504758 0.4040510000000001
18440 1.8818817300000001 12.40455861 -0.7306291800000001 0.277009 -0.867816 -0.069592
18460 -0.8722365300000001 15.530201190000001 0.04879494 -0.153583 -0.031362 -0.281975
18480 -0.01751085 14.7383478 -0.2402469 -1.969086 0.925689 0.117519
18500 1.4691946500000002 13.14611613 -2.1933884700000004 -0.222559 0.008684 0.152258
18520 0.67016034 12.55229721 -3.10185333 0.930104 0.366535 -0.293075
18540 -0.8454454200000001 12.51547047 -1.445994 0.030399 1.466751 -0.791083
18560 2.0776795200000002 9.449698320000001 -1.5073653599999999 -0.586042 1.389078 -1.87633
18580 1.8968517900000001 6.848704350000001 -1.8450648 -1.011175 0.334617 -2.346898
18600 3.0102377400000004 2.8377975600000003 -2.58347331 -2.213153 0.511988 -2.504004
18620 2.7416988 1.7598943800000002 -2.66640705 -2.267033 0.62098 -2.274852
18640 3.23237538 2.33889039 -2.9223695700000003 -1.591956 1.6686849999999998 -1.397674
18660 3.8345720400000003 2.6232921 -2.5283901600000003 -1.314754 2.207604 -0.8121109999999999
18680 3.60854964 3.0847839300000004 -2.5768908000000006 -0.74187 1.781509 -0.5138020000000001
18700 3.05948394 3.34688751 -2.77313004 -0.635425 1.1573790000000002 -0.370185
18720 2.90216097 3.3519789 -2.84169213 -0.656121 0.6628609999999999 -0.294921
18740 2.9195246700000004 4.93748091 -1.83009474 -0.863066 0.17693499999999998 -0.07569
18760 4.11883641 7.63651602 -1.10231046 -1.171679 0.246611 -0.18262
18780 5.08851567 8.56189332 -1.86931512 -0.965608 1.032868 -0.381946
18800 4.60876743 11.45493099 -2.8951272 -0.578647 1.581573 -0.472882
18820 6.1110413999999995 19.58407578 -7.26049872 -0.17741600000000002 1.2895370000000002 -0.782694
18840 2.91279501 15.39368523 -11.395953270000001 0.029953 1.365341 -1.2705879999999998
18860 1.4612583600000002 5.173695899999999 -9.000037350000001 -0.020834 1.372261 -1.3585459999999998
18880 1.97843175 10.97622261 -5.95656333 -0.190167 0.8091010000000001 -1.03854
18900 7.65882396 26.12920968 -0.40041477000000003 -0.329858 0.31247600000000003 -0.599841
18920 1.59179022 28.064693250000005 2.87567397 -0.066594 0.578813 -0.034322000000000005
18940 -4.1936769 6.62132817 0.59411322 0.500384 0.879641 0.167942
18960 -4.36163391 1.58220585 1.0985630400000002 0.65473 0.476887 0.320156
18980 -2.85965424 3.98500839 0.63407916 0.918188 -0.134786 0.675293
19000 -2.0281292100000003 5.2474867199999995 0.13097330999999998 1.487134 -0.934781 1.240041
19020 2.31313914 8.317899 2.95635141 1.860388 -1.221191 1.943769
19040 3.2576753700000003 11.509866990000003 4.41760977 2.039903 -1.298694 2.520893
19060 4.9036560300000005 12.835511910000001 -0.6418683000000001 2.19681 -0.796583 2.293815
19080 3.75882903 10.72160406 0.7831715400000001 1.907832 -0.006714 1.621009
19100 1.73010141 8.16806106 -0.08547453 1.6885709999999998 0.43673 1.4725629999999998
19120 0.48319155 5.376517649999999 -0.13546629000000002 1.632252 0.355431 1.3398139999999998
19140 0.9919872000000001 4.35833775 -0.26270199 1.466705 -0.071631 1.188586
19160 1.85838678 4.77342828 -1.5932911500000002 1.296335 -0.028411 0.918148
19180 2.7821160000000003 7.319025180000001 -0.92088432 1.152251 -0.455325 0.977509
19200 0.8346642300000001 10.008034470000002 1.40737203 1.012812 -1.021862 1.050969
19220 0.8346642300000001 11.83917888 0.79319736 0.779045 -1.258603 1.315626
19240 2.06405343 11.599824690000002 0.77119353 0.501606 -1.627864 1.192384
19260 1.4662026 9.22322466 -2.15043048 0.17307 -2.198327 1.079725
19280 4.716991350000001 7.17637797 -1.9434100500000002 -0.29893600000000004 -2.5916650000000003 1.019248
19300 6.26222331 8.20907667 -0.99662733 -0.6859069999999999 -2.475566 0.826253
19320 4.9771525500000005 9.958935420000001 0.30850488000000004 -0.814754 -2.25655 0.513152
19340 4.39950051 11.72227311 -0.21780162 -0.7850520000000001 -1.928222 0.165766
19360 4.372709400000001 15.032039580000001 -1.36456119 -0.914002 -1.413386 -0.065462
19380 4.60278333 15.601304070000001 -2.04055848 -1.452099 -0.797758 0.159658
19400 5.94802863 14.62054932 -1.59733287 -1.981834 -0.09000599999999999 0.5161100000000001
19420 5.375320830000001 12.26280411 -0.0868185 -1.564418 0.791316 0.868273
19440 3.17250495 8.773406730000001 1.40902011 -0.072711 0.208391 0.961693
19460 0.66880656 6.537658680000001 0.27677934 0.555122 -0.7098300000000001 0.406439
19480 1.83743262 9.98453952 -1.2835796400000001 0.061654 -0.8742469999999999 0.126533
19500 -0.38679849 17.52630075 -0.46328706 -0.875732 0.474073 -0.046249
19520 -0.6794406000000001 18.691032240000002 0.15043635 -2.654457 0.649922 0.410051
19540 0.62689824 14.83609464 -0.89498592 0.431313 -0.6330520000000001 0.494138
19560 0.9843550200000001 12.057421950000002 -3.33416394 1.61451 0.130367 -0.168351
19580 0.77374413 11.374096590000002 -2.64005739 0.279724 1.642781 -0.5396029999999999
19600 -0.05044302 10.23002496 -0.8038314000000001 -0.451217 1.32223 -1.79305
19620 2.26404009 7.97092911 -0.7731457200000001 -0.977172 0.803231 -2.08341
19640 2.30550696 6.0848487 -1.64058516 -2.66014 1.231657 -2.268767
19660 2.39067738 2.22497667 -2.3063996700000002 -2.395412 1.499187 -2.268329
19680 1.5834026700000001 2.2579088400000003 -2.8035214200000005 -1.566036 2.543768 -1.542824
19700 2.26539387 2.6345245500000005 -2.37989619 -1.328941 2.641946 -1.259283
19720 2.6752360500000005 3.0279055500000003 -2.0158569 -0.664385 2.02565 -0.8949290000000001
19740 3.03029919 3.1984033500000004 -2.44262133 -0.468607 1.465676 -0.622584
19760 2.91324627 2.9523096900000003 -2.7924459300000004 -0.539985 1.0917 -0.544623
19780 2.84438988 3.16681515 -2.18485377 -0.692543 0.704235 -0.220452
19800 3.66677199 5.75388873 -1.1493101700000001 -0.947163 0.456328 -0.075567
19820 6.008507280000001 8.250837839999999 -0.17019369 -1.215575 0.866878 -0.479619
19840 5.416336439999999 9.46631646 -2.11001328 -1.025991 1.499976 -0.724797
19860 6.27659496 15.51089511 -4.74318405 -0.453271 1.540141 -0.875741
19880 5.5588365 19.677329640000004 -11.53441161 0.073155 1.549215 -1.203224
19900 0.6637151700000001 7.334299350000001 -9.258697620000001 0.17697100000000002 1.568245 -1.257002
19920 -0.5480062200000001 4.1692794300000005 -6.098317830000001 0.037928 1.041425 -0.993448
19940 0.70024761 15.303129120000001 -4.81952547 -0.270409 0.5262180000000001 -0.55697
19960 9.17860878 35.80569558 5.40930267 -0.119036 0.668925 -0.145899
19980 -2.0555285400000005 19.67463189 -0.8491830300000001 0.345883 0.626884 0.107367
20000 -5.1498870299999995 1.0479728700000002 1.7253141300000001 0.543273 0.085536 0.515363
20020 -3.07624923 1.03719168 -0.4300605900000001 0.94342 -0.835033 1.009652
20040 -3.97857303 4.193824050000001 -0.63123426 1.412177 -1.508333 1.679291
20060 -0.24488703 7.39088343 1.1322407700000001 1.857249 -1.620797 2.244429
20080 0.9243276300000001 12.092002200000001 6.151007340000001 2.133456 -1.434063 2.459763
20100 4.35504159 13.791417930000001 1.3763920500000002 2.107104 -0.5250600000000001 1.869824
20120 4.69228977 14.49510885 -0.79618941 1.930734 0.225792 1.2662209999999998
20140 2.68302519 9.97615197 1.3301379000000002 1.848272 0.473966 1.3465120000000002
20160 2.7369115200000005 7.52934177 -0.49906413000000005 1.6892470000000002 0.467039 1.35182
20180 2.8598013900000003 6.508169820000001 0.33110712 1.715048 0.384366 1.224987
20200 2.3104413900000003 4.339031670000001 0.17499078 1.619992 0.181952 1.044053
20220 3.55854807 4.217780070000001 0.06436341000000001 1.50633 -0.393009 1.070702
20240 2.70802107 6.30624078 0.6629696099999999 1.196585 -0.984065 1.029771
20260 0.78826293 8.577167490000003 1.53984627 0.691689 -1.297551 1.008486
20280 0.59905746 10.057290479999999 0.41134311000000007 0.529004 -1.941259 0.953696
20300 2.81564658 10.4925798 -1.2916630800000002 0.237368 -2.416754 1.035589
20320 1.72860048 9.82841337 -2.61386469 -0.038338 -2.490467 1.060463
20340 4.65831774 8.14186836 -1.9251438300000001 -0.153668 -2.497697 0.837477
20360 6.151605750000001 9.342818370000002 -0.26255484 -0.218739 -2.608977 0.484652
20380 6.16583025 10.472822460000001 0.6435163800000001 -0.481723 -2.279952 0.216406
20400 5.001245910000001 10.71665982 -1.17056844 -0.8534639999999999 -1.343815 0.066263
20420 4.5750897 13.274244540000002 -3.0819390300000005 -1.5325959999999998 -0.429848 0.397906
20440 5.85103716 15.2384616 -2.7511262100000002 -2.109937 0.700491 0.6114109999999999
20460 4.9114353600000005 14.283595440000001 -0.84619098 -1.520672 1.138958 0.739947
20480 4.09398768 11.467203300000001 1.8230609700000002 -0.022677000000000003 -0.033898000000000005 0.5040859999999999
20500 1.2006557100000002 7.80775938 2.06361198 0.431733 -0.816342 -0.022644
20520 1.8624285 9.477244800000001 -1.20170538 -0.022075 -0.664551 -0.026008
20540 1.1931706800000002 17.459092440000003 -0.8134059600000001 -1.82171 0.900903 0.06089600000000001
20560 -0.38005902 19.444714920000003 0.52315749 -1.54569 0.7076319999999999 -0.064046
20580 -0.18561501000000002 15.94948059 -0.17499078 0.635171 0.30135500000000004 -0.254459
20600 0.32631984 13.13488368 -2.7876488400000006 0.327807 1.428466 -0.532583
20620 -0.8885505600000001 12.68896032 -3.0582871199999997 -0.429065 2.016776 -1.276765
20640 -0.95680854 12.055028309999999 -0.7461976499999999 -0.63822 0.953385 -2.098326
20660 2.38857804 8.893010250000001 -1.25454204 -1.605573 0.5836600000000001 -2.306504
20680 2.3441289300000006 6.988967730000001 -2.0510355600000003 -2.6123830000000003 0.884426 -2.322467
20700 2.99466927 1.8735039900000001 -3.01503483 -1.854227 1.234749 -1.876445
20720 2.1908476800000005 1.9396626300000002 -3.02819985 -1.4515360000000002 2.084698 -1.125898
20740 3.1253482800000003 2.9129421600000005 -2.36747673 -1.029482 2.187993 -0.6840430000000001
20760 3.49897194 3.09736035 -1.58220585 -0.681027 1.658357 -0.405329
20780 3.66602643 2.93479884 -2.0395088100000005 -0.661063 1.1139370000000002 -0.406628
20800 3.1326861600000004 2.8334615400000005 -2.5509924 -0.7078180000000001 0.724037 -0.3637260000000001
20820 3.0826944000000003 3.16067409 -2.28499425 -0.969841 0.307623 -0.164197
20840 3.24045882 5.264252010000001 -1.14452289 -1.257021 0.348663 -0.321148
20860 4.214189610000001 7.41482964 -1.22115861 -1.0714290000000002 1.258834 -0.588073
20880 4.941973889999999 7.2810114299999995 -2.03531994 -0.520948 1.595134 -0.717119
20900 4.1932256400000005 10.61651934 -4.69828368 0.011929 1.386834 -1.035733
20920 4.79587356 18.73518705 -11.272455180000001 0.202995 1.848524 -1.3073860000000002
20940 2.0191530600000003 12.765753 -11.217823290000002 0.08267000000000001 1.506664 -1.226604
20960 1.6218774900000001 6.949747350000001 -8.19276264 -0.141815 0.69582 -0.989988
20980 3.21247089 14.781609900000001 -3.55570317 -0.222712 0.450442 -0.562949
21000 6.3768924 27.518325300000004 2.6053299900000004 0.091375 0.786175 -0.07941799999999999
21020 -1.0355436 21.211191810000003 0.33619851000000006 0.390294 0.5648350000000001 0.134462
21040 -4.4000989200000005 3.72949713 0.12962933999999998 0.460861 -0.085233 0.401775
21060 -3.3073728300000003 2.76460515 -0.83107377 0.8675360000000001 -0.763912 0.8722979999999999
21080 -4.2290027100000005 5.14734624 -0.51956703 1.418472 -1.296467 1.438714
21100 -0.11795544000000001 6.97818654 0.50444982 1.7773169999999998 -1.162417 1.969819
21120 3.6289053900000003 10.3249269 5.25317652 1.921024 -0.763315 2.20532
21140 4.2688215 11.131004790000002 3.41799039 2.077003 0.127032 1.860233
21160 4.446353070000001 12.09260061 -0.76535658 1.969112 0.932042 1.505934
21180 2.95111287 9.918371070000001 0.97971489 1.835641 1.201794 1.56234
21200 1.65166065 7.7168991600000005 -0.40356378000000004 1.7240810000000002 0.803876 1.535365
21220 0.66401928 5.52890619 0.14100894 1.6354 0.24078400000000005 1.236365
21240 0.82284318 4.35953457 -0.07364366999999998 1.409614 -0.03288 0.871943
21260 1.76333769 4.72582035 -1.2289477500000001 1.219994 -0.7106819999999999 0.841577
21280 2.62254654 7.29208692 0.06960195000000002 0.915497 -1.1384379999999998 0.984208
21300 0.9842078700000001 10.13946885 1.9898113499999999 0.545287 -1.55497 1.040908
21320 0.36898353 12.25381815 1.8272498400000001 0.31872 -2.172875 0.982434
21340 2.3297572800000004 10.62505404 -0.10762551000000001 0.091713 -2.540883 1.0347309999999998
21360 1.25963343 9.572293890000001 -2.8229844600000003 -0.17439100000000002 -2.592349 1.082076
21380 4.62867192 7.98439824 -1.9247023800000003 -0.243231 -2.381687 0.941388
21400 6.17032323 9.604029240000001 -0.93645279 -0.259326 -2.264159 0.602499
21420 5.26979466 10.643467410000001 -0.09564750000000001 -0.431592 -1.963007 0.299671
21440 5.38130493 11.53980711 -0.8069706000000001 -0.876547 -1.329595 -0.006555
21460 4.607570610000001 13.98451797 -1.93248171 -1.684807 -0.65818 0.08842
21480 4.55038812 14.58611622 -2.17258146 -2.540259 0.167023 0.393308
21500 4.525990650000001 13.981221810000001 -0.9910846800000002 -2.133047 1.066832 0.659918
21520 3.29524767 11.677519890000001 0.9485779500000001 0.15925999999999998 0.621675 1.037559
21540 1.7392345200000001 8.74391787 2.4598378800000003 0.915266 -0.692397 0.529641
21560 0.48155328000000003 7.33235697 0.04041720000000001 1.058926 -1.135555 0.40623
21580 1.57682016 11.294763120000002 -1.2555917100000002 -0.252263 -0.220021 0.361715
21600 -0.09684432000000001 17.04430602 -0.61102566 -0.16827899999999998 -0.120003 0.052389
21620 -0.47002653 17.46657747 -0.2140542 1.139516 0.408517 -0.317303
21640 -0.12977649 14.71664808 -1.7950632300000002 -0.016214 1.97638 -0.591236
21660 0.65219823 12.396916620000002 -3.86465931 -1.139502 2.166712 -1.393015
21680 -0.00179523 12.21190983 -2.5712010000000003 -1.721902 0.911771 -2.2073240000000003
21700 -0.18695898 10.66681521 -0.07215255 -2.2545610000000003 0.231253 -2.592596
21720 3.0006631800000005 8.11132983 -0.85367601 -2.426376 0.151282 -2.424914
21740 3.1353839100000003 4.848268770000001 -1.70914725 -1.698462 0.646738 -1.75069
21760 3.0621816899999996 1.6816007700000002 -3.0000647700000003 -1.32751 1.316774 -1.00227
21780 2.7759749400000002 2.4418757700000002 -2.84243769 -0.767278 1.670368 -0.669798
21800 3.70673793 3.2636594700000003 -1.99609956 -0.6198779999999999 1.402853 -0.498578
21820 3.8842695000000003 3.3519789 -1.7238132000000002 -0.732672 0.937946 -0.5553859999999999
21840 3.63279996 3.85029747 -2.09923209 -0.77369 0.58658 -0.563768
21860 2.90306349 3.6697640400000004 -2.47914396 -1.189351 0.022155 -0.512537
21880 2.8177361100000002 3.6735114600000003 -1.90254159 -1.402385 0.157839 -0.692592
21900 2.4667245 5.0823844199999995 -0.8990276400000001 -1.022329 1.172742 -0.679487
21920 4.080812850000001 7.05648015 -0.62374923 -0.421099 1.592274 -0.621346
21940 4.76803278 7.3726172100000005 -1.5236793900000003 -0.044844 1.559771 -0.810956
21960 4.67867349 12.4591905 -5.10274017 0.125903 1.968439 -1.125412
21980 7.576498440000001 25.22060748 -13.382174160000002 0.202075 1.459597 -1.01527
22000 -0.08801532 13.41255573 -12.06655506 -0.040281 0.529269 -0.719873
22020 1.4715882900000001 12.591213480000002 -7.62993351 -0.339009 0.092439 -0.44473
22040 5.80747095 27.85871268 -1.5126039000000002 -0.00305 0.6258100000000001 -0.12046400000000003
22060 2.4535496700000006 23.149814580000005 3.4645486500000002 0.429425 0.596113 0.004372
22080 -2.70592173 4.42180845 0.9789595200000001 0.583691 0.087298 0.306272
22100 -3.51334359 -0.52106796 -0.15074046 0.869079 -0.524875 0.767317
22120 -3.4157439000000003 2.9648861100000006 0.75697884 1.252394 -1.071809 1.345399
22140 -2.10462759 4.568046120000002 0.99976653 1.612442 -1.266444 1.754088
22160 2.94557022 12.429407340000001 2.0243916 1.714554 -1.064423 2.026939
22180 4.43317824 14.117443470000001 3.8805318900000003 1.903815 -0.5471520000000001 1.976323
22200 3.4684334100000003 12.8408976 -0.41718006 1.957349 0.094302 1.6244299999999998
22220 2.8599485400000004 10.11192237 0.11241279000000001 1.6399099999999998 0.331279 1.511882
22240 2.1171942 8.042924700000002 0.1591182 1.488831 0.154038 1.477939
22260 1.2593293200000002 6.05775348 0.053886329999999996 1.483477 -0.07725900000000001 1.249599
22280 0.57974157 4.78958535 0.64725399 1.364518 -0.06693099999999999 0.901582
22300 0.73601487 3.9927975300000003 -0.12917808 1.216692 -0.681052 0.893859
22320 1.3897140300000002 5.12369433 -0.77539221 0.927319 -1.1575 0.945859
22340 -0.14459940000000002 8.93372175 0.8282288700000001 0.626937 -1.504772 1.203784
22360 0.13501503 11.21452713 0.9666872100000001 0.473491 -1.978123 1.162727
22380 0.5911211700000002 11.78888301 1.0716247800000003 0.199543 -2.278063 1.282975
22400 2.2094082 9.2925225 -0.21840003000000002 -0.074317 -2.325514 1.398627
22420 4.006413810000001 8.382115259999999 -1.47039147 -0.159143 -2.24942 1.357344
22440 6.914568689999999 8.31325887 -1.43027838 -0.186043 -2.34619 1.072065
22460 5.491932300000001 10.15997175 -0.46778004 -0.346983 -2.460186 0.682254
22480 4.33138968 11.53860048 -0.37272114 -0.721158 -2.098201 0.260434
22500 3.40227477 14.439721590000001 -0.88196805 -1.311455 -1.272462 0.201842
22520 3.8133235800000005 16.19153253 -2.07543303 -2.13803 -0.029479 0.433757
22540 6.199360830000001 15.83901018 -2.22497667 -1.627635 1.264175 0.687765
22560 5.6357763300000006 13.787827470000002 -1.25349237 0.097749 0.314635 0.884767
22580 4.29622083 10.82145024 1.11847734 0.79427 -1.055231 0.262205
22600 1.07806014 7.49566404 1.9681116300000001 -0.07998 -0.974316 -0.033493
22620 1.01668878 6.702760980000001 -0.99572481 -1.0334299999999998 0.102606 0.011878
22640 1.6790599800000001 11.61809091 -1.6061618700000002 -4.022887 1.286099 0.478726
22660 -0.10119015 16.645980780000002 -0.79424703 -0.8249489999999999 -0.671607 0.568733
22680 -0.26315325 16.388066070000004 -0.87313905 1.378448 -0.292294 -0.293372
22700 -0.34398765000000003 13.914464760000001 -2.2384458 0.250398 1.947661 -0.832892
22720 -0.46927115999999996 12.79015047 -3.30063336 -0.25566500000000003 1.6929610000000002 -1.966279
22740 -1.17356049 12.04170633 -1.21787226 -0.5058590000000001 0.46291 -2.367034
22760 0.94393782 9.18101223 -0.25387299 -2.447918 0.693021 -2.550741
22780 2.6292860100000004 7.58846664 -0.62180685 -2.617998 1.019895 -2.362204
22800 2.87058258 3.66363279 -1.41964434 -1.649139 2.231272 -1.6444849999999998
22820 3.15019701 1.8489593700000002 -2.33753661 -1.308999 2.9990330000000003 -1.065185
22840 2.55055095 2.93599566 -2.09878083 -0.664596 2.221748 -0.650559
22860 3.60285984 3.0108361500000003 -1.5154488000000002 -0.61046 1.295603 -0.326391
22880 3.5735181300000005 3.12010974 -1.74476736 -0.582283 0.778454 -0.228323
22900 3.1913597700000005 3.54163563 -2.40010479 -0.5191479999999999 0.4169270000000001 0.082365
22920 1.8938597400000001 3.30063336 -2.5721035199999998 -0.5147149999999999 0.680079 0.071377
22940 1.29510639 4.2787001700000005 -1.8094348800000002 -0.706553 1.618308 -0.224926
22960 2.1633012000000003 7.16231043 -1.21472325 -0.7367560000000001 1.782356 -0.463561
22980 5.34657753 8.68598982 -1.0472175000000001 -0.466595 1.410279 -0.8895540000000001
23000 5.695058159999999 9.49969989 -3.25901934 -0.255249 1.333135 -1.227674
23020 6.44245263 15.1895097 -7.888593780000001 -0.14518 1.493124 -1.106401
23040 5.94204453 18.62292141 -12.529842120000001 -0.227057 1.112018 -0.8351559999999999
23060 3.53384649 6.56639217 -8.360415540000002 -0.258252 0.527613 -0.649822
23080 1.4662026 2.16389961 -5.72858874 0.047962 0.656007 -0.5228659999999999
23100 0.87852474 11.05376085 -3.35362698 0.5817869999999999 0.615453 -0.168709
23120 10.67699799 37.94130315 7.3428340500000004 0.704465 0.07763099999999999 0.487658
23140 -3.7643716800000004 25.19066736 -2.1176454600000003 0.716476 -0.655726 1.121069
23160 -8.107886520000001 0.34892208 1.16473149 1.009605 -1.208267 1.581023
23180 -5.53249665 1.5486752700000002 -0.05957613 1.487962 -1.428988 1.7512900000000002
23200 -4.46461929 4.98433347 -0.19788732 1.6672169999999995 -1.031828 1.909062
23220 0.19743606000000002 8.32104801 1.93442409 1.709118 -0.478196 1.684318
23240 2.23365852 12.32446977 7.1753283 1.771648 -0.103517 1.438584
23260 5.8546276200000005 11.922406920000002 1.25947647 1.755273 0.043579 1.4308040000000002
23280 4.1077609200000005 11.43891126 -0.44547210000000004 1.936436 0.2591 1.4563620000000002
23300 2.44472067 9.604480500000001 0.9723770100000001 2.123887 0.145696 1.415088
23320 1.44764208 6.955584300000001 -0.36434340000000004 1.85628 -0.204295 1.259843
23340 1.40407587 5.6175199199999994 0.16720164 1.543474 -0.6106020000000001 1.373547
23360 1.55421792 4.527785880000001 -1.1319464700000001 1.341916 -0.821918 1.379887
23380 3.01967496 5.96704041 -1.1410795800000002 0.940357 -1.26534 1.262282
23400 1.7994090600000001 7.742052 0.28800198 0.5913619999999999 -1.93977 1.32587
23420 -0.0663156 8.109534600000002 1.1298471300000001 0.177034 -2.127416 1.457813
23440 0.8911011600000001 9.66270285 0.32063004 -0.168148 -2.149012 1.56332
23460 1.75330206 9.13191318 -1.5066198 -0.340917 -2.254453 1.441539
23480 3.60719586 8.422238160000001 -1.49793795 -0.4522140000000001 -2.510181 1.021278
23500 6.345608310000001 10.64241774 -1.01009646 -0.457831 -2.558377 0.55876
23520 5.64057342 12.048740100000002 -0.35116857000000007 -0.443249 -1.792183 0.214981
23540 5.194944360000001 12.143799000000001 -0.95097159 -0.6573319999999999 -1.072084 0.140992
23560 4.7482754400000005 14.499601830000001 -1.81273104 -1.123031 -0.517319 0.338922
23580 6.93238365 14.944318560000001 -2.5042968 -1.210581 0.106579 0.5030859999999999
23600 6.981335550000001 14.440025700000001 -1.4867055 -0.786226 -0.082821 0.613115
23620 5.49372753 11.81328048 -0.01826622 -0.110646 -0.5251600000000001 0.356686
23640 2.32736364 9.446559120000002 2.0710970100000003 -0.289797 -0.574329 0.287132
23660 0.50100651 8.33436999 0.7424600400000001 -1.534771 0.188361 0.312709
23680 1.89236862 11.76283746 -2.32196814 -3.134059 0.637069 0.04459
23700 0.49591512000000004 17.07559011 -0.34802937000000006 -0.356896 -0.070452 -0.187205
23720 0.0009025200000000001 16.30484784 -0.13965516000000006 0.504287 0.506672 -0.602809
23740 0.19774017000000002 14.913936990000002 -1.2513930300000002 -0.274016 1.44203 -0.738699
23760 0.32467176000000003 14.321020590000002 -2.7250806600000006 -0.610301 0.981361 -1.394209
23780 0.55983708 13.224252779999999 -2.45130318 -0.882223 0.266357 -1.905802
23800 0.1038879 11.827956240000002 -0.75473235 -2.10925 0.391261 -2.240341
23820 2.8171377 9.306599850000001 -0.84633813 -2.155439 0.6637109999999999 -2.135259
23840 2.11599738 7.315738830000001 -1.4775822 -1.6798540000000002 1.31626 -1.898832
23860 1.93023522 3.0638297700000003 -2.2418891100000002 -1.45716 1.469186 -1.441342
23880 1.3036410900000002 2.17048212 -2.3063996700000002 -0.8670190000000001 1.338156 -0.887986
23900 2.46612609 3.63967677 -1.9719963900000002 -0.7507229999999999 0.961428 -0.551269
23920 3.0907680300000004 4.04742942 -1.7465724 -0.766505 0.726355 -0.359866
23940 3.1862781900000003 4.29172785 -2.5134201000000003 -0.802054 0.677477 -0.094065
23960 2.6027892 3.92977809 -2.94781671 -0.8638969999999999 0.535767 0.232561
23980 2.73765708 3.6604837800000003 -3.0621816899999996 -1.088936 0.574702 0.015158
24000 3.74431023 4.5924534 -2.3141888100000005 -1.090599 0.957824 -0.421179
24020 4.3613298 5.70852729 -2.195487810000001 -0.7517590000000001 1.108829 -0.6486729999999999
24040 5.006043 5.66346996 -2.16494928 -0.30498400000000003 1.24901 -0.926675
24060 5.15528253 6.939123120000001 -4.50233874 -0.040407 1.555554 -1.091862
24080 5.720505300000001 12.008332710000001 -8.02421703 -0.064988 1.288447 -0.8737739999999999
24100 5.82918048 13.70414817 -8.85094497 -0.398493 0.800242 -0.5080100000000001
24120 2.5896143700000005 6.6385447200000005 -7.93335681 -0.352356 0.940476 -0.186332
24140 0.70833105 8.92563831 -5.2575125400000005 0.183648 1.066423 0.08644199999999999
24160 5.11111791 24.168887190000003 0.8628091200000001 0.675077 0.340015 0.165581
24180 3.06188739 30.09102723 -0.41164722000000004 0.908208 -0.348351 0.5451739999999999
24200 -4.16209851 6.93193239 -1.41815322 1.408366 -1.292855 1.07758
24220 -3.62142036 4.5414021600000005 -1.78144695 1.8388830000000005 -1.618081 1.5819999999999999
24240 -4.07482875 5.42456703 -1.4278847399999999 2.148557 -1.614448 2.002901
24260 -2.05672536 5.78262222 -0.32617269000000004 2.0327490000000004 -0.784455 1.535284
24280 3.23956611 9.06230142 2.98389789 1.76473 0.048505 0.990756
24300 4.7865933 12.493172340000001 3.86496342 1.83334 0.560806 0.955327
24320 4.58645949 12.81545046 0.07139718 2.0233060000000003 0.630336 1.251394
24340 1.73069982 9.752219100000001 1.1493101700000001 1.928636 0.533414 1.328837
24360 1.1523022199999997 8.47612449 0.08921214 1.624403 0.330606 1.161398
24380 1.6512192 7.16126076 -0.42571475999999997 1.362344 -0.049875 1.166464
24400 1.5602020200000002 6.262978680000001 0.24189498000000004 1.101859 -0.368369 1.120188
24420 1.61334279 5.2178507100000004 -0.00973152 0.617835 -0.748125 1.136521
24440 2.7783685800000004 5.69491101 -0.12469491 0.348352 -1.433892 1.30216
24460 2.0181033900000003 8.077652100000002 0.37811664000000006 0.143867 -2.058527 1.30901
24480 1.14601401 8.92698228 0.3634408800000001 -0.06719800000000001 -2.419219 1.382773
24500 1.3835729700000001 9.12816576 -0.28530423000000005 -0.129995 -2.462368 1.305478
24520 2.4071483700000003 9.22067406 -1.84775274 -0.090178 -2.442152 1.010901
24540 1.9410164100000002 9.14897277 -2.05986456 -0.113216 -2.464074 0.652914
24560 3.8839752 9.57319641 -1.5802634699999998 -0.345745 -1.904507 0.247853
24580 4.96502739 12.15771939 -0.20716758000000002 -0.921149 -1.230582 0.046417
24600 5.09690322 12.88461096 0.7319731500000001 -1.755348 -0.35577 0.181543
24620 5.811816780000001 12.999417390000001 -2.09429766 -1.848969 0.836923 0.366299
24640 7.19508564 14.067441900000002 -4.130363160000001 -0.951831 0.740446 0.5382640000000001
24660 7.447467510000001 14.44945311 -2.5740459 0.408501 -0.444696 0.297184
24680 6.083053469999999 12.714858720000002 -0.03742515 0.130228 -0.562397 0.136226
24700 2.9603931300000004 8.91635805 1.89760716 -0.978516 0.083983 0.358389
24720 0.7292852099999999 7.60807683 0.76311009 -2.657552 0.994634 0.255764
24740 1.97484129 12.98384892 -0.6095345400000001 -1.643423 0.107193 0.192414
24760 -1.17774936 17.57779344 0.60130395 0.5581050000000001 -0.197162 -0.461594
24780 -0.63123426 16.46246511 0.44293130999999997 0.237951 1.150583 -0.759318
24800 -0.25432425000000003 13.68589176 -1.84595751 -0.240344 1.314909 -1.47751
24820 0.88361613 11.46016953 -3.7026962100000005 -0.338958 0.302752 -2.154155
24840 -0.18441819 11.34835515 -2.4983028899999997 -1.646627 0.430561 -2.346118
24860 -0.36119439 10.329723990000002 -0.91145691 -2.589985 0.703019 -2.264395
24880 2.4611818500000004 8.088433290000001 -1.92229893 -2.004542 1.137871 -1.762003
24900 2.24009388 6.56370423 -2.46252582 -1.606305 1.704382 -1.254678
24920 2.6925997500000003 2.2945786200000002 -3.18881898 -0.871165 1.820709 -1.146075
24940 1.83069315 2.9497689000000005 -2.5933617900000003 -0.609761 1.180576 -0.598635
24960 3.02431509 3.75793632 -2.0119623300000002 -0.766521 0.511066 -0.333953
24980 4.26582945 3.78667962 -1.89101484 -0.909664 0.026851 -0.06514099999999999
25000 3.93231888 3.5530152299999997 -2.10896361 -0.859025 -0.202794 0.309385
25020 3.02819985 2.89707939 -2.12273685 -1.060778 0.381985 -0.033536
25040 2.6791306200000005 3.4498728900000004 -1.5299676 -0.97766 0.922284 -0.4224810000000001
25060 2.4996566700000002 5.67709605 -0.98824959 -0.515778 0.8769969999999999 -0.6862520000000001
25080 3.6080983800000004 7.406893350000001 -2.10312666 -0.20015 0.8426389999999999 -1.1582940000000002
25100 4.78615185 7.790699790000001 -2.6478465300000003 -0.097243 1.09926 -1.485848
25120 5.83815663 9.43144191 -5.924376720000001 -0.11504 1.414744 -1.244959
25140 6.36970167 15.86236779 -11.39624757 -0.1859 1.026592 -0.8198040000000001
25160 4.91817483 12.75138135 -9.96971661 -0.384791 0.8074720000000001 -0.463058
25180 2.83465836 5.30721 -7.342677090000001 0.097606 0.956713 -0.108435
25200 3.0937698900000004 8.1123795 -3.49597989 0.650709 0.5640149999999999 0.113849
25220 5.49641547 24.107221530000004 0.95531742 0.895832 -0.15058 0.648452
25240 4.58691075 28.324844640000002 -0.01107549 1.25026 -1.11212 1.304843
25260 -3.76661817 6.78568491 -2.15431524 1.611851 -1.546966 1.843105
25280 -3.33551772 4.72791969 -2.41268121 1.782505 -1.3003870000000002 2.102491
25300 -4.5640044 5.04914814 -1.02491937 1.757352 -0.377368 1.735801
25320 -3.20468175 5.23311507 0.06256818 1.760868 0.305752 1.397392
25340 2.6867628000000003 8.51219586 3.91151187 1.768228 0.50605 1.384368
25360 5.12519526 12.695248529999999 5.2474867199999995 1.834395 0.290564 1.402198
25380 5.33669886 12.259056690000001 0.13067901 1.6434970000000002 0.007053 1.338202
25400 2.10911076 9.342671220000001 1.06787736 1.321391 -0.149834 1.157761
25420 0.27468 8.58344589 0.01047708 1.0646870000000002 -0.33732 1.113479
25440 1.5756233400000001 6.406224300000001 -0.27932013 0.995478 -0.562841 1.094056
25460 1.7815941 6.10011306 -0.20252745000000003 0.755358 -0.977765 1.168755
25480 2.15581617 5.56198551 -0.17858124000000003 0.508364 -1.694303 1.284384
25500 3.2359756500000003 7.633828080000002 -0.7207505100000001 0.370375 -2.1777450000000003 1.35561
25520 1.76647689 9.31123998 0.005542650000000001 0.186518 -2.386329 1.462484
25540 0.48034665000000004 9.02099151 -0.4197306600000001 -0.006640999999999999 -2.42178 1.4376790000000002
25560 1.6178357700000001 10.368336150000001 -0.8870594400000001 -0.121352 -2.37647 1.1291719999999998
25580 1.02192732 9.302401170000001 -1.0717719300000002 -0.311909 -2.256822 0.677966
25600 2.44995921 7.536228390000001 -0.98360946 -0.6124149999999999 -1.7137240000000002 0.188062
25620 5.331911580000001 8.979524640000001 -0.33934752000000007 -1.076604 -1.24568 -0.039039
25640 4.64469165 11.3633154 -0.47601063 -1.920603 -0.6276649999999999 0.120917
25660 4.30833618 12.820689 -0.42945237 -2.043605 0.917714 0.311425
25680 6.01868025 13.835582550000002 -2.24742195 -0.74835 1.044935 0.672823
25700 7.688312820000001 14.388228900000001 -3.0954081600000007 0.437446 -0.271729 0.440307
25720 7.27696971 14.57204868 -1.76841927 0.5175930000000001 -0.8084319999999999 0.587901
25740 3.9808195200000003 11.792777580000001 0.49607208 -0.79624 -0.228511 0.558752
25760 0.37976472000000006 8.56399266 1.8239536800000002 -0.8065979999999999 -0.15626700000000002 0.084297
25780 0.95711265 9.04524183 -1.08524106 0.514486 0.021557 -0.508112
25800 -0.0031392000000000004 15.266606490000001 -0.063765 0.134782 1.291278 -0.689716
25820 -0.5825864700000001 17.65384056 -0.54262053 -0.540148 1.907765 -1.358587
25840 0.27422874 15.940347480000002 -1.09482543 -1.254188 1.47062 -1.975105
25860 0.38051028000000003 12.85885971 -3.2204071800000005 -1.961635 1.2511290000000002 -2.4156
25880 0.0779895 11.11005063 -3.7649700900000003 -2.242155 0.881986 -2.565569
25900 -0.23935419000000002 10.46234538 -1.98547533 -1.846028 1.175847 -2.337784
25920 0.5492030400000001 8.81875836 -0.46029501 -1.6892490000000002 1.572179 -1.687718
25940 2.63617263 7.55748666 -1.40153508 -1.174259 1.487676 -0.983259
25960 2.2781174400000004 5.71661073 -2.11240692 -0.660804 1.010189 -0.568863
25980 2.4212159100000004 2.48916978 -2.4340866300000004 -0.644755 0.559575 -0.316073
26000 1.9220046300000002 3.4967254500000005 -2.1171942 -0.6924779999999999 0.054225 -0.17261700000000002
26020 3.70225476 3.88906659 -1.5507746100000002 -0.723366 -0.25510700000000003 0.220669
26040 4.22945397 3.88038474 -1.7847431100000002 -1.256161 -0.494478 0.070908
26060 3.3757779599999997 3.14990271 -1.8505976400000002 -1.3997 0.471318 -0.500695
26080 2.31538563 2.8847972700000004 -1.9260463500000002 -0.967068 1.022755 -0.781458
26100 2.09145276 3.74476149 -1.46665386 -0.510833 0.8764149999999999 -1.077186
26120 2.5825806 6.30698634 -1.4198013 -0.060153 1.430784 -1.573608
26140 5.10783156 7.596550080000001 -1.5965775000000002 0.145859 1.7239490000000002 -1.53943
26160 5.676193530000001 7.979905260000001 -2.5414178400000003 0.08204 1.268548 -1.086366
26180 7.34447232 13.46150763 -7.972871490000001 -0.233827 0.70875 -0.680862
26200 5.9161461300000004 18.97229475 -13.04088426 -0.215812 0.814787 -0.30806300000000003
26220 1.35169047 11.01948471 -10.818154080000001 0.198368 0.884748 -0.047818
26240 5.41334439 19.19772855 -4.7809035 0.37613 0.295236 0.167823
26260 6.051318120000001 27.548863830000002 0.8840575800000001 0.58119 -0.5290279999999999 0.723651
26280 -1.8309972600000002 13.488750000000001 -0.6509916 0.9007129999999999 -1.38726 1.415986
26300 -4.66923627 2.55937995 -1.8564444 1.275739 -1.649705 1.986167
26320 -3.8007471600000002 3.6317502900000003 -1.31381406 1.622944 -1.393732 2.14102
26340 -5.42606796 3.56827959 0.7963463700000001 1.766386 -0.5549850000000001 1.92303
26360 -2.2775092200000002 5.1452469 1.3921076700000001 2.055814 0.297842 1.521239
26380 3.1798330200000002 11.40643035 4.259246940000001 2.091384 0.697822 1.365015
26400 5.232369510000001 13.18832856 2.37570732 1.988438 0.5565979999999999 1.339908
26420 4.8338971200000005 12.903318630000001 0.8556183900000001 1.922904 0.40788 1.2915709999999998
26440 4.847964660000001 9.84951468 0.15701886 1.731588 0.35720100000000005 1.077723
26460 3.9007404900000004 7.388784090000001 -1.20933756 1.364427 0.11442 1.104311
26480 2.43528345 5.44252914 -0.71641449 1.087432 -0.273436 1.101805
26500 2.2053664800000004 4.86668214 0.0026977500000000005 0.6462829999999999 -0.7847270000000001 0.941282
26520 1.61768862 4.01659659 -0.59710527 0.347761 -1.243654 1.148088
26540 2.2068576 6.737488379999999 -1.1443659300000002 0.247619 -1.7829009999999998 1.289085
26560 -0.86685084 10.69974738 1.1156324400000002 0.13273800000000002 -2.108766 1.36134
26580 -1.6396924500000003 11.2500099 1.4573736000000002 0.147821 -2.38444 1.290227
26600 0.93195981 11.30958603 0.16106058000000004 0.135438 -2.780728 1.036412
26620 1.15514712 10.679244480000001 -1.5013812600000003 -0.10671300000000003 -2.9083490000000003 0.6610060000000001
26640 2.90904759 9.06559758 -1.3450981499999999 -0.56805 -2.384501 0.329168
26660 5.795502750000001 8.727603839999999 -1.49614272 -1.013824 -1.695585 0.262147
26680 4.69259388 10.25712018 -0.82418715 -1.799143 -0.672579 0.5907720000000001
26700 4.558765860000001 11.09312838 0.25866027 -2.136441 1.019035 0.8938959999999999
26720 4.935832830000001 12.85945812 -1.3796784000000002 -1.400711 1.342782 1.07915
26740 5.47516701 13.81117527 -2.76160329 0.156547 -0.265614 0.752394
26760 6.608310300000001 15.64411491 -1.88068491 0.401851 -0.876505 0.395968
26780 4.3957629 12.61621917 -0.23890293 0.044294 -0.428932 0.400374
26800 1.97034831 10.008034470000002 2.33425026 -0.925533 -0.12554 0.228705
26820 -0.14818986 8.00549955 1.9970020800000001 0.17064300000000002 -0.238201 0.013248
26840 0.95711265 10.364451390000001 -0.26794053 0.44583 0.732006 -0.426181
26860 0.36987624 16.00082613 -0.40430934 -0.494296 1.821861 -0.961846
26880 -0.16495515000000002 17.74395522 -0.7846724700000001 -1.114326 1.363171 -1.8661
26900 -0.35116857000000007 15.80024106 -2.06689833 -1.479811 0.748514 -2.349634
26920 -1.81078866 13.36330953 -3.85283826 -2.12888 0.67614 -2.335915
26940 -1.3202592299999998 12.482096850000001 -3.0198221100000002 -2.061637 1.12675 -2.127719
26960 -1.62981378 11.6897922 -0.66102723 -1.668893 1.7313349999999998 -1.546774
26980 1.92155337 8.032594770000001 -0.32003163 -1.274535 1.947231 -1.00164
27000 2.31208947 6.921602460000001 -1.35857709 -0.726205 1.747092 -0.71127
27020 2.25341586 2.91518865 -2.68736121 -0.599504 1.214124 -0.472556
27040 2.77403256 2.0999874600000004 -3.1756441500000006 -0.696164 0.623128 -0.446837
27060 3.42951714 3.52501749 -2.8885446900000002 -0.775034 0.171703 -0.441468
27080 4.442164200000001 3.76362612 -2.3017595400000004 -1.234619 -0.278143 -0.23473
27100 4.475989080000001 3.6256092300000002 -2.336791050000001 -1.594403 -0.188095 -0.33029400000000003
27120 4.19577624 3.1998944700000003 -1.75629411 -1.106419 0.7320479999999999 -0.689124
27140 3.8470013100000005 2.8515708 -1.5274268100000001 -0.4668229999999999 1.287109 -0.723823
27160 3.62216592 4.09099563 -0.40220999999999996 0.00192 1.315418 -1.016483
27180 4.4737425900000005 6.673272120000001 0.22768029 0.222597 1.6039370000000002 -1.164862
27200 5.2756316100000005 6.62971572 -0.47555937000000004 0.002596 1.486841 -0.995334
27220 3.95537238 8.160732990000001 -3.6574917300000003 -0.395534 0.7818689999999999 -0.710928
27240 4.232298870000001 14.883104160000002 -9.39566484 -0.533629 0.584805 -0.328148
27260 2.61236376 15.97447647 -12.570563430000002 -0.085966 1.040049 -0.010479
27280 1.4245885800000002 10.06193061 -10.82908242 0.342514 0.972414 0.015033
27300 7.62663735 22.72095081 -5.34912813 0.414242 0.468735 0.170004
27320 5.7270878100000004 27.2872017 1.3159134000000001 0.577449 -0.036458 0.623649
27340 -2.92312494 12.1210398 -0.11360961 0.895785 -0.523659 1.238588
27360 -4.21972245 2.22782157 -0.9669913200000001 1.395737 -0.743057 1.59167
27380 -2.97401922 3.38745186 -0.43020774 1.837919 -0.735558 1.7304130000000002
27400 -4.43917215 4.356395370000001 0.37302525000000003 1.924886 -0.462692 1.882358
27420 -1.1831350500000002 8.22315402 0.83241774 2.097547 -0.06696 1.604251
27440 4.066146900000001 12.49915644 3.40017543 1.982924 0.260546 1.321021
27460 3.86646435 13.227244830000002 2.1564145800000003 1.715091 0.550982 1.382871
27480 3.3876088200000005 11.86357635 0.9336078900000001 1.849343 0.4548680000000001 1.326248
27500 3.77948889 9.44012376 0.44083197 1.937087 0.5310779999999999 1.106709
27520 3.4548171300000003 8.11163394 -0.66880656 1.706925 0.171501 0.918624
27540 2.9817985500000006 6.36431598 -0.11601306 1.365123 -0.516041 0.792135
27560 2.0899518300000004 5.1681532500000005 0.44906256 0.793798 -0.778619 0.8846209999999999
27580 1.5013812600000003 4.4143234200000006 0.15268283999999996 0.426951 -1.078307 1.0223799999999998
27600 1.56873672 5.69654928 -0.0068866199999999995 0.232516 -1.326031 1.069409
27620 0.37302525000000003 8.9162109 1.71468009 0.089063 -1.3991790000000002 1.10482
27640 -1.43820486 10.646763570000001 1.14316911 0.148083 -1.668465 0.996619
27660 1.05081777 10.760078880000002 -0.38259981000000004 0.256647 -2.170819 0.7886489999999999
27680 1.28283408 11.40148611 -2.3426280000000004 0.163161 -2.39507 0.473158
27700 2.9948262300000006 7.711219170000001 -1.7028590399999999 -0.153223 -2.10941 0.173617
27720 5.13447552 7.95880395 -1.7173778400000002 -0.549953 -1.296664 -4.3e-05
27740 4.83284745 10.497072779999998 0.04235958 -1.317639 -0.500163 0.213627
27760 4.55787315 10.6744572 0.69231132 -1.899761 0.481194 0.392038
27780 3.9474459000000004 12.56292144 -1.13134806 -1.538704 0.935402 0.511482
27800 3.5100474300000006 15.29953866 -2.5119289800000004 -0.128795 -0.197367 0.450143
27820 5.95102068 16.77741516 -1.4295230100000003 0.471794 -0.932559 -0.031829
27840 5.48848899 14.246170290000002 -1.30678029 -0.366923 -0.637155 -0.184412
27860 4.45353399 12.97217502 0.13157172 -1.524247 0.657784 -0.13754
27880 1.1201254200000001 8.97608133 1.77096987 -2.767739 1.101804 0.190763
27900 -0.16839846000000003 7.164547110000001 0.51343578 -0.230111 0.183592 0.108184
27920 0.9560629800000001 9.13670046 -2.55563253 0.901821 0.837967 -0.4135180000000001
27940 1.19541717 15.089369220000002 -1.66842594 0.14491099999999998 1.744544 -0.829095
27960 -0.48843009000000004 16.02373248 -0.47780586 -0.246067 1.022806 -1.684411
27980 -0.20551950000000002 14.62054932 -0.9572598 -0.480042 -0.095704 -2.021102
28000 0.39488193 13.57856055 -2.6448544800000002 -2.413892 0.261407 -2.004089
28020 0.98839674 12.55124754 -2.31239358 -2.60518 0.66168 -1.7709290000000002
28040 -0.40220999999999996 11.3630211 -0.12334113000000002 -1.750185 1.473825 -1.282093
28060 2.5146169200000004 7.7327717400000004 -0.95666139 -1.391549 2.031763 -0.99402
28080 1.9401138900000001 5.59446642 -1.3956981300000002 -0.7194159999999999 1.678449 -0.8670950000000001
28100 2.5909583400000002 2.23739613 -2.33858628 -0.510099 1.127682 -0.5113449999999999
28120 2.6710471800000004 2.87342748 -2.5503939900000003 -0.524461 0.66279 -0.391209
28140 3.3663505500000004 3.02685588 -2.5168634100000005 -0.5824550000000001 0.385947 -0.107112
28160 3.6561477600000005 2.95350651 -3.1379247 -0.934576 0.16877799999999998 0.160967
28180 3.2979454200000005 3.3664977 -3.4666381800000003 -1.223049 0.504362 -0.126694
28200 2.8370520000000004 3.48610122 -3.07939824 -0.904068 1.181844 -0.394526
28220 2.85022683 3.67141212 -2.5725547800000004 -0.264407 1.285084 -0.659382
28240 3.1663638900000004 4.89258054 -1.61738451 0.125921 1.181517 -1.204521
28260 4.1831998200000005 6.947353710000001 -1.3970421 0.10577 1.393676 -1.49549
28280 5.45675364 7.06411233 -1.60301286 -0.118456 1.274511 -1.337738
28300 5.45240781 9.26678106 -4.33932597 -0.34978400000000004 0.532263 -0.933547
28320 5.32113039 15.01706952 -8.793311220000001 -0.460571 0.497051 -0.291206
28340 5.169350070000001 14.20067151 -10.60919127 0.049173 0.924783 0.192507
28360 3.2440492800000005 5.99279166 -8.61144363 0.427298 0.67369 0.319383
28380 2.171531790000001 7.00752825 -5.84384643 0.586852 0.093726 0.560523
28400 4.80919554 19.8978192 -0.32856633 0.969046 -0.569962 1.032992
28420 4.80740031 32.87568402 1.7253141300000001 1.466548 -1.131058 1.590525
28440 -3.2630610600000005 10.941348060000001 -2.63796786 1.882543 -1.106902 2.114692
28460 -4.79916972 3.0937698900000004 -1.70914725 2.066317 -0.855843 2.307934
28480 -2.7837640800000005 3.35587347 -1.55287395 2.239466 -0.087482 1.817845
28500 -1.96885719 5.807323800000001 -1.0497681 1.884794 0.4337430000000001 1.250679
28520 2.65263381 8.31626073 0.94513464 1.667825 0.59425 1.25964
28540 4.65067575 10.10293641 6.6783635100000005 1.648888 0.422781 1.266137
28560 4.40324793 10.193355180000003 1.9681116300000001 1.485205 0.424961 1.129326
28580 2.4611818500000004 9.64818405 0.07933347 1.34833 0.518307 0.815262
28600 0.51628068 9.92001915 0.39188987999999997 1.289488 -0.229315 0.815809
28620 -0.0009025200000000001 9.21213936 -0.59471163 0.885768 -0.8455870000000001 0.768913
28640 1.04243022 6.6604014000000005 0.3468325500000001 0.503787 -1.426456 0.906926
28660 1.5705319500000001 5.56662564 -0.3529638 0.290501 -1.92727 0.8590760000000001
28680 2.6941006800000005 5.02924365 -0.56043549 0.055142 -2.28872 0.877124
28700 2.5885647 8.20458369 0.28965006000000004 -0.147394 -2.320754 0.805247
28720 0.8285231700000001 10.27358136 0.9141448500000001 -0.27122 -2.274869 0.626999
28740 1.28178441 11.0621484 -0.06436341000000001 -0.318771 -2.230902 0.329644
28760 1.98217917 10.284960960000001 -1.0816506000000001 -0.5264840000000001 -2.0030490000000003 0.006367
28780 1.2454089300000002 9.29237535 -2.105226 -0.94515 -1.330814 -0.174744
28800 4.74334101 6.852451770000001 -1.36066662 -1.863729 -0.366562 0.310055
28820 5.94743022 8.967997890000001 -0.5980077900000002 -2.205048 0.36339 0.546017
28840 5.35885965 10.8162117 0.5436702 -0.8390190000000001 0.908614 1.008854
28860 5.53398777 11.558661930000001 -0.25940583 0.611934 0.162138 0.7464810000000001
28880 4.76534484 14.09393871 -2.5427618100000005 0.804164 -1.010442 0.241921
28900 5.32846827 15.045214410000002 -2.64978891 0.606118 -0.957521 -0.032995
28920 5.279820480000001 14.58806841 -2.02364604 -1.096476 0.572542 0.028995
28940 4.04503578 12.73327209 -0.13531914 -0.777758 0.399302 -0.08072
28960 2.37376494 9.39026934 1.53910071 0.576354 0.665143 -0.335453
28980 0.7173072 7.610627430000001 0.06002739000000001 -0.184188 1.67002 -0.555697
29000 1.90134477 11.48576382 -1.40572395 -0.91616 2.145148 -1.255763
29020 -0.1966905 17.593960320000004 -0.39488193 -1.119902 0.972634 -1.966052
29040 -0.8044298100000001 17.515078110000005 0.25402014 -1.895489 0.487412 -2.228289
29060 -0.32153256 13.88691828 -0.88750089 -2.38655 0.602274 -2.288482
29080 0.7924517999999999 11.49459282 -3.5453732400000004 -1.643714 1.011724 -1.697364
29100 0.20223315000000003 11.232342090000001 -2.78121348 -1.4430459999999998 1.51944 -0.968085
29120 -0.68796549 10.36175364 -0.76102056 -0.8931790000000001 1.466133 -0.6351640000000001
29140 2.37376494 7.9752651299999995 -1.8568858500000003 -0.5737720000000001 1.023276 -0.453972
29160 2.1752792100000002 5.13596664 -2.3444232300000003 -0.520433 0.556462 -0.444456
29180 3.2918043600000004 1.51499754 -2.5385729400000003 -0.5242979999999999 0.282254 -0.333036
29200 2.4307904700000003 1.9523862 -1.9281358800000001 -0.943507 -0.00884 -0.167881
29220 3.44283912 2.27063241 -1.5477825600000001 -1.328697 0.317969 -0.308791
29240 3.7643716800000004 2.4917203800000003 -1.4162010300000003 -1.104036 0.966744 -0.5088779999999999
29260 3.7797929999999997 3.2515343100000003 -1.81273104 -0.550412 1.179906 -0.748839
29280 3.21935751 3.57651018 -2.65248666 -0.138853 1.251236 -1.094296
29300 2.98928358 4.35728808 -2.4804879300000002 0.179146 1.76445 -1.307445
29320 3.3579630000000003 7.9270686 -2.01750498 0.220365 1.409803 -1.099468
29340 5.9460862500000005 9.182954610000001 -1.53250839 -0.05538 0.902431 -0.785618
29360 5.14764054 9.134905230000001 -2.76594912 -0.152584 0.8625639999999999 -0.32263800000000004
29380 4.740192 15.36464763 -5.933058570000001 0.217171 1.12082 0.040673
29400 4.689601830000001 20.15888292 -13.475722320000001 0.5707800000000001 0.800975 0.331973
29420 0.21615354000000003 7.668408330000001 -10.73298366 0.7018310000000001 0.035923000000000004 0.796409
29440 1.8977543100000003 10.456351470000001 -5.841904050000001 0.947182 -0.814168 1.3824610000000002
29460 6.63330618 22.73501835 -1.64418543 1.258362 -1.249077 1.980192
29480 2.7015857100000003 23.55980391 2.7285239700000004 1.602328 -1.287868 2.324475
29500 -3.70793475 8.66188665 0.24324876 1.7928830000000002 -0.626211 2.129473
29520 -3.988755810000001 2.6515841399999998 0.6723970199999999 1.903572 0.244656 1.633476
29540 -2.8110064500000003 3.8761860599999998 0.23232042000000003 1.689745 0.608596 1.3826200000000002
