time Ax Ay Az Gx Gy Gz
20 -1.45601982 4.781207610000002 0.78556518 -1.004223 -2.190264 -0.712439
40 -0.75473235 4.929848730000001 -0.37811664000000006 -1.803778 -0.617746 -1.6590060000000002
60 0.14429529 6.02212356 -1.8510489 -0.266011 1.167463 -1.612096
80 1.58011632 8.69631975 -1.4449443300000002 1.344516 1.482305 -0.226449
100 3.5124410700000004 9.261836820000001 -0.76221738 0.970409 0.222431 0.808728
120 3.4634989800000002 7.04435499 -1.09975986 -0.075863 0.286116 1.506365
140 3.04032501 4.61041551 -2.00298618 0.610487 0.166374 1.551905
160 4.83643791 4.45938075 -2.13500916 0.388637 -1.895171 -0.05895
180 5.2608087 5.747443560000001 -1.9616664600000002 -0.7983359999999999 -2.703029 -0.267032
200 4.467160080000001 6.640791210000001 -3.7895245200000005 -1.732605 -1.122544 -0.426202
220 3.32069481 14.456938140000002 -10.996882470000003 -1.359383 0.991603 -0.643153
240 -1.9336785300000001 14.50004328 2.1483311400000003 -0.712549 -0.26478 -0.299467
260 -1.98442566 19.99766538 5.59087596 -0.30603800000000003 -0.302133 -0.102163
280 -3.0069513900000002 21.046079700000003 5.517075330000001 0.012173 1.267702 -0.016495
300 -0.5724135 16.83699129 3.54792384 -0.226449 -0.034684 -0.453395
320 6.094727370000001 16.63116768 -7.59310677 -0.307794 -0.148162 -0.509366
340 10.684178910000002 11.94336108 -6.44080455 -0.044889 -0.712692 -0.22159
360 6.642733590000001 14.65542387 -2.74992939 0.17586300000000002 -1.432575 -0.20737600000000006
380 1.89820557 11.534117310000001 -0.6375224700000001 0.689824 -0.598866 -0.020051
400 -0.5780934900000001 8.836426170000001 1.4436003599999998 0.903001 0.5678350000000001 0.00558
420 -0.96204708 8.323137540000001 4.937628060000001 0.642541 0.339547 0.044645
440 -0.33514884 8.405325720000002 3.0916705500000004 0.462218 -0.213469 -0.030681
460 1.6411835700000001 6.72536322 0.8509782600000001 0.508026 -0.146846 0.051807000000000006
480 4.4718002100000005 5.5741106700000005 -1.6443325800000002 0.683888 0.253337 0.255485
500 3.9658494600000003 8.66967579 -5.88964932 1.132542 0.868614 0.512067
520 0.14938668000000002 9.111704580000001 -2.87342748 1.828654 1.295289 0.832576
540 -0.63153837 8.490044880000001 4.87491273 2.506782 0.955602 1.541706
560 0.9922913100000001 6.644528820000001 0.5697157500000001 2.425561 -0.109785 2.171687
580 2.7041265 5.50585269 0.92059002 2.043687 -0.210032 2.530207
600 3.03343839 5.11187328 -0.36568737 1.311682 0.064973 2.590971
620 1.44838764 5.04690165 -1.6355035800000002 0.677654 1.180527 2.82119
640 0.39981636000000004 5.63952375 -1.2713073300000002 0.5522630000000001 2.339264 2.202465
660 0.49366863 5.451515100000001 -0.37048446 -0.528803 1.050877 1.925237
680 1.9872705600000002 6.874151490000001 -0.24204213000000002 -1.1565379999999998 1.332692 2.057223
700 2.6249401800000003 8.109534600000002 -0.63498168 -0.7348979999999999 1.524308 1.725569
720 2.70502902 8.434657620000001 -0.53573391 -0.102029 -0.587499 0.753137
740 2.36762388 7.986193470000001 -2.47854555 0.020439 -3.063962 -0.492654
760 4.3562384100000004 10.366688070000002 -6.60995838 0.016374 -2.382086 -1.045827
780 4.0122605700000005 13.6450233 -4.084403310000001 -0.505221 -0.6971229999999999 -1.050561
800 1.82919222 13.25642958 0.5343899400000001 -1.082353 -0.167018 -1.24862
820 2.1306731400000003 15.33994605 0.0577809 -1.269007 -0.381925 -1.954675
840 3.21172533 20.51019864 -0.94199544 -1.396525 -0.046079 -2.447378
860 1.66693482 28.123072560000004 -7.67648196 -1.376474 0.671628 -2.39261
880 1.8805377600000002 13.989010949999999 -6.79781007 -0.825045 1.069576 -1.95557
900 5.05438668 7.80806349 -3.13403013 0.41212 -0.339542 -2.555078
920 8.145762930000002 6.95543715 -2.9337491700000005 0.242545 -0.318413 -1.832035
940 9.61300539 7.9936785 -5.1103723500000005 -0.15626500000000002 0.176522 -1.382529
960 8.35951302 8.47746846 -3.16606959 -0.919309 1.343631 -0.879812
980 4.5520362 5.83800948 -1.5001844400000002 -1.361966 1.48553 -0.284882
1000 -0.27018702 3.49643115 -3.31904673 -1.337776 0.180755 -0.086488
1020 -1.86003486 3.24345087 -1.89296703 -1.579038 -0.412808 -0.890716
1040 -1.12431429 2.07483462 0.04505733 -0.48697 -0.333597 -1.665127
1060 -0.38065743 1.8495577800000003 1.28044044 0.359088 -0.732167 -1.826418
1080 0.5824393200000001 1.76437755 1.53895356 0.794292 -0.030093 -0.62146
1100 0.71955369 2.82148353 -0.50459697 -0.646624 0.602694 0.622825
1120 0.37616445 6.380178750000001 -2.6174551500000005 -0.9001049999999999 0.9002030000000001 1.300063
1140 3.51872928 10.89973404 -2.7789669900000002 0.777212 0.234911 1.317973
1160 2.34771939 12.364141410000002 -4.59439578 0.981374 -1.6948740000000002 0.485454
1180 3.5621385300000004 6.89660658 -3.98950137 -0.755761 -1.790069 -0.042509
1200 4.451140350000001 4.37151258 -3.61154169 -2.679465 0.392609 -0.221113
1220 3.82708701 9.76044969 -2.9819457000000003 -2.816569 1.201602 -0.480549
1240 0.028144890000000002 11.10405672 1.2829812299999999 -0.89287 -0.747877 -0.543662
1260 -1.0324044 16.38597654 0.55968993 0.943581 -0.254114 0.12548900000000002
1280 -2.39576877 18.944905230000003 1.73010141 0.459185 0.904226 -0.615384
1300 -2.34172548 14.13450306 2.73136887 -0.416138 0.148334 -1.034999
1320 3.26965338 22.077444240000005 -1.71558261 -0.470141 -0.6632979999999999 -0.749121
1340 9.891285660000001 18.84625587 -3.2828282100000004 -0.316798 -0.8793629999999999 -0.662315
1360 9.902959560000001 13.031604000000002 -2.41642863 -0.261407 -0.548601 -0.309839
1380 7.798037669999999 10.44198963 -2.21165469 0.281746 1.213295 -0.230323
1400 3.7688646600000006 6.869668320000001 -0.59381892 0.404593 1.57459 -0.37841
1420 -0.30955455000000004 5.647901490000001 3.96735039 0.12721400000000002 0.5394 -0.4687520000000001
1440 -2.06914482 7.8638922 6.34276341 0.13525 -0.739038 -0.448898
1460 -2.9948262300000006 8.78298129 2.55414141 0.876559 -0.7851640000000001 -0.212925
1480 1.02327129 6.251599080000001 -0.15088761 1.48612 0.174099 0.19496
1500 4.258050120000001 7.358696820000001 -3.9796226999999997 1.498556 0.012565 0.353351
1520 0.8822623500000001 6.43362363 -3.09241611 2.103121 -0.904958 0.708058
1540 -0.41194152000000006 7.187904720000001 0.49966254000000004 1.919791 -1.548928 0.736444
1560 0.9819613800000001 7.16335029 2.81549943 0.931583 -0.275309 0.640316
1580 3.12864444 6.4391564699999995 1.93891707 1.47386 1.013036 1.394481
1600 3.48834771 7.30510479 -0.05074713 3.093487 0.932379 1.778707
1620 2.7144564300000003 7.978404330000001 -1.81811673 2.988688 0.335289 1.471092
1640 2.2933818 7.37591337 -1.5079637700000004 0.808692 1.19337 2.16086
1660 2.7098163000000004 6.67716669 -0.39084021 -0.3412 1.996816 3.631285
1680 3.5747149500000006 6.5628017100000005 -0.22079367 -0.5781810000000001 0.116718 4.872245
1700 4.784503770000001 6.87026673 -1.10800026 -0.449137 -2.625596 4.03597
1720 4.92101973 7.834854600000001 -1.05589935 -0.920393 -3.960767 2.144704
1740 5.057231580000001 8.98940331 -3.41335026 -1.442888 -3.832878 1.253198
1760 5.5959673500000005 11.903993550000001 -5.511238379999999 -1.680924 -3.831315 0.80288
1780 1.4305726800000003 14.99626251 0.61716672 -1.823239 -3.798522 0.451468
1800 -1.03314996 15.781680540000002 4.35339351 -1.908906 -2.840013 0.053331
1820 -2.3047614000000003 19.694094930000002 2.0580693300000004 -1.912561 -1.762128 -0.4319810000000001
1840 -3.76032996 24.28908912 -0.9717786 -2.069288 -1.310047 -1.1952969999999998
1860 -2.5222589100000006 22.417978769999998 -4.5054779400000005 -2.376344 -0.953795 -1.8399
1880 5.41274598 14.927553270000002 -2.9725182900000005 -2.128591 -0.719011 -1.894018
1900 7.494761520000001 10.53464508 -4.224813840000001 0.720522 -0.952095 -1.753109
1920 7.32786399 11.53246923 -5.27458194 2.093297 -1.525264 1.327285
1940 7.2573595200000005 13.23158085 -4.25190906 -0.93083 0.162508 3.851708
1960 6.93732789 9.17023104 -3.23253234 -1.809362 -0.63 2.203661
1980 3.9071758500000002 4.99825386 -2.08336932 -0.8210059999999999 -2.961744 0.248024
2000 2.04474735 3.62486367 -0.6059440800000001 -1.496924 -0.8971610000000001 -1.846648
2020 0.84992859 3.15289476 1.1892761100000002 -1.714418 0.8395020000000001 -2.522304
2040 0.2935348200000001 2.7562176 1.9339826400000002 -0.353383 1.362467 -0.487051
2060 -0.57899601 3.21725817 2.0348686800000007 0.468278 -0.027276 -0.244522
2080 -0.25820901 3.0897281700000008 1.8964103400000003 0.469558 -2.87055 -0.7642979999999999
2100 0.53663643 2.4929172000000004 1.9208078100000001 -0.180287 -5.3086720000000005 -0.8073739999999999
2120 2.32736364 5.6889171 -0.28889469 -1.935684 -4.753519 -0.653704
2140 3.48115698 20.59821396 -8.21447217 -2.303635 -1.63727 -0.414576
2160 5.984855370000001 17.41238703 -5.769153090000001 -1.373029 0.571801 -0.8766510000000001
2180 8.29619928 9.80535987 -3.53190411 -0.45693 -0.314236 -1.205607
2200 5.58308682 4.3444173600000004 -1.6820520300000001 -0.06536900000000001 -2.341012 -0.857375
2220 2.56447134 6.425991450000001 -0.19609209 -0.234695 -3.22554 -0.623484
2240 -0.34578288 12.05862858 6.300550980000001 -0.676117 -2.612847 -0.547236
2260 2.4182238600000003 21.551432039999998 4.03770771 -1.314495 -1.6809040000000002 -0.483455
2280 1.7317494900000001 16.06863285 1.99639386 -1.470852 -1.193045 -0.338826
2300 1.15320474 8.20099323 -0.12993344999999998 -1.006877 -1.226594 -0.343019
2320 1.38297456 3.4429862700000005 -4.064194710000001 -0.7176520000000001 -1.667609 -0.329752
2340 4.96292805 5.58428364 -2.23170633 -1.079232 -1.823297 -0.5094029999999999
2360 5.69685339 8.506064610000001 0.89768367 -1.634598 -1.484817 -0.75727
2380 3.77575128 10.08812331 2.8307637900000002 -1.931385 -1.080043 -1.024781
2400 2.0389104000000002 10.82145024 2.22063084 -1.572515 -0.901735 -1.170986
2420 1.26996336 9.56765376 1.4253341400000001 -0.5181359999999999 -0.5689069999999999 -1.135205
2440 1.25379648 9.15676191 0.9818044200000001 0.307167 0.192683 -0.499097
2460 0.92013876 10.460844450000002 0.8373619800000001 0.49041 1.024374 -0.319422
2480 2.29517703 9.687708540000001 0.6041390400000001 0.491504 0.38812 -0.249165
2500 2.8746243000000002 8.47567323 1.05694902 0.186826 -0.7218060000000001 -0.27444
2520 1.5031764900000002 9.716294880000001 1.41650514 0.009086 -1.554209 -0.015036
2540 0.10328949000000001 10.46907504 0.76296294 0.452537 -1.426423 0.6769
2560 -0.34143705 9.23998995 -0.07603731000000002 1.401586 -0.5623560000000001 1.4194950000000002
2580 0.11360961 8.62656084 0.6617727900000001 1.864158 -0.255619 1.832531
2600 0.10777265999999999 8.89869024 2.21120343 1.565353 -0.693796 1.646203
2620 -0.40280841 9.38847411 2.8741730400000005 1.289084 -0.990929 1.333801
2640 -1.06832862 9.72048375 2.12767128 1.40624 -1.393527 1.213358
2660 -1.1443659300000002 9.480835260000001 0.83227059 1.371643 -1.907231 1.037518
2680 1.2897207000000002 10.67250501 -0.00404172 0.781158 -2.362807 0.926087
2700 1.2029022 11.649375000000001 -0.5890218299999999 -0.186375 -2.9148560000000003 1.290709
2720 1.6328058300000001 11.841131070000001 -0.77284161 -0.393027 -3.032354 1.814981
2740 3.05454951 12.35770605 0.70608456 0.582404 -1.215124 2.865255
2760 4.5197024400000005 11.83049703 2.1977343 1.170212 0.462877 3.3724800000000004
2780 5.5321925400000005 10.005493680000002 1.9320304500000003 1.239585 -0.714946 2.42162
2800 6.29995257 7.718400090000001 0.87013719 0.714501 -2.989648 1.364395
2820 6.5529230400000005 8.37223659 -0.33246090000000006 -0.281913 -2.855739 1.241896
2840 3.68803026 11.794121550000002 -0.41329530000000003 -0.902741 -2.136473 1.462033
2860 0.6912616500000001 12.05083944 -0.49980969000000003 -0.974732 -2.074187 1.399493
2880 -0.24668226000000004 11.18803032 -0.95680854 -0.886832 -2.244943 1.135407
2900 -0.67150431 11.38128732 0.019306080000000003 -1.91972 -0.203322 0.827542
2920 -0.3526695 10.26804852 1.24975476 -2.462589 0.213029 0.0103
2940 0.44008641 9.0380511 2.80397268 -1.931904 -1.676243 -0.31472100000000003
2960 2.9821026600000007 9.377702730000001 3.94998669 -0.901311 -2.958867 -0.400951
2980 6.0356024999999995 10.67310342 4.88733219 -0.099652 -2.38112 -0.388614
3000 6.874151490000001 11.62766547 3.9808195200000003 -0.292642 -1.996371 -0.26761
3020 5.423517360000001 12.013865549999998 -0.35880075000000006 -0.541909 -1.691715 -0.048619
3040 3.24420624 11.686201740000001 -2.3986136700000005 -0.390561 -1.243679 0.197555
3060 -0.09340101 9.397460070000001 -1.6489727100000002 -0.136701 -1.043023 0.413784
3080 -0.7349750100000001 6.257887290000001 -1.11472992 0.054587 -1.153642 0.4718770000000001
3100 1.5660389700000001 5.980666500000001 -0.8855585100000001 -0.102017 -1.140162 0.433378
3120 3.9451994100000003 7.531284149999999 -0.17528508000000004 -0.614183 -0.788523 0.320392
3140 5.37262308 8.58224907 0.8931906900000001 -0.6444850000000001 -0.5716220000000001 -0.081749
3160 3.6143865900000005 8.32882734 -5.242552290000001 -0.848392 -0.984713 -0.230059
3180 3.0600823500000005 5.965098030000001 -0.8542744200000001 -1.4762959999999998 -1.856875 -0.027161
3200 2.13471486 8.18677854 -0.25521696000000005 -0.362713 -2.255332 0.349665
3220 2.05223238 7.799980050000001 0.13082616000000002 0.219175 -1.706957 -0.625464
3240 2.69664147 8.31745755 -2.00507571 0.592435 -1.1540290000000002 -1.227111
3260 4.17706857 10.47701133 -2.36657421 -0.070439 -1.980561 -1.747702
3280 5.60269701 11.68200306 -2.1275241300000003 -0.930475 -1.565391 -2.261646
3300 6.203098440000001 9.875265930000001 -1.6510622400000001 -1.14796 -0.357397 -1.800037
3320 6.21178029 7.649239590000001 -1.32818571 -1.326115 -0.365878 -0.858031
3340 5.60164734 6.44709276 -0.005542650000000001 -1.321513 -1.65183 -0.5551119999999999
3360 5.10977394 5.51542725 1.96720911 -0.47535 -1.055303 -0.216681
3380 5.1680061 6.74631738 2.3564012400000003 -0.35288800000000003 -1.1863290000000002 -0.05756
3400 5.73576966 15.122301390000002 0.00958437 -0.7670939999999999 -1.611421 0.046913
3420 7.24523436 25.88836437 -2.6918541900000004 -0.993118 -0.782181 0.128661
3440 1.7950632300000002 15.24429855 -2.8195411500000005 -0.862823 0.147551 0.07924199999999999
3460 -0.58049694 6.6752145 -1.1160837000000001 -0.616512 -0.542863 -0.105092
3480 -1.3293825300000004 2.8069647300000002 2.48423535 -0.6172770000000001 -0.5935189999999999 -0.22360500000000005
3500 0.29024847 2.5903599300000004 0.17798283 -0.463431 0.193075 -0.195764
3520 0.9517171500000001 9.572598000000001 1.94714766 -0.14844200000000002 -0.27229200000000003 -0.242106
3540 0.65039319 12.00847986 4.404287790000001 0.16086 -0.996729 -0.23154
3560 -0.02410317 12.216393000000002 3.2615699400000002 0.222041 -1.352892 -0.194336
3580 -0.26554689 10.99209519 0.22872015 0.719547 -2.02773 -0.229521
3600 1.63429695 8.196353100000001 -2.25910566 1.3669639999999998 -2.014227 -0.171605
3620 3.5802576000000004 8.36251488 -3.3043807800000002 1.1106049999999998 -0.652779 0.309833
3640 1.8473112900000002 7.866737100000001 -2.09728971 0.8003819999999999 0.013546 0.446749
3660 -0.22812174000000002 8.0397855 1.7907272100000002 0.488338 0.0013310000000000002 0.308921
3680 -0.36479466 9.19148931 4.16643453 0.26399 -0.201871 0.170882
3700 0.63498168 8.912022030000001 2.1999709800000002 0.246889 -0.102214 0.039243
3720 1.9717020900000002 9.817033770000002 -1.6616962800000001 -0.10798599999999997 0.857133 0.196837
3740 3.26425788 10.30322718 -3.0217644900000002 -0.06659 1.038013 -0.050933
3760 2.5333344 9.689650920000002 -2.5385729400000003 0.6118560000000001 0.409907 0.058228
3780 2.43678438 8.96665392 -1.4651529300000001 1.128985 0.07394400000000001 0.508787
3800 2.81369439 8.27928684 -0.75158334 1.625445 0.525587 0.8855540000000001
3820 2.6858602800000004 7.252415280000001 0.04819653 1.706376 1.7611290000000002 1.923916
3840 2.92372335 5.651197649999999 0.039965940000000005 1.374985 1.861757 2.886077
3860 2.4671659500000005 5.60164734 0.04340925 1.308584 -0.137142 3.319736
3880 0.80472411 7.819138980000001 -0.20866851000000003 0.4213020000000001 -1.630479 2.446988
3900 -0.9692378100000001 8.09965593 -0.9342063 -0.19409 0.14485599999999998 2.035558
3920 -0.5550498 7.136264880000001 -1.3247424000000003 -1.008397 1.118776 1.878003
3940 0.12288987000000001 6.19052202 -0.58617693 -1.004182 0.792143 2.038684
3960 1.09227483 5.861661389999999 0.45370269 -0.6437470000000001 0.185231 2.185121
3980 2.84812749 5.8290333300000015 1.80075303 -0.616409 -0.865506 1.457063
4000 0.46957527000000004 5.947734330000001 -1.87275843 -0.642888 -2.696097 0.527734
4020 2.3932279800000003 6.398592120000001 -1.02731301 -0.340597 -2.848766 -0.182463
4040 3.68234046 6.499635120000001 -0.79723908 -0.228892 -1.491056 -0.416295
4060 3.6455235300000006 7.47411147 -2.8976778000000003 -0.18005 -0.658874 -0.2429
4080 6.222257370000001 14.30814987 -3.6685672200000004 0.062638 -0.260657 -0.670072
4100 4.70247255 15.810276690000002 -2.3593932900000008 -0.27438 0.15598900000000002 -1.473058
4120 2.81863863 17.965190340000003 -2.37001752 -0.684653 0.983708 -2.182011
4140 3.3709906800000007 22.16620512 -0.80218332 -0.963998 1.599677 -2.797911
4160 0.7896069 22.563480690000002 -4.593797370000002 -1.149347 1.716119 -2.985225
4180 2.71685007 13.81985712 -4.74229134 -0.9191 0.550813 -2.6787490000000003
4200 7.496409600000001 9.64698723 -3.0883743900000002 -0.820743 0.000754 -1.60593
4220 9.111851730000001 8.575666560000002 -3.5094490200000004 -0.300055 -0.312512 -0.973777
4240 8.59707198 9.03341097 -4.75141464 -0.031164 1.321156 -0.29246700000000003
4260 6.1351445700000005 8.827744319999999 -3.6000149400000003 -0.584467 2.0067310000000003 0.302062
4280 2.12243274 8.22524355 -0.55175364 -1.337897 1.273045 0.084095
4300 -1.81782243 5.53608711 -1.7311510800000003 -1.504046 -0.064565 -0.1322
4320 -4.26537819 3.2808760200000004 -1.3980917700000002 -2.0097240000000003 -1.016627 -1.098049
4340 -2.25850725 2.61491436 0.16944813 -0.8419639999999999 -0.879265 -1.562222
4360 -0.57794634 4.16688579 -0.28994436 1.33559 0.083695 -1.306828
4380 -0.7315317000000001 3.9936902400000003 -0.8873537400000001 1.375753 0.061372 -0.289571
4400 -1.09152927 3.4651470600000005 -1.34105643 -0.010653 -0.432403 0.5164310000000001
4420 -0.44862111000000005 4.124074950000001 -1.17041148 -0.4644 -0.115776 1.38132
4440 2.8391415300000005 7.272329580000001 -1.85150016 0.427566 0.058248 1.311484
4460 7.662718530000001 13.74800868 -2.55742776 0.323458 -1.272225 0.589275
4480 7.11380979 13.93467336 -2.25954711 -1.191316 -2.068788 -0.027035000000000003
4500 5.37022944 6.307731899999999 -2.33903754 -2.749882 -0.027089 -0.16552
4520 5.03268696 3.0362832900000005 -3.20393619 -2.166703 0.283082 -0.714114
4540 3.62546208 5.958505710000001 -2.5439586300000006 -0.394748 -1.105037 -0.635865
4560 2.8837574100000003 10.578947040000001 -2.8460281500000004 1.2458049999999998 -0.100212 -0.26143
4580 -0.43858548 14.662908900000001 0.8137100700000001 0.678262 0.607988 -0.516265
4600 -1.40019111 15.414492240000001 0.48050360999999997 -0.277994 -0.29581 -0.641428
4620 -2.7348121800000005 16.68251322 -1.2304388700000002 -0.401458 -1.162475 -0.385874
4640 0.10972485000000001 18.831737070000003 3.98351727 -0.017973 -1.008369 -0.096042
4660 9.12532086 27.76456611 -3.1323820500000004 -0.935237 3.392959 -0.268322
4680 11.118134070000002 15.227082000000001 -1.86391962 0.6480899999999999 1.163902 0.348071
4700 8.875793700000001 8.77774275 -2.22811587 1.252752 -0.404774 0.5038560000000001
4720 5.854176360000001 5.38655328 -2.21569641 1.569831 -1.213733 0.598974
4740 1.4349185100000001 4.96292805 -0.13726152 1.328734 -0.326316 0.530992
4760 -1.6154421300000001 6.730003350000001 5.555991600000001 0.8766129999999999 0.807124 0.659909
4780 -2.3611885200000002 10.583440020000001 5.256619830000001 0.919107 1.173813 0.830651
4800 -2.4638796000000003 6.937926300000001 0.36224406000000003 2.023606 0.913781 1.230737
4820 1.75899186 7.08581205 -1.4084217 2.6158360000000003 0.148551 1.872515
4840 1.9815807600000002 9.08116605 -3.6958194000000004 2.73386 0.370812 2.663538
4860 0.5402268900000001 8.56234458 -2.0390575500000003 2.060835 0.6002569999999999 2.611542
4880 1.2969016199999999 7.4559923999999995 0.82628649 1.023401 1.053025 2.439209
4900 2.22782157 6.18124176 2.34966177 0.8814639999999999 1.51246 1.954792
4920 4.26628071 7.293136590000001 7.45764048 0.54289 0.7687 1.765373
4940 2.39292387 2.30431014 -4.33363617 0.12279 1.348414 1.811902
4960 2.6435007 3.76946307 -2.21868846 -0.088759 2.092095 1.433458
4980 2.16779418 4.42734129 -0.9216298800000001 0.523941 2.554822 -0.792235
5000 2.0249900100000002 5.484741570000001 0.29429019 -0.225138 -1.017477 -0.302576
5020 3.5118426600000006 7.337595510000001 -0.70668297 -0.89576 -2.170694 -0.37308
5040 4.11749244 8.16761961 -1.50766947 -1.035001 -1.797551 -0.592448
5060 2.5770379500000002 7.24822641 -2.89707939 -0.996406 -1.5463870000000002 -1.097769
5080 3.0247565400000003 10.35142371 -3.7706598900000006 -0.90237 -1.067442 -1.604063
5100 3.3621616800000007 13.96101321 -2.22452541 -1.082531 -0.529196 -2.050392
5120 3.1645686600000005 16.80330375 -1.2693649500000002 -1.496443 -0.4525 -2.223229
5140 3.8260471500000004 22.09854555 -3.9932487900000004 -2.031998 -1.068966 -2.373594
5160 3.89684592 23.537505780000004 -5.56497756 -2.12023 -2.045123 -2.4723040000000003
5180 2.5800300000000003 14.250368970000002 -4.89497418 -1.80184 -0.726151 -1.724015
5200 5.10872427 9.40418973 -1.3105277100000001 -0.9066 2.068278 0.108521
5220 6.51415392 8.27374419 -1.38776184 -0.053061 3.186493 0.514702
5240 17.95186836 11.70536067 3.3555693600000005 -0.073452 1.132056 0.146519
5260 6.41985039 4.7762633700000015 -7.012168379999999 -1.429265 -1.099214 -1.194301
5280 2.9780609399999998 6.458766659999999 -4.57882731 -1.230682 -1.17734 -1.542123
5300 1.97574381 4.8897356400000005 -3.1385231100000004 0.425487 -1.189763 -0.6716880000000001
5320 1.22160987 4.601429550000001 -2.7783685800000004 0.686214 -0.502558 0.407089
5340 -0.7562234700000001 3.18088269 -1.94819733 -0.647826 1.78516 0.887289
5360 -0.7937957700000001 1.67875587 -0.13591755 -0.053398 0.142421 0.393618
5380 -0.0782838 0.7117743599999999 0.11884815000000001 0.592332 -2.3891 -0.059030999999999986
5400 0.59426037 1.76093424 -0.89514288 0.397269 -2.596221 -0.30795500000000003
5420 0.5167221300000001 3.2322282300000005 -2.6553315600000005 -0.658983 -0.624339 -0.471684
5440 2.2968251100000003 9.06574473 -3.47187672 -1.790157 1.6689630000000002 -0.497479
5460 3.9914535600000005 13.660738920000002 -0.82927854 -1.739845 0.248909 -0.530559
5480 4.69199547 12.45455037 -1.22998761 -0.85415 -1.544111 -0.45905
5500 5.683678560000001 7.9577542800000005 -6.061942350000001 0.656724 0.217872 0.090834
5520 2.14698717 11.64413646 -4.1195819700000005 0.9821 0.8848239999999999 0.052728
5540 -0.94947066 11.013500610000001 2.38663566 0.434716 -0.245101 -0.354504
5560 -0.80921709 13.81702203 4.233642840000002 -0.010584 -1.001148 -0.30964400000000003
5580 -0.32542713 16.589700809999997 2.99272689 0.030805000000000006 -0.601598 -0.09729
5600 3.3542253900000003 23.64168798 -4.98808089 0.27465100000000003 -0.138364 -0.002177
5620 8.077652100000002 20.507500890000003 -3.52741113 0.7872359999999999 0.387493 0.183395
5640 7.168294530000001 15.015274290000002 -2.71775259 1.158307 0.867498 0.236647
5660 6.449937660000001 11.298059279999999 -0.97208271 1.094051 0.913127 0.336552
5680 4.0002825600000005 7.956851760000001 1.16712513 1.038419 0.83796 0.533881
5700 1.60166889 5.81316075 4.4400648600000014 0.922963 0.802299 1.026639
5720 0.72374256 5.13761472 2.1630069 1.057712 1.263762 1.658308
5740 0.07948062 7.803874620000001 0.11480643 1.504325 1.581422 2.5497810000000003
5760 1.9218574800000001 6.85933839 0.15897105 1.423728 0.347048 3.347694
5780 4.2110406 6.968906280000001 -1.4130618300000002 1.5695059999999998 -0.980464 3.532011
5800 2.8696800600000003 8.17644861 -3.81856212 1.236291 -2.047828 3.011895
5820 0.5436702 7.91135298 -2.4378340500000006 -0.739499 -1.873794 1.963832
5840 -0.31854051 7.10467668 0.60354063 -1.63294 1.123324 1.01692
5860 0.7499450700000001 6.208189830000001 2.2866423300000003 -1.004129 1.883201 1.452969
5880 2.0073222 4.38603138 1.4112666 -0.742798 -0.099683 1.860055
5900 2.3586477300000004 3.00275271 0.38679849 -0.58417 -1.182542 1.325235
5920 1.78534152 4.301459370000002 -0.5987533500000001 -0.391666 -1.516169 0.409404
5940 1.4278847399999999 6.175856070000001 -0.97072893 -0.47805 -2.31891 -0.16701
5960 1.49583861 7.9822989 -2.10207699 -0.754776 -2.370514 -0.607916
5980 2.8636959600000003 8.76666726 -1.2029022 -0.94946 -0.902954 -1.405914
6000 4.06015299 7.539818850000001 -1.0547025300000001 -1.038198 -0.065274 -1.954537
6020 6.834342510000001 8.4909474 -4.2490641600000005 -1.01787 -0.302958 -2.206191
6040 9.10166895 11.11873248 -5.97976398 -0.987464 0.267905 -2.467356
6060 8.50666302 12.987596340000001 -3.6534500100000002 -0.648081 1.087499 -2.860209
6080 9.17756892 15.836469390000001 -4.39486038 0.07683999999999999 1.332427 -3.200495
6100 7.88485617 19.79977806 -0.63378486 0.687195 0.165954 -3.197942
6120 4.068393390000001 25.64960859 0.43229727000000007 -0.060526 -0.350536 -2.326561
6140 3.4247298600000002 15.55160661 -2.8876421700000003 -0.804529 1.507292 -0.6153689999999999
6160 4.006413810000001 9.3730626 -3.7205111700000004 -0.501185 3.360639 -0.021694
6180 6.433172370000001 8.69092425 -3.0777501600000003 0.027459 3.461135 -0.037358
6200 8.141269950000002 8.976836700000002 -3.68174205 -0.117456 2.301717 0.187442
6220 7.75537398 8.152943850000002 -3.1097798100000005 -0.5119819999999999 1.003149 0.262194
6240 4.74947226 7.19852895 -0.66760974 -0.512532 -0.160825 0.169678
6260 1.92454542 6.396649740000001 0.025143030000000004 -0.022948 -0.549896 -0.192804
6280 0.023504760000000003 4.97115864 -0.69231132 -0.511838 -0.143449 -0.4456350000000001
6300 -1.9883104200000001 3.91660326 0.347274 -1.708013 0.683218 -1.009457
6320 -2.41163154 3.43954296 2.06181675 -1.044791 2.017627 -1.4883030000000002
6340 -2.16779418 3.47787063 1.4144058000000002 0.487455 1.423215 -0.689558
6360 -1.5645478499999999 3.85253415 -0.16181595000000001 0.6456930000000001 -0.7865300000000001 0.594108
6380 -0.8315250300000001 6.42943476 -3.14301609 0.201142 -1.53383 1.912283
6400 2.4281025300000003 12.075393870000001 -3.28132728 1.34495 0.8855930000000001 1.940673
6420 4.19008644 13.030407180000001 -0.51028677 1.191773 -0.779026 0.64171
6440 3.2945021100000003 8.06059251 -0.46508229 -0.8040039999999999 -2.71933 -0.44758
6460 3.16442151 5.256168570000001 -1.03180599 -2.36192 -2.911498 -0.590675
6480 4.462225650000001 4.81773024 -1.03046202 -2.427638 -0.189659 -0.8146760000000001
6500 4.71639294 5.66002665 -1.10679363 -1.2929190000000002 0.710598 -0.7576970000000001
6520 4.7862990000000005 5.298685110000001 -2.05373331 0.138418 0.621645 -0.266885
6540 4.71549042 6.7424326200000015 -3.86989785 1.673839 1.148025 0.232411
6560 3.2040833400000004 11.92570308 -4.05670968 0.689627 0.015905000000000002 -0.312465
6580 0.38290392 12.32477388 0.62615268 -0.623991 -1.46475 -0.790829
6600 -0.28231218 16.56934506 2.52449559 -0.738049 -1.938098 -0.334889
6620 -1.02327129 18.63415386 -1.13912739 0.153097 -0.965025 0.104855
6640 1.6313049000000004 20.972436030000004 2.11075884 0.924435 -0.016331000000000002 0.351514
6660 10.18197558 22.807475009999997 -3.2247432000000003 1.385787 0.972063 0.529726
6680 10.55859129 13.195362330000002 -2.05596999 1.082776 0.711144 0.507648
6700 6.6663855000000005 11.097022950000003 -2.11315248 0.391946 -0.133413 0.256077
6720 4.760851860000001 8.3930436 -1.9420660800000002 0.090942 0.212114 0.156324
6740 1.7006125500000002 7.576498440000001 0.8403540300000001 0.642188 1.064851 0.6141439999999999
6760 0.35027586000000005 8.22090753 5.34898098 1.666578 1.099865 1.092341
6780 1.3757936400000002 7.433988570000001 4.94496594 2.528482 0.686682 1.906466
6800 2.1999709800000002 4.85305605 2.27646936 2.454815 -0.061414 2.836263
6820 3.2416556400000003 3.7892204100000004 -1.5187449600000003 2.114985 -0.181579 3.077598
6840 3.2111269200000003 8.92638387 -7.6929529500000005 0.975015 -0.422344 2.47174
6860 0.40535900999999996 9.14433264 -4.618646100000001 0.065871 0.738528 1.998157
6880 -0.34922619 6.491698830000001 0.32706539999999995 0.345204 1.57313 2.165681
6900 1.29735288 5.423370210000001 3.7550914200000003 -0.178148 0.973063 2.165999
6920 3.37697478 4.3206183000000005 2.9835937800000005 -0.562561 0.975052 2.00201
6940 4.40084448 3.0229613100000003 0.00748503 -0.575983 1.316814 1.529324
6960 1.9775390400000001 4.28798043 -1.83982626 -0.440795 -0.292083 0.6969810000000001
6980 0.33664977 5.980509540000001 -1.8802434600000002 -0.5561470000000001 -1.958307 -0.234248
7000 0.7086253500000002 7.17891876 -0.7309332900000001 -0.627015 -1.62161 -0.988271
7020 2.92596984 6.82341417 -0.040711500000000005 -0.714784 -0.34381300000000004 -1.3109879999999998
7040 2.97356796 7.42306023 -0.97013052 -0.84078 0.009629 -1.410597
7060 3.7241016300000003 8.85319146 -2.7104147100000002 -0.913247 -0.451475 -1.6540669999999995
7080 6.24920544 12.9886362 -5.2398545400000005 -1.078106 -0.364615 -1.920249
7100 6.30997839 16.85584611 -3.7564353900000005 -1.101559 0.148573 -2.363314
7120 5.137761870000001 19.621049669999998 -2.4730029000000004 -0.65056 0.281055 -3.116635
7140 4.738848030000001 21.542750190000003 -0.05927202000000001 0.04581 -1.023054 -3.400656
7160 4.1706234 19.52674614 -1.1892761100000002 -0.10161 -0.851563 -2.470416
7180 3.06921546 13.135786200000002 -3.7889163000000003 -0.6582819999999999 1.730948 0.06902799999999999
7200 4.66803945 9.58217256 -3.35976804 -0.8216110000000001 3.082822 0.732725
7220 7.648199730000001 9.40793715 -2.33260218 -0.34628400000000004 2.57484 0.8146760000000001
7240 8.48480634 9.19642374 -3.7441630800000003 -0.487961 0.749242 0.600245
7260 7.79220072 7.7050781100000005 -4.058357760000001 -1.1168870000000002 -0.751317 -0.554837
7280 5.718111660000001 5.47036992 -2.59949304 -0.853476 -0.877856 -1.372161
7300 2.7256790700000004 3.5730668700000003 -1.9616664600000002 0.254576 -0.022906 -0.884817
7320 0.35461188 2.47929111 -2.3245187400000002 0.902796 0.6898850000000001 0.651696
7340 0.15837263999999998 3.0786526800000003 -1.3401637199999998 0.4838 1.36036 1.974642
7360 0.7319731500000001 3.3549709500000002 0.21195486000000002 -0.596858 1.021389 1.3671870000000002
7380 0.20492109000000003 2.1459375 0.85936581 -0.290522 -2.206033 0.479361
7400 -0.87103971 1.25334522 -0.10028763 -0.346748 -3.683314 -0.600179
7420 -2.21419548 1.75659822 -2.74813416 -1.082617 -2.53103 -0.941149
7440 2.07333369 6.59214342 -2.5346783700000004 -1.945454 1.430134 -0.8432940000000001
7460 5.37337845 11.573779140000001 -1.2666672 -1.317142 2.33789 -0.624287
7480 6.25998663 13.48351146 -0.97282827 0.172822 -0.5385409999999999 -0.537555
7500 5.23686249 6.58435428 -1.6163348400000004 1.05625 -1.231738 -0.046591
7520 6.0656897700000005 5.30961345 -3.4625964600000003 0.507922 0.233635 -0.258466
7540 3.4401413700000005 9.80550702 -2.5993458900000004 -0.122393 0.685664 -0.332882
7560 0.6373753200000001 11.60881065 -0.6240533400000001 -0.230613 0.441704 -0.236117
7580 1.06802451 14.419817100000001 0.8394515100000001 0.036726 0.09884 -0.24022
7600 2.15222571 16.87351392 1.83069315 0.280827 -0.316835 -0.13116
7620 4.5870579000000005 18.33462513 3.3807222 0.808493 -0.171585 0.11696199999999997
7640 13.472730270000001 22.67888553 -4.03546122 1.120385 0.473587 0.209113
7660 14.376555000000002 18.60555771 -7.1974792800000005 0.7096210000000001 0.7019489999999999 0.20061
7680 8.753492430000001 12.432399390000002 -2.7357147000000004 0.065217 0.6299140000000001 0.125699
7700 3.9767778000000003 9.37006074 1.15349904 0.145484 0.302335 0.4567600000000001
7720 1.5126039000000002 8.03110365 5.07399687 1.230213 0.6124689999999999 1.079235
7740 -0.35147268 6.59558673 7.6690067399999995 1.685702 0.564574 2.004353
7760 -2.39098149 5.82813081 0.8119148400000001 1.744503 0.8992399999999999 3.507324
7780 -2.65727394 5.282665379999999 -2.5771949100000002 1.656838 1.068302 4.194429
7800 1.3247424000000003 7.459435710000001 -2.6939437200000005 0.6305689999999999 -0.186415 2.910207
7820 3.65404842 7.225025760000001 -1.99310751 0.258353 -0.527087 1.58238
7840 3.1859740800000003 5.7830734800000005 -0.41688576 0.450129 0.095445 1.3137299999999998
7860 2.31808338 6.02901018 1.7480635200000003 0.246775 0.354352 1.478621
7880 2.17198305 5.69805021 2.6208984600000003 -0.118854 0.40906 1.700323
7900 2.51117361 4.58901009 1.4528806200000002 -0.210504 0.362786 1.630308
7920 3.21187248 4.67208117 -0.36583452 -0.256405 -0.521844 0.984847
7940 2.6005427100000005 4.94017866 -1.83862944 -0.342648 -1.432791 0.029353
7960 3.23417061 6.933727620000001 -1.9755868500000002 -0.505444 -0.633771 -1.175626
7980 4.1433810300000005 7.1597598300000005 -1.0380942 -0.8893559999999999 0.222119 -2.025436
8000 4.89153087 5.28655995 -0.70099317 -1.2837379999999998 0.265086 -2.304916
8020 5.32772271 6.80709033 -1.8696094200000002 -1.338819 -0.024975 -2.447002
8040 7.00378083 11.32215264 -3.28776264 -1.288959 -0.619345 -2.503576
8060 8.328385890000002 15.279477210000001 -2.5812366300000003 -1.068036 -1.095155 -2.520651
8080 7.45195068 20.10334851 -2.61551277 -0.279673 -0.8762030000000001 -2.281485
8100 6.246958950000001 22.46138802 -1.54359369 0.267728 0.539255 -1.352258
8120 4.73105889 14.956747830000001 -0.73452375 -0.183757 1.67911 -0.165805
8140 3.03015204 11.183988600000001 -0.80921709 -0.686901 2.068396 -0.111066
8160 3.2530352400000004 8.58030669 -2.06660403 -0.552066 1.358807 -0.198946
8180 4.960083149999999 7.16635215 -2.27676366 -0.161001 0.545786 0.048382
8200 6.64108551 7.75462842 -2.32301781 0.308535 -0.142846 0.28969
8220 8.02646352 8.25233877 -2.8865925000000003 -1.210759 -0.581109 -0.14871800000000002
8240 8.34410151 7.539966 -3.3932888100000005 -2.30982 -0.460104 -0.950239
8260 6.83193906 5.558542200000001 -3.0368817000000004 -1.089042 -0.3455 -1.363806
8280 2.57509557 4.31956863 -2.5671592800000003 1.159173 -0.265837 -0.8578899999999999
8300 0.9232779600000001 4.5952983000000005 -1.1723636700000002 1.692254 -0.771008 0.866318
8320 0.37855809 4.67238528 0.17169462000000002 0.821795 1.940946 1.413306
8340 0.18995103 4.21163901 0.87762222 0.137914 0.753524 1.649332
8360 1.22550444 4.48631901 0.69350814 -0.224347 -1.706506 0.975906
8380 2.6364669300000005 5.4366921900000005 -0.63826803 -1.074216 -1.354745 -0.205525
8400 4.74288975 7.841142810000001 -1.91676609 -2.36988 1.334279 -0.746791
8420 5.83007319 8.67161817 -2.2836502800000003 -2.159778 1.043719 -1.259834
8440 3.98860866 7.126974810000001 -2.82237624 -0.693875 -1.166001 -0.848316
8460 3.27130146 4.57299036 -3.6627302700000004 0.356693 -0.936294 -0.06360700000000001
8480 4.796471970000001 4.1712218100000005 -2.89378323 0.74195 0.642599 -0.169761
8500 4.55861871 6.543642780000001 -4.551280830000001 0.143624 1.234227 -0.815632
8520 4.66819641 13.64397363 -3.6896783400000004 -0.30798200000000003 0.221525 -1.050361
8540 3.18358044 13.994847900000002 1.19870352 -0.355455 -0.576222 -0.77941
8560 2.8303125300000005 16.052024520000003 3.5971700400000004 -0.308194 -0.597213 -0.632707
8580 2.39906493 16.137194940000004 4.72552605 0.119876 0.3074 -0.253793
8600 5.861062980000001 15.048353610000001 4.7244763800000005 0.731701 0.8826870000000001 -0.260939
8620 12.34168632 15.115120469999999 -1.21113279 0.657407 0.380703 -0.136901
8640 12.74659407 10.40202369 -6.066886590000001 0.329047 -0.228752 -0.089276
8660 10.255324950000002 10.23197715 -3.58279839 0.25756100000000004 -0.841441 0.011423
8680 5.610780450000001 9.305697330000001 0.24504399000000002 0.579509 -1.219222 0.16691199999999998
8700 1.2695121 9.36302697 5.672151810000001 0.692733 -1.327609 0.26718600000000003
8720 -0.47032083 9.71644203 4.92774939 1.039132 -0.562446 0.159667
8740 -1.96331454 8.56384551 1.31127327 1.7786540000000002 -0.161683 0.528582
8760 1.6184341800000002 5.194797210000001 1.26592164 1.884342 -0.423623 1.205841
8780 6.16583025 6.201901620000001 -1.05994107 2.124933 -0.175483 1.812885
8800 5.829926040000001 8.22569481 -2.70682425 2.941529 -0.2851 1.611494
8820 1.7784549 8.60171211 -1.7351927999999999 1.951655 -0.215812 1.392983
8840 0.7825731300000001 7.22921463 0.35506314 0.224461 1.6603880000000002 2.293981
8860 3.14630244 5.08836852 1.65390714 -0.561177 1.652686 3.567165
8880 4.68405918 4.2107463 2.00867598 -0.630813 0.243687 4.601454
8900 4.8731175 4.604421600000001 0.09220419 -0.623053 -1.1634870000000002 4.314892
8920 4.93793217 5.02265133 -1.35902835 -1.013966 -2.642614 2.922164
8940 5.34418389 6.004916820000001 -1.65031668 -1.794141 -3.243239 1.421973
8960 5.82408909 5.32203291 -1.55795553 -2.350241 -2.90797 0.380416
8980 6.462209970000001 5.0555835 -1.92559509 -2.505256 -2.502955 -0.335827
9000 6.69737529 6.22600479 -0.8985861900000001 -2.357621 -1.86705 -0.979748
9020 6.71323806 7.29866943 -0.19788732 -2.060649 -1.200918 -1.5863459999999998
9040 5.70299445 7.9968177 -1.73459439 -1.834732 -0.627418 -2.143114
9060 5.270393070000001 11.137293 -1.5521185800000001 -1.6438240000000002 -0.172235 -2.385919
9080 4.402492560000001 14.98339179 1.29316401 -0.371679 -0.717912 -1.827268
9100 3.69955701 18.31695732 0.59695812 0.420378 -1.274206 -0.329784
9120 3.5582537700000003 27.468333540000003 -4.481826030000001 1.097576 1.169134 2.908527
9140 2.6646118199999997 24.76569816 -2.03202378 0.465559 1.728934 3.323207
9160 7.742052 13.28367195 -1.73325042 -0.927083 -1.579404 1.500673
9180 9.19252917 9.62663148 -2.828223 -2.887616 -2.157606 -0.8527549999999999
9200 8.93237778 10.13901759 -2.80666062 -3.743292 0.6518520000000001 -2.321523
9220 8.94584691 11.52034407 -3.2500431899999995 -1.373614 0.279804 -2.710418
9240 9.421553430000001 9.799817220000001 -4.10580873 0.942385 -1.293166 -1.36763
9260 7.2889379100000005 5.80253652 -2.7144564300000003 1.078763 -2.556586 -0.686738
9280 4.01330043 3.72620097 -0.88795215 0.3002 -3.620143 0.090057
9300 1.42219494 3.0523030200000005 0.6502460400000001 -1.748809 -2.851122 0.028826
9320 0.18576216000000004 1.64657907 1.04078214 -2.837174 -1.682077 -0.202465
9340 -0.56627244 0.03248091 1.02477222 -2.651479 -0.746459 -0.705499
9360 -0.42661728 -0.31075136999999997 1.29046626 -2.025372 -1.223994 -0.908817
9380 0.8416980000000001 2.6153656200000004 -0.20986533 -1.326159 -1.479426 -0.774351
9400 4.557569040000001 10.81725156 -3.2419597500000004 -0.724291 -1.484572 -0.808596
9420 8.62806177 15.187567320000001 -0.22333446 -0.849008 -1.480859 -0.8297680000000001
9440 9.61061175 13.05614862 -1.02417381 -1.609357 -1.354727 -0.5446850000000001
9460 7.080426360000001 6.41985039 -3.4290658800000005 -1.714813 -1.753993 -0.506454
9480 7.142248980000001 1.8383253300000002 -14.954354190000002 -1.400589 -2.055693 -0.455802
9500 5.51872341 12.106972260000001 4.41296964 -1.45279 -1.500756 -0.392785
9520 5.97018942 13.691728710000001 6.627920490000001 -1.607219 -0.8997780000000001 -0.565549
9540 7.89038901 19.637069400000005 6.44694561 -1.559254 -1.116429 -0.7732399999999999
9560 4.28109381 11.908937790000001 2.5346783700000004 -1.398059 -1.535892 -0.976675
9580 4.266879120000001 5.76420885 -0.68123583 -1.242611 -1.413748 -1.0206110000000002
9600 5.480699850000001 3.9251379600000003 -3.6473187600000005 -0.950857 -0.968808 -0.920867
9620 8.07795621 5.681432070000001 -1.84281831 -0.427109 -0.712888 -0.639798
9640 7.134459840000001 6.6660912 1.38207204 0.001837 -0.73639 -0.196665
9660 6.07870764 8.41130982 2.79034659 -0.00921 -1.281826 -0.183224
9680 4.09668543 8.43690411 2.3596974 -0.243785 -1.476954 0.06535099999999999
9700 2.40758982 7.695650700000001 1.92425112 -0.223295 -1.733266 0.474952
9720 1.63624914 8.16956199 0.81311166 0.11094 -2.274835 0.8198120000000001
9740 1.91556927 9.059309370000001 1.1132388 0.48615 -2.020736 1.152187
9760 3.2672597400000005 8.49363534 1.2582796500000002 1.1026790000000002 -1.590215 1.379201
9780 4.4180610300000005 8.09561421 0.05912487 2.101058 -1.304341 1.484084
9800 5.111274870000001 8.11417473 0.21959685 2.61764 -1.5794700000000002 1.6408009999999995
9820 4.995565920000001 8.87040801 1.21637133 1.91277 -1.321233 1.342854
9840 4.53451554 8.91066825 1.4084217 0.534315 -0.920097 0.792191
9860 3.5281665 8.65050705 0.60668964 -0.7224970000000001 -0.419416 0.8158850000000001
9880 2.84647941 9.46780758 1.06204041 -1.26651 -0.229422 1.459184
9900 3.0912192900000006 10.022553270000001 1.60735869 -0.76269 -1.235909 2.303616
9920 3.13957278 10.02899844 0.89678115 0.417611 -1.544636 3.359113
9940 3.6498595500000004 9.94995927 0.7023371400000001 1.174487 -1.359064 3.448552
9960 5.146747830000001 9.664056630000001 0.90022446 0.797718 -1.488726 2.635306
9980 7.820787060000001 10.221647220000001 0.28156662 -0.939076 -2.3452 1.742989
10000 8.573567220000001 10.58179194 1.02461526 -2.114433 -2.182931 1.343602
10020 7.89368517 9.174419910000001 1.5852077100000002 -2.307702 -1.707401 1.140816
10040 7.819443090000001 8.36715501 2.71086597 -2.002059 -1.696443 0.800038
10060 6.653367629999999 8.435707290000002 3.52756809 -1.611504 -1.835773 0.406634
10080 4.2574419 9.087150150000001 2.07229383 -1.39297 -1.7074669999999998 0.09928
10100 1.71947718 8.71936344 -0.21271023000000003 -1.369032 -1.508835 -0.043949
10120 0.53603802 9.44311581 -1.9922049900000003 -1.391835 -1.239834 -0.161957
10140 0.85367601 12.65917716 -0.6647648400000001 -1.394774 -1.048719 -0.266908
10160 1.1523022199999997 12.090511079999999 0.45580203 -1.279558 -1.003503 -0.21916
10180 2.09878083 9.32800527 2.4493608000000004 -0.824609 -1.133902 0.02774
10200 3.12565239 7.77018708 3.71302614 -0.483325 -1.1075 0.321714
10220 6.32884302 8.14845087 2.31718086 -0.471484 -0.8453790000000001 0.561811
10240 8.34649515 7.69010805 2.22541812 -0.957209 -0.7909010000000001 0.6790579999999999
10260 7.79624244 8.55366273 0.7207505100000001 -1.26623 -0.754478 0.629851
10280 7.621398810000001 9.20390877 -1.70435997 -1.278618 -0.731893 0.321019
10300 6.90289479 8.637185070000001 -4.8180343500000005 -1.254732 -0.782644 -0.06117300000000001
10320 5.4327976200000005 7.19119107 -2.9906275500000006 -1.594098 -0.8729049999999999 -0.371075
10340 4.84138215 6.843171510000001 -1.06204041 -1.128235 -1.509005 -0.209977
10360 4.93643124 6.404429070000001 0.14354973000000004 -0.255905 -1.382499 0.962452
10380 5.147797500000001 6.086643929999999 0.9394448400000001 0.180745 -1.314055 0.251842
10400 5.21306343 6.68494602 1.24975476 -0.262575 -1.018711 -0.760034
10420 4.89826053 6.99255819 0.64904922 -1.416632 -1.386833 -1.2066629999999998
10440 4.71160566 7.059472199999999 -0.4776587100000001 -2.599457 -0.9943 -1.374593
10460 4.86773181 7.37411814 -1.3503465000000001 -2.836234 -0.8119810000000001 -1.20877
10480 5.556894120000001 8.21851389 -1.8154287900000001 -2.213805 -1.757396 -0.820787
10500 6.9368766299999995 8.721168480000001 -1.5926927400000002 -0.737574 -1.676669 -0.17819200000000002
10520 7.532333820000001 7.37411814 -1.78099569 1.62509 1.145522 0.633725
10540 8.09441739 5.918696730000001 -1.8835298100000002 1.418848 0.753479 0.551602
10560 8.136178560000001 5.61901104 -1.0806009300000001 -0.885885 -1.517125 -0.254208
10580 7.260057270000001 5.236264080000001 -0.37601730000000005 -2.684941 -2.022532 -0.7083699999999999
10600 6.41939913 4.97101149 0.07499745000000001 -2.759835 -1.398918 -0.7502850000000001
10620 6.44424786 8.04217914 -0.01197801 -1.469227 -1.134306 -0.643333
10640 7.92362529 12.833716680000002 0.01032993 0.052227 -1.070452 -0.34864
10660 8.0634276 17.44232715 -0.13621185 0.6873100000000001 -0.7773359999999999 0.12437
10680 10.650805290000001 19.52704044 -0.621954 0.074558 -0.077714 0.188627
10700 4.928651909999999 8.22344832 -2.44022769 -0.916001 -0.243516 -0.112908
10720 1.3787856900000002 3.67920126 -1.15589268 -1.18372 -0.804638 -0.216609
10740 1.116378 2.4081882300000004 -0.76386546 -0.631289 -0.949877 -0.072627
10760 2.7375099300000003 3.5028665100000005 0.39548034000000004 0.067726 -0.7091529999999999 0.127432
10780 3.1609782 6.39560007 3.3257862 0.098296 -0.247211 0.197556
10800 4.1932256400000005 8.42956623 4.28663646 -0.309237 0.019255 -0.018208
10820 5.30512047 9.04105296 3.7194615 -0.34220900000000004 -0.11528800000000003 -0.17636300000000002
10840 7.02594162 8.34829038 2.5833261600000004 0.016586 -0.359109 -0.252593
10860 6.42958191 9.32635719 -1.3232512800000003 0.22933 -0.517442 -0.269063
10880 7.62783417 11.45358702 -8.78388381 0.140507 -0.5332899999999999 -0.224798
10900 5.6854737900000005 8.94914307 -2.6349660000000004 -0.058512 -0.386805 -0.18792
10920 3.5711244900000003 7.891438679999999 2.2966779600000002 -0.083953 -0.26986 -0.107063
10940 2.96982054 8.71607709 4.7632455 0.15723099999999998 0.049677 -0.03849
10960 2.82866445 8.40936744 3.71213343 0.470095 0.267394 0.122582
10980 3.6565990200000003 6.421949730000001 1.08928278 0.6101949999999999 0.430603 0.212014
11000 5.4893817 7.50374748 -1.26755991 0.705493 0.371273 0.314236
11020 6.458766659999999 8.36221077 -2.62479303 1.03006 0.202932 0.572024
11040 5.35092336 7.1147025 -1.82320812 1.970824 0.700361 1.367374
11060 3.79536147 6.52118769 0.01032993 2.450124 1.839731 2.933139
11080 3.5298145800000005 6.40458603 1.04393115 1.909934 1.44854 4.5236540000000005
11100 4.872371940000001 8.099803080000001 0.32467176000000003 0.908222 -0.273386 4.436611
11120 4.97670129 8.9597673 -0.45221157000000006 -1.108572 -0.5148010000000001 2.35796
11140 3.7351869300000002 8.25338844 -0.44427528000000005 -1.6879380000000002 0.28841700000000003 1.263297
11160 3.5016696900000004 8.29589517 0.29668383 -1.135382 0.338514 1.575809
11180 3.72306177 7.68621348 0.64890207 -0.8665649999999999 -0.688852 1.984927
11200 4.71309678 6.93972153 0.0782838 -0.57213 -1.253072 1.902249
11220 5.772743550000001 6.842573100000001 -0.42301701 -0.686407 -1.355184 0.632534
11240 5.404515389999999 6.43886217 -0.46478799 -1.135008 -1.550801 -0.407592
11260 4.06913895 5.58189 -0.05194395 -1.288685 -1.533549 -0.858409
11280 3.1886718300000005 5.250478770000001 0.29024847 -0.971952 -1.197586 -0.966654
11300 2.6756873100000003 5.692664520000001 0.5536960200000001 -0.470552 -0.20882 -0.916349
11320 2.77432686 6.502332870000001 0.53588106 -0.254041 0.018484 -0.671573
11340 3.45675951 5.59296549 -0.05463189 -0.39671 -0.231046 -0.7502300000000001
11360 3.6639270900000005 3.9531258900000004 -0.9586037700000001 -0.455391 0.342614 -1.366671
11380 5.252274 5.13387711 -2.38663566 -0.35588800000000004 1.716709 -1.957395
11400 8.40980889 8.38541142 -3.89669877 -0.232898 2.64449 -2.045319
11420 10.16371917 11.533960350000001 -4.33963008 0.052294000000000014 1.602436 -1.9725580000000005
11440 10.65050118 15.613880490000003 -4.506076350000002 0.30598800000000004 0.517662 -1.579494
11460 12.50379657 16.94445984 -1.61125326 0.764081 0.118143 -0.6357470000000001
11480 12.45081276 16.496299800000003 -0.40595742000000007 1.001526 0.93387 0.291014
11500 10.513092509999998 13.21961265 -0.45520362000000003 0.4810100000000001 1.536209 0.627369
11520 10.66262634 8.292755970000002 -1.70869599 -0.6442869999999999 0.788215 0.047901
11540 11.301051330000002 7.02938493 -2.68810677 -1.573541 -0.150614 -0.663482
11560 10.712019690000002 7.908203970000001 -4.68855216 -1.920242 -0.025239 -0.547492
11580 6.79347405 7.988587110000001 -4.46925942 -1.407432 0.463682 -0.449464
11600 3.4271235 7.117694550000001 -2.8657953000000003 0.358513 1.016916 0.061022
11620 1.3733901900000003 5.84415054 -1.20334365 0.381183 1.65675 0.406464
11640 0.10044459 4.44171294 -0.23935419000000002 -0.568601 1.04115 -0.39948
11660 -0.34442910000000004 3.83801535 -0.6225524100000001 -0.746264 -0.914569 -0.80948
11680 1.0795512600000001 4.82147766 -0.13711437 -0.194434 -1.557626 -0.315556
11700 1.90928106 5.16186504 0.35281665 1.019676 -0.266692 0.27452
11720 2.09489607 5.17698225 0.11121597 1.400559 -0.250927 0.530329
11740 2.3105983500000002 5.60060748 -0.6632737200000001 0.805016 -1.1165200000000002 0.660806
11760 2.72403099 6.4813689000000005 -2.13022188 -0.727071 -1.199293 0.5775710000000001
11780 5.626653030000001 7.896530070000001 -0.6297431400000001 -2.273128 -0.257833 0.114776
11800 7.74848736 7.24343913 -0.53603802 -2.722491 1.482503 -0.479184
11820 9.55463589 6.13589013 -1.6631874 -1.730936 0.6118560000000001 -0.7264470000000001
11840 9.62168724 3.96720324 -3.0487125600000002 0.063761 -1.04733 -0.280223
11860 8.35757064 2.9562042600000003 -3.68099649 1.36576 -0.952826 -0.266977
11880 6.975194490000001 2.0977409700000003 -2.71325961 1.040693 0.29451700000000003 -0.760091
11900 4.86264042 3.31425945 -0.88600977 0.08604500000000001 1.132709 -0.686649
11920 3.4643916900000002 5.557796639999999 0.14130323999999997 -0.27957 0.70277 -0.478212
11940 4.5668493 8.299044180000001 -1.35333855 -0.115821 -0.056582000000000014 -0.40132
11960 6.78957948 11.52304182 0.45085779000000004 0.204664 0.315091 -0.119683
11980 6.808895370000001 15.684983370000001 -1.09811178 0.7007359999999999 0.92426 0.025075
12000 7.212449340000001 16.86572478 -2.2589487 1.165584 0.560671 -0.028896
12020 8.355029850000001 14.850613440000002 4.67627985 0.927583 -0.025095 -0.122743
12040 14.120435520000001 18.94729887 2.59844337 0.4613640000000001 -0.02771 -0.13027
12060 12.175534350000001 9.61180857 -0.84528846 0.279058 -0.088388 0.017018000000000002
12080 8.66382903 6.29531244 -2.90321064 0.27052600000000004 -0.051112 0.292511
12100 8.5404879 6.98806521 -2.6095188600000006 0.313181 0.07285900000000001 0.421905
12120 6.13529172 9.55538145 1.3239968400000002 0.46772 0.304431 0.452598
12140 3.4687375200000004 9.93214431 4.336932330000001 0.89097 0.278395 0.735462
12160 2.6438048100000007 10.518772499999999 3.90433095 1.544979 0.160806 1.335181
12180 1.40378157 6.4870587 -0.37601730000000005 1.707073 0.5085149999999999 2.417976
12200 3.89115612 5.8823212499999995 -1.3162175100000002 1.3920860000000002 0.572416 3.492462
12220 5.19150105 6.9903117 -1.3455494099999998 0.867823 0.34055 3.58951
12240 3.3153091199999998 6.72356799 -0.40925358 0.07456499999999999 0.492923 2.670444
12260 3.06532089 6.6837492 0.8169964200000002 -0.098879 0.555037 1.674638
12280 4.35549285 5.179375889999999 1.31172453 0.098436 -0.067341 1.301868
12300 5.78037573 5.23940328 2.26822896 -0.162384 -0.497539 1.218345
12320 6.324644340000001 5.87123595 0.40325967 -0.397411 -0.473876 0.833181
12340 5.0983943400000005 5.11860294 -1.62068067 -0.407996 -0.425286 0.14724600000000002
12360 4.5432072 5.00619015 -1.26487197 -0.515177 -0.791616 -0.5890380000000001
12380 4.6169980200000005 5.0269971600000005 -0.36269532000000004 -0.690754 -0.81734 -1.195913
12400 5.272639560000001 4.39201548 -0.21479976 -0.585883 -0.76342 -1.4505549999999998
12420 5.575601790000001 3.7190200500000006 0.26973576 -0.236804 -0.371033 -1.577874
12440 5.249429100000001 3.7986478200000002 0.67000338 -0.152563 0.15880999999999998 -1.7510169999999998
12460 5.794296120000001 5.113217250000001 0.03951468 -0.316449 0.243352 -2.237243
12480 6.30039402 5.62964508 -1.1934649800000001 -0.7710239999999999 0.5128560000000001 -2.9051970000000003
12500 5.46842754 5.641623090000001 -2.37376494 -1.204899 0.6185430000000001 -3.117735
12520 7.560478710000001 7.7327717400000004 -3.0159275400000007 -0.822937 -0.4197770000000001 -2.731313
12540 10.53853965 10.774146420000001 -2.87163225 0.690818 -0.625052 -1.4621110000000002
12560 11.637848250000001 13.107042900000001 -2.5939602 0.447001 0.5883430000000001 0.599504
12580 11.929587840000002 15.131434500000001 -1.14467004 -0.827094 1.103857 0.924298
12600 11.45029086 14.81948631 0.008230590000000001 -0.538007 -0.061728 0.717371
12620 8.02750338 12.36144366 -0.9324110700000001 -0.773776 -0.262379 0.750164
12640 7.46019108 9.867633750000001 -2.4815376000000002 -2.071802 1.994293 -0.890833
12660 9.71390124 7.18475571 -2.2990716000000004 -1.621826 1.527569 -1.779057
12680 11.412571410000002 6.241867560000001 -2.18889549 0.453472 -1.950271 -1.252699
12700 10.13646699 5.71871007 -3.0967619399999995 1.458797 -1.954622 0.8256110000000001
12720 7.5576338100000005 6.25743603 -2.28829041 1.62051 0.246291 1.470195
12740 4.82880573 5.8736394 -1.20469743 0.440583 -0.574699 1.343364
12760 2.17078623 4.6828623600000014 -0.97941078 -1.611542 -2.49235 0.232287
12780 0.33006726 3.6675273600000002 -0.92267955 -2.293544 -0.332597 -0.882991
12800 -0.44412813 3.1998944700000003 -0.8243343 -2.208083 2.491349 -0.931946
12820 -0.55280331 3.9944456100000005 -0.18980388 -1.552705 0.24747600000000006 -0.866809
12840 0.19699461000000001 4.24726893 0.89574129 -0.314744 -2.021488 -0.360667
12860 1.71139374 3.7772424 0.50370426 1.068823 -1.545826 0.166475
12880 4.462225650000001 3.6301022100000004 -1.71587691 0.405196 0.5581689999999999 -0.341852
12900 9.36078048 6.2863264800000005 -5.833673460000001 -0.673646 1.426956 -0.618625
12920 10.93221495 8.18931933 -4.68016461 -0.8401270000000001 0.157064 -0.453655
12940 5.749542900000001 6.0968169 -3.7827850499999998 -0.063735 -0.8564940000000001 -0.20765100000000006
12960 7.55493606 2.8201395600000003 -5.69400849 0.5900029999999999 -1.054008 0.133658
12980 6.913371870000001 9.031468590000001 1.45213506 1.212642 -0.070251 0.266002
13000 5.0322357 12.768597900000001 5.71556106 1.340033 0.8979520000000001 0.188739
13020 6.87295467 19.126625670000003 2.2760181 0.720288 0.477086 0.213791
13040 10.20847239 25.62595668 2.6750889 0.136901 0.000998 0.164393
13060 12.930561 15.382756890000003 -0.7714976400000001 0.344379 0.023114 0.314297
13080 11.46196476 8.07674958 -2.8307637900000002 0.8462360000000001 -0.09793 0.578603
13100 12.96498429 8.38331208 -6.555915090000001 1.035683 -0.29188200000000003 0.964735
13120 9.18984123 8.711584109999999 2.75576634 1.423403 -0.024076 1.853724
13140 4.25640204 9.16200045 7.7986360800000005 1.8517740000000005 0.5535 3.029952
13160 2.11599738 8.68658823 5.6046492 2.349735 0.637684 3.656096
13180 0.46613196000000007 6.799163850000001 -1.1758069800000002 1.891286 0.064273 2.529859
13200 2.6349660000000004 3.3431499 -1.86377247 0.350136 0.336903 1.490047
13220 5.9938315200000005 4.32105975 -2.36044296 -0.103504 0.736057 1.697875
13240 7.104529530000001 8.45681841 -2.26808181 0.185611 0.835837 1.802316
13260 3.30228144 6.418653570000001 -0.19175607 -0.109088 0.717598 1.257752
13280 1.33836849 6.365365649999999 2.1664404000000004 -0.41095 0.299501 0.5821310000000001
13300 2.14743843 4.617743580000001 3.31216011 -0.5704640000000001 -0.372048 0.028539
13320 3.8136178800000002 3.58265124 1.76857623 -0.8274290000000001 -1.040511 -0.679563
13340 5.210218530000001 3.91196313 0.14160735 -1.17054 -1.3764459999999998 -1.35344
13360 4.25520522 3.34090341 -0.8791231500000001 -1.232737 -1.1572129999999998 -1.77824
13380 3.5188862400000005 3.5908818300000003 -1.1216165400000002 -1.006364 -0.509881 -1.885379
13400 3.4465865400000006 4.11733548 -0.5599842300000001 -0.6921109999999999 0.263758 -1.953609
13420 3.8492478 4.18110048 -0.8659483200000001 -0.5602229999999999 0.410199 -2.192157
13440 4.30744347 5.150936700000001 -0.7963463700000001 -0.777903 -0.04626 -2.405669
13460 5.75014131 6.26073219 -0.34967745000000006 -1.0879379999999998 -0.8857389999999999 -2.392872
13480 8.30832444 7.184608560000001 -1.65794886 -1.18749 -1.562174 -2.04446
13500 10.857374459999999 9.274864500000001 -2.4381283500000004 -0.823216 -0.5773510000000001 -1.156554
13520 12.271633110000002 13.01573142 -3.0229613100000003 -0.391344 1.418388 -0.053689
13540 10.47447054 16.37055522 -2.04429609 -0.007984999999999999 3.140734 -0.068174
13560 8.89000839 15.156283230000001 -1.5751720800000002 1.000565 2.551018 -0.25479
13580 10.41159825 13.972245660000002 -2.16599895 1.337142 1.352457 0.815183
13600 11.468998529999999 10.64062251 -2.12991777 -0.901706 1.160085 0.248588
13620 10.79644455 7.841289960000001 -2.6985838500000003 -2.144515 0.710178 -0.713438
13640 10.99912896 5.89354389 -2.8083087000000004 -1.219314 0.019838 -0.972079
13660 10.453065120000002 5.44612941 -2.85831027 0.529234 -0.8311649999999999 -0.129834
13680 8.86995675 5.24195388 -2.96009883 1.131239 -2.025544 0.996466
13700 6.475531950000001 4.979693340000001 -2.0600117100000004 0.645307 0.19869 1.432466
13720 3.7791945900000004 4.724770680000001 -0.82373589 0.156532 0.54264 1.091053
13740 1.4299742700000002 4.314928500000001 -0.5415708599999999 -0.274674 -1.005825 0.288858
13760 -0.28800198 3.9601694700000003 -1.5356574000000003 -0.910774 -0.37933 0.013352
13780 -0.7661021400000001 3.72290481 -1.71288486 -1.550623 1.924324 -0.362606
13800 -0.24892875000000003 3.36769452 -1.1891289600000001 -1.48277 2.499287 -0.882024
13820 1.1485646100000002 3.8628640800000005 -0.92013876 -0.739344 -0.057166 -0.779552
13840 3.4247298600000002 4.952598120000001 -0.9443890800000001 0.116783 -1.527157 -0.213008
13860 5.705535240000001 6.95079702 -1.00980216 1.663971 -0.645463 0.398078
13880 7.171884990000001 8.438100930000001 -0.08741691000000001 2.027653 1.511213 0.209848
13900 6.4391564699999995 7.66884978 0.46388547 0.821367 0.8207709999999999 -0.572154
13920 4.36147695 4.796471970000001 -2.47944807 -0.215327 -0.2358 -0.518221
13940 7.459288560000001 5.52874923 -5.219498790000001 -0.358372 -0.480251 -0.268943
13960 7.558085070000001 11.878693560000002 -2.9298546 0.054674 -0.5334220000000001 -0.117507
13980 6.36716088 13.962965400000002 -1.55347236 0.6695939999999999 -0.320885 0.011498
14000 6.83882568 16.21667556 0.26719497000000003 1.029404 0.159583 -0.041084
14020 6.143826420000001 14.05188324 2.4789968100000004 0.711238 -0.092992 -0.005595
14040 9.401050530000001 14.31428112 3.7226105100000004 0.373206 -0.393833 0.129162
14060 16.035102270000003 13.77405423 0.00373761 0.333262 -0.258304 0.370127
14080 14.74494012 9.354943530000002 -2.71819404 0.31300900000000004 -0.141398 0.722349
14100 11.1116889 7.37426529 -3.24569736 0.809411 0.218947 1.020184
14120 4.919665950000001 6.57342594 -0.28590264 2.319343 0.8622299999999999 1.611019
14140 1.47533571 7.768990260000001 3.78532584 2.692647 0.90891 2.399778
14160 0.32766381 7.9077527100000005 5.98514967 1.593494 0.997486 2.779752
14180 -0.10956789 8.54812008 2.59260642 0.777278 0.65461 2.9187
14200 1.1951130600000002 7.06605471 1.52503317 0.102894 -0.266953 2.7293
14220 6.02916714 5.9739270300000005 -0.07739109000000001 -0.2224 0.024035 3.235128
14240 9.75087513 6.810092190000001 -2.48468661 0.323367 0.473263 2.842054
14260 8.03079954 7.67977812 -3.7312923600000003 -0.27115500000000003 0.4999020000000001 1.492976
14280 4.2929246700000006 6.761591550000001 -1.54119024 -0.977242 -0.488342 0.691349
14300 3.3063231600000003 5.441783580000001 1.19900763 -0.978731 -1.111741 -0.31840100000000005
14320 3.8037392100000003 3.89086182 2.13830532 -1.046363 -1.94912 -1.305906
14340 4.81683753 3.24614862 1.3127742 -1.122946 -1.7038799999999998 -1.828047
14360 5.89428945 3.73667805 -0.09355797 -0.832145 -0.6163029999999999 -2.062418
14380 5.2834109400000004 3.4172448300000005 -1.17146115 -0.448248 0.593212 -2.235407
14400 5.08327713 3.6095895000000002 -1.5621542100000003 -0.413883 0.528571 -2.350452
14420 6.286630590000001 4.574785590000001 -1.4383618200000001 -0.718449 0.073058 -2.458818
14440 6.593791500000001 4.900811129999999 -0.86549706 -1.19544 0.27505300000000005 -2.476295
14460 5.901176070000001 5.314096620000001 0.01241946 -1.450264 0.124469 -2.4266080000000003
14480 4.98373506 5.8627110600000005 -0.14744430000000003 -0.818246 -0.981093 -1.958236
14500 6.68764377 8.08798203 -3.1781947500000003 -0.400095 -0.215175 -0.454377
14520 8.72146278 12.829518000000002 -3.12804603 -0.215896 1.416411 0.554289
14540 8.78313825 13.945297590000001 -0.32751666 0.426922 2.287331 0.116487
14560 8.836573320000001 13.33037736 -1.2325382100000002 1.094656 1.752374 -0.148423
14580 11.08295541 12.48867936 0.36075294 1.1423370000000002 1.241899 0.128165
14600 14.26637889 13.18039227 -0.59935176 0.776406 1.253899 0.374489
14620 13.850248500000001 12.489277770000001 -2.40774678 -0.670426 2.423244 0.378908
14640 12.575801970000002 6.772961340000001 -3.8706532200000003 -2.143399 2.112319 -0.507992
14660 12.025539450000002 4.26912561 -3.05649189 -1.801721 -0.214641 -1.236492
14680 10.76950629 4.539606930000001 -2.8054638 -0.699697 -2.409257 -0.557276
14700 8.14665564 4.856352210000001 -2.24473401 0.401833 -3.259398 0.629757
14720 4.34815497 4.303254600000002 -0.9530709300000001 1.301581 0.06837 1.7512740000000002
14740 1.1479662000000002 3.6456706800000003 -1.1499085800000002 1.328308 2.3176240000000004 1.613982
14760 -0.5590915200000001 3.5586952199999997 -1.8601820100000002 0.29472800000000005 -0.7579060000000001 0.134421
14780 -0.98091171 3.9585213900000005 -1.6696325699999999 -1.129707 -2.303725 -0.20256
14800 -0.5363323200000001 3.6395296200000002 -0.27168795 -2.025412 -1.163443 -0.600179
14820 0.42721569 3.3656049900000005 0.25566822 -2.32818 1.786937 -1.028022
14840 1.5549634799999998 4.19233293 -1.08839007 -1.507897 2.1423520000000003 -1.109274
14860 6.40203543 7.131016530000001 -2.37885633 -0.198211 -0.528547 -0.583956
14880 9.47634228 9.297918000000001 -0.43319979 0.740193 -1.578771 -0.100697
14900 7.985889360000001 8.2683585 -0.36119439 1.530054 -0.905548 0.021462
14920 6.00671205 4.000429710000001 -1.27310256 1.464585 0.716796 -0.17015
14940 6.31536408 1.21532166 -1.7621310600000002 0.312238 0.317629 -0.31442
14960 5.87931939 3.3591598200000004 -1.6060147200000001 -0.839258 -0.408304 -0.261712
14980 6.333326189999999 7.503600330000001 -3.7529920800000003 -1.022986 -0.561602 -0.12820299999999998
15000 8.91141381 14.58836271 -4.703218110000002 -0.21458 -0.099001 0.168475
15020 7.575301620000001 16.213830660000003 -1.6509150900000003 1.1234540000000002 0.31654 0.319363
15040 5.10274017 12.47356215 0.61716672 1.7927099999999998 0.543566 0.241493
15060 5.2356656699999995 8.01164061 2.35505727 1.138562 0.70475 0.193989
15080 9.24822054 9.62034327 3.66677199 -0.085586 -0.176991 0.112861
15100 16.31936664 12.32656911 1.88757153 -0.559521 -1.064241 0.226055
15120 19.60981722 11.769125670000001 -3.8914602300000003 0.260676 -1.115892 0.709345
15140 13.69502487 8.462056950000001 -5.482200780000001 2.281181 0.206257 1.850875
15160 5.75373177 8.800649100000001 -0.98719992 3.1449130000000003 1.597016 3.353842
15180 1.9682587800000002 8.38571553 3.5687308500000006 2.039565 1.374924 3.3752470000000003
15200 0.74230308 7.05003498 8.3756799 0.727907 -0.246163 2.317032
15220 1.1814967800000005 7.602985439999999 4.53451554 -0.282215 -0.6573100000000001 1.849031
15240 0.92806524 7.67244024 0.66671703 0.562372 0.66384 1.597933
15260 4.1415858000000005 6.94541133 0.7881157799999999 0.992959 0.7719739999999999 1.090192
15280 7.04719989 6.32899017 -0.95247252 0.300304 0.048544 0.652583
15300 7.978855590000001 5.405260950000001 -2.28275757 -0.4686520000000001 -0.12796300000000002 0.172079
15320 5.41049949 5.263359300000001 -2.3125407300000003 -0.959723 -0.721859 -0.598642
15340 4.21687755 5.22174528 0.53588106 -1.486386 -1.663875 -1.394802
15360 4.9769955900000005 4.2011619300000005 2.1900923100000007 -1.7697189999999998 -1.586416 -2.137159
15380 4.350852720000001 3.01772277 2.05088841 -1.331616 -0.796259 -2.447032
15400 3.46888467 1.95014952 0.09490194 -0.714889 -0.404928 -2.54257
15420 3.85283826 3.8953449900000003 -0.74650176 -0.359406 -0.293618 -2.71435
15440 5.76900594 5.90597316 -1.52877078 -0.5719989999999999 -0.294193 -2.652809
15460 6.549626879999999 4.76594325 -2.77343415 -1.248395 0.047688 -2.315072
15480 5.869891979999999 3.19659831 -1.5582596400000002 -1.828549 0.305721 -1.87187
15500 6.05940156 3.39928272 -0.96848244 -1.594315 -0.16075799999999998 -1.03856
15520 7.06126743 4.50293715 -1.40347746 -0.407002 -0.07544 0.037846
15540 10.075694040000002 7.61451219 -1.7488090800000002 1.291726 1.043539 1.117568
15560 11.820167099999999 13.51419714 -2.35849077 2.170665 2.308635 1.001377
15580 11.456579070000002 16.6124502 -4.09024026 1.584197 2.16092 -0.176506
15600 9.85266369 15.847240770000003 -2.4617802600000003 0.101087 0.232395 -0.660821
15620 12.14499582 15.87913308 0.60234381 -0.795269 -0.834433 -0.029055
15640 14.02613199 15.23741193 -0.18576216000000004 -2.113343 -0.244598 0.661736
15660 14.015203650000002 9.02204118 -2.04759225 -3.260128 0.73273 -0.058962
15680 14.17058424 6.0713697600000005 -3.0819390300000005 -2.713808 1.407056 -1.06548
15700 12.80811258 4.99855797 -4.822223220000001 0.8365799999999999 1.378399 -1.50532
15720 9.42559515 4.3565425200000005 -4.9274550900000005 2.587182 -0.276487 -0.498594
15740 5.779934280000001 4.50323145 -2.02304763 2.066809 -0.981258 0.639536
15760 2.3444232300000003 3.77006148 0.01122264 0.425948 -0.136402 1.239083
15780 -0.10223982000000001 2.4804879300000002 -0.75428109 -0.488108 0.10998 1.422526
15800 -1.55811249 1.32414399 -1.7215667100000003 -0.919078 -0.568579 0.7260409999999999
15820 -1.4027319 1.12132224 -0.66911067 -1.348378 -0.39209 -0.677623
15840 -0.7279314299999999 1.7649759600000003 0.56821482 -1.808355 0.969988 -0.709287
15860 -0.08876088000000001 2.25356301 0.6631167600000001 -1.316325 0.926013 -0.794456
15880 1.9440084600000003 3.50032572 -0.5884234200000001 -0.24137 -0.711321 -0.659867
15900 4.65591429 6.45652017 -0.24399432 0.371636 -1.0213290000000002 -0.389201
15920 6.71742693 8.91666216 0.10822392 -0.008805 0.471283 -0.8979719999999999
15940 7.9117944300000005 9.25704954 -0.34593003000000005 -0.614025 0.552588 -0.992034
15960 8.99868357 7.06007061 -3.32203878 -0.440265 -0.205263 -0.766591
15980 6.83628489 3.36589929 -5.877082710000001 -0.164323 -0.464278 -0.701306
16000 3.6155834100000006 1.9422132300000001 -6.452478450000001 -0.255693 -0.026594 -0.586069
16020 6.69572721 7.315287570000001 -7.10168463 -0.267953 0.073666 -0.60658
16040 5.83501743 9.747578970000001 2.90485872 0.032262 -0.217499 -0.514379
16060 6.6623437800000005 13.45267863 5.4705268799999995 0.207832 -0.451837 -0.40603
16080 8.78253984 22.26949461 5.826031469999999 0.031486 -0.5818949999999999 -0.22977
16100 7.045993260000001 21.354594390000003 4.810843620000002 -0.29711 -0.730241 -0.143213
16120 7.242536610000001 17.219443950000002 1.76333769 -0.353078 -1.014723 -0.08128300000000001
16140 10.39573548 9.70491528 -2.7617602500000005 -0.28173200000000004 -0.973713 -0.009266
16160 9.95055768 6.300550980000001 -1.41186501 -0.34741700000000003 -0.912596 -0.051464
16180 10.82308851 6.00775191 -1.84281831 -0.281787 -1.251636 -0.037752
16200 10.59690915 6.56055522 0.13022775 0.789166 -1.443116 0.297918
16220 6.579272700000001 6.223307040000001 2.47944807 1.946607 -1.015209 1.241217
16240 4.23619344 7.78919886 4.0300657200000005 2.00668 -0.7941090000000001 2.1066130000000003
16260 2.5872207300000003 6.846310710000001 1.9580760000000001 1.742949 -0.410358 2.537977
16280 2.4161245200000003 5.328321120000001 -0.76865274 1.539192 0.34006 2.33263
16300 5.84474895 6.655614120000001 -0.43365105000000004 0.6701159999999999 0.176673 1.5886280000000002
16320 5.44522689 6.546340530000001 -0.84528846 -0.525652 1.20075 2.803145
16340 3.4796658600000003 6.58899441 -0.46418958 -0.096618 1.07188 4.55285
16360 4.23275013 6.37883478 0.69245847 0.182355 -1.176133 3.849448
16380 6.03080541 5.822293860000001 1.21996179 -0.447167 -1.948966 2.127272
16400 6.483762540000001 4.99631148 1.72710936 -1.768675 -2.096209 0.935708
16420 5.780081429999999 4.99481055 0.82299033 -2.423566 -2.190544 0.320232
16440 5.40196479 5.278770810000001 -0.2806641000000001 -2.344317 -1.6976220000000002 -0.205411
16460 5.87049039 4.61235789 -1.11757482 -2.1646970000000003 -1.09569 -0.639694
16480 6.98327793 3.74281911 -1.3377700800000003 -2.01339 -0.663933 -1.116686
16500 7.26394203 3.7242585900000003 -0.7607164500000001 -1.936429 -0.189177 -1.626299
16520 6.660999810000001 3.83861376 -0.52076385 -2.0426580000000003 0.5505770000000001 -2.179191
16540 6.5250822600000005 5.11995672 0.36748260000000005 -2.195626 1.053119 -2.7780400000000003
16560 5.76870183 6.6244771799999995 1.06773021 -1.1964629999999998 -0.642454 -2.931258
16580 4.53855726 7.29208692 0.00194238 1.166292 -3.636625 -1.066097
16600 5.23895202 8.48899521 -1.72860048 0.882511 0.490613 3.079878
16620 7.555387320000001 10.84405248 -1.0955709900000001 -0.4854270000000001 1.202886 3.831053
16640 7.00528176 12.791798550000001 1.17909333 -0.419036 -2.003043 1.507969
16660 7.010226 14.555881800000002 2.9210256000000006 0.203862 -2.638366 -0.5228970000000001
16680 7.584729030000001 18.395250930000003 2.15686584 -2.238367 0.6852590000000001 -2.6560900000000003
16700 9.70716177 23.643630360000003 0.46912401000000004 -2.716864 2.8115 -3.027488
16720 12.323125800000001 14.76814077 1.58610042 -1.629606 1.327849 -1.910247
16740 12.461584140000001 8.696918160000001 -1.9547896500000002 -1.314209 -1.041518 -1.3367129999999998
16760 12.578195610000002 7.32246849 -2.84827464 -1.462955 -3.684115 -1.029923
16780 12.540319199999999 6.121518480000001 -4.35355047 -1.065438 -5.2233550000000015 -0.330829
16800 9.6710904 7.74250326 -5.31889371 0.028071 -3.197092 0.291645
16820 6.22794717 5.96374425 -2.19967668 -0.434353 0.481592 -0.443759
16840 3.2850648900000006 4.10312079 0.32766381 -1.316499 0.843725 -1.793139
16860 1.2424168800000002 3.09885147 1.01563911 -1.961237 -1.363753 -2.508386
16880 0.01302768 2.4962133600000005 1.51365357 -1.771137 -2.746917 -2.032064
16900 -0.26824464000000003 2.01032406 2.7045777600000003 -1.28571 -2.225534 -1.503776
16920 0.16076628 2.4340866300000004 3.87319401 -1.475094 -1.48383 -0.875798
16940 1.5441921 3.5832496500000004 4.20431094 -1.919587 -1.226229 -0.708318
16960 4.07662398 5.08612203 0.56402595 -1.7432040000000002 -1.709071 -0.7929930000000001
16980 10.644212970000002 10.454860350000002 -0.76236453 -1.344928 -2.113126 -0.792898
17000 18.94775013 13.405521960000002 -1.24151436 -1.261822 -1.384931 -0.75159
17020 17.701585830000003 7.87452624 -5.43115935 -1.164156 -0.597816 -0.805327
17040 13.25059263 1.7654272199999999 -6.5051679600000005 -0.902206 -0.8559389999999999 -0.950582
17060 12.02613786 8.081997930000002 -9.51541551 -0.732628 -0.902202 -0.983521
17080 5.67530082 16.90898688 7.7667535800000005 -0.568792 -0.260435 -0.710802
17100 5.50540143 15.69516615 9.72856719 -0.17640899999999998 0.222764 -0.409578
17120 2.0011909500000002 9.322168320000001 5.96434266 0.30838000000000004 0.068781 -0.417745
17140 0.9216298800000001 3.45915315 3.0728059200000004 0.54689 -0.276125 -0.418842
17160 1.27489779 0.57674952 0.77329287 0.413574 -0.748503 -0.188432
17180 3.6768076200000004 1.72875744 -0.5926221000000002 0.203622 -1.3104209999999998 0.38873
17200 7.01426772 6.12466749 0.0113796 0.102019 -1.6664599999999998 0.801878
17220 7.356156030000001 11.20255893 1.4994290700000001 0.239206 -1.946047 1.336237
17240 5.983207290000001 12.11445729 1.83743262 1.035697 -1.619265 1.77508
17260 6.55426701 7.365279330000001 1.05426108 2.320724 -1.090773 1.963908
17280 5.0925573900000005 6.11463186 2.4146334 2.932319 -0.8295290000000001 2.16974
17300 5.495218649999999 7.70881572 3.44329038 2.037693 -0.576755 2.070231
17320 4.116138660000001 7.84279089 1.8568858500000003 0.279738 -0.33954 1.283187
17340 3.31351389 8.50771269 1.90493523 -0.688393 -0.6080979999999999 1.350476
17360 2.4180669 9.52379325 1.5018227100000001 -0.7805880000000001 -1.124664 1.40711
17380 1.54807686 9.05077467 1.19541717 -0.6471020000000001 -1.316731 1.902875
17400 3.29090184 8.426878290000001 2.22586938 -0.238227 -1.334353 3.023114
17420 3.6063031500000005 8.311316490000001 2.78855136 -0.197855 -1.747049 3.3625510000000003
17440 2.76669468 9.04464342 1.59972651 -0.8188770000000001 -2.486507 2.8752560000000003
17460 2.92461606 9.862689510000001 1.4528806200000002 -1.57429 -2.954067 2.175166
17480 4.00566825 9.647889750000001 2.17168875 -1.923622 -2.723353 1.792144
17500 5.63608044 8.91680931 1.91556927 -1.860884 -2.137458 1.473501
17520 5.9041681200000005 8.54752167 0.9198346500000001 -1.728362 -1.6945419999999998 1.152324
17540 4.205350800000001 9.95639463 -0.29742939 -1.765528 -1.330659 0.7627659999999999
17560 3.59492355 10.92787893 -0.5951628900000002 -2.066957 -1.133098 0.370506
17580 6.45907077 9.01455615 0.17378415000000003 -2.136205 -1.278235 -0.036784
17600 8.15489604 7.032828240000001 0.94379067 -2.075119 -0.920972 -0.45449
17620 9.16379568 6.153557940000001 1.02372255 -1.840175 -0.706418 -0.766113
17640 8.98476318 6.233941080000001 2.021841 -1.470566 -0.790044 -0.9525
17660 8.729693370000001 6.427188270000001 1.9755868500000002 -1.228304 -1.097337 -1.039076
17680 5.210659980000001 9.118591200000001 0.06586434000000001 -1.173773 -1.346538 -0.838618
17700 2.44831113 13.62541311 -1.84296546 -1.448421 -1.7020529999999998 -0.140396
17720 1.9526903100000002 15.693361110000001 0.8273263500000001 -1.43429 -1.597782 0.144785
17740 0.97851807 10.91140794 1.9124202600000002 -1.115689 -1.18344 0.413535
17760 3.07325718 8.32134231 2.02004577 -0.790824 -0.8637799999999999 0.379075
17780 5.598360990000001 7.51886469 2.0989377900000004 -1.104501 -0.724989 0.042352
17800 8.136482670000001 7.16140791 0.9232779600000001 -1.822345 -0.445747 -0.435174
17820 8.46474489 7.587868230000001 -0.21479976 -2.393014 -0.445049 -1.179439
17840 8.93731221 8.471935620000002 -0.50684346 -2.324081 -0.3453 -1.940727
17860 9.668392650000001 8.54407836 -1.0927260900000004 -0.668469 -1.446481 -1.324206
17880 8.52073056 7.796988 -0.9307629900000001 -0.206098 -1.693548 -0.945714
17900 5.92557354 7.103028600000001 0.41404086 -0.462898 -1.252381 -1.290972
17920 4.30773777 6.114337560000001 0.7536826799999999 -1.174373 -1.517049 -1.353287
17940 4.213591200000001 6.05925441 0.6899176800000001 -1.6547900000000002 -0.986332 -0.989854
17960 4.74557769 6.575230980000001 0.77658903 -1.776458 -0.370675 -0.600524
17980 5.04031914 6.82700463 0.99153594 -1.579357 -0.070497 -0.713832
18000 5.25377493 6.745120560000001 1.3919507100000001 -1.052223 -1.43509 -0.910295
18020 4.76594325 6.402937950000001 0.6406714800000001 -0.447098 -1.501408 -0.302438
18040 4.096234170000001 6.271062120000001 -0.7161103800000002 -0.242916 -0.270366 -0.109241
18060 4.728812400000001 6.052210830000001 -1.99504989 -0.309141 -0.009307 -0.068377
18080 8.302781790000001 6.74018613 -3.3748852500000006 -0.618451 -0.626393 0.006097
18100 12.70273356 8.58315159 -3.73218507 -0.789813 -0.64135 -0.100835
18120 12.931463520000001 8.832531600000001 -1.7880294600000002 -0.881252 -0.226118 -0.231261
18140 9.30000753 5.38115778 -0.13816404 -1.019532 -0.296354 -0.395574
18160 6.96921039 3.84341085 0.6474011400000002 -0.9620000000000001 -0.647709 -0.4919310000000001
18180 6.255189540000001 4.446205920000001 -0.19564083 -0.672619 -0.73538 -0.396862
18200 6.24081789 6.264028350000001 0.70039476 -0.461117 -0.617052 -0.334647
18220 6.06329613 9.47604798 2.06809515 -0.348763 -0.733748 -0.286711
18240 7.138658520000001 13.82315328 2.97536319 -0.11236 -0.611892 -0.063026
18260 9.052128450000001 21.52613205 0.7964935200000001 0.241285 -0.644282 0.270635
18280 4.54215753 13.476330540000001 -2.7066672900000004 0.541184 -0.743686 0.626438
18300 2.36537739 6.86682342 -1.05665472 0.7084060000000001 -0.721065 0.951249
18320 2.01076551 3.5308544400000006 -0.33186249000000007 0.702652 -0.755262 1.249286
18340 2.37346083 2.8388472300000003 2.8307637900000002 0.5482319999999999 -0.426736 1.277697
18360 3.19750083 4.97670129 4.916379600000001 0.5290520000000001 0.014512 1.238541
18380 2.9240176500000006 8.19486198 5.05858536 1.277771 0.574984 1.620135
18400 2.09145276 10.75647861 3.00769695 2.043726 0.6446270000000001 2.187281
18420 1.8390708900000001 11.383082550000001 -2.45804265 1.518634 0.188151 2.244019
18440 4.09279086 9.612112680000001 0.56792052 0.611959 0.042921 2.053069
18460 5.33056761 8.31311172 2.48648184 0.417025 1.857207 1.659482
18480 5.2317711000000005 7.51212522 0.9316655100000001 0.512604 -0.433354 1.365051
18500 4.77222165 7.9974161100000005 0.77059512 -0.5675 0.424652 1.121398
18520 5.4308552400000005 8.020773720000001 0.5695686 -1.242897 1.093883 0.848767
18540 4.95379494 8.402775120000001 0.4047606000000001 -0.235925 0.539682 0.5734319999999999
18560 3.6048022200000003 8.583298740000002 0.94647861 0.13759000000000002 -0.441563 0.281401
18580 4.12976475 8.477017200000002 0.43394535 0.143543 -1.014816 0.043964
18600 5.488783290000001 8.78268699 -0.68272695 0.08781699999999999 -1.224923 -0.112117
18620 5.73741774 8.71652835 -1.56110454 0.22899 -1.190202 -0.392117
18640 5.970934980000001 8.49274263 -1.21996179 0.22501 -0.908984 -0.651015
18660 5.44792464 8.14201551 -0.04221243000000001 0.078986 -0.700504 -0.712123
18680 4.60532412 7.93754568 0.7469432100000001 -0.220016 -0.8610909999999999 -1.052632
18700 4.00327461 7.9766091 0.97312257 -0.734745 -1.044463 -1.368981
18720 3.7580834700000003 7.427857320000001 0.50085936 -1.076093 -0.706047 -1.520282
18740 4.4501004900000005 7.3824958800000005 0.08172711 -1.007709 -0.20986 -1.521509
18760 4.77970668 10.802438460000001 0.7650622800000001 -0.511101 0.026531 -1.394429
18780 4.84047963 11.781702090000001 0.56582118 -0.399571 0.10857 -0.962193
18800 5.55659982 10.67280912 -0.8232846300000001 -0.694581 0.029748 -0.442861
18820 5.707183320000001 10.37732211 -1.1268550800000001 -0.775036 0.295948 -0.077364
18840 4.83179778 9.66210444 -0.38335518 -0.542938 0.534388 0.032911
18860 4.7801579400000005 9.13311 -0.35985042 -0.302418 0.12698299999999998 0.474152
18880 5.751642240000001 9.60073308 1.0090467900000002 -1.401675 0.408242 0.355018
18900 5.53773519 9.182356200000001 -7.24343913 -2.056596 0.390898 -1.131158
18920 5.69654928 7.83965169 0.41628735 -1.275162 0.107112 -2.234151
18940 6.51654756 4.60472571 -3.7305468000000004 0.32609 -1.239878 -1.637991
18960 5.895044820000001 5.391938970000001 0.05074713 0.588971 -2.207691 0.397912
18980 5.131630620000001 4.68226395 -0.7339253400000001 0.033671 0.468863 1.531465
19000 5.41903419 5.248536389999999 -1.28312838 0.41455 0.6903520000000001 1.756031
19020 5.8451904 5.49641547 -1.44704367 0.090151 -1.303782 0.957291
19040 5.817653730000001 5.18341761 -1.2298404600000001 -1.02509 -1.560597 -0.184622
19060 5.44687497 5.25631572 -1.3578217199999998 -1.79003 0.157799 -0.613046
19080 4.65038145 5.23431189 -0.9231308100000001 -1.491266 2.418933 -0.494216
19100 3.87948222 4.16329533 -0.49038228 -0.465697 0.483353 -0.590326
19120 3.54103722 3.1590260100000003 -0.0013439700000000003 0.156997 -1.021927 -0.586184
19140 3.4473321 2.55742776 0.20297871000000003 1.0913469999999998 0.226158 -0.226607
19160 3.3307206300000005 4.50982377 -0.5104339200000001 1.244416 1.280496 0.244197
19180 3.10529664 8.03454696 -1.99071387 0.750203 0.29665 0.02302
19200 3.91196313 10.08363033 -2.26030248 0.071495 -0.91969 0.027315
19220 4.40473905 7.75447146 -2.2068576 -0.176654 -1.191851 0.370966
19240 5.716012320000001 4.85470413 -2.09279673 0.110361 -0.8851379999999999 0.675953
19260 6.86247759 4.2807995100000005 -2.4917203800000003 0.699531 0.158751 0.718255
19280 8.24111613 7.42351149 -4.82521527 1.023854 1.288099 0.6645939999999999
19300 8.21701296 13.496529330000001 -1.6898313600000001 1.42246 1.162321 0.870502
19320 4.622982120000001 15.092361270000001 1.06923114 2.826534 0.499259 1.632119
19340 3.4471849500000005 15.955170390000001 2.2489228800000003 2.814954 0.717597 3.249046
19360 2.7732870000000003 14.48088435 0.32138541 1.925407 1.502233 4.934958999999999
19380 8.0543043 15.960408930000002 5.093607060000001 1.545015 0.16511099999999998 3.718379
19400 14.66455698 15.37722405 0.3962259 0.189506 0.157946 2.15893
19420 12.411141120000002 7.77483702 -3.5055642600000003 -0.349518 0.368072 1.228747
19440 10.312203330000001 5.75253495 -4.4300390400000005 -0.271133 0.353393 1.102195
19460 6.8392769399999995 5.43534822 -0.10193571 -0.498303 0.164332 0.8936149999999999
19480 2.7387067500000004 5.08043223 2.14997922 -0.672875 -0.272902 0.364186
19500 0.30147111000000004 6.23378412 6.202352879999999 -0.918304 -0.8875799999999999 -0.48384
19520 0.0580752 8.840467890000001 4.76070471 -1.420186 -0.835741 -1.289647
19540 0.07079877000000001 7.8622539300000005 0.95666139 -1.313103 -0.40543 -1.899405
19560 5.259160620000001 6.19127739 0.5285529900000001 -0.7674479999999999 0.5072479999999999 -2.039905
19580 7.249727340000001 4.92670953 -4.539606930000001 -0.243291 1.3425129999999998 -1.983903
19600 3.37068657 5.388495659999999 -2.6917070400000003 0.113748 0.819992 -2.42512
19620 2.33619264 4.6985779800000005 -1.02731301 0.123465 -0.008364 -2.806414
19640 3.3516846000000005 3.9252851100000004 0.9199916100000001 -0.135889 -1.0279120000000002 -3.094271
19660 4.083961860000001 3.09032658 1.19945889 -0.644907 -1.258386 -2.826203
19680 4.00177368 3.2956989300000004 0.65847663 -1.069968 -0.33295 -1.322028
19700 3.7646757900000005 6.227201610000001 0.78122916 -1.4716209999999998 0.664497 0.268743
19720 2.90321064 5.842355310000001 0.30297204000000005 -0.6236649999999999 1.58304 0.529863
19740 2.26958274 4.950655740000001 -1.5167927700000001 0.351072 0.959999 0.713726
19760 5.27847651 8.352027990000002 -2.5857198000000006 -0.575944 0.6574220000000001 -0.336014
19780 11.542799160000001 12.682976220000002 -1.24915635 -1.314805 0.116132 -0.994233
19800 13.56973155 17.38140705 -2.11315248 -0.99201 -1.434556 -0.297784
19820 13.207330530000002 14.29722153 -2.9026122300000003 -0.121456 -1.892011 0.923452
19840 14.229709110000002 12.16924614 -0.7280883900000001 0.08695499999999999 0.490171 2.28277
19860 12.45828798 11.37364533 -1.45393029 0.8684700000000001 0.79001 1.7483919999999995
19880 9.537262380000001 8.7949593 -1.3859666099999999 0.814102 -1.7736630000000002 0.354063
19900 9.03460779 6.29620515 -1.43252487 0.106457 -2.660375 0.003084
19920 8.599318470000002 5.438340270000001 -2.4632811900000005 -1.633694 0.703965 -0.6682020000000001
19940 7.3946210400000005 4.35399192 -2.7348121800000005 -2.387616 0.509347 -1.427383
19960 6.077814930000001 3.69401436 -2.95051446 -1.60205 -0.458159 -1.5167959999999998
19980 4.10491602 3.3852151800000003 -1.73100393 -0.41394 -1.117801 -0.8902200000000001
20000 1.85913234 2.08007316 -1.59508638 0.42038 -0.567904 -0.33603
20020 1.217421 2.114055 -1.5886510200000001 0.811479 0.29791100000000004 -0.07910299999999999
20040 1.6254679500000002 2.6452959300000005 -1.4611112100000003 0.5551159999999999 0.17438800000000002 -0.135215
20060 1.2629197800000003 3.3979387500000002 -1.9723005000000002 -0.182754 -0.464149 0.08050299999999999
20080 1.7136402300000002 6.300550980000001 -1.5393950100000002 -0.7790239999999999 -1.041903 0.424251
20100 3.72874176 7.9614918900000005 -0.5110421400000001 -0.653759 -1.240137 0.604841
20120 5.97991113 8.67955446 0.8915426100000001 0.435448 0.009456 0.453819
20140 5.876778600000001 7.4471634 -0.6029422200000001 1.936752 1.480677 0.465625
20160 5.71706199 4.55892282 -3.70389303 2.017273 0.94855 0.534168
20180 8.06583105 9.37529928 -4.365077220000001 1.268302 -0.551542 0.696433
20200 5.494924350000001 12.572652960000001 1.1329961400000002 1.4577870000000002 -0.8025359999999999 1.493903
20220 5.079088260000001 13.28053275 0.22213764000000003 2.003213 0.06602999999999999 2.792353
20240 7.531882560000001 13.769561249999999 0.7587740700000001 2.1937990000000003 -0.296344 3.470333
20260 11.49743772 15.53663655 3.02431509 1.561718 -0.619247 3.250551
20280 18.3331242 13.16347983 -1.1422764000000003 1.464201 3.150178 1.885193
20300 15.10194564 8.68374333 -5.58339093 1.090055 1.385857 1.467166
20320 11.0798064 8.202347009999999 -2.82507399 0.8642110000000001 1.481371 1.48683
20340 4.35728808 9.5413041 4.75126749 0.041757 2.213757 0.999447
20360 3.53369934 9.01021032 4.739142330000001 -0.5428350000000001 1.292988 0.534003
20380 0.9110056500000001 9.63830538 4.13410077 -1.213523 -0.218908 0.117854
20400 0.81684927 8.160732990000001 3.5251646400000003 -1.813955 -1.16494 -0.409625
20420 2.71070901 4.20835266 0.73033488 -2.066061 -1.578359 -1.232318
20440 5.0286452399999995 2.5143226199999997 -0.92387637 -1.925447 -1.009717 -1.566418
20460 4.781060460000001 4.105965690000001 -2.042206560000001 -1.3563379999999998 -0.724923 -1.618356
20480 3.4793617500000003 4.98882645 -1.38656502 -0.946891 -0.748947 -1.825905
20500 2.8192370400000004 4.7204346600000004 0.26270199 -0.735591 -0.512402 -2.554327
20520 2.7505278000000004 3.8696035500000003 1.09961271 -0.325185 -0.33526300000000003 -3.251373
20540 3.08448963 3.41349741 1.60376823 0.062223 -1.01627 -3.246726
20560 3.0388338900000003 3.1515507900000004 1.51619436 -0.1646 -1.28098 -2.65404
20580 3.2515343100000003 4.96892196 -0.00958437 -1.133472 0.024223 -1.0772389999999998
20600 3.86810262 5.9679429299999995 -1.2177153 -0.979523 1.400935 -0.240441
20620 5.27413068 6.114484710000001 -2.8256724 -0.009006 2.3207310000000003 -0.664266
20640 8.33406588 6.968013570000001 -4.25968839 0.7775 1.86016 -0.4541520000000001
20660 10.12105548 8.29364868 -2.76265296 1.329893 0.871091 0.5209199999999999
20680 10.253078460000001 9.09702882 -1.67516541 -0.344356 1.545694 0.303262
20700 13.10644449 12.3925806 -1.03510215 -1.7162099999999998 1.398555 -0.604507
20720 18.19256652 18.494194590000003 6.183792360000001 -1.189322 0.02218 -0.518946
20740 16.32669471 17.53543386 -8.5345038 0.913606 -0.583964 0.0552
20760 9.886635720000003 10.59242598 -5.92138467 1.679022 -0.512787 0.505904
20780 9.38772855 5.37053355 -2.58736788 0.782004 0.034723000000000004 0.7606510000000001
20800 10.843601220000002 4.11704118 -3.3093152100000003 0.319514 1.093026 0.5082369999999999
20820 9.342818370000002 4.25879568 -5.085376470000001 -0.072403 -1.243413 0.387784
20840 7.5573297 4.438416780000001 -4.74543054 -0.505998 -0.943423 0.069245
20860 7.132066200000001 4.30010559 -3.0292495200000005 -0.7682359999999999 -0.8565950000000001 -0.370669
20880 2.9318067900000004 3.5097531300000004 -0.54936 -0.952811 -0.406419 -0.634249
20900 0.60085269 3.8520927000000005 -0.10223982000000001 -1.148796 -0.039512 -0.577336
20920 0.6033934800000001 3.5938738800000003 0.34203546 -1.113107 0.006525 -0.399821
20940 0.6674625900000001 4.05971154 0.51313167 -0.634057 -0.24318 -0.175033
20960 0.75547791 3.75913314 0.16839846000000003 0.905737 0.597119 0.13908900000000002
20980 1.0975133700000002 2.98898928 -1.1858328 1.192643 0.836565 -0.315344
21000 3.80359206 5.03149014 -3.4801171200000005 0.474573 0.386181 -0.282395
21020 6.04173375 10.28211606 -1.3584299400000002 0.067922 0.245488 0.088822
21040 5.435946629999999 10.468927890000002 -0.91444896 0.170377 0.26543 0.340545
21060 4.50937251 7.235806950000001 -0.39981636000000004 0.621564 0.002979 0.580109
21080 5.503753350000001 2.7214902000000003 -0.52331445 1.688951 0.4144600000000001 0.648995
21100 6.3310797 2.4161245200000003 -3.0708635400000004 2.038314 0.739412 0.8678680000000001
21120 8.4422898 11.427384510000001 -1.1160837000000001 1.6964419999999998 0.348999 1.294337
21140 6.4494864 14.4286461 -0.9497747700000001 1.780104 0.103607 2.380549
21160 6.83523522 14.253213870000002 -1.11787893 1.860488 -0.04094 3.824464
21180 4.74961941 11.73514383 1.2602318400000003 1.317527 -0.645654 3.671895
21200 7.1200980000000005 14.26338684 3.5458245 0.650662 -0.306537 2.829317
21220 14.17956039 14.53612446 -1.1111394600000002 0.880602 1.816937 1.7375470000000002
21240 17.30371185 9.38443239 -1.9080842400000002 0.593577 0.429378 1.06434
21260 10.64196648 9.640855980000001 -1.3210047900000002 0.120851 0.683236 0.8609559999999999
21280 6.5192453100000005 9.28204542 -0.46553355 -0.727215 1.54844 0.747101
21300 2.8969224300000005 8.841811860000002 1.11652515 -0.566792 0.600973 0.185414
21320 1.7781507900000002 7.5194631 1.9856224800000002 -0.307518 -0.165845 -0.35017600000000004
21340 2.9731167000000003 6.71084442 2.69754399 -0.8445020000000001 -0.659881 -1.012387
21360 3.91495518 5.82214671 3.07834857 -1.529067 -0.6543100000000001 -1.810864
21380 4.374651780000001 4.808597130000001 1.26351819 -1.589313 0.005913 -2.228738
21400 4.9223637 3.1042469700000006 -1.9916065800000002 -1.087613 0.4435520000000001 -2.083721
21420 4.29861447 7.241643900000001 -2.6258427 -0.68442 -0.09458 -2.12508
21440 2.56402008 6.06658248 -1.4931408600000002 -0.5130140000000001 -1.18387 -2.660871
21460 2.4319971000000002 4.2388813800000005 1.0627859700000002 -0.623698 -2.354155 -2.944291
21480 3.81631563 3.7968525900000003 2.69918226 -0.868366 -2.440512 -2.715154
21500 4.2749625600000005 3.1373262900000003 1.62367272 -1.176203 -0.709675 -1.325492
21520 4.36402755 3.21561009 -0.38529756 -1.37203 1.888225 -0.015208
21540 5.46168807 3.6685672200000004 -1.5849035999999999 -0.204786 3.250041 -0.326062
21560 6.76427949 4.36956039 -2.5721035199999998 1.810779 0.721691 0.435808
21580 7.77483702 5.28730551 -4.85904996 0.30443600000000004 0.810616 0.017111
21600 10.896741990000002 7.723040220000001 -4.202662860000001 -1.149245 0.8560909999999999 -0.769699
21620 11.79771201 12.59914977 -2.7888456600000007 -1.245464 -0.859475 -0.30242800000000003
21640 9.721386270000002 14.02718166 -0.38828961 -0.640803 -1.223069 0.5878180000000001
21660 9.84577707 14.29722153 1.60420968 -0.009427 -0.289654 1.579137
21680 11.61658998 13.75968258 -2.46043629 0.198011 0.467267 1.521932
21700 11.44160901 10.877730210000001 -2.1710805300000002 0.26168 -0.946628 -0.061052
21720 10.5705693 7.835609970000001 -2.8015692299999997 0.406619 -0.876184 0.045624
21740 11.80355877 6.005063970000001 -1.7191730700000003 0.627034 0.028218 -0.140934
21760 12.04694487 4.882093650000001 -2.5086328200000003 -0.647432 0.702961 -1.005279
21780 8.70424623 4.06464597 -3.54986622 -1.420599 -0.277177 -1.113041
21800 6.743031030000001 3.87469494 -4.03770771 -1.453948 -1.116968 -0.463787
21820 4.75621173 3.4876021500000003 -2.9165326200000004 -1.169552 -0.642196 -0.358791
21840 1.4841647100000002 3.1434673500000003 -1.7019565200000002 -0.399347 0.233233 -0.170799
21860 -0.0925083 3.1085829900000004 -1.03195314 0.735338 0.7389859999999999 -0.025721
21880 0.46463103000000006 3.4489801800000004 -0.7188081300000001 1.036991 0.689728 -0.489295
21900 1.39045959 3.6342910800000006 -0.6390234 0.488744 0.43839 -0.297318
21920 2.47944807 4.15909665 -0.85487283 -0.060006 0.194031 0.014287
21940 3.5374467600000004 6.1111885500000005 -1.42518699 0.142785 0.145873 0.425963
21960 5.38070652 8.49618594 -0.01616688 1.1072959999999998 0.361128 0.637523
21980 5.57516034 7.9472772 1.05949962 2.0477 0.418764 0.593811
22000 3.23672121 4.825068120000002 -3.36754737 2.458516 0.383552 0.784733
22020 7.711660620000001 7.73337015 -7.100782110000001 2.553364 0.760955 1.426913
22040 5.92557354 14.141546640000001 -0.23096664 1.751322 1.098513 2.420734
22060 6.2698653 11.32679277 1.88128332 0.995048 0.278806 3.4687
22080 8.48016621 12.120598350000002 0.71835687 0.79486 1.7699029999999998 3.4483
22100 10.01986533 12.573104220000001 3.3283269900000003 0.678149 -0.007764 2.947698
22120 15.31345905 15.176638980000002 0.777933 0.006116 -0.642154 1.805092
22140 18.926197560000002 12.49466346 -5.695656570000001 -0.96563 1.034781 1.534442
22160 11.934080820000002 8.82699876 -1.77635556 -0.687222 1.498489 2.013287
22180 4.97984049 7.5461070600000015 3.70165635 -0.079867 0.646046 1.80925
22200 2.00387889 8.73179271 2.91040137 -0.6065229999999999 -0.37777 0.690592
22220 -0.37331955 7.0205461200000014 2.48797296 -1.130267 -0.7869079999999999 -0.700163
22240 -0.04879494 7.707020490000001 -0.25506981 -1.238007 -0.649025 -1.520418
22260 2.76370263 8.8148736 0.31569561 -1.080079 -0.32615900000000003 -1.678894
22280 6.517891530000001 5.94474228 -0.20627487000000003 -0.64858 0.15117 -1.541895
22300 8.30113371 3.6863821800000003 -1.59074055 -0.214731 0.006093 -1.601704
22320 4.6090617300000005 5.514985800000001 -1.49509305 -0.10273 -0.07410900000000001 -2.154158
22340 2.06330787 6.80454954 0.07439904 -0.083063 -0.003112 -3.141149
22360 1.62981378 5.574561930000001 1.18403757 0.129698 -0.4461060000000001 -4.16352
22380 2.6568226800000003 3.0840383700000005 1.87709445 -0.164762 -1.259388 -3.789588
22400 3.4914869100000003 1.4925424500000002 1.47293226 -0.572448 -1.186242 -2.017145
22420 4.17781413 2.74918383 0.31270356000000005 -1.150317 0.038819 0.080578
22440 4.679271900000001 3.5790607800000003 -1.02222162 -1.249666 1.359563 0.481979
22460 5.44388292 3.6588455100000004 -1.91885562 0.198036 1.992766 0.185769
22480 7.27517448 4.883741730000001 -4.36956039 1.638432 1.028294 0.633968
22500 10.48464351 7.875723060000001 -4.801563360000001 0.099744 1.127532 0.062277
22520 10.91919708 10.48434921 -2.99437497 -1.456499 0.950426 -0.917244
22540 9.7146468 14.57025345 5.119201350000001 -1.6451790000000002 -0.312838 -0.7919609999999999
22560 14.474596140000001 14.299468020000003 -2.92207527 -0.5952350000000001 -1.871775 0.00465
22580 14.436131130000001 16.036004790000003 -1.3992885900000003 -0.021274 -1.895527 1.182666
22600 11.368563750000002 12.613217310000001 -1.87769286 0.6416029999999999 1.7019939999999998 1.385648
22620 10.39543137 8.41714677 -1.90957536 1.154101 -0.225783 0.317067
22640 11.11768281 5.6953524600000005 -1.1081474100000002 0.6415270000000001 -1.469493 0.362082
22660 10.73342511 3.5850448800000003 -3.6730602 0.488843 0.564846 0.046488
22680 8.621773560000001 4.05701379 -3.8802277800000002 -1.036027 1.769852 -1.072385
22700 6.065836920000001 4.88089683 -2.90485872 -1.588737 -0.074836 -1.4840799999999998
22720 3.64177611 3.6803980800000002 -2.6113239 -1.463996 -1.292615 -1.018039
22740 2.10282255 3.10664061 -1.7919240300000001 -1.24135 -1.123816 -0.533864
22760 1.32414399 3.24600147 -0.9081607500000001 -0.585437 -0.037079 -0.342668
22780 1.7762084100000002 3.72021687 -0.42646032 0.313576 0.132299 -0.322719
22800 1.15275348 4.108202370000002 -0.3376994400000001 0.383656 -0.5705180000000001 -0.7155020000000001
22820 0.77808015 4.99331943 -1.16577135 -0.276106 -1.023558 -0.6020260000000001
22840 2.7695395800000004 5.65913394 -1.22251239 -0.774918 -1.141062 -0.355396
22860 7.884552060000001 8.14321233 -1.39330449 -0.704893 -0.878524 -0.003798
22880 9.30914064 8.45816238 -0.18860706000000002 0.23626100000000005 -0.114764 0.25603400000000004
22900 6.77415816 5.281762860000001 0.23920704 1.250717 0.372602 0.308429
22920 5.09824719 1.43521281 -1.90254159 1.289777 0.116503 0.382738
22940 6.6171393 1.51125993 -6.84690912 0.8248969999999999 -0.4436350000000001 0.4699390000000001
22960 7.7984791200000005 10.957809240000001 -2.21689323 0.793412 -0.835305 0.675319
22980 4.64993019 14.381047980000002 1.84416228 1.691514 -0.525404 1.517613
23000 5.49641547 14.287637160000001 1.2347847 1.871599 -0.438787 2.6094150000000003
23020 5.43953709 12.61187334 1.0876347 2.514357 0.796113 2.789647
23040 10.879672590000002 15.48994095 4.43886804 1.831238 -0.4895229999999999 2.279117
23060 21.636308160000002 15.546672180000002 -0.06256818 0.480854 0.888669 1.920747
23080 17.391138570000003 8.01403425 -5.94833274 -0.304551 1.156382 1.986488
23100 9.4282929 7.052732730000001 -2.18156742 -0.419492 1.242866 1.770862
23120 2.4508519200000007 8.86307013 10.44947466 -0.506999 0.974716 1.505675
23140 2.13800121 9.68919966 4.68046872 -0.6522180000000001 -0.071772 1.196218
23160 0.45116190000000006 8.126898299999999 1.57188573 -0.963234 -0.6293810000000001 0.518575
23180 1.8934084800000002 8.166717089999999 1.5190392600000002 -1.159046 -1.336056 -0.5426310000000001
23200 4.14473481 6.289622639999999 0.31030011 -0.962788 -2.206696 -1.167191
23220 8.216561700000002 4.58810757 -1.9208078100000001 -0.914351 -2.097309 -1.39132
23240 7.00274097 5.43429855 -2.87567397 -0.7886880000000001 -0.580308 -1.246039
23260 3.4471849500000005 6.634650150000001 -1.6801096500000001 -0.778879 0.363591 -1.536668
23280 3.3205476600000003 6.731053020000001 0.6819813900000001 -0.874394 0.238957 -2.252885
23300 4.071532590000001 4.88344743 2.3306499900000004 -0.912434 0.047266 -2.766719
23320 4.711007250000001 3.33581202 3.11756895 -0.8215319999999999 -0.681438 -2.83138
23340 4.25250747 1.8622813500000002 1.40063256 -0.253662 -1.736922 -2.044123
23360 3.60285984 2.34457038 -0.99707859 0.069783 -0.077089 0.302893
23380 3.79969749 4.31866611 -1.66992687 -0.5192979999999999 1.50571 1.926857
23400 4.738691070000001 4.33977723 -1.0591955100000001 0.096993 0.6157239999999999 2.311521
23420 5.852979540000001 3.9908551500000002 -1.41215931 1.537205 -0.666586 1.52633
23440 7.0421085 4.78539648 -3.30228144 0.74766 1.9455 0.34028800000000003
23460 9.888283800000002 7.416624870000001 -3.53864358 -2.422216 2.553691 -1.417426
23480 9.998312760000001 10.429707510000002 -0.32677110000000004 -2.630105 1.378958 -2.634078
23500 9.693094230000002 13.01888043 -1.8187151400000001 -0.872316 -1.566493 -3.100861
23520 9.85415481 15.767161740000002 2.59350894 1.16566 -3.611206 -2.092696
23540 11.834685900000002 17.44098318 -1.09093086 0.81576 -3.033178 -0.08976
23560 13.127398650000002 13.647122640000003 -4.928347800000001 -0.710071 -0.491834 1.066029
23580 11.78275176 8.98836345 -3.4636461300000003 -0.5544560000000001 1.083815 1.968812
23600 10.38899601 6.79512213 -2.64125421 -1.203814 -1.2590370000000002 0.480314
23620 9.82241946 4.58930439 -2.32092828 -2.348859 -1.819241 -1.221166
23640 9.0756234 3.9281300100000003 -2.5671592800000003 -3.406432 1.691279 -1.212756
23660 7.12981971 3.9923462700000005 -2.93001156 -2.829748 2.533685 -1.921243
23680 4.149973350000002 4.40219826 -2.80471824 -0.799715 -2.112461 -2.229054
23700 1.61499087 4.249515420000001 -1.1261095200000002 0.25984 -3.750998000000001 -1.514526
23720 -0.53558676 4.30115526 -1.4209981200000001 -0.006759 -0.643591 -1.283225
23740 1.5443392500000002 5.09959116 -1.03314996 -1.368592 0.126426 -1.123877
23760 1.50886629 5.007534120000001 0.05972328000000001 -1.808711 -0.62341 -1.038396
23780 1.1907770400000002 4.58286903 0.71520786 -1.0351629999999998 -0.936705 -0.884109
23800 1.6094482200000002 4.9692162600000005 -0.00777933 -0.311977 -0.274223 -0.416298
23820 6.00640794 7.447614659999999 -2.9472183000000003 0.022682 -0.207788 -0.270904
23840 10.684483020000002 8.86740615 -3.15229635 0.28805 -0.212258 -0.448506
23860 11.080856070000001 5.83411491 -2.27946141 0.252936 -1.040261 -0.347277
23880 10.55215593 1.52532747 -4.203859680000001 0.111793 -1.84799 0.103562
23900 10.465033319999998 1.31142042 -7.727680350000001 0.033033 -2.244988 0.616267
23920 9.53606556 14.249613600000002 -1.7548029900000002 0.009833 -2.127845 0.911852
23940 4.982086980000001 12.61156923 1.14272766 0.750139 -1.193871 1.402936
23960 2.6662599000000005 12.73760811 4.5494856000000015 0.573272 -2.5736 1.87135
23980 3.2651604000000005 15.91834365 3.58069905 0.959093 -2.689879 1.844283
24000 6.774462270000001 19.3251114 5.238353610000001 2.15765 -1.42311 1.831804
24020 10.78836111 16.77261807 0.41808258000000004 1.96878 0.003696 1.362912
24040 11.25793638 8.12495592 -0.88929612 0.689887 0.16617300000000002 0.73527
24060 13.211225100000002 4.15476063 -3.8285879400000002 -0.7563270000000001 -0.92161 0.957298
24080 11.913872220000002 6.330039840000001 -1.9056906 -1.344125 -1.656152 1.873872
24100 6.890622480000001 7.252866540000001 2.10312666 -0.239101 -2.02976 3.235507
24120 3.96600642 10.34244756 9.45254322 0.972554 -2.032766 4.267331
24140 0.75098493 10.75169133 5.06157741 0.7495 -1.986762 3.61303
24160 -2.4020569800000002 7.306458570000001 -2.0821725 -1.36924 -2.507177 1.863037
24180 2.22916554 6.247263060000001 -1.50841503 -3.012249 -2.385089 1.2617459999999998
24200 5.80582287 5.978714310000001 -2.2149410400000002 -3.151393 -1.775364 1.019642
24220 3.95133066 7.37142039 -1.69223481 -2.829136 -1.7563830000000002 0.7889970000000001
24240 4.46670882 8.20683018 1.73818485 -2.605856 -1.6266040000000002 0.37592
24260 5.28895359 7.149734010000001 2.8801571400000006 -2.612614 -1.889077 -0.046807
24280 6.724764810000001 6.0671808899999995 2.0966913000000007 -2.68418 -2.059725 -0.199844
24300 8.07091263 6.81053364 0.27453285000000005 -2.687595 -1.881764 -0.211846
24320 7.885003320000001 8.16941484 -1.6687300500000002 -2.477275 -1.167687 -0.479416
24340 4.42554606 9.44191899 -1.5443392500000002 -2.387155 -0.971267 -0.39358
24360 6.255944909999999 7.945923420000001 -0.07110288000000001 -2.237566 -1.330939 -0.0887
24380 10.505754629999998 7.75807173 -0.62330778 -1.949953 -2.266427 0.504167
24400 10.52117595 8.47746846 0.6712002000000001 -1.686478 -2.448706 0.5714020000000001
24420 8.94539565 7.079975100000001 4.65382476 -1.203359 -1.372159 0.264681
24440 7.11964674 5.7293343000000005 -0.004188870000000001 -1.01898 -0.359306 -0.104934
24460 4.74109452 8.40337353 1.4245885800000002 -1.334119 -0.859259 -0.279546
24480 4.190233590000001 12.506641470000002 0.9593591400000001 -2.161543 -1.697957 -0.279978
24500 3.6616806 15.479758170000002 1.6616962800000001 -2.96469 -1.113759 -0.223312
24520 1.66528674 14.60003661 1.399887 -2.598248 -0.8209069999999999 -0.515957
24540 1.2606831000000003 9.716147730000001 1.37025099 0.934666 0.786611 -0.652504
24560 3.2729397300000005 6.460718850000001 2.4819888600000004 0.262034 -1.214964 -0.88751
24580 7.44581943 5.872285620000001 1.8250033500000002 -1.110325 -2.202322 -1.3338020000000002
24600 10.517879790000002 6.10670538 1.2763987199999998 -2.4762150000000003 -2.776069 -1.856422
24620 11.952199890000001 6.746474340000001 -1.0225257300000001 -3.5696830000000004 -1.938676 -1.995456
24640 12.807965430000001 5.20931601 -3.87634302 -3.617165 -1.25157 -1.423033
24660 8.79241851 3.9880102500000003 -1.7434233900000002 -2.588262 -1.47502 -0.782104
24680 4.98134142 6.40278099 3.27099735 -1.136315 -1.232927 -0.511626
24700 4.95455031 6.3938048400000005 1.39509972 1.066076 0.047344 -0.242578
24720 5.982157620000001 6.885982350000001 1.1719124099999998 1.059036 -1.285059 0.231234
24740 5.94189738 6.650669880000001 0.62704539 -0.5031939999999999 -0.694559 0.16935899999999998
24760 5.526502740000001 6.4834682400000005 0.51013962 -1.886066 -0.153381 0.031888
24780 4.3562384100000004 5.73098238 0.95231556 -2.13272 -0.465591 0.000655
24800 3.9739329000000003 5.4604912500000005 1.3135197600000001 -1.500245 -1.002594 -0.254886
24820 4.70740698 4.8243225600000015 -0.09864936 -0.7878609999999999 -1.4635790000000002 -0.409552
24840 7.86329379 7.7130144 -2.84903001 -0.644943 -1.2477790000000002 -0.420581
24860 13.738130009999999 12.16520442 -3.8696035500000003 -0.894107 -0.635668 -0.631409
24880 13.168119960000002 9.38368683 -1.96720911 -1.174297 -0.503941 -0.8290190000000001
24900 8.71083855 4.96771533 0.75038652 -1.117957 -0.785377 -0.827197
24920 4.9075407900000005 3.66018948 1.5079637700000004 -0.778181 -0.972625 -0.649395
24940 3.5518184100000005 2.6499360600000004 0.81131643 -0.352745 -0.322981 -0.17617
24960 3.68518536 2.9788064999999997 0.9554645700000001 -0.020496 -0.121084 -0.071559
24980 5.71496265 7.2610971300000005 3.7969997400000004 -0.04207 -0.534902 -0.196161
25000 7.60479048 12.01431681 4.25624508 -0.052565 -0.805049 -0.029246
25020 15.08054022 24.60762963 -0.06795387 0.14999 -1.035909 0.251271
25040 10.71187254 19.14308685 -3.4385031 0.358423 -1.340358 0.813933
25060 2.77028514 6.699768929999999 -5.725292580000001 0.388034 -1.07109 1.382089
25080 1.01085183 3.94474815 -1.8187151400000001 0.549092 -0.6738109999999999 1.791834
25100 1.0086053400000003 2.0838205800000003 2.1787225200000004 1.058249 -0.533181 1.8796
25120 2.35176111 2.91099978 5.74460847 1.7359080000000002 -0.597969 1.7765259999999998
25140 4.03965009 5.069955149999999 6.37883478 2.004625 -0.778226 1.866228
25160 4.8897356400000005 7.863597899999999 6.15040893 1.683518 -0.265901 1.896444
25180 3.9651039000000003 10.431954 4.47299703 0.733087 0.331492 1.977702
25200 3.16561833 12.22432929 -4.22392113 -0.456622 0.480866 2.150798
25220 5.85552033 9.4137741 -3.84490197 -1.782299 -1.924903 1.530393
25240 6.10894206 6.066886590000001 0.15642045 -0.613405 1.9575 1.714112
25260 4.93778502 6.78239856 1.3825233000000001 0.921028 0.6408020000000001 2.2520830000000003
25280 4.67253243 9.09748008 3.5341506000000003 1.126169 -0.810443 2.159236
25300 3.78173538 9.695635020000001 3.1945087800000005 0.466561 -1.594379 1.905669
25320 3.17220084 8.37433593 1.17056844 -0.402694 -2.235049 1.437878
25340 4.41447057 8.266857569999999 -0.04011309 -1.154747 -1.865674 0.8275379999999999
25360 4.912936290000001 8.60036814 0.04355640000000001 -1.577358 -1.121097 0.408093
25380 4.773722580000001 8.40951459 1.14766209 -1.492146 -0.6412100000000001 0.20618000000000006
25400 4.79452959 7.49970576 1.4456898900000001 -1.3733030000000002 -0.860876 -0.107834
25420 5.05858536 7.61286411 1.12955283 -1.350079 -1.10744 -0.538918
25440 5.191059600000001 8.87055516 0.15103476000000002 -1.083122 -0.799732 -0.996783
25460 4.52823714 9.84532581 -1.0090467900000002 -0.7777310000000001 -0.420939 -1.150027
25480 3.9163089600000003 10.024358310000002 0.23201631 -0.6639520000000001 -0.135418 -1.255352
25500 4.3439661 8.137679490000002 1.71408168 -0.65254 -0.049915 -1.335499
25520 5.163209010000001 6.833734290000001 1.39479561 -0.69086 -0.443118 -1.273306
25540 7.73965836 6.893016120000001 1.1472108300000001 -0.625904 -0.630081 -1.194632
25560 9.12427119 7.446417840000001 1.35602649 -0.522197 -0.461547 -1.073415
25580 9.41915979 7.734861270000001 1.02491937 -0.530145 -0.317651 -0.8215540000000001
25600 7.56497169 9.88603731 -0.20791314000000002 -0.741532 -0.093173 -0.564809
25620 4.61639961 11.005260210000001 -0.93555027 -0.906165 0.502108 -0.370168
25640 3.6697640400000004 11.30464179 -0.30117681 -0.852376 0.660407 -0.310175
25660 3.61797705 11.169028350000001 1.2145761000000002 -0.500845 0.061684 -0.073012
25680 3.92035068 9.42455529 1.27879236 -0.064603 -0.436266 -0.068258
25700 5.498966070000001 8.39679102 2.6770312800000005 -0.090318 -0.726989 -0.336189
25720 6.943606290000001 7.966887389999999 3.8628640800000005 -0.5493859999999999 -0.915587 -0.459863
25740 6.989713290000001 8.53180605 -1.9461078 -0.204609 1.025195 -0.454601
25760 6.753204 6.7698221400000005 -0.030685680000000003 -0.65152 -0.054829 -0.375154
25780 7.317985320000001 6.89451705 -0.23096664 -0.145735 0.620079 -0.428033
25800 8.032447620000001 7.61855391 -1.20544299 -1.3483379999999998 1.364422 -0.113716
25820 8.36759646 7.04510055 -2.28874167 -1.396716 -0.003154 -0.929491
25840 7.67169468 5.06786562 -0.8722365300000001 -0.6411180000000001 -0.859453 -1.363223
25860 6.305485409999999 4.53661488 -0.30565998000000005 -0.044425 -2.084673 -0.511454
25880 6.230939220000001 4.959936000000001 -0.22842585 -0.141666 -1.6954919999999998 1.346075
25900 6.30323892 5.24509308 0.050295870000000006 -1.128943 1.449178 2.206818
25920 5.5613871 5.13581949 0.85697217 -0.636618 -0.472184 0.883851
25940 4.424653350000001 5.09121342 1.1612881800000001 0.029889 -2.154959 0.216615
25960 3.64791717 5.501663820000001 0.20551950000000002 -0.158947 -1.268798 0.151135
25980 4.20625332 6.320759580000001 -0.6330294900000001 -1.040613 1.850329 -0.681551
26000 5.707781730000001 7.874379090000001 -1.2927127500000002 -1.652224 2.195311 -1.706418
26020 7.613766630000001 9.484572870000001 -1.65330873 -1.331399 -1.608141 -1.879832
26040 8.27644194 9.18893871 -1.52262972 -0.7412979999999999 -2.1409990000000003 -1.005495
26060 7.96478805 7.20556272 -1.4473379700000002 0.586784 0.217586 0.22280500000000006
26080 7.73710776 4.82087925 -1.37025099 1.30692 1.021217 0.560091
26100 7.3603449 3.61183599 -1.08210186 1.039819 0.183723 0.040143
26120 5.3134982100000006 4.18454379 -0.84124674 0.350244 -0.8524950000000001 0.031313
26140 3.6497124 5.03178444 -1.3392612000000002 -0.185961 -1.105505 0.630369
26160 3.20079699 4.82760891 -2.4489095400000003 0.325299 -0.288099 1.167003
26180 3.1261036500000006 4.86099234 -2.71594755 1.873298 1.076746 1.366211
26200 3.1814811 4.50069066 -2.31613119 2.786788 1.806609 1.3364049999999998
26220 3.4856499600000004 3.79445895 -1.53011475 3.242325 0.984224 1.472032
26240 3.76661817 3.5515143000000005 1.9164619800000002 2.751311 0.161964 2.129817
26260 3.5235263700000004 3.02251005 -3.4935862500000003 2.186095 0.433007 3.3016339999999995
26280 3.66377994 7.4383344 -2.26104804 1.593681 -0.209631 4.149692
26300 9.095537700000001 17.28979146 -0.34219242000000005 0.622626 0.8760959999999999 3.607407
26320 5.025947490000001 15.600411359999999 0.12005478000000001 0.665325 1.092712 2.149305
26340 5.79160818 15.554157210000001 2.8677376800000003 -0.17593699999999998 -0.037795 1.609698
26360 4.98433347 10.777736879999999 2.4043034700000003 -1.03129 0.586857 1.452304
26380 10.141705530000001 11.1230685 2.26404009 -0.8964030000000001 0.07232100000000001 1.071482
26400 17.968035240000003 11.865224430000001 -1.2921143400000001 -0.636007 -0.918433 0.059759000000000013
26420 17.85172788 9.45658494 -4.73405094 -0.84364 -1.538142 -0.894819
26440 10.86021936 7.9954737300000005 -1.2695121 -1.162832 -1.446285 -1.477211
26460 5.58339093 8.2134225 2.2369448700000003 -1.169843 -0.78093 -1.626595
26480 2.39876082 8.53211016 6.765034860000001 -0.974404 0.005505 -1.595259
26500 0.8132588100000001 6.6142943999999995 6.8946642 -1.104811 0.306845 -1.715129
26520 -1.6134899400000002 6.53825709 -0.39143862 -1.560827 0.084995 -2.316234
26540 -0.18022932 7.21185093 0.9773212500000001 -2.0335 -0.069586 -2.942111
26560 4.09848066 4.02977142 0.2200383 -1.911355 -1.080465 -3.596919
26580 8.02465848 2.9636892900000005 -1.73593836 -0.803523 -0.713554 -3.0737
26600 5.331911580000001 4.19487372 -1.30034493 -0.376687 -0.465927 -1.169601
26620 3.36604644 3.9248338500000006 -0.42661728 -0.268027 0.494928 0.072269
26640 3.0997539900000004 3.27219417 0.7123727700000001 -0.432088 1.607098 -0.05742000000000001
26660 3.60585189 1.6810023600000001 1.38267045 -0.485424 1.540339 -0.365355
26680 4.76489358 4.064793120000001 0.8063721899999999 -0.6925439999999999 1.505917 -0.368894
26700 3.96435834 6.20714016 0.032186610000000004 -0.945157 0.5068090000000001 -0.712278
26720 3.47787063 7.13536236 -1.96915149 -0.09812 -0.346687 -0.595241
26740 5.50420461 7.91269695 -2.39950638 1.03899 0.215877 0.258013
26760 7.733223000000001 9.38263716 -0.8496342900000001 1.456952 0.617812 1.67688
26780 11.51211348 11.62527183 -0.86565402 0.901898 0.410589 1.765135
26800 17.250276780000004 14.67637803 -2.2499725500000007 0.332007 -1.031394 0.828308
26820 22.55374917 14.7727809 3.1246027200000004 -0.728159 -1.952511 0.06364600000000001
26840 15.63887637 10.3101138 -8.31550536 -1.876006 -1.150023 -0.356666
26860 8.55261306 8.128997640000001 -2.86235199 -2.607817 1.993642 -0.7963
26880 6.60412143 4.5463464 -1.0671318 -1.801584 2.032657 -1.394263
26900 9.245974050000001 3.82454622 -1.9248495300000001 -0.344554 -0.92311 -1.418754
26920 9.92436498 4.06763802 -3.26111868 0.642993 -1.58724 -0.561769
26940 8.46594171 4.23439821 -2.92581288 0.597703 0.367046 -0.399015
26960 5.83172127 3.95896284 -1.9872705600000002 0.074972 0.417598 -0.599284
26980 3.87154593 4.261336470000001 -1.21397769 -0.09226 -1.2634610000000002 -0.441269
27000 3.0490068600000004 4.7259675 -1.22819238 0.13023900000000002 -0.174387 -0.192215
27020 1.9088298000000001 4.60681524 -1.75061412 0.235604 -0.064638 -0.023909
27040 1.71587691 3.84011469 -1.3498952400000002 0.460885 0.027036 0.032027
27060 1.63729881 3.3970362300000003 -0.92672127 0.564121 -0.017048 0.044555
27080 3.6152793000000005 5.04854973 -2.8092112200000003 0.510922 -0.002941 0.026005
27100 6.90798618 8.13483459 -2.16629325 0.611362 0.344747 0.103173
27120 5.385503610000001 8.1818343 -1.4575207500000003 0.907243 0.192529 0.350058
27140 4.8645828 5.19554277 -0.5477119200000001 1.170651 -0.137071 0.7614489999999999
27160 3.2546833200000003 2.72074464 -1.18972737 1.510091 -0.175016 1.164452
27180 4.22496099 4.12826382 -4.48586775 1.769138 1.25571 1.457121
27200 3.89010645 11.951591670000001 1.0674261 1.98902 2.589671 2.537988
27220 4.17781413 12.820836150000002 2.06450469 2.4094450000000003 0.885502 3.436142
27240 7.344178020000001 17.00972577 2.4069914100000003 2.682068 -1.6475259999999998 3.150736
27260 10.65619098 17.901121230000005 7.0205461200000014 2.68107 -1.650971 2.415797
27280 20.42802027 20.02161159 0.26839179 1.131605 1.592556 1.6883130000000002
27300 16.22790801 7.28295381 -5.93785566 0.456 1.7736490000000005 1.21014
27320 11.09312838 3.28522185 -3.5591464800000003 0.380225 0.970927 0.885899
27340 9.286234290000001 3.1240043100000006 -0.5565409200000001 0.07591200000000001 0.8326610000000001 0.562416
27360 6.777003060000001 4.64619258 3.28806675 -0.506959 0.496974 0.300265
27380 6.018385950000001 8.12839923 7.66556343 -1.10893 -0.938488 -0.37508
27400 3.9389112 11.28682683 2.7382554900000002 -1.588994 -1.66782 -1.118845
27420 0.7011403200000002 8.91845739 -2.4845296500000003 -1.729953 -0.999559 -1.612068
27440 3.94190325 6.27345576 -1.9690043400000001 -1.302209 0.037172 -1.5046540000000002
27460 6.64782498 5.07414402 -1.6696325699999999 -0.910973 0.743006 -1.200519
27480 4.2252651 4.994663399999999 -1.5539138099999998 -0.7819699999999999 0.717857 -1.682422
27500 2.94557022 5.531751090000001 0.44921952000000004 -0.713086 0.227971 -2.309428
27520 3.1322349000000003 5.023701 1.30558347 -0.678088 -0.308035 -2.562733
27540 4.61445723 4.8141397800000005 1.10439999 -0.8727 -0.453841 -1.896267
27560 4.14832527 4.44231135 1.00425951 -1.318859 -0.226258 -1.147647
27580 3.8737924200000005 4.40788806 0.37496763 -0.870292 0.226716 -0.795786
27600 3.56199138 4.004618580000001 0.12319398000000001 -0.034947000000000006 0.7509999999999999 -0.496861
27620 3.6769547700000005 2.8189427400000002 0.09385227000000002 0.62475 1.626152 -0.410054
27640 4.94511309 1.9353266100000002 -1.2219041700000002 0.471174 1.646895 -0.402607
27660 6.97669542 2.5721035199999998 -1.26786402 -0.6785680000000001 0.236596 -0.236847
27680 7.59341088 3.90088764 -1.4257854 -1.68948 0.350679 -0.716209
27700 7.158867120000001 6.154156350000001 -1.75764789 -1.511011 0.074682 -0.582149
27720 10.46683836 11.554473060000001 -4.51910403 0.040745 -0.231993 0.437485
27740 9.72198468 15.020365680000001 -0.7566747300000001 1.265873 0.30750700000000003 1.387523
27760 7.84563579 13.41271269 1.55675871 1.086029 0.617294 1.595241
27780 10.79435502 17.36823222 -2.25850725 0.260493 -1.473831 -0.087091
27800 12.70857051 18.35857134 -6.01075377 -0.462529 -1.796428 0.227671
27820 10.965147120000001 8.07884892 -3.2474925900000002 -0.374835 0.120985 0.4384020000000001
27840 10.90841589 5.744304360000001 -1.1837432700000001 -1.346477 0.504977 -0.439478
27860 11.327548140000001 5.14614942 -2.0122664400000003 -2.054153 0.5618770000000001 -1.267024
27880 10.39902183 4.6169980200000005 -4.489909470000001 -1.7570720000000002 -1.177785 -0.975368
27900 9.47933433 5.08986945 -6.295008330000001 -0.716796 -1.3072780000000002 -0.397506
27920 6.599775600000001 5.5223138700000005 -4.422249900000001 0.4373770000000001 0.04077 -0.185004
27940 3.67126497 7.38593919 -1.01623752 0.785679 0.623229 -0.424736
27960 1.29226149 6.169273560000001 -0.14594337000000002 0.66532 0.498626 -0.595264
27980 1.01893527 3.6736586100000004 -0.29683098 0.391306 0.023780000000000003 -0.158599
28000 3.0798495000000004 2.9960230500000007 -0.7253906400000001 0.08777599999999999 -0.421046 -0.010598
28020 3.0972132 2.2489228800000003 -0.79754319 -0.11705 -0.482809 0.161103
28040 2.47794714 2.8006765200000006 -1.3049850600000001 0.23615100000000006 -0.109557 0.285937
28060 3.18612123 3.66662484 -2.0261868300000003 0.872682 -0.002951 0.247518
28080 5.11247169 5.93755155 -3.03075045 0.8264370000000001 -0.250333 0.08086900000000001
28100 5.5482122700000005 7.985889360000001 -1.44898605 0.375998 -0.184346 -0.046276
28120 5.81435757 7.387587270000001 -1.3395653100000002 0.183856 -0.300372 0.097809
28140 5.631891570000001 4.19742432 -1.87335684 0.785439 -0.133779 0.5387
28160 5.65074639 3.2129221500000003 -2.9779039800000002 2.121662 0.126525 1.416165
28180 7.09300278 7.817196600000001 -2.9295603000000003 3.05372 0.293234 2.872039
28200 4.07198385 12.374020080000001 1.98547533 2.468421 0.7892279999999999 3.750735
28220 3.8440092600000004 13.17560499 2.87611542 1.506329 -0.056970000000000014 3.079596
28240 6.84137628 12.80976066 0.8464852800000001 0.428144 0.6625810000000001 2.028559
28260 10.38720078 13.635743040000001 1.9911553200000003 -0.260002 0.266874 1.1504530000000002
28280 20.4064677 18.568740780000002 -2.6794249200000007 -0.24952800000000006 0.424426 0.63651
28300 22.15467837 13.333075110000001 -6.3179146799999994 -0.55702 1.174984 0.485986
28320 11.57932179 7.4324974500000005 0.76730877 -0.5182869999999999 1.0701 0.307998
28340 5.6872690200000005 6.172716870000001 5.1421077 -0.162597 0.130575 -0.011985
28360 3.2198087699999998 7.821532620000001 2.6698503600000003 -0.234424 -0.849742 -0.682074
28380 0.9166954500000001 7.954006860000001 3.36604644 -0.772695 -1.610063 -1.085443
28400 0.55295046 7.5453615 1.43132805 -1.192793 -1.51936 -1.292524
28420 2.30550696 5.2575125400000005 -0.07469334000000001 -1.145149 -0.557958 -1.198351
28440 6.9407711999999995 3.99938004 -1.43626248 -0.6814680000000001 0.428262 -1.543548
28460 7.306458570000001 5.085229320000001 -2.0969856 -0.252123 0.547806 -2.23932
28480 3.2145604200000006 6.2884258200000005 -1.0181799 -0.197373 0.175506 -2.68925
28500 2.1266314200000007 5.72170212 0.2806641000000001 -0.471556 -0.055677 -2.447314
28520 3.5482181400000004 5.143902929999999 1.30917393 -1.060757 -0.271902 -1.411773
28540 4.59169803 4.4439594300000005 1.5898478400000002 -0.247097 -0.456712 -1.986965
28560 5.63787567 3.70914138 0.42167304000000005 -0.263821 0.30567300000000003 -0.820493
28580 5.8845677400000005 3.6309949200000005 -1.10575377 -0.164298 1.1789120000000002 0.229146
28600 5.07444813 3.9884517 -1.5173911800000002 0.288349 1.513934 0.504275
28620 5.026094639999999 4.65247098 -0.7243409700000001 0.738103 1.237258 0.572933
28640 4.605618420000001 4.7862990000000005 -0.6797349 1.019671 0.390907 0.459548
28660 4.53317157 4.6411011900000005 -0.9330094800000001 -0.914765 1.130085 0.037028
28680 4.40504316 5.391791820000001 2.32256655 -2.600627 1.608443 -0.644068
28700 6.61908168 5.16875166 -3.9031341299999998 -1.977523 0.456733 -0.614739
28720 12.74374917 7.59954213 -2.65637142 0.217647 -2.394349 -0.019981
28740 15.215859360000001 12.38734206 -3.1998944700000003 0.695157 -2.795977 0.6354850000000001
28760 13.082194170000001 15.80353722 -1.6805511 0.915343 1.340853 0.885959
28780 13.520338200000001 19.62628821 -0.17274429 2.096744 1.058241 1.005668
28800 10.312203330000001 17.073490770000003 -2.5717994100000006 0.981268 -0.385065 0.871539
28820 9.696086280000001 10.30352148 -3.66348564 -1.374631 -0.256442 0.319739
28840 9.18953712 5.471870850000001 -3.07461096 -2.189714 0.8117340000000001 -0.763023
28860 9.59474898 3.54881655 -2.04549291 -1.809611 -0.116535 -1.52082
28880 7.63277841 4.01166216 -2.4899251500000004 -1.379387 -1.552347 -0.873974
28900 6.94541133 6.14711277 -3.3835671 -0.768605 -1.52832 -0.486247
28920 5.38055937 6.753056850000001 -2.6897548500000004 0.464344 -0.06399099999999999 -0.117384
28940 2.6719398900000004 5.945036580000001 -0.9749178000000001 0.756545 1.094856 -0.593255
28960 1.02057354 4.32510147 -0.8116107300000001 0.385281 1.2041620000000002 -0.965593
28980 1.0044066600000001 3.74296626 -0.30835773000000005 -0.26207 -0.070052 -0.635196
29000 1.17461016 3.79161405 0.54471987 -0.639637 -1.215993 -0.382128
29020 1.47173544 3.28955787 1.07057511 -0.476874 -1.044987 0.134741
29040 2.7101106 2.74514211 0.86116104 0.692086 0.878783 0.482272
29060 1.6703781300000002 6.33198222 -4.01704785 1.894988 1.594102 0.375458
29080 6.44709276 8.848845630000001 -3.67889715 1.720039 0.248968 0.449666
29100 7.5453615 8.20878237 -2.0399600700000002 0.897669 -0.473397 0.390369
29120 6.7123453500000005 4.9614369300000005 -1.0886843700000002 0.361461 -0.018205 0.508885
29140 6.45457779 1.51514469 -1.72441161 0.29452 0.198825 0.90445
29160 5.86376073 1.3247424000000003 -1.78534152 1.297124 -0.25337600000000005 1.231431
29180 6.68869344 3.71108376 -5.30961345 2.728953 -0.62061 2.048411
29200 7.01097156 13.16047797 -1.78833357 2.630544 -0.7876989999999999 2.891833
29220 6.29201628 13.89305934 1.81423197 2.251735 -0.364378 2.852325
29240 6.71009886 13.75924113 1.9130186700000003 1.071762 0.681928 2.226378
29260 8.23767282 15.374673450000001 -0.6566814000000001 0.613707 1.950225 1.67035
29280 13.099410720000002 16.82156997 3.6874318500000003 0.214852 1.027948 1.420919
29300 21.306545010000004 14.691053790000002 -0.30670965 -0.183321 1.8455580000000005 1.097691
29320 15.58453878 5.2319182500000005 -7.403450040000001 -0.25458800000000004 1.5169780000000002 0.480182
29340 7.42006818 7.757620470000001 -0.86430024 -0.378741 -0.1886 -0.192547
29360 3.1208553000000006 10.25577621 2.52599652 -0.518166 -1.12011 -0.489293
29380 0.69156576 11.13713604 4.784346810000001 -0.808031 -1.558066 -1.004572
29400 1.5669414900000003 11.92944069 4.42001322 -1.351335 -1.832379 -1.464146
29420 3.4465865400000006 6.5012832000000005 2.1833626500000003 -1.483677 -1.094892 -1.428627
29440 5.9998254300000005 4.26463263 -1.07491113 -1.070288 0.117366 -1.513819
29460 7.814646 3.5470213200000003 -4.7265757200000005 -0.673296 0.4944270000000001 -2.11187
29480 3.38027094 9.349852140000001 -2.8340599500000003 -0.519702 -0.062106 -2.662355
