time Ax Ay Az Gx Gy Gz
20 2.21434263 9.330094800000001 -1.7407256400000002 -1.596208 0.668543 0.696225
40 1.31187168 12.195742950000001 -3.4057180799999998 -1.7200990000000005 0.754579 0.33419
60 0.05598567000000001 15.295339980000001 -5.21096409 -1.848324 0.753568 -0.100402
80 -2.01451293 14.75422038 -4.63331205 -2.122439 0.558193 -0.553924
100 -2.4760047600000004 13.83154083 -4.422249900000001 -2.277827 0.278965 -0.919984
120 -1.9378674 11.39265711 -4.44680433 -2.047886 0.165139 -1.158582
140 -4.87491273 12.064014270000001 -6.2923105800000005 -1.791932 0.291372 -1.246686
160 -2.9370453300000006 15.18382971 -8.11447884 -1.43507 0.26206 -1.152289
180 -1.97079957 14.318322840000002 -7.11979389 -1.152378 0.393783 -0.772333
200 -1.7191730700000003 9.80206371 -5.746698 -0.460821 0.443779 -0.289003
220 -0.79799445 7.2018251100000015 -3.67440417 0.241761 0.287376 0.384812
240 0.19908414 4.8791016 -2.11090599 -0.751734 1.383026 0.576226
260 0.67884219 2.5195611600000003 -1.9552311 -1.536011 3.140003 1.170974
280 1.3223487600000001 0.45819567 -2.74349403 -0.575904 2.3802 0.671248
300 1.5347548800000002 -1.26711846 -3.6309949200000005 0.40736 1.432347 0.291566
320 1.38627072 -1.79910495 -3.7181175300000002 1.968162 1.739327 -0.572799
340 1.1599344 -0.6331864500000001 -3.58265124 1.204081 0.492196 1.076002
360 1.53895356 1.46201373 -4.305196980000001 0.0285 -0.8253969999999999 0.193537
380 1.28537487 4.46641452 -3.8926570500000004 -0.586199 -0.661408 -0.322645
400 0.31598991000000004 7.922575620000001 -3.15274761 -1.020429 -0.6356109999999999 -0.536151
420 -1.8067469400000002 13.60041723 -1.26307674 -1.073477 -0.295533 -0.022075
440 -6.0119505900000005 21.077373599999998 -1.21082868 -0.960634 0.199125 0.053923
460 -8.07525846 25.5861477 -3.53190411 -0.727958 0.667147 0.027175
480 -2.58587676 8.79122169 0.14490351 -0.5870529999999999 0.717544 -0.177004
500 0.80787312 3.5188862400000005 1.72875744 -0.307998 0.55053 -0.477147
520 2.45264715 6.323751629999999 0.22094082 0.024297 0.786311 -0.587292
540 6.4930428000000004 27.938654370000002 -9.990376470000003 0.252816 0.926814 -0.490804
560 14.178363569999998 28.303743330000003 -5.336257409999999 0.384254 0.995619 -0.22932800000000006
580 2.9093517 4.01210361 1.6205335200000002 0.371576 0.82411 0.047473
600 3.0088937700000002 1.3245952500000002 -2.51970831 0.502202 0.428644 0.262537
620 3.0982530600000002 9.004373370000001 -3.85613442 0.58205 -0.339514 0.4830640000000001
640 2.82777174 11.30478894 -1.6685829000000003 0.636386 -0.983472 0.568658
660 2.45744424 12.85092342 -0.057329639999999994 0.760656 -1.426729 0.486773
680 0.41733702000000006 10.698697710000001 0.5089428 1.103881 -1.929946 0.291126
700 -0.70697727 8.653508910000001 -0.5936619599999999 1.784127 -1.826809 0.01694
720 -1.4063223599999999 7.219934370000001 -2.8487259 2.608891 -2.235876 -0.16478199999999998
740 -0.58932594 6.288877080000002 -3.20932188 3.468856 -2.461517 -0.160623
760 1.1937690900000002 5.835615840000001 -2.56371597 3.771147 -2.305215 -0.082868
780 2.2108993200000002 4.8295611 -2.09519037 3.015154 -1.921305 0.202984
800 2.5960497300000003 4.400697330000001 -2.14474068 2.087957 -1.00283 0.421794
820 2.4776430300000003 5.67245592 -2.33724231 1.581405 -0.337013 0.323399
840 2.53782738 7.443720090000001 -2.0381648400000003 0.833044 0.650401 0.463253
860 4.62373749 9.322011360000001 -2.27137797 0.262846 0.537365 0.454073
880 6.149516220000001 9.56630979 -2.104029180000001 -0.350792 0.676208 0.630139
900 6.19396533 7.537425209999999 -1.8507546000000001 -1.140437 0.846456 0.830572
920 5.05543635 6.865028189999999 -1.77156828 -1.794659 0.894156 0.924217
940 2.78481375 8.647220700000002 -1.4245885800000002 -2.156019 0.785349 0.742371
960 0.54336609 11.77406991 -2.55204207 -2.466143 0.652934 0.29279
980 -1.4925424500000002 16.14557268 -4.6687948200000005 -2.93567 0.394424 -0.186586
1000 -3.6824876100000004 18.96631065 -5.923484010000001 -3.102343 0.202639 -0.565655
1020 -4.91682105 16.18285068 -4.82446971 -2.938293 0.179456 -0.770646
1040 -2.8830020400000005 11.106901620000002 -5.15512557 -2.738416 0.075112 -0.957123
1060 -2.6676038699999998 9.389523780000001 -7.43728473 -2.011724 -0.420434 -1.005891
1080 -1.04197896 12.30485958 -9.24836769 -0.633196 -1.036997 -0.927106
1100 0.8821152000000001 11.420802 -7.0642594800000005 0.277083 -1.266578 -0.248542
1120 0.23081949000000002 8.13887631 -5.775735600000001 0.57497 -0.582113 0.152177
1140 -0.23381154 7.09300278 -3.73338189 0.629832 0.364187 0.287012
1160 0.16301277 5.632185870000001 -2.4180669 0.192214 1.524666 0.301696
1180 0.38529756 3.4000282800000003 -2.3667311700000004 -0.16663499999999998 3.055843 0.252362
1200 -0.11376657 1.7173778400000002 -3.3233925600000003 0.094413 3.241261 0.27744800000000003
1220 0.68348232 0.26719497000000003 -3.3115617 0.035624 2.417294 0.189431
1240 1.4780236500000004 -0.09145863 -2.58303186 -0.686018 1.4818209999999998 0.056334
1260 2.11090599 1.06383564 -2.1225897000000002 -0.966043 0.330533 -0.036013
1280 1.60121763 3.4857971100000005 -1.2930070500000002 -0.174083 -0.24347800000000006 0.033279
1300 0.99452799 7.419773879999999 -0.9458802000000001 -0.419218 0.048856 1.463678
1320 -0.59411322 12.495114720000002 -1.8450648 -0.43804 -0.358273 0.7302
1340 -1.79641701 12.8263788 -2.76205455 -0.203092 -0.641325 -0.08285
1360 -3.60824553 11.817322200000001 -3.09571227 -0.207387 -1.211938 -0.172948
1380 -6.258936960000001 11.981237490000002 -4.40758395 -0.352881 -1.038952 -0.149616
1400 -7.13505825 17.40910068 -2.77673031 -0.524618 -0.407247 6.2e-05
1420 -2.89648098 13.00675527 2.7572672700000003 -0.5645859999999999 -0.00989 0.032389
1440 2.8129488300000003 8.39529009 4.20954948 -0.51393 0.139992 0.06887
1460 5.328615419999999 6.85873998 2.34891621 -0.347555 0.251718 -0.043343
1480 8.4249261 8.69481882 -1.79132562 0.040084 0.674876 -0.173637
1500 6.528819870000001 12.17837925 -8.2307862 0.5711510000000001 1.045008 -0.221676
1520 12.747790890000001 40.14890631 -5.13596664 0.90447 1.019958 -0.107153
1540 5.64670467 10.82009646 0.5773479300000001 1.065891 0.531949 0.047356
1560 -0.34069149000000004 3.1454097300000003 -3.77559432 1.140496 -0.8533959999999999 0.104132
1580 1.57172877 6.78972663 -3.03733296 1.216304 -1.330731 0.327463
1600 2.5131258000000005 9.75011976 -0.5903756099999998 1.386937 -1.076853 0.360376
1620 1.9080842400000002 10.55650176 0.5007122100000001 1.88251 -1.053802 0.027318
1640 -0.20551950000000002 8.789426460000001 -0.14624748 2.468064 -1.521765 -0.402758
1660 -1.21352643 7.81165395 -0.31150674000000006 3.259604 -1.808945 -0.667121
1680 -1.5064628400000002 7.159014270000001 -0.56282913 3.718635 -1.957669 -0.635951
1700 -0.8331632999999999 6.55067655 -1.73325042 3.235284 -1.928449 -0.597704
1720 0.53903007 5.767652160000001 -2.12094162 2.406684 -1.339674 -0.331849
1740 1.6359450300000002 4.77596907 -2.6867628000000003 1.6500130000000002 -0.800509 0.023233
1760 2.66880069 5.78232792 -2.9993094000000005 0.9613 0.289529 0.288354
1780 3.68833437 7.917189930000001 -1.68848739 0.527575 1.632995 0.09346
1800 4.3024992300000005 10.94388885 -1.17221652 -0.031801 1.120278 0.125461
1820 5.9899467600000005 11.12770863 -1.86332121 -0.748391 0.8591139999999999 0.256454
1840 5.913752489999999 8.70768954 -2.98299537 -1.521095 1.194598 0.412997
1860 5.648352750000001 6.4870587 -2.6159640299999998 -2.249525 1.547377 0.468345
1880 3.90208446 6.768625320000001 -1.46709531 -2.647155 1.674132 0.28380700000000003
1900 1.6434300600000002 9.10496511 -3.1242986100000003 -2.863448 1.414022 -0.281391
1920 -0.8414037000000001 13.79725488 -5.829474780000001 -2.825279 0.976434 -0.906542
1940 -4.05491445 19.26568242 -6.0335031599999995 -2.445406 0.041813 -1.141973
1960 -4.87850319 18.04841838 -2.8327061700000007 -1.935493 -0.422391 -1.115383
1980 -2.9544090300000003 10.6659225 -3.92035068 -1.412572 -0.198083 -0.919738
2000 -3.38371425 7.37711019 -7.041205980000001 -0.928241 0.126992 -0.582418
2020 -2.2356009 9.67527927 -8.50351401 -0.326712 0.428174 -0.232498
2040 -0.23725485000000002 9.8617968 -6.591397860000001 -0.171765 0.599849 0.124082
2060 -0.17963091 7.50150099 -5.01532326 -0.592684 0.527597 0.175714
2080 -0.77014386 5.518125 -3.68174205 -0.820585 0.652895 0.208144
2100 -0.35700552 4.168082610000002 -3.58459362 -0.387388 1.901914 0.502262
2120 0.21854718 2.6529379200000003 -3.80808504 0.43517 2.078246 0.447962
2140 0.56911734 1.26786402 -4.67148276 0.469461 1.703836 0.276697
2160 1.2808818900000003 0.37886220000000004 -4.77222165 0.069626 0.430665 0.132394
2180 1.83803103 1.31980797 -4.2927775200000005 0.359249 0.33673400000000003 -0.071629
2200 4.0866498 3.79116279 -3.1726521 -0.149367 -0.29199400000000003 0.422347
2220 3.6036054 6.7398820200000005 -2.9476695600000005 -0.479891 -0.385195 0.040939
2240 2.19159324 9.620048970000001 -2.69754399 -0.881286 -0.2601 -0.257923
2260 0.00299205 12.370576770000001 -2.2071617100000003 -1.035739 -0.316529 -0.13181099999999998
2280 -3.30527349 12.998514870000001 -1.97933427 -0.978253 -0.196948 0.016919999999999998
2300 -6.60606381 14.332547340000001 -2.29128246 -0.914862 -0.033377 0.082315
2320 -8.55845001 18.53820225 -2.9961702000000003 -0.749167 -0.014563 0.028969
2340 -3.12699636 11.26092843 -1.0656308700000001 -0.5280729999999999 -0.048 -0.059175
2360 1.3919507100000001 8.59243185 0.03771945 -0.350787 -0.054819000000000014 -0.105998
2380 4.747078620000002 8.776850040000001 0.16825131000000002 -0.014574 0.150927 -0.168006
2400 5.26320234 11.896361370000001 -4.74378246 0.373761 0.369086 -0.182665
2420 8.613533160000001 23.26612194 -6.460718850000001 0.721047 0.527519 -0.144122
2440 7.41738024 15.17604057 -2.8261236600000004 0.954115 0.460409 -0.080451
2460 2.83360869 8.5894398 -1.4316223499999998 1.0429 0.111457 -0.005677000000000001
2480 2.8620478800000004 8.69556438 -2.7167029200000004 1.192827 -0.543825 0.164989
2500 3.2587250400000003 9.716147730000001 -1.9347282000000001 1.621609 -1.537965 0.385039
2520 2.8999242900000004 9.992466 -0.4596966 2.366368 -1.852314 0.295572
2540 1.99909161 9.015605820000001 0.26748927000000006 3.296454 -2.369176 0.073064
2560 0.86625243 7.98664473 0.3912816600000001 4.013344999999998 -2.773729 -0.078439
2580 0.09714843000000001 7.1757795600000005 -0.26509562999999997 4.140002 -2.754389 -0.229267
2600 -0.17693316 6.67102563 -1.8067469400000002 2.8538900000000003 -2.6816310000000003 -0.525695
2620 -0.37855809 6.67162404 -2.5578790200000006 1.650471 -1.100257 -0.141954
2640 -0.27363033000000003 6.21851976 -2.26224486 0.8765290000000001 0.098408 0.204686
2660 0.72254574 5.04331119 -2.17901682 0.506305 1.520881 0.442763
2680 1.94714766 4.53811581 -2.26643373 -0.003996 1.827711 0.344802
2700 2.9069580600000005 5.07938256 -2.90785077 -0.840943 1.479192 0.580821
2720 3.9923462700000005 6.66698391 -2.39546466 -1.7075169999999995 1.239217 0.870973
2740 5.0322357 8.768619450000001 -2.5077303000000004 -2.267202 1.023197 1.0318459999999998
2760 6.333179040000001 9.627975450000001 -1.8407189700000002 -2.640729 0.8026409999999999 0.8340350000000001
2780 5.194198800000001 8.346348 -0.20597076000000003 -3.022551 0.5640729999999999 0.087123
2800 1.47892617 9.922118489999999 -1.61334279 -3.226076 0.450089 -0.8007770000000001
2820 -0.42556761000000004 14.62024521 -5.05858536 -3.170977 -0.020466 -1.1886219999999998
2840 -3.10289319 20.11906413 -7.60493763 -2.773437 -0.873871 -1.237094
2860 -5.6037466799999995 16.522492500000002 -5.10618348 -1.917336 -1.365232 -1.11298
2880 -5.0725057499999995 9.98782587 -5.09944401 -0.6726840000000001 -1.345406 -0.757139
2900 -4.3123779 7.13326302 -6.60531825 0.68771 -1.190663 -0.142153
2920 -3.02670873 10.56023937 -8.05445145 1.144915 -1.217934 0.419755
2940 -0.26989272000000003 12.039312690000001 -6.66473742 0.288838 -0.606658 0.4108560000000001
2960 0.43470072 10.02465261 -5.42411577 -0.437057 0.176802 -0.145353
2980 0.10432935000000002 7.63906662 -3.84341085 0.5856779999999999 0.475161 0.013096
3000 0.54890874 5.438340270000001 -3.2811801300000005 -0.834415 1.734875 0.570925
3020 1.19795796 2.8104080400000004 -3.1552884 -0.504827 0.474792 0.517158
3040 1.65825297 0.9018725400000001 -3.48939738 0.603136 0.589816 -0.435582
3060 1.43476155 0.5683717800000001 -3.54627576 -0.425429 -0.132276 1.477753
3080 2.44501497 1.88727723 -3.74341752 -0.033074 -1.020026 0.167719
3100 3.2148645300000003 4.89706371 -3.03523362 -0.622714 -0.6467510000000001 -0.492767
3120 2.45549205 7.742052 -2.10282255 -0.628598 -0.156304 -0.592781
3140 0.45445806 10.94598819 -1.5676870500000002 -0.5795899999999999 0.138424 -0.280895
3160 -3.9425016600000005 11.682601470000002 -2.2469805000000003 -0.662215 0.049272 -0.026053
3180 -7.21065411 14.21997759 -2.7961835400000004 -0.8048390000000001 0.263332 0.112613
3200 -3.1153224600000002 14.60887542 0.36688419000000005 -0.743587 0.585838 -0.138404
3220 0.49262877000000005 8.180343180000001 6.79242438 -0.398999 1.012945 -0.419623
3240 4.05371763 5.675143860000001 -2.2203365400000004 -0.182371 1.202048 -0.478173
3260 8.31311172 5.56108299 -3.90283002 -0.004303 1.005161 -0.413652
3280 2.2441356 17.13037896 -12.22088598 0.198613 0.15521300000000002 -0.358802
3300 6.00011973 49.54876001999999 -0.90995598 0.387979 -0.904372 -0.347576
3320 -0.37287810000000005 5.45704794 3.7470079800000002 0.478172 -1.681453 -0.302153
3340 2.6478465300000003 4.69738116 -4.13919216 0.546809 -2.286879 -0.274192
3360 4.94003151 8.07674958 -3.96840006 0.883281 -2.914415 -0.277447
3380 3.76047711 9.61540884 -1.89131895 1.417139 -3.4090480000000003 -0.387384
3400 1.99145943 9.32860368 0.048353490000000006 2.140132 -3.927308 -0.347487
3420 -0.65144286 9.24387471 -0.5977036800000001 2.854877 -3.973354 -0.374482
3440 -1.8432695700000001 8.75095164 -2.7255319200000003 3.349298 -3.026566 -0.475859
3460 -1.64418543 7.59310677 -2.56880736 2.8643400000000003 -2.010574 -0.517936
3480 0.31239945 7.08865695 -1.4016822299999998 2.282491 -0.565534 -0.411689
3500 2.52719334 6.754400820000001 -2.07394191 1.987987 1.115427 -0.14564000000000002
3520 3.7167735600000014 6.195917520000001 -2.04594417 1.641657 2.641328 0.579581
3540 4.35998583 6.21163314 -1.78922628 0.947283 2.902995 1.278354
3560 4.58825472 6.803951130000001 -2.08186839 0.16208599999999998 1.395646 1.422215
3580 4.8238713 7.184608560000001 -2.2267719 -0.806074 0.431369 1.512828
3600 4.40114859 7.504345890000001 -1.9429587900000003 -1.537261 0.04324 1.439852
3620 3.9282771600000004 7.73382141 -1.14092262 -1.894895 -0.519113 0.923192
3640 3.51154836 7.99846578 -0.15822549 -2.063826 -1.011265 0.269959
3660 1.1891289600000001 8.46849231 0.29309337 -2.184698 -1.1354799999999998 -0.262701
3680 -0.12962933999999998 10.30172625 -0.04505733 -2.235146 -0.970387 -0.745033
3700 -3.3931416600000004 14.451248340000001 -1.87365114 -2.048146 -0.631579 -1.185337
3720 -5.02265133 15.29325045 -2.4051961800000003 -1.74335 -0.347744 -1.301076
3740 -5.4313065 12.15172548 -2.17796715 -1.642368 -0.952654 -0.6319560000000001
3760 -4.68151839 9.864936 -4.21658325 -0.7246779999999999 -1.752914 -0.036999
3780 -7.155423810000001 11.68051194 -7.0452477 0.715598 -1.545845 -0.054977
3800 -3.33311427 15.525561060000001 -9.130716360000001 1.30009 -1.057837 0.475113
3820 0.40086603 13.706845920000001 -7.21663821 1.1263299999999998 -0.267719 1.236666
3840 1.86197724 9.6941439 -7.31768121 0.305532 1.903471 1.1095780000000002
3860 3.43865025 6.30399429 -5.357809980000001 -0.254522 2.84816 0.84915
3880 4.9716099 3.8684067300000002 -3.30916806 -0.355117 2.599851 0.428954
3900 3.1585845600000004 3.18851487 -1.9446068699999999 0.126685 0.21225 -0.440563
3920 1.61469657 3.47876334 -1.71947718 -0.223448 -1.058306 -0.483041
3940 0.55983708 4.19233293 -2.1468400200000004 -0.216409 -0.722266 0.189557
3960 0.12843252 4.8277560600000005 -2.2372489800000004 -0.423387 -0.707647 0.44233
3980 -1.19840922 5.9739270300000005 -3.2388107400000004 -0.768512 -0.787766 -0.001154
4000 -4.0362067800000005 9.81164808 -4.82746176 -0.421486 -1.48865 -0.052311
4020 -4.794676740000001 13.138474140000001 -3.4753200300000002 -0.409949 -0.855558 0.39027
4040 -3.9031341299999998 14.63880573 -3.51798372 -0.6289060000000001 -0.8467459999999999 -0.024672
4060 -2.62374336 12.707824950000001 -5.58548046 -0.8811680000000001 -0.571822 -0.359004
4080 -0.6483036600000001 8.78163732 -7.13909997 -1.3801 -0.195223 -0.066006
4100 -0.65787822 2.98988199 -6.880743810000001 -1.516445 0.215943 0.05963400000000001
4120 1.0431855900000004 1.29615606 -5.24898765 -1.207684 0.431591 -0.05705900000000001
4140 -0.42721569 4.62522861 -2.57958855 -1.093966 0.164492 -0.226838
4160 0.7438040100000001 10.43211096 1.0990143 -1.067858 0.047079 -0.457241
4180 2.2649426100000003 19.475851860000002 0.09834525 -1.02485 0.122448 -0.694182
4200 2.80725903 13.640088870000001 0.9228267 -1.040701 0.492712 -0.833636
4220 5.0925573900000005 9.68156748 0.5225590800000001 -1.194212 0.755312 -0.8361129999999999
4240 5.049000990000001 13.067528220000002 1.79417052 -1.208064 0.5676869999999999 -0.790036
4260 5.215908330000001 24.60253824 -1.47533571 -1.147422 0.32234 -0.7593880000000001
4280 1.8277011 15.39339093 -3.0476628900000002 -1.129475 0.08137 -0.720498
4300 -3.42217926 7.4443185000000005 -1.14586686 -0.910804 -0.05830800000000001 -0.611969
4320 -1.0409391000000001 8.49678435 0.8238830400000001 -0.630926 -0.296412 -0.451612
4340 0.5291514 12.2684841 -0.9262700100000001 -0.420559 -0.383867 -0.34214
4360 0.79769034 13.32229392 -1.77530589 -0.09823 -0.609695 -0.357759
4380 0.1329255 10.09441152 -0.07469334000000001 0.415768 -1.127126 -0.34389200000000003
4400 -0.13232709 7.618710870000001 1.15649109 1.116899 -1.630814 0.06650700000000001
4420 -0.24114942 6.05909745 1.2609774000000002 1.877035 -1.440847 0.385631
4440 -0.16031502 5.510041560000001 0.32377905 2.31208 -1.6789630000000002 0.680599
4460 0.34383069000000005 5.38175619 0.04775508 2.665776 -2.1048310000000003 0.845985
4480 0.9081607500000001 6.2351379 0.20387142 2.941092 -2.719729 0.932017
4500 1.10035827 7.49745927 -0.60489441 3.046459 -2.484888 0.986932
4520 1.1241671400000002 9.02592594 -1.83203712 3.049028 -1.53959 0.8853260000000001
4540 1.65825297 10.547515800000001 -2.7774758700000004 2.679135 -0.216558 0.949413
4560 2.49246594 11.02427199 -1.7058510900000003 2.377155 0.172774 1.350592
4580 3.7342844100000003 11.0188863 -0.29637972 2.169521 -0.9002829999999999 1.611163
4600 4.388572170000001 11.17740609 -0.48050360999999997 1.989959 -2.318918 1.688639
4620 3.9730401900000003 12.0945528 -2.38543884 1.85916 -2.784596 1.840009
4640 4.43303109 13.648172310000001 -2.97985617 1.440673 -3.2882010000000004 1.86871
4660 4.54230468 15.199839630000001 -1.21307517 0.815295 -3.96077 1.707107
4680 3.4970295600000005 16.08779178 1.3265376300000002 0.382662 -3.991692 1.55671
4700 1.8050988600000002 12.581638920000001 1.6265176200000002 0.022094 -3.957622 1.3415709999999998
4720 0.17738442000000001 9.349253730000001 1.1298471300000001 -0.342671 -3.857691 1.176526
4740 -0.76595499 8.485551899999999 0.9686394 -0.588395 -3.610145 1.022805
4760 -1.98382725 10.60874001 0.5007122100000001 -0.90264 -3.120776 0.927047
4780 -1.9121259600000002 14.466365549999999 0.8156524500000002 -1.149959 -2.416621 0.873143
4800 -1.9809823500000001 17.453559600000002 -0.78422121 -1.251729 -1.629809 0.8019890000000001
4820 -0.2225889 15.00150105 -2.36553435 -1.224572 -0.890278 0.721115
4840 2.3246658900000003 13.182638760000001 -2.5509924 -1.15413 -0.484353 0.646311
4860 3.18178521 12.412485090000002 -1.86302691 -0.6245350000000001 -0.7232649999999999 0.7923899999999999
4880 3.42622098 11.15585352 -1.42114527 0.10418 -0.791551 0.720655
4900 2.9056042800000004 10.52641449 -1.35018954 0.904416 -1.340358 0.873295
4920 2.0700473400000003 8.382419370000001 -1.0734200100000002 1.275683 -2.019311 0.910941
4940 1.3012474500000002 6.5243367 0.29099403 0.733556 -2.087695 0.633777
4960 1.01444229 5.01592167 0.48155328000000003 0.227467 -1.731171 0.359525
4980 0.5327418599999999 3.962259 0.10148445 0.099205 -1.104209 0.325779
5000 -0.1995354 3.9025357200000004 0.18202455 0.322315 0.135961 0.35138600000000003
5020 -0.6635680199999999 4.65591429 -0.32318064 0.238124 -0.058888 0.134198
5040 -1.17341334 5.38998678 -1.30723155 -1.13611 0.665172 0.8735629999999999
5060 -1.87006068 5.96344995 -2.22871428 -0.29004800000000003 -0.842659 0.789538
5080 -2.39382639 6.81937245 -2.87132814 -0.176242 -1.2392299999999998 0.231093
5100 -2.5364736000000003 8.63509554 -4.56835023 -0.958971 -1.463348 -0.318881
5120 -2.1874043700000003 11.6379954 -5.504803020000001 -1.512858 -1.555055 -0.6142569999999999
5140 -1.46694816 15.517781730000001 -5.54387625 -1.484988 -1.45541 -0.7819
5160 0.6723970199999999 16.11323892 -5.242101030000001 -1.57247 -0.893833 -0.218142
5180 1.7973097200000003 12.37746339 -6.17810256 -1.896816 -0.182905 0.497595
5200 1.50347079 6.27420132 -5.51797785 -1.893016 0.028756 0.576399
5220 0.37781253 2.76684183 -5.1534873 -1.584985 -0.316347 0.29805
5240 1.90359126 1.3913522999999999 -5.14180359 -1.27822 -0.915093 0.047792
5260 1.46096406 4.91578119 -5.3055717300000005 -1.182166 -1.215551 -0.022723
5280 -1.12700223 10.9579662 -3.4160480100000004 -1.170076 -1.139946 -0.02594
5300 6.493798170000001 26.116790220000002 -3.8299319100000004 -1.123643 -0.890383 -0.138099
5320 1.9002951000000001 17.99303112 1.96915149 -1.089901 -0.546248 -0.179965
5340 0.08382645000000001 7.241791050000001 0.60444315 -1.387168 -0.031556 -0.229703
5360 3.1403183400000003 5.35451382 -0.5171733900000002 -1.564392 0.275364 -0.372339
5380 3.6896783400000004 4.3294473 0.5694116400000001 -1.555397 0.234364 -0.5164340000000001
5400 3.3501836700000003 6.57597654 1.24495767 -1.323545 0.006914 -0.580753
5420 1.99415718 11.861928270000002 0.8658011700000001 -0.95017 -0.127992 -0.467945
5440 -0.8346642300000001 15.01333191 -0.94707702 -0.509483 0.046659 -0.303789
5460 -0.49052943 12.903917040000001 -1.3810321799999998 -0.07396599999999999 0.003018 -0.157549
5480 -0.19264878 10.106232570000001 -1.2051486900000001 0.193948 -0.17594 -0.125538
5500 -0.45670455000000004 8.111781090000001 -0.47974824000000005 0.308137 -0.623834 -0.104939
5520 0.09624591 7.46108379 -0.46986957000000007 0.571441 -1.005625 0.038395
5540 0.6283893599999999 6.92879319 -0.6125265900000001 1.316239 -1.037713 0.224168
5560 0.7213489200000001 6.969357540000001 -0.66088008 1.860807 -1.199083 0.678968
5580 0.8298769500000001 7.3130410800000005 -0.28546119000000003 2.117572 -1.801445 1.108823
5600 0.61896195 8.36490852 1.12955283 2.721706 -2.241164 1.3240459999999998
5620 -0.08712261 9.25315497 1.3253408100000001 3.362989 -2.463897 1.323469
5640 -0.41194152000000006 10.15503732 0.42152589 3.716995 -1.7177349999999998 1.165821
5660 -0.31285071000000003 10.024054200000002 -1.116378 3.503285 -0.486117 1.045245
5680 0.7595196300000001 9.70596495 -1.92260304 2.875018 0.027584 1.529444
5700 1.9224558900000002 10.38210939 -1.12101813 2.202696 0.264348 2.043601
5720 2.40370506 10.889551260000001 -0.10537902 1.638088 -1.005381 2.246383
5740 2.16464517 11.689939350000001 -0.74335275 1.405497 -2.1340060000000003 2.306025
5760 2.74229721 12.37177359 -1.61140041 1.30753 -2.593865 2.039942
5780 3.0380785200000004 11.98482795 -1.5444864 1.071989 -3.353353 1.698507
5800 3.25812663 11.842327890000002 -1.3900083300000001 0.781606 -3.737658 1.353004
5820 3.6872847 13.088629530000002 1.21098564 0.331372 -3.374625 1.001154
5840 2.05192827 12.35575386 0.89514288 -0.072668 -2.633861 0.719644
5860 0.49203036 10.73791809 0.25312743 -0.536747 -1.6842419999999998 0.474836
5880 -1.7751587400000002 9.63860949 1.05335856 -0.967765 -1.046574 0.158019
5900 -2.9316498300000005 10.552901490000002 0.79783749 -1.135942 -0.6755680000000001 -0.034843
5920 -2.79259308 14.21983044 0.23471406 -1.175272 -0.323268 -0.190461
5940 -1.42084116 17.5899186 0.5794472700000001 -1.254163 0.135194 -0.220442
5960 0.57165813 14.7036204 0.11061756 -1.462245 0.707545 -0.114738
5980 1.49284656 13.2806799 -1.6024144500000002 -1.67148 1.103697 -0.166914
6000 2.85590682 14.01685173 -3.00231126 -1.502096 1.047603 -0.40494
6020 3.2534865 14.353805609999998 -2.51372421 -0.967027 0.762955 -0.813172
6040 1.9938530700000001 12.53687589 -2.15102889 -0.466748 0.289098 -1.028056
6060 0.70922376 8.81786565 -1.52458191 -0.361768 0.011348 -0.924417
6080 -0.23007393000000004 5.7666123 -0.31374342 -0.755229 -0.086605 -0.596959
6100 -0.40775265 3.4533162 -0.15642045 -1.118943 0.194848 -0.33707800000000004
6120 -1.0972190700000002 2.52943983 -1.3657580100000002 -1.143558 0.737881 -0.25142
6140 -1.38491694 2.7562176 -2.4815376000000002 -0.8310069999999999 0.8737309999999999 0.136217
6160 -0.3617928 2.30071968 -3.62261718 -0.521411 0.633265 0.328832
6180 -0.16780005000000003 2.8758211200000003 -4.01539977 -0.350804 0.808714 0.52742
6200 -0.22333446 2.72014623 -3.82708701 0.188159 -0.24189 0.387252
6220 -0.31270356000000005 2.61386469 -3.5976213 0.208276 -0.276049 0.387437
6240 0.004640130000000001 2.80875996 -3.20123844 0.105059 -0.242558 0.359967
6260 0.27572967000000004 4.080518550000001 -2.4382755 -0.134224 -0.843366 0.299245
6280 0.6908103900000001 5.18671377 -1.97244765 0.290535 -0.212578 0.427454
6300 1.51514469 6.69572721 -1.51006311 0.03159 -0.5114489999999999 0.5339189999999999
6320 1.4632105499999999 8.59093092 -1.8595836000000001 -0.165935 -0.961715 0.352587
6340 0.06615864 10.243651049999999 -2.5584774300000004 -0.457133 -1.269291 0.26655700000000004
6360 -1.60061922 10.28510811 -3.17250495 -0.56572 -1.534907 0.184954
6380 -2.56282326 10.197691200000001 -2.92117275 -0.6812050000000001 -1.689645 0.087138
6400 -2.43977643 10.33016544 -2.09234547 -0.791238 -1.531411 0.039164
6420 -3.6860878800000005 11.058557940000002 -1.8598779 -0.642926 -1.102424 -0.009488
6440 -3.64791717 13.457161800000002 -3.27623589 -0.25911300000000004 -0.661883 -0.221015
6460 0.04086846000000001 15.803233109999999 -0.9166954500000001 0.169924 -0.326061 -0.391501
6480 6.01090092 11.230242750000002 0.77284161 0.302646 -0.261419 -0.421635
6500 5.141509290000001 7.97691321 -1.81452627 0.372013 0.004561 -0.396922
6520 4.46251995 11.3633154 -4.0300657200000005 0.495594 0.202271 -0.396312
6540 4.689150570000001 14.63820732 -4.12512462 0.911217 0.304284 -0.426655
6560 1.94085945 16.96901427 -5.74969005 1.636945 0.060180999999999985 -0.484298
6580 2.3281092 14.622040440000001 -2.4691181400000004 2.691352 -1.090546 -0.27570100000000003
6600 3.55974489 8.90334018 -1.44524844 3.56554 -2.0782380000000003 0.07670700000000001
6620 4.3553457 7.875271800000001 -0.8069706000000001 4.093769 -1.677955 0.216616
6640 4.343220540000001 7.80896601 -0.51867432 3.622073 -1.212041 -0.004125
6660 3.0597880500000008 7.02414639 -0.26344755000000003 2.65631 -0.364659 0.17818699999999998
6680 1.4745803400000002 6.72715845 -0.36628578000000006 1.983856 -0.043242 0.5683199999999999
6700 0.44666892 7.60104306 -1.2338821800000002 1.574404 -0.197471 0.597704
6720 -0.30027429 8.455768740000002 -2.18096901 1.21565 0.052644 0.432508
6740 -1.1891289600000001 8.29469835 -2.5195611600000003 0.483718 0.135671 0.284147
6760 -1.34899272 7.8641963100000005 -2.55278763 -0.418205 -0.009987 0.461768
6780 -0.74365686 7.22038563 -2.41298532 -1.344476 0.062005999999999985 0.576983
6800 0.05478885000000001 7.585180290000001 -2.7732870000000003 -2.133791 0.325917 0.7975949999999999
6820 1.4844590100000001 8.008491600000001 -2.94871923 -2.804167 0.5092369999999999 0.8225870000000001
6840 3.30706872 8.0138871 -2.43917802 -3.221634 0.563349 0.7063699999999999
6860 5.3928316800000005 7.45838604 -0.16914402 -3.1196900000000003 0.650414 0.423892
6880 4.03111539 9.14433264 -0.25985709 -2.783058 0.416326 0.064416
6900 1.9592728200000002 12.91394286 -3.1823836200000004 -2.584566 0.051866 -0.073667
6920 -3.0558934800000004 16.66544382 -6.17929938 -2.482738 0.271454 -0.197151
6940 -6.4574226900000005 19.18979226 -5.50420461 -1.6292719999999998 0.622607 -0.307008
6960 -6.917413590000001 14.54181426 -3.4172448300000005 -0.545805 0.716018 -0.097665
6980 -3.68893278 10.594368359999999 -3.22744095 -0.191209 1.164999 0.2685
7000 -1.15514712 7.27786242 -5.06038059 -0.549692 1.317851 0.183547
7020 -0.30206952000000004 6.37134975 -6.77371671 -0.826253 2.171103 -0.100421
7040 -0.47032083 8.3526264 -6.81128901 -0.130347 2.39048 -0.419512
7060 -0.70608456 8.12435751 -6.09891624 0.412454 1.6513060000000002 -0.389136
7080 -1.1719124099999998 6.7156317 -5.19929019 0.324162 1.428299 0.044231
7100 -1.81242693 4.5235970100000005 -4.56700626 -0.001226 0.872851 0.435776
7120 -1.5477825600000001 3.1744473300000005 -4.984784729999999 -0.196935 -0.010268 0.606456
7140 -0.8414037000000001 2.45145033 -5.60329542 -0.594687 -0.8719309999999999 0.648579
7160 -0.01392039 2.35250667 -5.17473576 -0.615844 -0.999969 0.7180300000000001
7180 0.72419382 2.49217164 -4.49110629 -0.291566 -0.5546810000000001 0.7026319999999999
7200 0.83107377 3.5592936300000004 -2.8451354400000004 0.108246 -0.306024 0.7766770000000001
7220 0.4837899600000001 6.340369770000001 -0.9894464100000001 0.424679 -0.6482 0.292217
7240 -0.04146687000000001 12.8699352 -0.6493533300000001 0.496391 -0.6971579999999999 -0.046914
7260 -3.02730714 16.928597070000002 -2.50953534 0.278513 -0.31285300000000005 -0.325598
7280 -5.98679775 15.391144440000001 -4.412224080000001 0.216788 0.061816 -0.461105
7300 -4.996007370000001 9.73949553 -4.7904878700000015 0.263826 0.5124449999999999 -0.506219
7320 -2.88704376 8.64167805 0.10673280000000002 0.333313 0.8517399999999999 -0.4345979999999999
7340 0.49846572000000006 10.107576540000002 3.5363970900000004 0.498782 0.46633 -0.366718
7360 3.2817785400000004 10.08333603 0.8880993 0.681737 -0.041738 -0.276127
7380 6.899451480000001 10.87982955 -1.29226149 0.930156 -0.619608 -0.102736
7400 8.31685914 11.42334279 -4.22182179 1.420805 -0.8748889999999999 -0.091504
7420 7.51841343 9.732010500000001 -3.8725956000000004 2.053677 -1.2354120000000002 -0.25860500000000003
7440 5.698197360000001 9.98154747 -2.1519216 2.878298 -1.545934 -0.30906300000000003
7460 3.72275766 13.888713509999999 -3.5568999900000002 3.5097629999999995 -1.6319549999999998 -0.12401199999999997
7480 3.5543592 19.36747098 -2.6129621700000003 3.383058 -1.551603 0.137782
7500 0.75233871 11.192229000000001 -0.46343421000000007 2.381927 -1.866667 0.141875
7520 -1.73339757 7.050633390000001 -0.20297871000000003 1.58604 -0.730007 0.562148
7540 -1.4100697800000002 5.41903419 -0.91818657 0.771927 0.371516 0.728102
7560 -0.5063922000000001 5.95161909 -2.53018539 0.390421 1.065851 0.848461
7580 0.042065280000000004 6.57313164 -3.20632983 0.17792 1.378028 0.487654
7600 1.3019930100000001 7.02144864 -3.44553687 -0.327334 1.606069 0.374874
7620 2.24069229 7.4471634 -3.28207284 -0.908438 1.793014 0.481671
7640 2.909646 8.07091263 -2.9802976200000004 -1.319535 1.6583259999999995 0.421288
7660 3.2485422600000002 9.536369670000001 -3.16741356 -1.595289 1.28855 0.159189
7680 4.44171294 9.974808 -2.3863413600000003 -1.867639 1.037668 -0.267544
7700 5.01532326 8.518189770000001 -1.9461078 -2.209445 0.763587 -0.6936640000000001
7720 5.95686744 6.98028588 -1.29316401 -2.359042 0.188944 -0.981325
7740 4.4509932 7.19104392 -1.116378 -2.149726 -0.49785 -1.239629
7760 1.44644526 9.75027672 -3.27503907 -1.769738 -0.765216 -1.307134
7780 -2.26822896 14.674582800000001 -6.95064987 -1.365519 -0.656284 -0.927368
7800 -4.67552448 18.39793887 -7.1932904099999995 -0.925181 0.010254 -0.429491
7820 -6.04398024 15.019168860000002 -4.15805679 -0.303944 0.6766939999999999 -0.06387899999999999
7840 -4.48706457 9.7203366 -5.3847482399999995 -0.259999 0.820067 0.273803
7860 -3.6878831100000005 8.3756799 -5.3847482399999995 -0.958995 1.263489 0.280102
7880 -0.37541889 8.28721332 -6.1213713300000006 -1.336698 1.051518 0.070501
7900 1.38012966 8.042777549999998 -5.7212508600000005 -0.783253 0.5730729999999999 -0.108755
7920 0.9135464400000001 7.67394117 -4.92595416 -0.102817 0.157875 -0.230588
7940 0.5965068599999999 6.474040830000001 -4.06404756 0.46459 1.051858 -0.243794
7960 0.47196891 5.7269406599999995 -3.9454937100000005 0.435566 1.566242 0.083288
7980 0.35745678 4.684657590000001 -4.257598860000002 -0.169623 1.092998 0.140556
8000 0.19444401 3.68429265 -4.913083439999999 -0.466853 1.021315 0.209075
8020 0.12589173 3.2606674200000003 -5.1103723500000005 -0.393297 1.01358 0.214939
8040 0.6982954200000001 3.81062583 -4.89302199 -0.266733 0.5981529999999999 0.36377
8060 1.6994157300000001 5.4051138000000005 -4.08096 -0.136743 0.053473 0.332262
8080 1.35363285 7.35570477 -3.82798953 -0.150372 -0.565674 0.133202
8100 0.6114769200000002 9.30809097 -3.6896783400000004 -0.156152 -0.80796 -0.010738
8120 -0.3005784 11.966414580000002 -3.4307139600000003 -0.256449 -0.63903 -0.07788400000000001
8140 -1.90299285 12.99597408 -2.94707115 -0.320653 -0.188268 -0.059683000000000014
8160 -2.76265296 10.98461016 -2.5875150300000005 -0.280214 0.33754 0.014702000000000003
8180 -2.74724145 11.968062660000001 0.21151341 -0.20369 0.5544100000000001 0.059824
8200 -2.82088512 11.3863689 1.27190574 0.016942 0.7400800000000001 0.056854
8220 -1.4596102800000001 9.84637548 -1.27205289 0.140269 0.8728440000000001 0.049
8240 0.9123496200000001 10.670562630000001 -2.65113288 0.184183 0.445478 0.0584
8260 4.16074473 11.84381901 -2.0767770000000003 0.214063 -0.168613 0.15553499999999998
8280 4.35219669 11.994108210000002 -2.38438917 0.208934 -0.787712 0.203295
8300 3.7342844100000003 12.262951260000001 -2.9987109899999997 0.37715 -1.2235120000000002 0.083251
8320 4.76953371 13.556105460000001 -3.42413145 0.777131 -1.676872 -0.108859
8340 5.00020605 12.027638790000001 -3.4904372400000003 1.401286 -2.137261 -0.335714
8360 4.53122919 11.19761469 -3.4274178000000006 2.392179 -2.530202 -0.4319060000000001
8380 4.13424792 10.18018035 -1.8272498400000001 3.3902080000000003 -2.365593 -0.370666
8400 2.8259765100000003 9.03311667 -1.25873091 3.698144 -1.633127 -0.260496
8420 1.7989578 8.215963290000001 -1.4636520000000002 3.007287 -1.4456790000000002 -0.184377
8440 0.52496253 7.847735129999999 -2.20821138 2.439941 -0.676608 0.055298
8460 -0.35356221 7.600591800000001 -2.58946722 1.757038 0.499774 0.301121
8480 -0.5450141700000001 7.213803120000001 -2.54381148 0.967607 1.193071 0.501953
8500 -0.39278259 6.533911260000001 -2.75861124 0.57063 0.8540000000000001 0.657712
8520 0.33200964 6.563252970000001 -2.76549786 0.287926 0.279094 0.55072
8540 1.81423197 7.02713844 -2.5418592900000005 -0.32103400000000004 0.254783 0.23244
8560 3.65719743 8.28077796 -1.8208144800000001 -1.051352 0.80821 0.195651
8580 5.292396899999999 8.78582619 -1.24990191 -1.604725 1.126506 0.197787
8600 6.179446530000001 8.96680107 -1.69687494 -2.049729 1.126782 -0.017897999999999997
8620 5.91794136 8.824752270000001 -2.16988371 -2.427411 0.964588 -0.420911
8640 5.3570644199999995 7.970173740000001 -1.6271160300000003 -2.513114 0.6653680000000001 -0.643317
8660 4.30833618 7.6261959 0.23665644 -2.39435 0.335396 -0.811912
8680 1.3403108700000002 9.29103138 -1.40078952 -2.093907 -0.02358 -1.077477
8700 -0.97641873 14.371767720000001 -4.31342757 -1.782285 0.031542 -1.279401
8720 -3.84565734 17.98195563 -5.209620120000001 -1.145356 0.013521 -1.054875
8740 -4.579729830000001 15.56059257 -3.37847571 -0.09637 -0.233508 -0.395616
8760 -5.16141378 11.77391295 -3.02535495 0.360508 0.391012 -0.05994
8780 -4.03874757 9.6133095 -4.3553457 -0.462833 1.722077 0.25307
8800 -0.7036909200000001 8.494989120000001 -5.5815957 -1.197444 2.5841380000000003 0.293836
8820 1.7504571599999998 8.03843172 -4.95873918 -0.948762 2.212119 0.137953
8840 2.2978747800000003 6.62971572 -4.7244763800000005 -0.387922 1.154602 0.109042
8860 1.81646865 5.7708011699999995 -4.2309549 -0.039815 0.929899 0.056214
8880 0.12798126 5.80208526 -4.51056933 0.188011 0.928563 -0.073584
8900 -0.058232160000000005 5.087917260000001 -4.03770771 -0.07748300000000001 0.034578 -0.055065
8920 0.05867361000000001 3.9621118500000003 -3.7830793500000004 -0.315952 -0.183545 0.08669099999999999
8940 0.3412899 2.8868966100000004 -3.6739627200000005 -0.559987 -0.35952399999999995 0.084143
8960 0.92238525 2.59860033 -3.7549442700000006 -0.247229 -0.233147 0.176965
8980 1.59074055 3.56663151 -3.5420868899999998 0.008217 -0.157014 0.629441
9000 1.06802451 5.5682737200000005 -3.52501749 0.0008619999999999999 -0.724197 0.749758
9020 0.17289144 9.65791557 -4.21209027 -0.018152 -1.079289 0.588778
9040 -1.2301445700000002 15.275435490000001 -4.85500824 -0.066588 -1.021363 0.264695
9060 -3.63144618 16.476689610000005 -3.75269778 0.061416 -0.859713 -0.044403
9080 -3.71587104 12.182264009999999 -2.76071058 0.180528 -0.448062 -0.260947
9100 -2.9193775200000003 10.186615710000002 -2.9352500999999998 0.111009 -0.056681 -0.3068
9120 -1.01339262 11.833793190000002 0.0085347 0.15949000000000002 -0.202738 -0.32016100000000003
9140 0.47271447000000005 10.552754339999998 1.8731998800000003 0.348802 -0.26015900000000003 -0.243989
9160 1.55780838 8.94419883 -0.7444024200000001 0.642891 -0.256207 -0.155414
9180 3.9062733300000003 9.44072217 -2.4881299200000004 1.101226 -0.787404 -0.114144
9200 6.42987621 10.81411236 -2.8099567800000003 1.779779 -1.349741 -0.201619
9220 6.98253237 11.131299089999999 -2.83765041 2.649428 -1.776933 -0.418256
9240 5.453310330000001 10.413844740000002 -2.6837707500000003 3.364614 -1.849112 -0.570196
9260 3.20393619 10.67729229 -4.209843780000001 3.688612 -1.56842 -0.44972
9280 3.2168069100000003 17.401458690000002 -2.8689345 3.126836 -1.241379 -0.229737
9300 3.2319339300000003 12.31219746 -0.30926025 2.301974 -1.0996629999999998 -0.056219000000000005
9320 1.5832555200000002 8.19830529 -0.45909819 1.546553 -0.227291 0.353993
9340 1.2723570000000002 5.700591 -0.99288972 0.708929 0.7120529999999999 0.60438
9360 1.33253154 5.26125996 -1.5820587000000002 0.475947 1.115577 0.859677
9380 0.77927697 5.969885310000001 -2.6316796500000006 0.26460500000000003 1.220093 0.7469720000000001
9400 0.30476727000000003 6.89227056 -3.0856864500000003 -0.435954 0.967387 0.8802030000000001
9420 0.5477119200000001 8.35562826 -3.16157661 -1.118901 0.879559 1.058211
9440 1.58550201 10.21925358 -2.5020503100000004 -1.565495 0.916509 0.996292
9460 2.50413984 10.758725100000001 -2.4081882300000004 -1.859268 0.73459 0.657983
9480 3.34987956 10.049805450000001 -1.81587024 -2.15529 0.6425420000000001 -0.041515
9500 3.3795253800000005 8.518788180000001 -2.31688656 -2.349736 0.628855 -0.7115630000000001
9520 4.3024992300000005 7.423217190000001 -1.68250329 -2.257056 0.333341 -1.215806
9540 3.6428257800000003 7.14748752 -1.67291892 -1.964675 -0.073882 -1.396976
9560 2.24054514 8.080497000000001 -2.0646518400000002 -1.666087 -0.345383 -1.159534
9580 -0.37616445 10.611133650000001 -4.07827206 -1.405145 0.07548400000000001 -0.8741030000000001
9600 -3.3699410100000002 14.07418137 -5.36080203 -0.999507 0.557028 -0.437121
9620 -4.30295049 15.297292170000002 -4.1356017000000005 -0.5822609999999999 0.675665 -0.097868
9640 -3.57382224 11.28577716 -3.3859607400000002 -0.991145 0.914403 -0.039073
9660 -2.2936761 7.65867681 -4.57672797 -1.524843 1.513048 -0.099116
9680 -1.2148704000000001 6.930588419999999 -4.75650603 -1.400064 1.954794 -0.121243
9700 -0.6460571700000001 8.47133721 -5.3810106300000005 -0.916597 1.41343 -0.222926
9720 0.26225073 9.39236868 -6.05640951 -0.444657 0.896805 -0.107873
9740 0.9165483000000001 8.816511870000001 -5.35092336 0.116148 1.039878 0.123393
9760 0.74005659 7.150783680000001 -4.464168030000001 0.677373 0.939401 0.25456
9780 0.92672127 5.66736453 -3.98277171 0.14876199999999998 -0.341418 0.2696
9800 1.16263215 4.408329510000001 -3.85717428 -0.395608 -0.599594 0.303516
9820 0.61776513 3.6694697400000003 -4.714892010000001 -0.648932 -0.25654 0.513884
9840 1.27295541 3.63220155 -5.09300865 -0.712757 0.068517 0.798236
9860 2.5207579800000004 5.17473576 -4.708162350000001 -0.227579 0.015675 0.804898
9880 2.2936761 8.001163530000001 -4.83884136 0.230082 -0.5650350000000001 0.708426
9900 1.6420860900000003 11.240729640000001 -4.975651620000001 0.576393 -1.256162 0.349603
9920 -0.14070483 14.44211523 -4.5463464 0.513073 -1.243761 -0.03221
9940 -3.18522852 14.92979976 -3.0258062100000003 0.382723 -0.54259 -0.240186
9960 -4.78465092 11.135939220000001 -2.34652257 0.200064 0.268017 -0.331163
9980 -4.24726893 8.137679490000002 -2.71235709 0.032724 0.788416 -0.322317
10000 -2.00268207 9.489968370000001 0.6873670799999999 0.066133 0.376087 -0.334373
10020 0.16076628 10.23945237 2.3792977800000004 0.211409 -0.5171859999999999 -0.317259
10040 1.75300776 8.0053524 0.38888802 0.572045 -0.679578 -0.246166
10060 4.03965009 7.88485617 -2.7872073900000003 1.099831 -1.14408 -0.160699
10080 5.009780610000001 8.6068035 -3.86166726 1.905569 -1.894346 -0.248113
10100 6.01314741 10.28810997 -2.44456371 2.820195 -3.1136790000000003 -0.343779
10120 5.14824876 11.50133229 -1.9690043400000001 3.4161370000000004 -3.394023 -0.28371
10140 4.338727560000001 13.19371425 -2.7854121600000004 3.493404 -2.432947 -0.13378199999999998
10160 3.44254482 13.65789402 -3.34090341 2.886792 -1.803714 -0.320424
10180 2.7297207900000005 14.189144760000001 -0.7438040100000001 2.221469 -0.822053 -0.145799
10200 1.8845794800000002 10.82384388 0.7463448 1.415539 0.402311 0.46123
10220 1.17894618 7.803119250000001 -0.67030749 0.8453620000000001 1.245992 0.693311
10240 0.41523768 5.8803690600000005 -1.77096987 0.610491 1.513933 0.7575569999999999
10260 0.59411322 5.588031060000001 -2.49681177 0.08659700000000001 1.142342 0.631528
10280 0.73736865 6.374341800000001 -3.72710349 -0.676053 0.8269549999999999 0.510169
10300 0.80367444 6.477631290000001 -4.49530497 -1.403001 0.99241 0.523039
10320 1.65256317 7.14359295 -3.39254325 -1.969623 1.144839 0.457997
10340 2.93929182 8.77041468 -2.8327061700000007 -2.428202 1.090144 -0.117703
10360 4.268968650000001 10.508295420000001 -2.76116184 -2.801854 1.166122 -0.944009
10380 5.6875731300000005 10.454860350000002 -3.0341937600000004 -2.980605 1.124627 -1.334037
10400 6.420448800000001 8.31176775 -1.8375797700000003 -2.6256150000000003 0.32665500000000003 -1.355104
10420 6.214772340000001 7.36618185 -0.16794720000000002 -2.055087 -0.21539 -1.362175
10440 3.63039651 8.82310419 -0.25476570000000004 -1.564955 -0.266139 -0.552179
10460 -1.0591955100000001 13.394299320000002 -3.65509809 -0.7362449999999999 -0.619055 -0.12826300000000002
10480 -4.2022116 17.22018951 -4.16329533 -0.495985 -0.633495 -0.188523
10500 -6.15968919 15.629301810000001 -1.8857763000000003 -0.570695 0.422002 -0.076098
10520 -7.419175470000001 11.47663071 -2.95500744 -0.403367 1.8858580000000005 0.003312
10540 -3.9639070800000002 8.580757950000002 -4.896014040000001 -0.460574 1.06882 0.04562
10560 -1.9904097600000001 7.462731870000001 -4.84272612 -0.224792 0.290722 0.219179
10580 -0.39562748999999997 9.19148931 -4.81608216 0.582427 0.7999029999999999 0.589497
10600 0.8222447700000001 9.80865603 -4.59678942 0.647289 0.225807 0.777625
10620 0.8931906900000001 7.8600074399999995 -4.333184910000001 0.680303 -0.794501 0.958624
10640 0.5468094 5.701944780000001 -3.77874333 0.214038 -0.776046 0.7438359999999999
10660 0.7652094300000001 3.84984621 -3.75434586 0.114745 -0.378216 0.44353
10680 1.5045204600000002 2.43528345 -3.62486367 0.379593 -0.331268 0.195356
10700 1.0581458400000003 2.38393791 -4.584517110000001 0.411785 -0.5614520000000001 -0.077589
10720 1.7546558400000003 3.6976146300000003 -4.95963189 0.306185 -0.784937 -0.307708
10740 2.4671659500000005 7.197037830000001 -4.93314489 -0.021891 -0.82683 -0.469111
10760 1.06368849 12.52175868 -5.0208561000000005 -0.114832 -0.906192 -0.522001
10780 -2.31688656 18.36770445 -5.91599898 -0.179048 -1.095959 -0.429271
10800 -4.5435015000000005 16.145425530000004 -3.88816407 -0.041021 -1.52228 -0.23014
10820 -5.360350770000001 8.2162674 -2.17168875 0.187739 -2.2341740000000003 -0.08982899999999999
10840 -1.75674537 5.2027335 -0.66775689 0.614484 -2.71396 -0.090506
10860 2.61670959 6.412061250000001 4.6363041 1.200775 -2.94774 -0.211094
10880 3.20049288 6.16164138 5.19269787 1.767984 -3.3891910000000003 -0.329411
10900 2.6222424300000005 6.75963936 -2.7256790700000004 2.352864 -3.431339 -0.419276
10920 5.817653730000001 6.859936800000001 -5.15856888 2.42301 -2.759473 -0.39935
10940 4.75561332 9.44072217 -2.26119519 2.189153 -1.55197 -0.333097
10960 4.31177949 12.80856384 -4.57208784 1.7157189999999998 -0.214723 -0.004832
10980 3.0232654200000004 13.34609298 -4.3743574800000005 1.130717 1.206187 0.543668
11000 2.33394615 14.25964923 -3.22144704 0.733487 2.137429 0.8398700000000001
11020 3.76961022 13.3586694 -2.7530784 0.459853 1.731777 1.0222129999999998
11040 2.53422711 9.023238 -3.0576887100000003 0.008573 1.19045 1.188534
11060 2.0568725100000003 7.23490443 -3.7134774 -0.855575 0.695025 1.156427
11080 2.8433402100000005 6.99525594 -5.00858379 -1.527111 0.455036 1.015311
11100 4.31956863 7.75207782 -5.166210870000001 -1.870653 0.316064 0.636007
11120 5.799387510000001 8.51968089 -4.65786648 -1.924701 0.057582000000000015 0.055917
11140 6.070928310000001 9.35209863 -3.59612037 -1.862639 -0.225867 -0.508376
11160 4.88673378 9.724231170000001 -2.67209685 -1.935528 -0.5124989999999999 -0.959308
11180 3.4925365800000003 9.38054763 -1.8884740500000001 -2.033706 -0.596108 -1.277148
11200 2.4920146800000005 8.645866920000001 -0.95097159 -1.975456 -0.588204 -1.173134
11220 1.9782846 7.98080778 -0.05613282 -1.696172 -0.597659 -0.649879
11240 -0.73077633 8.42896782 -0.7819747200000001 -0.780943 -0.29541300000000004 -0.305247
11260 -3.4513738200000006 10.6485588 -1.4335647300000003 0.473605 0.376832 -0.075155
11280 -5.87558178 12.82159152 -2.05926615 1.160417 1.083913 0.459643
11300 -7.23969171 13.850994060000001 -2.8548669600000003 0.615214 1.6628630000000002 0.805469
11320 -7.36154172 10.4609916 -3.9531258900000004 0.126054 1.653484 0.911023
11340 -4.4364744 8.92982718 -4.83779169 0.6217159999999999 1.575928 0.695599
11360 -1.23717834 10.08333603 -4.51580787 0.6630550000000001 -0.66135 0.177463
11380 0.0634707 11.453135760000002 -4.80545793 -0.045606 -1.218476 -0.808469
11400 1.1365866 11.24252487 -6.199360830000001 -0.30803 -1.164487 -0.762302
11420 2.39906493 9.247023720000001 -5.433405840000001 -0.512416 -1.332694 -0.07985199999999999
11440 2.49995097 6.58031256 -4.14667719 -1.353389 -1.411598 0.134429
11460 1.70450712 5.16291471 -2.57584113 -2.161855 -0.344612 0.673276
11480 0.47825712 4.68376488 -2.5465092300000003 -0.285427 0.438679 0.566806
11500 -0.2891988000000001 4.85066241 -3.26425788 -0.492165 -0.560372 0.7012390000000001
11520 -0.8327218500000001 4.982086980000001 -3.77649684 -0.572334 -0.926493 -0.110701
11540 -1.5350589900000002 6.263871389999999 -4.432128570000001 -0.969072 -1.143553 -0.363158
11560 -2.17782 9.02877084 -5.86180854 -1.400512 -0.71506 -0.318651
11580 -1.9423603800000002 12.83999508 -5.859120600000001 -1.534901 -0.053880999999999984 -0.379189
11600 -1.5545220300000002 14.78340513 -5.8368126600000005 -1.576442 0.414008 -0.401443
11620 -0.6072880500000001 13.26840759 -6.77371671 -1.448508 0.4876430000000001 -0.544854
11640 -0.04969746 10.0354338 -6.08559426 -1.155317 0.231802 -0.755054
11660 0.90696393 5.4067520700000005 -4.842883080000001 -0.97606 0.218465 -0.771945
11680 2.24069229 5.3387982 -3.2076836100000006 -0.910617 0.34376 -0.726783
11700 0.37691982000000007 8.499177990000002 -1.14197229 -0.6875060000000001 0.218013 -0.64281
11720 3.33880407 9.98977806 -1.35333855 -0.371039 -0.011448 -0.544166
11740 4.54230468 9.71449965 3.96046377 0.072134 -0.099512 -0.484341
11760 5.4386443799999995 7.6031424 10.694812950000001 0.402984 -0.246868 -0.417748
11780 2.8139985000000003 13.59981882 0.56492847 0.4022 -0.553025 -0.311607
11800 4.3783992000000005 25.21102311 -7.25466177 0.695087 -0.8620770000000001 -0.268573
11820 0.36583452 19.06914888 -1.63565073 1.55261 -1.269307 -0.139216
11840 -3.4097598000000002 9.88753824 0.6114769200000002 2.206983 -1.938075 0.302046
11860 -2.81849148 8.5171401 -0.14998509000000002 2.837023 -2.352044 0.715039
11880 -0.0145188 8.87789304 -0.0058369500000000005 3.364396 -2.72991 0.979853
11900 1.2240035100000002 9.711949050000001 -0.39038895 3.517725 -2.388118 1.153538
11920 0.8271792000000001 8.701999740000002 -0.40985199 3.362897 -1.327237 1.054957
11940 0.7634142 7.94981799 -0.28141947 2.72061 0.03665 0.995311
11960 0.6912616500000001 8.410711410000001 0.13682007 2.158945 0.15392899999999998 1.456983
11980 1.1335945500000002 8.9944947 0.35475903000000003 1.72784 -0.562401 1.946271
12000 1.69223481 9.10915398 0.48483963 1.317249 -2.034755 2.337328
12020 1.18538154 8.77774275 -0.13082616000000002 1.080923 -3.197686 2.720659
12040 1.11682926 8.83896696 -0.9229836600000001 0.961449 -3.798626 2.589203
12060 0.4076055 9.807459210000001 -2.2501197 0.528682 -4.506369 2.265552
12080 0.7553307600000001 10.492432650000001 -3.0340368 0.046243 -4.954634 2.097182
12100 1.8778498200000002 10.67609547 -2.4138780300000002 -0.321372 -4.806636 1.902145
12120 3.5518184100000005 10.499760720000001 -1.9152651600000001 -0.515616 -4.41484 1.594775
12140 4.612662 10.977576390000001 -2.1374028 -0.583843 -4.113448 1.408041
12160 4.656963960000001 11.69921961 -1.19107134 -0.590446 -3.742472 1.348768
12180 4.60083114 13.619281860000001 -0.13561344 -0.723313 -3.332131 1.411407
12200 3.4320677400000004 12.11340762 0.20582361000000002 -0.879574 -2.864346 1.514402
12220 1.27355382 9.00976887 1.1512525500000002 -0.97174 -2.245095 1.512964
12240 -0.8791231500000001 9.90939492 0.04415481 -1.106601 -1.482589 1.421315
12260 -2.0460913200000004 14.05172628 -1.8507546000000001 -1.121996 -0.978233 1.314807
12280 -2.306850930000001 20.48625243 -0.006582510000000001 -1.057316 -0.715904 1.191009
12300 0.051041430000000006 15.417337140000003 -1.4715882900000001 -0.970941 -0.5593229999999999 1.119841
12320 2.7056274300000003 12.244537890000002 -3.5369955 -0.605406 -0.477355 0.817846
12340 3.96555516 11.433672720000002 -3.8176596000000003 -0.13708900000000002 -0.711492 0.35674
12360 4.12302528 11.363913810000001 -2.6339261400000002 0.126498 -1.496212 0.031643
12380 3.5218782900000005 10.89839007 -1.4732363700000002 -0.035456 -1.688454 0.028622
12400 2.13845247 9.21199221 -0.98569899 -0.414675 -0.915475 0.193761
12420 1.2428681400000001 6.9829836300000006 -0.25956279 -0.71877 -0.082839 0.559107
12440 1.7025549300000002 5.8101687 0.36119439 -0.966415 0.422182 -0.576654
12460 1.74207942 5.3831099700000005 0.09056592000000001 -1.586261 1.810536 -0.380869
12480 1.19496591 5.12833446 -0.27393444 -0.383993 0.411176 0.8695280000000001
12500 0.35760393 6.177651300000001 -0.6165683100000001 -0.756657 -1.214741 0.736549
12520 0.24818319 7.42306023 -0.95276682 -1.265754 -1.921784 0.304474
12540 -0.27437589 8.326884960000001 -0.92193399 -0.985947 -1.779596 -0.330414
12560 -1.0767063600000002 9.35434512 -0.95830947 -0.669473 -1.674319 -1.089981
12580 -1.8682654500000002 10.22029344 -1.5106615200000002 -0.299505 -1.457581 -1.532055
12600 -2.91069567 10.67939163 -2.0993890500000005 -0.136151 -1.033857 -1.609437
12620 -3.24839511 10.404711630000001 -2.7280727099999997 -0.681081 -0.186012 -0.577086
12640 -2.16195723 9.77512545 -4.37195403 -1.053013 0.8236 0.34410300000000005
12660 -0.84813336 8.75798541 -5.53953042 -1.084978 0.823857 0.573547
12680 0.67569318 7.68681189 -6.40937331 -0.818067 0.086028 0.506922
12700 3.0292495200000005 6.76308267 -7.576194330000001 -0.675845 -0.714906 0.345504
12720 4.950057330000001 6.55322715 -7.36244424 -0.667319 -1.359816 0.176543
12740 5.882615550000001 6.33452301 -5.96763882 -0.7383890000000001 -1.605245 0.075948
12760 4.80740031 6.6903415200000005 -4.70621016 -0.766885 -1.339728 0.034816
12780 2.23081362 10.214456490000002 -4.04893035 -0.742408 -0.698288 -0.022451
12800 6.615344070000001 24.52050702 -1.85599314 -0.7762899999999999 -0.252535 -0.109785
12820 3.13493265 27.49886226 6.699621780000001 -0.8146800000000001 -0.13047999999999998 -0.22985
12840 -5.81002155 8.642727720000002 1.8193135500000002 -0.717437 -0.21555900000000006 -0.349771
12860 -2.5738987500000006 3.24435339 -1.18643121 -0.524587 -0.06166 -0.3753260000000001
12880 -0.5321434500000001 1.8483609600000002 -0.24519114 -0.229896 -0.18014000000000002 -0.305818
12900 -0.5929164 2.8509723900000004 0.64290816 0.064377 -0.58005 -0.186814
12920 -1.00036494 4.1327568 0.28485297000000004 0.348858 -0.7690640000000001 -0.052125
12940 -0.84843747 8.264012670000001 0.7940998800000001 1.146406 -1.165681 0.138756
12960 0.22139208000000002 16.54688997 1.22041305 1.861096 -1.272144 0.30198200000000003
12980 1.22251239 18.80329788 0.3097017 2.242082 -1.7758509999999998 0.728304
13000 1.3031898300000002 10.21909662 -2.07423621 2.923127 -1.860536 0.802604
13020 0.8767295100000001 6.93672948 -2.7048720600000005 3.3616019999999995 -1.897086 0.7715310000000001
13040 1.70180937 7.12517958 -1.4322207599999999 3.484519 -1.607767 0.774155
13060 2.0936992500000002 7.41377997 -1.16368182 3.230715 -0.766904 0.637777
13080 2.16824544 8.17360371 -0.82373589 2.60104 0.34659 0.846664
13100 1.9959524100000001 8.844362460000001 -0.11900511 2.0041990000000003 0.29649000000000003 1.37133
13120 1.4591688299999999 9.28234953 0.30266793 1.429246 -0.504059 1.734739
13140 0.66715848 9.62064738 -0.01961019 1.186858 -1.191555 2.042643
13160 0.12229146 10.121653890000003 -1.10963853 1.0931879999999998 -1.967364 1.929752
13180 0.08053029000000002 9.976456080000002 -1.89072054 0.783691 -2.94854 1.679952
13200 0.7471001700000001 9.61840089 -1.7765027100000002 0.410613 -3.323495 1.46525
13220 1.6711236900000002 9.48233619 -0.7173072 0.041898000000000005 -3.192498 1.260613
13240 1.4732363700000002 10.543326930000001 -0.62001162 -0.333545 -2.733077 0.9818
13260 1.0285098300000002 11.07427356 -0.95711265 -0.6940689999999999 -2.119986 0.6227779999999999
13280 0.40730139000000004 11.24731215 -0.8542744200000001 -0.941416 -1.612142 0.377913
13300 1.2623213700000002 10.74585438 0.34787241 -1.1008950000000002 -1.1020299999999998 0.288552
13320 2.80457109 12.28914396 1.4684490900000002 -1.20207 -0.615797 0.259448
13340 2.01765213 12.191397120000001 -1.99325466 -1.275114 -0.120823 0.151481
13360 0.06271533 11.407175910000001 -1.11967416 -1.386833 0.329484 0.058257
13380 -0.8985861900000001 10.73896776 0.16525926000000002 -1.554628 0.653192 -0.028788
13400 -1.8618300900000002 13.01304348 0.22304016000000004 -1.560044 0.521574 -0.142957
13420 -1.53326376 16.279695 0.21495672000000002 -1.315835 0.095276 -0.307347
13440 -0.36508896 14.77966752 -0.35625996000000004 -0.966175 -0.27318600000000004 -0.374935
13460 2.13770691 12.75587433 -3.0460148100000004 -0.636358 -0.44279 -0.338231
13480 3.56229549 12.738059370000002 -4.16614023 -0.589869 -0.160178 -0.190854
13500 3.2927068800000003 11.710000800000001 -3.73488282 -0.812279 0.557063 -0.075822
13520 1.75404762 10.260710640000001 -3.3123072600000003 -0.942348 1.345595 -0.020057
13540 0.67554603 8.080045740000001 -2.35011303 -0.994373 1.6875349999999998 0.02828
13560 -0.19399275000000002 6.325998120000001 -1.12880727 -1.179946 1.016949 0.054548
13580 -0.39113451 5.11561089 -0.92507319 -1.005357 0.531234 -0.109184
13600 -0.49112784 4.10521032 -1.2094847100000001 -0.236079 0.240124 -0.170736
13620 -0.44666892 3.7769481000000003 -1.69537401 0.06025700000000001 0.210326 0.09736
13640 -0.48065076 4.21613199 -2.46537072 -0.141248 0.245209 0.339462
13660 -0.19054944000000001 4.92925032 -3.2383692900000005 -0.6120329999999999 0.330515 0.725965
13680 -0.15851979 5.037327090000001 -3.4855028100000003 -0.332541 0.262781 0.905329
13700 -0.38290392 5.30825967 -3.2382123300000005 0.11825 0.965164 1.487622
13720 -0.86056263 5.27083452 -2.86953291 0.122485 -0.234439 1.243498
13740 -1.0220744700000002 5.399119890000001 -2.6556258600000002 0.214604 -1.118247 0.273192
13760 -0.87268779 5.98650345 -2.7643010400000003 0.093089 -1.380964 -0.255022
13780 -0.45849978 6.930284310000001 -2.6297274600000002 -0.053968 -1.323113 -0.475108
13800 -0.07784234999999999 7.463330280000001 -2.15222571 -0.321487 -0.866991 -0.555542
13820 0.6054928200000002 7.8279679799999995 -2.0044773 -0.36743 -0.303716 -0.451899
13840 0.44742429 8.046368009999998 -2.40160572 -0.17861 0.329873 -0.28688600000000003
13860 -0.14833701000000002 8.013131730000001 -2.7884042100000004 0.095537 0.549462 -0.293798
13880 -0.92582856 8.91815328 -2.9606972400000005 0.404853 0.377603 -0.208096
13900 -1.82351223 9.54564993 -2.7372058200000002 0.493422 0.115461 0.00223
13920 -2.7384026400000003 9.560315880000001 -3.1103782200000003 0.478307 -0.454078 0.185521
13940 -4.00013541 12.71980296 -2.44740861 0.682395 -0.828825 0.217337
13960 -0.99572481 19.520310780000003 1.3564777500000003 0.8773049999999999 -0.942263 0.178251
13980 4.665047400000001 11.300747220000002 2.97505908 1.0944459999999998 -1.240548 -0.007857
14000 5.08642614 8.312513310000002 -0.56582118 1.649004 -1.388032 -0.103139
14020 5.989348350000001 9.895621680000001 -2.15896518 2.494913 -1.489652 0.067406
14040 3.17220084 12.0945528 -3.5363970900000004 3.331005 -1.109954 0.292813
14060 3.3733843200000004 24.07323969 -7.2314611200000005 3.622488 -1.016338 0.33852600000000005
14080 3.39569226 16.934434019999998 -1.7582463000000002 3.189397 -0.816477 0.28397
14100 2.00178936 8.01164061 -0.27977139 2.396094 0.27177 0.554772
14120 1.9272431700000001 5.672750219999999 0.13636880999999998 1.536325 0.833923 0.8450120000000001
14140 1.96586514 5.86195569 0.43470072 1.036046 0.213261 0.913884
14160 1.30678029 6.36895611 0.20926692000000002 0.784291 -0.038357 0.65287
14180 -0.35955612 7.1795171700000004 -0.95022603 0.171377 -0.135474 0.429728
14200 -0.28156662 8.61577965 -2.52630063 -0.762955 -0.09486 0.407126
14220 0.06392196 8.49543057 -3.3890999400000004 -1.446353 0.079821 0.472631
14240 0.57361032 7.68501666 -2.77298289 -1.706778 0.097609 0.51245
14260 2.0594133 7.047042930000001 -1.53326376 -1.812484 -0.090957 0.341038
14280 2.8151953200000004 7.182067770000001 -1.50631569 -2.018697 -0.326164 -0.067094
14300 3.0261103200000004 7.388784090000001 -1.15485282 -2.3539060000000003 -0.48126 -0.417477
14320 3.2088804300000007 7.827820830000001 -1.8979014600000002 -2.72036 -0.5282979999999999 -0.590892
14340 4.0112109 7.91808264 -1.74597399 -2.827312 -0.449756 -0.692152
14360 4.810392360000001 7.43010381 -1.32624333 -2.477252 -0.373411 -0.640667
14380 3.7565923500000005 8.69556438 -0.49935843 -1.704432 -0.197495 -0.5479
14400 1.5117111900000002 12.097240740000002 -2.18470662 -0.8523229999999999 0.095157 -0.4130680000000001
14420 -0.96878655 16.66514952 -4.803358590000001 -0.15128699999999998 0.577573 -0.183395
14440 -2.47405257 17.039813040000002 -5.504803020000001 -0.148281 1.016536 0.062823
14460 -4.406387129999999 15.12904086 -4.900212720000001 -0.946537 2.05092 -0.044491
14480 -5.1970437 13.406424480000002 -5.395382280000001 -1.3854229999999998 2.529216 -0.193448
14500 -2.04668973 10.981314 -5.6098877400000005 -0.709617 2.359755 -0.225898
14520 0.94408497 8.91980136 -5.34643038 -0.33032 2.031298 -0.200395
14540 2.31837768 6.6231234 -5.442980400000001 -0.309317 1.201657 -0.004769
14560 2.07588429 6.44484627 -6.568040250000001 -0.304867 1.031201 0.2604
14580 1.29615606 7.2302643 -6.2177742 -0.06460700000000001 0.682763 0.341573
14600 0.62345493 6.659047620000001 -5.02070895 -0.317846 0.09572 0.31385100000000005
14620 -0.5313978900000002 6.05385891 -3.93726312 -0.641759 -0.256937 0.340882
14640 -1.10485125 4.79527515 -3.2638164300000003 -0.668454 -0.116813 0.486863
14660 -0.7429014899999999 3.08179188 -2.92970745 -0.522333 0.002536 0.616985
14680 -0.2977335 2.3173280099999998 -3.05634474 -0.425087 -0.305242 0.5112369999999999
14700 0.37706697 2.71146438 -3.45347316 -0.259786 -0.674044 0.156078
14720 0.82299033 4.58047539 -3.49463592 -0.22065 -0.840108 -0.173517
14740 0.68048046 7.42545387 -3.55570317 -0.33527 -0.636628 -0.343357
14760 0.32272938000000007 10.01492109 -3.2579794800000004 -0.4730970000000001 -0.16333699999999998 -0.301129
14780 -0.18786150000000001 12.597354540000001 -3.12190497 -0.5337430000000001 0.223119 -0.188817
14800 -1.9917537300000001 14.06819727 -3.10963266 -0.32474200000000003 0.471523 -0.152424
14820 -3.8944522800000003 12.73581288 -2.87627238 0.1002 0.525505 -0.167684
14840 -5.01592167 9.66465504 -2.109709170000001 0.556515 0.485445 -0.135604
14860 -4.96981467 12.31205031 -0.42870681 0.879389 0.298406 0.004692
14880 -1.8688638600000003 12.02613786 1.1479662000000002 1.003005 -0.279011 0.172938
14900 0.95995755 9.90071307 -0.12334113000000002 0.984516 -0.642015 0.125204
14920 3.8208086100000003 10.93087098 -2.33588853 0.969124 -0.859873 0.007871
14940 6.8912208900000005 11.762984609999998 -2.54350737 1.010081 -1.494859 -0.007051999999999998
14960 7.564667580000001 10.581497640000002 -2.1806649 1.145314 -2.053432 -0.032097
14980 5.91195726 10.52536482 -1.78025013 1.599903 -2.106916 -0.104697
15000 4.33004571 13.17769452 -2.23814169 2.321387 -2.153636 0.030725
15020 3.8395162800000002 15.658486560000002 -1.82665143 3.374915 -2.244795 0.06917899999999999
15040 3.2180037300000004 12.84359535 -1.14017706 4.145995 -2.313614 -0.17210599999999998
15060 2.0600117100000004 9.81059841 -0.39218418 3.841169 -2.220195 -0.6251439999999999
15080 1.20828789 7.85326797 -0.16151184 2.842764 -0.923728 -0.565413
15100 0.45489951000000006 7.308705060000001 0.07753824000000002 2.035524 0.509115 -0.4105180000000001
15120 0.04909905 7.622301330000001 0.38933928 1.5066 1.330054 -0.121504
15140 -0.23935419000000002 8.21402091 0.09026181000000001 0.944824 1.510677 -0.048747000000000006
15160 -0.17468667000000002 8.76637296 -1.0186311599999998 0.251414 0.985093 0.120135
15180 0.10882233000000001 8.66368188 -1.97379162 -0.524148 0.454487 0.28417600000000004
15200 0.6816870899999999 7.92286992 -2.38498758 -1.2236360000000002 0.30576 0.520899
15220 2.02738365 7.26125409 -2.2760181 -1.711043 0.36489 0.541988
15240 3.2977884600000005 6.90528843 -1.5552675900000001 -2.042226 0.579745 0.379166
15260 3.59626752 6.39365769 -1.51200549 -2.2743740000000003 0.72831 0.191483
15280 3.2055842700000006 6.23947392 -2.41088598 -2.476874 0.6442100000000001 -0.179428
15300 2.99272689 7.07084199 -2.38214268 -2.656436 0.463003 -0.52869
15320 4.26013965 8.53584777 -1.5636453300000002 -2.580753 0.117964 -0.6217229999999999
15340 4.987776780000001 9.49056678 -1.38387708 -2.272556 -0.061366 -0.531746
15360 5.495375610000001 10.020463740000002 -1.2849236099999999 -1.748286 0.05815 -0.504737
15380 3.54507894 11.1748653 -1.4422465800000002 -1.184066 0.06994600000000001 -0.214527
15400 0.23545962 12.73686255 -1.9526903100000002 -0.829158 0.0027140000000000003 0.040138
15420 -2.57674365 15.06287241 -3.40781742 -0.839362 0.032872000000000005 -0.033679
15440 -4.06495008 15.808030200000001 -4.08860199 -0.934258 0.358872 0.042153
15460 -5.551204320000001 13.982869890000002 -4.04698797 -0.757188 0.880023 0.097201
15480 -3.85403508 11.15614782 -4.60202796 -0.308646 1.52586 0.171077
15500 -2.3366439000000003 9.94067901 -5.794453080000001 -0.072978 1.778411 0.212992
15520 -1.77156828 10.86440823 -8.45531748 0.01766 1.930728 0.138655
15540 -0.34024023 9.941424570000002 -8.48031336 0.122764 1.444071 0.004348
15560 0.7461976499999999 7.62020199 -6.627322080000001 -0.047736 0.425655 -0.110906
15580 0.39292974 6.111786960000001 -4.71624579 -0.475006 0.07877999999999999 -0.108105
15600 0.16974243 4.932693629999999 -3.57591177 -0.75221 0.052432000000000006 0.060908
15620 0.5092371000000001 2.70262557 -3.3233925600000003 -0.724708 -0.081453 0.218301
15640 -0.3876912 2.59949304 -3.7281433500000003 -0.704224 -0.108811 0.381917
15660 0.12199716 1.8362358000000003 -4.04847909 -0.557345 0.121555 0.454218
15680 0.57210939 1.64522529 -4.22196894 -0.283291 0.205362 0.570325
15700 1.6072115399999998 2.6337691800000003 -3.6468675000000004 -0.259283 -0.182352 0.537875
15720 2.3583436200000003 5.60060748 -2.7155061000000003 -0.065353 -0.46547 0.308856
15740 2.31523848 8.76577455 -1.94625495 0.106016 -0.521704 0.103958
15760 0.8002311300000001 12.07793466 -1.95942978 0.227532 -0.244458 -0.069668
15780 -1.87440651 12.99567978 -2.26418724 0.4276720000000001 0.298427 -0.141605
15800 -3.0320944200000004 11.140285050000001 -2.96263962 0.589749 0.753797 -0.139988
15820 -4.352952060000001 9.57214674 -3.8348761500000004 0.698796 1.065444 -0.115057
15840 -5.37816573 9.81478728 -3.75269778 0.7978850000000001 1.037397 -0.113261
15860 -4.10700555 12.40275357 -2.38379076 0.700964 0.703883 -0.008824
15880 -2.2528174499999998 14.538370950000003 -0.26001405 0.5264260000000001 0.114332 0.255631
15900 0.20327301 13.7087883 -0.024848730000000003 0.4859890000000001 -0.436829 0.393855
15920 2.3447273400000004 8.71203537 0.32751666 0.610487 -0.945557 0.433833
15940 2.57509557 7.2253200600000005 1.4263838100000001 1.020234 -1.6851650000000002 0.155632
15960 3.72440574 8.96844915 -0.71206866 1.848668 -1.98242 -0.01873
15980 5.3831099700000005 11.84247504 -3.02999508 2.916276 -2.165748 -0.119996
16000 5.698354320000001 13.137728580000001 -3.79326213 3.869492 -1.85797 -0.39147
16020 3.4510697100000005 12.80482623 -3.06323136 3.991123 -1.722796 -0.733693
16040 2.6165624400000005 14.212345410000001 -2.8041198300000003 3.056492 -1.422612 -0.666899
16060 2.9102444100000002 14.713351920000001 -1.5593093100000002 2.105334 -0.248787 -0.08218400000000001
16080 2.6915500800000003 11.294763120000002 -0.6643233900000001 1.511901 1.102108 0.13413
16100 1.4069207700000002 9.05751414 0.34787241 0.93381 1.223093 0.216463
16120 0.60384474 7.28220825 0.5267577600000001 0.675319 0.6021890000000001 0.136405
16140 -0.32182686000000005 6.4842138 0.04340925 -0.118973 0.029632 0.151887
16160 -0.6837766200000001 6.1649277300000005 -0.52810173 -1.091191 0.212065 0.393758
16180 -0.38799531000000004 6.17915223 -1.8917702100000002 -1.815737 0.631332 0.601804
16200 -0.41313834 6.15280257 -3.1136743800000004 -2.262216 0.7044590000000001 0.550521
16220 -0.01197801 5.735024100000001 -2.3872340700000003 -2.534455 0.5364329999999999 0.182435
16240 1.6423803900000002 6.32420289 -2.27197638 -2.73103 0.5471600000000001 -0.464158
16260 3.2495919300000002 7.32741273 -1.91901258 -2.701611 0.33752600000000005 -0.811924
16280 4.6169980200000005 8.47313244 -2.3472681300000002 -2.339563 0.038568 -0.955358
16300 6.17331528 9.96014205 -2.93958612 -1.863939 -0.057698 -1.003187
16320 6.64992432 9.899359290000001 -2.19369258 -1.498845 0.136344 -1.093821
16340 5.94219168 8.096212620000001 -1.33177617 -1.114309 -0.051103 -0.905024
16360 4.33378332 8.64033408 -0.85367601 -0.474312 -0.6555529999999999 -0.285552
16380 1.50886629 11.069927730000002 -2.5523461800000002 -0.26076900000000003 -0.6984779999999999 -0.125908
16400 -1.15649109 13.837524930000002 -4.928651909999999 -0.53883 0.154501 -0.074464
16420 -3.72679938 15.3514728 -5.363941230000001 -0.873023 1.291331 0.169572
16440 -5.53713678 15.3972855 -4.34815497 -0.801144 2.272538 0.351483
16460 -5.0666589900000005 13.45357134 -3.91511214 -0.220934 2.744415 0.39125
16480 -1.65585933 11.705213520000001 -5.18372172 0.381452 2.8033900000000003 0.305652
16500 1.3665035700000001 10.121653890000003 -6.36940737 0.222898 2.422565 0.307169
16520 1.8242577900000003 10.94689071 -6.63151095 -0.140322 1.82192 0.046892
16540 1.28508057 10.128383549999999 -6.343361820000001 -0.249652 0.7006939999999999 -0.251537
16560 1.03629897 8.25608619 -5.38729884 -0.217774 -0.7524529999999999 -0.251589
16580 -0.17169462000000002 6.235579350000001 -4.20759729 0.113225 -0.246099 0.4390770000000001
16600 -0.3912816600000001 3.9537243 -3.87813825 -0.215984 0.34665100000000004 1.4081
16620 0.11376657 2.37182256 -3.54777669 -0.058408 -0.119013 0.774205
16640 0.38500326000000007 1.5658918200000003 -3.91975227 0.057099 -1.045309 0.01883
16660 1.00725156 1.44824049 -3.9866564700000002 -0.044637 -1.223544 -0.075656
16680 1.97034831 2.37615858 -2.93779089 -0.196098 -0.721349 -0.057061
16700 2.09145276 4.614153120000001 -2.336791050000001 -0.259173 -0.240828 -0.022866
16720 1.60121763 6.86682342 -2.58946722 -0.109875 -0.244588 -0.011136
16740 0.09056592000000001 10.83596904 -3.19540149 0.13960999999999998 -0.096111 -0.061927
16760 -2.8011277800000003 13.794409980000001 -2.29921875 0.370275 0.079299 -0.17163499999999998
16780 -3.36395691 11.34759978 -1.3873105800000003 0.494774 0.222763 -0.192314
16800 -5.16875166 8.82594909 -1.88967087 0.506033 0.016572 -0.054171
16820 -5.69924703 9.02113866 -2.33184681 0.538795 -0.310391 0.164395
16840 -4.70187414 11.36002905 -1.7024077800000001 0.528748 -0.626714 0.423239
16860 -2.44472067 14.9552469 -0.41253993 0.653943 -1.242936 0.437722
16880 1.3368675600000002 14.691053790000002 0.54097245 1.035199 -1.549383 0.28588600000000003
16900 3.84729561 8.75125575 -1.55361951 1.636684 -1.744789 0.146128
16920 5.40810585 7.552248120000002 -2.4457605300000003 2.202769 -2.172495 0.05449
16940 7.23610125 9.65762127 -2.26269612 2.741688 -2.154082 0.044344
16960 6.941212650000001 14.23360368 -2.43648027 2.931786 -2.103643 0.053085
16980 8.072413560000001 22.654488060000002 -3.3919448400000003 2.651958 -1.944961 0.040244
17000 6.643332000000001 14.77187838 -4.03126254 2.086543 -1.510185 0.228018
17020 1.2584366100000002 7.803119250000001 -3.1097798100000005 1.4818870000000002 -0.492791 0.471386
17040 0.27827046 5.844444840000001 -0.46897686000000005 0.839757 0.7323529999999999 0.476013
17060 1.25918217 6.96037158 0.35790804000000004 0.198095 1.29193 0.422744
17080 1.5828042600000003 8.444241990000002 -0.5762982600000002 -0.283105 1.002966 0.375956
17100 0.47615778 8.6244615 -0.9982754100000001 -0.8462069999999999 0.705068 0.502728
17120 -0.00837774 7.74594657 -1.4837134500000002 -1.391625 0.617734 0.704128
17140 0.30042144 6.491698830000001 -1.54044468 -1.735051 0.385715 0.6827989999999999
17160 0.21675195 4.94840925 -2.19383973 -1.928321 0.072183 0.403045
17180 1.36561086 5.775892560000001 -2.67134148 -2.040646 -0.09226 0.065981
17200 2.93195394 7.3468757700000005 -2.05777503 -2.148973 0.062186 -0.367604
17220 3.87453798 8.360111430000002 -2.75576634 -2.14632 0.385919 -0.874337
17240 4.50712602 8.924137380000001 -2.8611453600000005 -2.005586 0.597328 -1.1171799999999998
17260 4.802613030000001 9.114843780000001 -2.4328898100000007 -1.716641 0.767936 -1.142085
17280 5.4287657099999995 7.7210978400000005 -2.0995362 -1.348216 0.704477 -1.043291
17300 5.72484132 7.456149360000001 -1.9459508400000003 -0.952347 0.055313 -0.751274
17320 4.0760255700000005 9.53053272 -2.02903173 -0.376149 -0.626286 -0.496412
17340 1.7661727800000002 12.41623251 -2.92192812 0.057997 -0.6002770000000001 -0.450684
17360 -0.63871929 14.73850476 -4.3327434600000005 0.099896 0.16142 -0.22704
17380 -3.4510697100000005 16.21757808 -4.20026922 -0.235054 1.336834 0.225245
17400 -4.71264552 15.17080203 -3.66228882 -0.487546 2.082639 0.415873
17420 -4.2570004500000005 12.768146640000001 -4.168082610000002 -0.509694 2.293976 0.332127
17440 -2.2459308300000003 10.94015124 -5.801634000000001 -0.198415 2.635155 0.255883
17460 -0.5632803900000002 10.94194647 -7.191946440000001 0.227738 2.67653 0.195782
17480 1.32863697 10.067463450000002 -7.14494673 0.14595 1.903041 0.291274
17500 1.72501002 9.50164227 -6.39679689 -0.33888 -0.393902 0.23101
17520 0.80457696 8.80110036 -5.0034924 -0.428707 -0.819021 0.327067
17540 0.558189 7.372018800000001 -3.3967321200000002 -0.5057470000000001 -0.349989 0.848289
17560 0.19893699 5.68068651 -2.31163821 -0.221688 -0.139598 1.001691
17580 -0.04730382 4.45938075 -1.7850374100000002 -0.043529000000000005 -0.31328 0.591892
17600 -0.24459273 3.4480776600000005 -2.03561424 0.169968 -0.653436 0.224215
17620 0.40505490000000005 2.9124909 -2.6378109000000003 0.11137 -1.061538 0.034185
17640 0.62629983 3.73578534 -3.27893364 -0.14035999999999998 -1.003428 -0.159928
17660 1.05949962 5.18087682 -3.4804114200000007 -0.379189 -0.635572 -0.303073
17680 0.89543718 7.72663068 -3.9204978300000004 -0.5422319999999999 -0.15229700000000002 -0.337946
17700 -0.05283666000000001 10.29723327 -4.571793540000001 -0.517644 0.093705 -0.34022600000000003
17720 -1.01563911 11.72781576 -3.64327704 -0.439982 0.27244 -0.349526
17740 -1.00920375 9.41138046 -1.8741024 -0.17563299999999998 0.443082 -0.361785
17760 -1.3500423900000003 7.07728716 -1.6640899200000001 0.191452 0.275405 -0.306664
17780 -2.5050423600000005 7.0073811 -1.5021268200000002 0.268178 -0.29119 -0.139827
17800 -3.25707696 8.41624425 -1.64522529 0.401462 -0.865397 0.016732
17820 -3.1623221700000004 10.84030506 -1.9116747 0.658903 -1.197882 0.089459
17840 -2.12587605 16.305593400000003 -0.9660888000000001 0.8672200000000001 -1.584349 0.118115
17860 2.31194232 9.15241608 -0.6556317300000001 1.052178 -1.866764 -0.012691
17880 4.615349940000001 6.61099824 -2.42076465 1.33615 -2.012947 -0.198527
17900 6.4117669500000005 8.44828371 -1.070271 1.664729 -2.162649 -0.342387
17920 8.234975069999999 12.798832319999999 -1.12326462 2.181848 -2.033277 -0.376328
17940 9.60702129 16.33403259 -4.54828878 2.477839 -1.859887 -0.30398000000000003
17960 5.980215240000001 18.95657913 -4.69169136 2.548875 -1.666477 -0.248184
17980 2.2529646000000003 13.870005840000001 -1.86931512 2.4723 -1.182396 -0.293137
18000 1.09961271 9.815689800000001 -1.14122673 2.006217 -0.297157 -0.154385
18020 1.7940233700000001 8.88612363 -0.39472497000000006 1.548434 0.567684 0.016498
18040 1.8062956799999998 8.76397932 -0.41313834 1.051262 0.613971 0.061036
18060 0.83975562 8.54288154 -0.5123861099999999 0.5188619999999999 0.584079 0.272068
18080 -0.43589754000000003 8.10609129 -0.8445429000000001 -0.049510000000000005 0.5906560000000001 0.451823
18100 -0.5513023800000001 7.63756569 -1.29675447 -0.636576 0.679449 0.6003649999999999
18120 -0.13426947 7.575144659999999 -1.78099569 -1.123727 0.701781 0.765712
18140 1.11308184 7.457346180000001 -2.2061120400000007 -1.362426 0.598885 0.597534
18160 2.9177294400000005 7.2359541 -2.0191530600000003 -1.491117 0.615498 0.284693
18180 3.7773993600000004 7.299719100000001 -2.25206208 -1.7188689999999998 0.5011399999999999 0.042899
18200 4.08605139 7.5829338 -2.42151021 -2.035749 0.5169729999999999 -0.17832
18220 4.0043242800000005 8.06552694 -2.50609203 -2.202753 0.727858 -0.555771
18240 3.6136312200000003 8.617878990000001 -2.5045911 -2.1815990000000003 0.8419909999999999 -0.8773040000000001
18260 3.45721077 8.67176532 -2.44531908 -2.001532 0.824069 -1.080054
18280 3.8287350900000003 8.37747513 -2.5652169000000002 -1.765983 0.580182 -1.033231
18300 3.9252851100000004 8.483305410000002 -2.24234037 -1.382527 0.034325 -0.724341
18320 3.0144266100000006 9.39146616 -1.5236793900000003 -0.740433 -0.528894 -0.293982
18340 0.84873177 11.36376666 -2.12842665 -0.175085 -0.538266 -0.038989
18360 -1.3675532400000001 13.456416240000001 -3.60719586 0.178267 -0.169014 0.286677
18380 -2.8377975600000003 13.96490778 -3.33910818 -0.160672 0.501843 0.646645
18400 -4.10955615 13.354627680000002 -2.83944564 -0.8663860000000001 1.377677 0.681186
18420 -4.98598155 12.06939996 -3.66482961 -0.687226 0.909084 0.227975
18440 -3.1302925200000002 11.037750930000001 -5.13342585 -0.033966 1.106355 -0.120228
18460 -0.33425613 10.62924291 -5.67649764 0.012444 0.986886 -0.120819
18480 -0.6114769200000002 10.62909576 -5.767505010000001 -0.118343 0.816068 0.085722
18500 -0.47346984000000003 9.36886392 -6.6842004600000005 -0.079238 0.472055 0.30008
18520 -0.5634275400000002 9.1362492 -6.45084018 -0.106602 -0.07561699999999999 0.619989
18540 -0.8385588 8.211470310000001 -4.85051526 -0.289922 -0.125635 0.766187
18560 -0.22408002000000002 6.4155045600000005 -2.6984367 -0.117589 -0.026105 0.5023449999999999
18580 0.21780162 5.01396948 -1.44973161 0.08055 -0.421756 0.173087
18600 -0.16121754000000002 4.43377665 -2.04833781 -0.065149 -1.058281 -0.094171
18620 0.10956789 4.20415398 -2.8291157100000004 -0.22310500000000005 -1.410987 -0.19844
18640 1.1160837000000001 4.084403310000001 -3.31575057 -0.398629 -1.328223 -0.23075
18660 1.1455725600000002 4.60173366 -3.74521275 -0.493604 -0.880388 -0.253352
18680 1.15275348 5.6498536800000005 -3.97034244 -0.505695 -0.536054 -0.305152
18700 0.94379067 7.4443185000000005 -4.1695835400000005 -0.427577 -0.279462 -0.33805
18720 0.77209605 10.46937915 -4.39112277 -0.156862 -0.365528 -0.361686
18740 -0.5418749700000001 12.79254411 -3.46215501 0.266485 -0.402196 -0.350136
18760 -1.55512044 10.957367790000001 -1.7090001000000001 0.835893 -0.959137 -0.360401
18780 -2.9397332700000005 9.12816576 -1.76573133 1.635609 -1.6644830000000002 -0.487438
18800 -3.0397266000000003 8.85977397 -2.3107455000000003 2.435469 -2.407897 -0.684929
18820 -2.12826969 7.75267623 -1.95582951 2.8714060000000003 -2.836201 -0.78068
18840 -0.53708769 9.69070059 0.55309761 3.260683 -2.504628 -0.653404
18860 1.51006311 9.4544856 0.8147597400000001 3.164437 -1.6348 -0.444751
18880 2.9696733900000005 6.74332533 0.019011780000000002 2.794046 -0.699258 -0.181481
18900 4.440516120000002 9.32336514 -1.1996060400000002 2.153067 0.357585 0.351071
18920 5.73906582 15.7997898 -3.7803914100000005 1.186802 1.173968 1.092099
18940 5.539383270000001 17.10761976 -5.226532560000001 0.5996600000000001 1.724123 1.482535
18960 4.35309921 12.903769890000001 -3.92798286 0.287763 1.667585 1.506066
18980 3.86047044 12.82173867 -2.2260165300000003 -0.392329 0.988459 1.166764
19000 4.3496559 11.91357792 -2.2748212800000003 -1.112521 0.525252 0.945478
19020 3.43221489 8.57296881 -1.2506474699999999 -1.500684 0.104594 0.717911
19040 2.6997904800000003 7.174877040000001 -0.20687328 -1.860665 -0.155664 0.314079
19060 2.12587605 6.73538904 -1.5500290500000002 -2.282673 -0.052132000000000005 -0.168633
19080 0.8195470199999999 7.17068817 -2.7795654000000005 -2.649739 0.141868 -0.678851
19100 -0.034727400000000005 7.9577542800000005 -3.5482181400000004 -2.777773 0.166492 -1.130567
19120 0.17842428 8.829686700000002 -3.16801197 -2.420772 -0.089752 -1.295456
19140 1.22924205 9.55942317 -2.4231582900000004 -1.672625 -0.503462 -1.04935
19160 2.54051532 9.509274450000001 -2.16270279 -0.712963 -0.694746 -0.4004
19180 3.3879031200000003 9.03027177 -2.08186839 0.473479 -0.253189 0.035677999999999994
19200 3.4892404200000002 7.869582 -1.65136635 1.179085 0.066304 0.511284
19220 2.90635965 7.15826871 -1.4229405000000002 0.8059310000000001 1.201606 0.638614
19240 1.4741388900000003 7.20571968 -0.6786852300000001 0.419579 2.198562 0.47654
19260 -0.39292974 8.271497700000001 -0.9575541000000001 0.447222 1.814297 0.111894
19280 -2.7478398600000005 10.242895680000002 -1.3763920500000002 0.218746 0.917555 -0.277386
19300 -3.5185821300000004 13.04447472 -1.61798292 0.312829 0.446427 -0.555999
19320 -3.71587104 14.35814163 -3.1127816700000004 0.134935 -0.132751 -0.484928
19340 -3.9833701200000005 11.89262376 -5.1898529700000005 -1.036857 -1.473691 -0.329025
19360 -2.5854255000000004 9.47140785 -6.05461428 -1.940985 -1.779398 0.181002
19380 -1.41590673 8.67087261 -5.76076554 -0.885647 -1.241786 0.685476
19400 0.00628821 10.52491356 -6.74527752 -0.7561640000000001 -1.114568 0.7268100000000001
19420 1.54747845 10.477158480000002 -6.7918259700000005 -0.79938 -1.2710860000000002 0.212894
19440 2.13096744 8.63194653 -4.521644820000001 -0.7662479999999999 -1.454811 -0.223542
19460 1.7655743700000002 5.73681933 -2.94886638 -0.921049 -1.150074 -0.372428
19480 1.13538978 4.62223656 -2.65188825 -1.12067 -0.4431810000000001 -0.353364
19500 0.16151184 4.41686421 -3.60285984 -1.134466 0.214428 -0.424806
19520 0.27707364 4.57119513 -4.51415979 -1.167055 0.656133 -0.566605
19540 0.7813763100000001 5.364098189999999 -4.7187865800000015 -1.155353 0.430069 -0.786287
19560 0.64381068 7.972871490000001 -4.7922831000000015 -1.182185 -0.009127 -0.953622
19580 -0.44621766 12.51532332 -5.49971163 -1.24105 -0.092908 -0.996655
19600 -1.8955078200000002 15.91101558 -5.10423129 -1.159893 -0.232007 -0.913657
19620 -0.9547190100000001 13.915965690000002 -4.414764870000002 -0.925857 -0.435969 -0.726958
19640 -0.37377081000000006 9.92152008 -4.267624680000001 -0.625846 -0.414428 -0.513382
19660 -0.6072880500000001 4.90650093 -3.59102898 -0.176334 -0.372065 -0.30840300000000004
19680 -1.00066905 6.50936664 -2.1948894 0.092954 -0.456325 -0.249798
19700 2.11914639 11.10345831 -0.41313834 0.246218 -0.569652 -0.280629
19720 3.07146195 11.06887806 1.08179775 0.558092 -0.976576 -0.287543
19740 3.87170289 10.690918380000001 1.1681748 1.281665 -1.329864 -0.21153400000000006
19760 5.2971841799999995 8.09171964 2.6925997500000003 1.888224 -1.816969 0.12981700000000002
19780 5.30840682 17.64934758 -0.6423097500000001 2.552863 -2.29537 0.375423
19800 6.086643929999999 22.634132310000002 -3.1415151600000004 3.1147240000000003 -2.858613 0.615078
19820 2.0648088000000007 14.303951190000001 -0.7511418900000002 3.352853 -2.890971 0.77488
19840 -0.28800198 10.21026762 -1.23897357 3.319103 -1.959271 0.908046
19860 -1.63206027 8.57641212 -1.2463114499999999 2.832437 -0.374413 0.8652280000000001
19880 -1.38790899 8.66263221 0.18202455 2.344926 0.212896 1.201833
19900 -0.88301772 9.08640459 0.67779252 2.116592 -0.169024 1.537217
19920 -0.47242017000000003 7.988587110000001 0.11271690000000001 1.800252 -1.702809 2.024082
19940 -0.26480133 7.06396518 -0.32048288999999996 1.4961209999999998 -3.252128 2.389275
19960 0.29728224000000003 6.9648645600000005 -0.60683679 1.387834 -3.950039 2.521873
19980 1.18494009 7.57409499 -0.01856052 1.061025 -4.851905 2.167164
20000 2.05148682 8.00011386 0.79424703 0.550145 -5.196828 2.020896
20020 2.67958188 8.41176108 0.59276925 0.173019 -5.04341 1.81083
20040 2.83360869 9.67063914 -0.23905008000000003 -0.070579 -4.671849 1.544801
20060 1.8482040000000002 11.2326462 -1.5458401800000001 -0.379394 -4.181353 1.428784
20080 0.8906499 11.447740259999998 -3.00454794 -0.5953729999999999 -3.657211 1.343283
20100 1.70495838 11.22096249 -2.51506818 -0.763051 -3.039609 1.286841
20120 3.3662034000000003 11.272906440000002 -1.84386798 -1.0915709999999998 -2.283288 1.311351
20140 3.9906981900000003 11.48007402 -1.99011546 -1.396508 -1.481434 1.11805
20160 3.6685672200000004 11.58456033 -1.7071950599999999 -1.58215 -0.6717930000000001 0.738633
20180 4.424653350000001 13.056001470000002 0.10028763 -1.417082 -0.173227 0.591733
20200 3.0120329700000004 12.597207390000001 -0.54816318 -0.770362 -0.383046 0.8197770000000001
20220 2.3688207 10.819655009999998 1.30648599 -0.068182 -0.679124 0.726785
20240 0.68632722 9.81733788 1.99370592 0.5965090000000001 -0.565875 0.60096
20260 -1.13269203 11.414209679999999 0.07155414 1.181191 -0.930636 0.469847
20280 -1.9576247400000002 15.83541972 -0.043860510000000005 1.092833 -0.862252 0.494779
20300 -1.59568479 17.932709430000003 0.1414602 0.619388 -0.322562 0.739676
20320 0.40581027000000003 13.829588640000003 -2.13216426 -0.054004 0.5963189999999999 1.701604
20340 2.4559433100000008 12.823386750000001 -3.5751662100000003 -0.8233600000000001 0.391979 1.521304
20360 4.18140459 12.15532575 -3.0389810400000004 -1.790229 0.58129 0.573204
20380 4.25580363 11.868520590000001 -1.8326355300000001 -0.486316 -2.077575 0.492784
20400 3.7778408100000003 11.013049350000001 -0.98959356 -0.399428 -2.6791560000000003 -0.455488
20420 2.5717994100000006 8.48719998 -0.45549792000000006 -0.8927870000000001 -1.961156 -0.8273219999999999
20440 1.92320145 6.68075715 0.70039476 -0.944863 -1.666054 -1.053459
20460 1.99834605 5.5681167600000006 1.0186311599999998 -1.092833 -1.281274 -0.979142
20480 1.4519781 4.5852626700000005 0.7318260000000001 -1.440104 -0.306868 -0.598256
20500 -0.17214587999999997 4.394409120000001 -0.15567489 -1.835998 0.314172 0.280534
20520 -0.74365686 5.33430522 -0.43993926 -1.471496 0.315756 0.367467
20540 -1.05620346 6.343361820000001 -0.9484308 -1.0783049999999998 -0.250393 0.148749
20560 -1.4976338400000002 6.93807345 -1.2867286500000001 -0.824242 -0.83236 0.010264
20580 -2.13785406 7.685163810000001 -1.64942397 -0.815372 -1.201102 0.041777
20600 -3.13328457 9.59190408 -1.9917537300000001 -0.955387 -1.429909 0.106254
20620 -4.645290060000001 12.644207100000001 -2.31942735 -1.066374 -1.536713 0.005203
20640 -5.716463580000001 13.444742340000001 -3.66018948 -1.138643 -1.139615 -0.135748
20660 -2.03427027 11.453135760000002 -5.501663820000001 -1.205552 -0.463578 -0.240699
20680 -0.5824393200000001 9.77077962 -5.643712620000001 -1.334163 0.026203 -0.334092
20700 0.98390376 7.666161840000001 -6.655162860000001 -1.340085 0.06697 -0.400416
20720 3.42263052 5.863456620000001 -6.817273110000001 -1.140522 -0.161681 -0.403002
20740 5.928575400000001 5.300029080000001 -5.727843180000001 -0.770262 -0.48525 -0.260064
20760 4.12332939 7.5627252 -5.00963346 -0.32721 -0.587213 -0.187404
20780 5.3157447 14.74643124 -4.50937251 0.049779 -0.7440439999999999 -0.188842
20800 8.83028511 23.69243511 2.97237114 0.1992 -0.937506 -0.156572
20820 -1.9802367900000002 13.29879897 0.53888292 0.34202 -0.938129 -0.124595
20840 -1.80794376 6.677765100000001 -1.06802451 0.967794 -0.920581 0.005803
20860 0.7111759500000001 4.07932173 -0.04685256 1.716078 -1.352098 0.442076
20880 1.1805942600000001 5.826933990000001 2.02977729 2.112802 -1.557111 0.750622
20900 1.53341091 8.457259859999999 1.8214128900000002 2.623641 -1.890832 1.178702
20920 -0.011673900000000001 12.088863 -0.25012557 3.192341 -2.219334 1.317691
20940 -1.08210186 13.4770761 -2.49217164 3.5779120000000004 -1.871334 1.335962
20960 1.12565826 12.08092671 -1.88368677 3.548276 -0.927271 1.038647
20980 0.9316655100000001 9.29072727 -1.66064661 3.067444 -0.085315 1.091894
21000 0.960399 7.81554852 -1.4561767799999998 2.522354 0.390927 1.54788
21020 1.21606722 7.15167639 -1.09407006 1.911107 0.02528 1.875228
21040 1.47084273 7.1817636600000005 -0.7568218800000002 1.481777 -1.125327 2.008299
21060 1.0827002700000001 7.72408989 -0.37391796 1.299663 -1.532565 2.241489
21080 0.65399346 7.95969666 0.07244685 1.014396 -2.140845 1.958266
21100 0.6427610100000001 8.78238288 0.78601644 0.57806 -2.893466 1.672035
21120 0.25791471 9.24118677 0.6673154400000001 0.344959 -3.125589 1.314987
21140 0.47496096000000004 10.520871840000002 -0.41553198 0.06707 -2.712774 0.885228
21160 0.75413394 10.60125498 -1.8239536800000002 -0.354061 -1.876588 0.465676
21180 1.711845 9.744135660000001 -1.84207275 -0.822327 -1.044653 0.084257
21200 2.8111536 9.910738890000001 -0.45714600000000005 -1.147114 -0.435349 -0.158074
21220 2.53602234 10.30127499 -0.18336852 -1.143957 -0.108828 -0.297339
21240 2.26478565 11.35314243 -1.1407754700000001 -1.064724 0.1234 -0.36545
21260 1.23957198 11.56973742 -1.9866721500000002 -0.980627 0.255458 -0.429125
21280 2.47944807 12.0080286 -1.06952544 -0.8537399999999999 0.375798 -0.529874
21300 2.45295126 12.22238691 0.10673280000000002 -0.7159760000000001 0.33299999999999996 -0.602564
21320 2.287692 13.265111430000001 -0.0038945700000000004 -0.6407970000000001 -0.01567 -0.586637
21340 2.53482552 11.24222076 0.58004568 -0.755054 -0.243369 -0.5550970000000001
21360 -0.51732054 9.267075360000002 0.9789595200000001 -1.032491 -0.242446 -0.545285
21380 -2.1023811 10.49048046 0.16705449 -1.325691 -0.158496 -0.50578
21400 -2.8901927700000005 14.07164058 -1.05740028 -1.578818 0.148659 -0.375482
21420 -2.19652767 17.7774858 -0.09236115 -1.779697 0.573377 -0.119988
21440 -0.09160578000000001 14.21055018 -0.57959442 -1.6908450000000002 0.50565 0.22255
21460 1.70675361 13.32828783 -2.3599917 -1.113368 0.646187 0.540461
21480 2.6258427 13.55775354 -3.1651670700000003 -1.0213290000000002 1.472318 0.59132
21500 2.7542752200000002 12.825780390000002 -2.6972398800000006 -0.072101 0.956395 0.383899
21520 1.5606532800000001 12.28570065 -2.85711345 0.189801 0.106408 0.131512
21540 -0.1733427 9.62318817 -2.5349824800000005 -0.177782 -0.304387 0.083538
21560 -0.79050942 7.1639487 -1.09691496 -0.15700999999999998 -0.598644 0.391708
21580 -0.39532338 4.696782750000001 -0.22902426 0.494262 0.310807 0.965522
21600 -0.11661147000000001 2.64304944 -0.9316655100000001 -0.038873000000000005 -0.8419540000000001 0.928024
21620 -0.3555144 1.8663230700000002 -2.2282630200000004 -0.112714 -1.181529 0.398105
21640 0.43529913000000003 1.30034493 -3.5839952100000003 -0.478339 -1.21722 0.050561
21660 0.41643450000000004 2.35609713 -4.54125501 -0.662832 -1.104151 -0.092946
21680 -0.06421626 3.0166731 -4.772378610000001 -0.5711729999999999 -0.802385 -0.245448
21700 -0.37272114 3.4456840200000003 -4.51895688 -0.394542 -0.648622 -0.223047
21720 -0.61297785 4.089641850000001 -3.843558 -0.107878 -0.204508 -0.178885
21740 -0.58318488 5.30242272 -2.7713348100000004 0.249593 0.138915 -0.323174
21760 -0.09340101 5.84114868 -2.03621265 0.4295850000000001 -0.007345999999999998 -0.39971
21780 0.5569921800000001 6.19816401 -1.8067469400000002 0.354843 -0.016689 -0.395947
21800 0.6894664200000001 6.31117521 -1.83982626 0.414688 0.075499 -0.325144
21820 0.84559257 6.799311000000001 -2.10058587 0.657791 -0.079213 -0.20788
21840 0.8931906900000001 7.7427975600000005 -2.31239358 1.260679 -0.487368 -0.159349
21860 0.32617269000000004 9.059309370000001 -2.6631108900000005 2.27833 -1.193103 -0.111812
21880 -1.41186501 10.373280390000001 -3.2739894000000005 3.4058370000000004 -1.97341 0.107504
21900 -3.51663975 12.65004405 -4.24038231 4.0232410000000005 -1.985284 0.409865
21920 -4.737798360000001 17.73346833 -3.02819985 3.889713 -1.95537 0.237979
21940 -0.39412656000000007 14.26683015 1.74701385 3.114834 -1.135365 0.1749
21960 3.8577825 8.66278917 0.8782206300000001 2.162144 0.32005900000000004 0.669513
21980 4.64633973 8.68403763 -0.86070978 1.48853 0.673117 0.873726
22000 6.423440850000001 13.63409496 -3.78353061 1.289556 1.033856 0.877215
22020 6.41925198 20.677400280000004 -7.88889789 0.621594 1.155771 0.539108
22040 3.7988047800000007 18.73982718 -2.57330034 -0.411001 0.981354 0.5630970000000001
22060 0.40176855 9.52020279 0.6524925300000001 -1.341061 1.100472 0.618405
22080 1.8815874300000002 6.33752487 -0.33889626 -1.930094 1.0631620000000002 0.602588
22100 3.05604063 5.898929580000001 -2.09578878 -2.271429 0.622079 0.380715
22120 2.68226982 5.92841844 -1.81512468 -2.604379 0.001525 0.011717
22140 1.6727717700000002 7.188199020000001 -0.9123496200000001 -2.765547 -0.312033 -0.28917800000000005
22160 1.01997513 8.564591069999999 -1.31217579 -2.6297200000000003 -0.494701 -0.546505
22180 0.11735703 8.34993846 -2.7961835400000004 -2.31267 -0.583701 -0.675567
22200 -0.8707356 7.7444456399999995 -3.3025855500000003 -2.033342 -0.423683 -0.708004
22220 -0.07918631999999999 7.46722485 -2.22362289 -1.625024 -0.001076 -0.452525
22240 1.56230136 7.397465940000001 -1.93113774 -0.893439 0.534043 0.156513
22260 2.84049531 7.565570100000001 -2.48498091 -0.587218 0.856716 0.71585
22280 3.79295802 7.71151347 -2.69678862 -1.247012 1.297528 0.541898
22300 4.65591429 7.956851760000001 -1.6359450300000002 -1.336083 0.43924 0.272115
22320 5.52051864 8.290960740000001 -0.5619266099999999 -0.712467 -0.465019 -0.041768
22340 3.6033111000000004 11.37933513 -1.3578217199999998 0.117164 -0.830909 0.163185
22360 0.1329255 14.38313751 -4.20670458 0.6354890000000001 0.005211 0.8088029999999999
22380 -3.5194846500000003 16.9821891 -5.72469417 -0.14236500000000002 0.763047 1.110047
22400 -6.98686839 17.191151910000002 -4.5812209500000005 -0.017258000000000003 0.662285 1.4240389999999998
22420 -6.359077440000001 13.21571808 -4.76070471 0.293002 0.5952430000000001 1.403859
22440 -1.9553880600000002 8.17539894 -6.11373915 0.076789 -0.23635 0.962239
22460 -1.1826936000000001 6.473883870000001 -6.0932264400000005 0.15526700000000002 -0.397473 0.428883
22480 -0.17528508000000004 8.80469082 -7.33879233 0.390213 -0.8501790000000001 -0.315583
22500 0.49352148 9.19732626 -7.475455439999999 0.200738 -1.018897 -0.582678
22520 0.5225590800000001 7.548049440000001 -5.938297110000001 0.15575 -0.490848 -0.7278789999999999
22540 0.82299033 5.057378730000001 -4.49410815 0.372468 0.220131 -0.759323
22560 1.2578382000000001 3.3835671 -3.9881574000000004 0.578715 0.51881 -0.7721520000000001
22580 1.0326987 1.80718839 -4.36537152 1.218715 0.132494 -0.888963
22600 0.11630736000000001 1.7019565200000002 -4.65187257 2.081786 -0.104914 -0.8751530000000001
22620 0.60130395 1.31261724 -4.20625332 3.074821 -0.382204 -0.8571790000000001
22640 1.24765542 2.35295793 -3.83652423 4.13283 -0.711805 -0.867526
22660 1.4907472200000003 4.80126906 -3.3528814200000006 4.100139 -0.8383430000000001 -0.36446
22680 1.10709774 8.28137637 -3.4840018800000006 3.366424 -0.669899 -0.02797
22700 -0.59066991 12.22119009 -3.59626752 2.263544 -0.433565 -0.097933
22720 -2.89318482 13.48724907 -3.01757562 1.374706 0.166651 0.289263
22740 -2.9476695600000005 9.97630893 -0.37871505 0.560747 0.977813 0.606209
22760 -1.27684017 5.52171546 1.7051055300000002 -0.392156 1.575865 0.525079
22780 0.63826803 4.372856550000001 2.8334615400000005 -1.323731 1.845984 0.116575
22800 2.681073 6.53091921 1.11742767 -1.721961 1.762127 -0.145677
22820 5.11171632 10.45321227 -5.280124590000001 -2.11057 1.932895 -0.156088
22840 5.407654590000001 19.1773728 -7.0133652 -2.536589 1.803577 -0.214446
22860 3.3268358700000005 18.19211526 -3.07610208 -2.897933 1.00747 -0.613328
22880 3.496284 15.208521480000002 -5.04929529 -2.893392 0.053013 -1.156867
22900 4.905745560000001 15.324387390000002 -3.2254887599999997 -2.678688 -0.618898 -1.4119469999999998
22920 3.92139054 8.70335352 -1.7238132000000002 -2.339155 -0.774641 -1.386943
22940 3.1186186200000003 5.16470994 -0.8961827400000001 -1.772759 -0.642921 -0.985777
22960 2.9129421600000005 6.47299116 -3.0279055500000003 -1.158526 -0.312053 -0.34525100000000003
22980 2.42975061 8.84690325 -4.07707524 -0.789488 0.484228 0.003479
23000 0.5427676800000001 9.909542069999999 -5.4253224 -0.901799 0.919264 0.265988
23020 0.41299119 9.71060508 -5.4604912500000005 -1.065022 1.122383 0.228268
23040 0.8958884400000001 8.59152933 -2.7271800000000006 -0.7582399999999999 1.079508 0.294559
23060 1.1587375800000002 7.760906820000001 -0.84619098 -0.077236 0.6712899999999999 0.291293
23080 2.1146534100000003 7.092845820000001 -0.24833034 0.5996600000000001 0.646143 0.398603
23100 2.36987037 8.63179938 -0.36599148000000004 0.631921 -0.209536 0.436244
23120 2.1155461200000003 10.79569899 -2.05567569 0.649051 -0.5436489999999999 0.325697
23140 0.7731457200000001 12.53987775 -4.50323145 0.365038 -0.365781 0.313871
23160 -2.42570889 14.999705820000003 -5.971082129999999 -0.00835 -0.033649 0.163423
23180 -1.9357778700000001 15.812219070000001 -6.5150564399999995 -0.113172 0.278194 0.058673
23200 -2.01256074 11.12397102 -7.23984867 -0.102973 0.622347 0.032666
23220 -2.6631108900000005 5.893249590000001 -7.44910578 -0.13761800000000002 0.292154 0.052075
23240 -0.96848244 4.64124834 -6.9296859 -0.169906 -0.25100100000000003 0.046137
23260 0.21001248 4.98987612 -6.69707118 -0.222147 -0.523355 0.002324
23280 1.52622999 4.5668493 -5.52142116 -0.162685 -0.6161220000000001 -0.027052
23300 1.6064561700000002 4.15146447 -5.00813253 -0.093764 -0.4895310000000001 -0.042757
23320 1.8809890200000001 4.02842745 -5.58189 -0.06637799999999999 -0.355302 -0.06730599999999999
23340 2.3460713100000006 3.7889163000000003 -5.8944464100000005 -0.022241 -0.044339 -0.08128300000000001
23360 2.55802617 3.63084777 -5.54730975 0.103617 0.14076 -0.125507
23380 2.99422782 5.06606058 -4.05521856 0.224971 0.0074709999999999985 -0.198196
23400 2.6870669100000004 7.65358542 -2.7315160200000004 0.366325 -0.359442 -0.206352
23420 1.10485125 10.83327129 -2.22377985 0.546553 -0.700499 -0.054037
23440 -0.45819567 11.63964348 -2.2320104400000003 0.8281360000000001 -0.869075 0.033604
23460 -2.2053664800000004 10.71247095 -2.70951219 1.214863 -1.267618 -0.002708
23480 -3.6519588900000004 11.386673009999999 -3.72784905 1.829594 -1.506066 -0.046179000000000005
23500 -3.32847414 12.77323803 -2.15057763 2.26145 -1.737903 0.01375
23520 -1.2337350300000003 13.23877158 1.63206027 2.713527 -1.6697 0.14821199999999998
23540 1.9580760000000001 8.9916498 0.9952833600000001 2.984529 -1.507236 0.31013
23560 3.6405792900000002 7.378002899999999 0.33634566000000005 2.516246 -1.747337 0.286871
23580 4.16418804 10.45770525 -0.5032530000000001 1.777625 -1.5351 0.332714
23600 4.88434014 13.56973155 -3.0638297700000003 0.933673 -0.28172 0.643543
23620 4.78510218 14.44795218 -3.7383261300000004 0.249011 0.36684 0.752229
23640 0.7909508700000001 12.202472610000001 -2.6038388700000006 0.020587 0.818244 0.752192
23660 1.6651395900000001 11.818371870000002 -2.3511627 -0.183904 1.028177 0.64474
23680 3.25138716 12.01850568 -2.4917203800000003 -0.795192 0.991078 0.595653
23700 3.47187672 10.245142170000001 -1.8624285 -1.263182 0.823385 0.5797800000000001
23720 3.19974732 8.69257233 -1.4124634200000001 -1.660868 0.776195 0.471309
23740 2.84932431 7.97870844 -1.6031698200000002 -1.979656 0.641574 0.048375
23760 1.8552377700000002 7.782763500000001 -1.894311 -2.1147240000000003 0.429053 -0.5002939999999999
23780 0.72374256 7.424708310000001 -2.4989013000000004 -2.126462 0.196623 -0.972232
23800 -0.02798793 6.971751179999999 -3.17370177 -1.981637 -0.104386 -1.213321
23820 0.16675038 6.696924030000001 -3.41949132 -1.728011 -0.282717 -1.325621
23840 0.87388461 6.4665558 -3.31066899 -1.4321469999999998 -0.377765 -1.256135
23860 2.0998305 6.5089153799999995 -2.7306233100000004 -0.991837 -0.230926 -0.7971159999999999
23880 3.0231182700000003 7.32112452 -2.4298977600000002 -0.316072 0.464185 -0.189741
23900 4.06854054 8.52432102 -2.78555931 0.02677 0.466726 0.20896
23920 5.11785738 9.283242240000002 -2.41927353 -0.691774 1.196273 0.340807
23940 5.63667885 8.183786490000001 -2.15371683 -1.664137 2.16965 0.455613
23960 5.034178080000001 7.668251370000001 -1.41380739 -1.245689 1.7780599999999998 0.251803
23980 3.25049445 8.06103396 -1.37010384 -0.064488 1.286144 -0.033076999999999995
24000 1.3004920800000002 9.61196553 -2.21449959 0.361922 0.691472 -0.074202
24020 -0.9247788900000001 11.994559470000002 -4.51415979 0.109093 0.41768 -0.117278
24040 -2.74469085 14.862444300000002 -6.4409517 -0.28935 0.225739 0.275427
24060 -3.75568983 15.70488786 -5.479051770000001 -0.394391 0.243706 0.401789
24080 -3.79295802 12.28495509 -4.62642543 -0.287317 0.905526 0.504238
24100 -1.1335945500000002 8.876392110000001 -5.560484580000001 -0.201481 0.989589 0.719443
24120 -0.85816899 8.04981132 -5.417837370000001 -0.093673 0.345342 0.29907399999999995
24140 -0.93855213 10.158922080000002 -6.21627327 -0.009647 -0.438092 -0.191786
24160 -0.17064495 10.822490100000001 -6.31476567 -0.069993 -0.920004 -0.303753
24180 0.29233800000000004 9.928848150000002 -4.0243857300000005 -0.173035 -0.963702 -0.209345
24200 0.03143124 7.52709528 -2.94602148 -0.181508 -0.34527 -0.078806
24220 0.36808101 5.27068737 -2.68242678 -0.227168 0.287222 0.031160000000000007
24240 0.33695388000000004 3.46484295 -3.0078441000000002 -0.13763499999999998 0.5721350000000001 0.098718
24260 0.51059088 2.21359707 -3.4302627 -0.002525 0.702778 0.07812999999999999
24280 0.8110123200000001 1.75165398 -3.4700814900000005 0.11168 0.479722 0.08241799999999999
24300 1.0207305 2.71070901 -3.4657454700000003 0.277953 0.112111 0.227193
24320 1.06024518 5.39643195 -3.8097233100000003 0.562786 -0.31945 0.277805
24340 0.91923624 8.05100814 -3.8437051500000003 1.019509 -0.907469 0.145017
24360 -0.07304525999999999 11.747121840000002 -3.1204138500000003 1.620198 -1.390053 -0.105474
24380 -2.07513873 16.97215347 -2.9193775200000003 2.2377990000000003 -1.814482 -0.261918
24400 -4.066294050000001 15.57166806 -3.7800873000000004 3.036541 -1.816623 -0.418706
24420 -3.8740965300000005 13.93227972 -1.2394248300000001 3.669874 -2.0515380000000003 -0.5624640000000001
24440 -2.2845528000000006 8.81980803 0.96848244 3.831941000000001 -2.02036 -0.5079600000000001
24460 0.66251835 6.687496620000001 2.0242444500000003 3.243544 -1.890419 -0.259068
24480 2.65937328 7.438785660000001 -1.2404745000000001 2.359556 -1.445559 0.080291
24500 5.823637830000001 10.563986790000001 -2.24832447 1.763357 -0.570329 0.437132
24520 5.699992590000001 11.73439827 -2.25954711 1.138239 0.33768200000000004 0.6132
24540 3.57950223 12.986546670000001 -5.5221667199999995 0.854123 0.979008 0.8518120000000001
24560 2.91548295 17.983152450000002 -5.43654504 0.419569 0.954759 0.899014
24580 3.46139964 15.724498050000001 -2.11869513 -0.391692 0.927488 0.962816
24600 3.96809595 9.79517709 -1.82051037 -1.133598 1.311434 0.961415
24620 3.4070620500000004 6.98193396 -0.62958618 -1.600134 1.449433 0.688787
24640 3.6932688 6.80155749 -0.15507648000000004 -1.897731 1.287973 0.033164
24660 3.1105351800000003 7.39177614 -0.25267617 -2.189695 0.923157 -0.655275
24680 1.07910981 7.73770617 -1.4711370300000002 -2.529003 0.621807 -1.190301
24700 -0.05613282 7.80791634 -2.7027825300000003 -2.566619 0.453944 -1.536453
24720 -0.0068866199999999995 7.622301330000001 -2.8377975600000003 -2.274239 0.590797 -1.647818
24740 0.7608636000000001 7.333396830000001 -2.58886881 -2.069337 0.833 -1.655243
24760 1.97574381 8.137679490000002 -1.93023522 -1.989448 0.4658270000000001 -1.279268
24780 2.8478233800000003 9.01080873 -1.75195809 -1.135098 -0.597584 -0.622459
24800 3.65689332 8.84376405 -1.7003182500000003 -0.292459 -0.778721 -0.277714
24820 3.8544863400000002 7.926313230000001 -1.336122 -0.564291 -0.134718 0.079552
24840 4.28752917 7.52889051 -1.5473313000000002 -1.325145 1.438581 0.500579
24860 4.025876850000001 8.419687560000002 -2.20266873 -1.528324 2.400761 0.617567
24880 3.50839935 9.28878489 -2.41358373 -0.687651 1.737023 0.439488
24900 1.3593226500000002 10.33929855 -2.09489607 -0.090208 1.471807 0.179082
24920 -0.210915 12.52775259 -3.60839268 0.346866 1.315069 0.102219
24940 -0.8467893900000001 15.24864438 -4.42135719 -0.114261 -0.743133 -0.008392
24960 -2.5725547800000004 15.434553690000001 -4.3384234500000005 0.052774 -0.796009 0.282331
24980 -3.0912192900000006 12.2135481 -4.242923100000001 0.303261 -0.418308 0.715158
25000 -1.55856375 8.97024438 -5.335060590000001 -0.012346 -0.243144 0.6080439999999999
25020 -2.12826969 8.675512740000002 -7.0483967100000005 -0.229864 -0.330448 0.251986
25040 -2.28814326 9.77661657 -6.953494770000001 -0.216297 -0.535538 0.113475
25060 -1.3319331300000001 10.0556424 -6.5012832000000005 -0.269455 -0.8130609999999999 0.031206
25080 -0.8616123 8.67700386 -5.793099300000001 -0.258242 -0.978022 -0.017641999999999998
25100 0.0142245 5.935756320000001 -4.37974317 -0.200696 -0.8022640000000001 -0.064467
25120 1.2448105200000001 3.6359391600000004 -3.41469423 -0.048193 -0.481583 -0.204818
25140 1.86931512 2.5991987400000003 -3.03434091 0.184219 -0.196288 -0.356316
25160 1.6247223900000003 1.84356387 -3.9489370200000002 0.376324 0.050208 -0.360631
25180 2.2826006100000003 1.3600682099999999 -4.22466669 0.447794 0.099816 -0.30785300000000004
25200 2.8776163500000003 2.09429766 -3.8728997100000004 0.5031680000000001 -0.117866 -0.264458
25220 2.368673550000001 4.26418137 -3.8913032700000003 0.589467 -0.348401 -0.230445
25240 1.6470205200000003 6.5015775 -5.078038590000001 0.6555979999999999 -0.760095 -0.163226
25260 -0.060920100000000005 10.78252416 -4.92595416 0.764989 -1.095027 -0.149214
25280 -2.44291563 14.16579696 -2.0959457400000003 1.207738 -1.609882 -0.184986
25300 -2.90815488 12.20217831 -0.9517171500000001 1.761795 -1.951865 -0.12513
25320 -4.51236456 11.691440279999998 -3.13134219 2.232084 -1.935647 -0.059909
25340 -3.2364171 12.509937630000001 -2.9241648000000002 2.320591 -1.93069 -0.044342
25360 -0.18262296000000003 12.713809050000002 1.3853682000000003 2.403043 -1.613576 -0.031353
25380 2.18755152 9.86134554 0.5170262400000001 2.190188 -1.026914 -0.036797
25400 3.8387707200000003 8.261619029999999 -1.9431059400000001 1.603612 -0.031915 0.197113
25420 4.8759624 10.79330535 -1.2650191200000003 1.024214 0.631876 0.401587
25440 5.55868935 14.381047980000002 -3.0985571700000003 0.49781 0.619529 0.482315
25460 6.508012860000001 18.9200565 -4.63166397 0.251206 0.549162 0.444363
25480 4.96801944 13.64891787 -2.7934956000000004 -0.122821 0.559351 0.352007
25500 1.8315956700000002 8.129144790000002 -2.2679346600000003 -0.679956 0.85488 0.456695
25520 2.02872762 7.363641060000001 -1.2359815200000002 -1.151284 1.016939 0.56429
25540 2.8370520000000004 8.09322057 -1.11218913 -1.57379 1.002475 0.551744
25560 2.68736121 7.99532658 -0.32811507000000006 -1.987536 0.8417629999999999 0.341824
25580 1.6247223900000003 7.95460527 -0.5436702 -2.298303 0.622836 -0.051035
25600 0.4451778 8.16282252 -2.04340338 -2.335929 0.709388 -0.616498
25620 0.05223825 7.786952370000001 -3.0280527000000004 -2.126726 0.6672560000000001 -0.91729
25640 0.26869590000000004 7.26199965 -2.9903332500000004 -1.883728 0.688358 -1.076921
25660 0.7845155100000001 6.848861310000001 -2.5478532 -1.493973 0.359677 -1.004343
25680 1.6259192100000002 6.6464810100000005 -2.4131324700000003 -0.836167 -0.154098 -0.697851
25700 1.97694063 7.0913547 -2.5861710600000003 0.100275 -0.30062300000000003 -0.299085
25720 2.4783984000000006 8.024364180000001 -2.3688207 0.466351 -0.026867 0.187026
25740 3.48610122 9.37246419 -2.68092585 -0.373407 0.910362 0.435264
25760 5.42427273 9.862091099999999 -2.17078623 -1.1514719999999998 1.70705 0.345487
25780 6.5367561599999995 8.66623248 -1.52023608 -1.0201440000000002 0.947332 0.275807
25800 4.75321968 8.99374914 -2.13800121 -0.255887 0.8961969999999999 0.146615
25820 2.4581898000000004 11.315266020000001 -2.97356796 0.110792 1.286982 0.137994
25840 -0.59920461 13.32573723 -2.99422782 -0.280048 0.757735 0.161579
25860 -3.72605382 14.87516787 -3.02640462 -0.444157 0.084114 0.395237
25880 -5.172047820000001 15.36914061 -3.2741365500000006 -0.346914 0.044876 0.798686
25900 -6.00535827 13.789024290000002 -3.4012251000000004 0.069489 -0.138562 1.022951
25920 -3.9112175700000003 11.80475559 -4.14907083 0.24765 -0.504174 0.6582640000000001
25940 -1.1247655500000002 9.990072360000001 -4.303548900000001 0.593875 -1.3449799999999998 0.168241
25960 -0.13412232000000002 8.70259815 -4.44156579 0.441203 -1.615101 -0.08030599999999999
25980 0.2342628 8.686441080000002 -5.0308917300000005 0.337669 -1.346566 -0.277926
26000 0.2832147 8.948838960000002 -4.42719414 0.155096 -0.479649 -0.331587
26020 0.008829 7.960746330000001 -3.10618935 0.139967 0.424832 -0.33392
26040 -0.41149026 6.33542553 -2.5257022200000003 0.236025 0.634502 -0.369837
26060 -0.42646032 5.00903505 -2.54845161 0.410132 0.308461 -0.503868
26080 -0.01317483 3.4197856200000003 -3.30887376 0.585649 -0.094624 -0.5534
26100 0.9862974000000001 2.28020697 -3.62575638 0.795423 -0.096773 -0.464338
26120 0.6562399500000001 2.25236619 -3.45735792 1.288645 -0.413101 -0.373961
26140 0.5803399800000001 3.03134886 -3.18477726 2.030837 -0.999336 -0.401141
26160 0.7253906400000001 5.5440234 -3.60121176 2.82261 -1.6774919999999998 -0.394741
26180 0.29054277 9.677221650000002 -4.49664894 3.4572730000000003 -1.676634 -0.360399
26200 -0.57330621 14.4722025 -3.55735125 3.506819 -1.482224 -0.269503
26220 -1.5928398900000003 13.161684600000001 -2.28035412 2.738815 -1.728645 -0.31728
26240 -2.4819888600000004 11.088488250000001 -3.4958327400000004 1.90635 -0.962309 0.036982
26260 -2.0558228400000003 10.64032821 -1.38790899 1.2252040000000002 -0.100217 0.289629
26280 -1.10904012 11.574828810000001 1.68699627 0.420936 0.644038 0.280921
26300 0.9304686900000001 7.541015669999999 -0.26869590000000004 -0.08428300000000001 1.35582 0.407871
26320 4.159695060000001 5.76884898 -2.28439584 -0.5843470000000001 1.561434 0.30477
26340 5.274729090000001 9.258393510000001 -2.8415449800000006 -1.2080799999999998 1.404913 0.294204
26360 7.42351149 15.694567740000002 -3.4169407200000004 -1.736479 1.489248 0.441025
26380 6.754400820000001 16.48865781 -4.6824111 -2.092686 1.556386 0.476907
26400 4.68556011 20.286717030000002 -3.2099202900000003 -2.370605 1.391255 0.188893
26420 3.1549842900000007 12.94852311 0.54336609 -2.523742 1.15976 -0.39406
26440 2.3504171400000002 7.86135141 0.27108954 -2.54952 0.779857 -0.737721
26460 2.0044773 5.846995440000001 0.5545985400000001 -2.324891 0.055258 -0.879434
26480 1.49703543 5.191059600000001 0.13232709 -1.850319 -0.528836 -0.943736
26500 -0.01990449 6.0294614399999995 -1.94745177 -1.275148 -0.6080720000000001 -0.808226
26520 -0.9123496200000001 7.189994250000001 -3.63220155 -0.811621 -0.18802 -0.494674
26540 -0.6054928200000002 7.7884533000000005 -4.21058934 -0.409733 0.373574 -0.093071
26560 -0.10882233000000001 7.88590584 -2.7782214300000003 -0.181734 0.652497 0.020327
26580 1.13823468 7.7329188900000005 -2.05897185 -0.5311279999999999 0.777274 0.022000000000000002
26600 2.3779538100000006 8.78852394 -2.78869851 -1.095732 1.297543 -0.124684
26620 3.8455003800000003 9.48712347 -2.53273599 -1.130528 1.387045 -0.365392
26640 5.113070100000001 9.2139444 -1.1573936100000002 -0.7954829999999999 1.080459 -0.442776
26660 4.6069722 8.5663863 -0.6468027300000001 -0.276739 1.116004 -0.457357
26680 3.4167935700000003 9.53966583 -2.24847162 0.06386900000000001 0.724831 -0.432044
26700 0.80187921 11.683651140000002 -4.87670796 -0.125263 0.6774819999999999 -0.415145
26720 -2.8575549000000002 15.58708938 -6.61953294 -0.711708 0.333204 -0.125039
26740 -5.81002155 18.00560754 -5.5482122700000005 -1.009495 0.723406 0.055047000000000006
26760 -5.93919963 13.59981882 -4.0607514 -1.220767 0.8779600000000001 0.215743
26780 -2.6223993900000004 8.56848564 -4.8993102 -1.239095 0.382582 0.237614
26800 -2.410591680000001 6.8591814300000005 -5.620060710000001 -1.036959 0.02392 0.244827
26820 -1.5597605700000001 7.18969995 -6.25354146 -0.611866 -0.23485 0.119941
26840 -0.22708187999999999 8.65739367 -5.87663145 -0.26058000000000003 -0.436351 -0.143335
26860 0.04221243000000001 8.61982137 -5.259759030000001 -0.123595 -0.577562 -0.379342
26880 0.10762551000000001 7.272329580000001 -4.15445652 -0.136309 -0.5616329999999999 -0.621938
26900 0.5288472900000001 5.15168226 -3.50870346 -0.165983 -0.416103 -0.7590640000000001
26920 0.9906432300000001 3.5251646400000003 -3.4102110600000004 -0.108981 -0.10619 -0.787905
26940 1.3235455800000002 2.5551910799999997 -3.8302360200000005 -0.023436 -0.042654 -0.767092
26960 1.6422332400000001 2.7831656700000007 -3.89983797 0.036438 -0.411758 -0.689289
26980 1.8329396400000002 4.244718330000001 -3.33910818 0.066486 -0.995992 -0.599668
27000 2.15596332 6.509513790000001 -2.95350651 -0.110696 -1.620051 -0.4943520000000001
27020 1.84356387 9.15944985 -3.1003524000000002 -0.198355 -2.102442 -0.463368
27040 1.0282155300000004 11.90324799 -3.79969749 0.007954000000000001 -2.255476 -0.467072
27060 -1.08928278 12.434488920000001 -3.94833861 0.413015 -2.590248 -0.483041
27080 -2.5114777200000002 11.455225290000001 -3.5690251500000003 1.346484 -3.155765 -0.795195
27100 -3.46319487 10.2469374 -3.25078875 2.084554 -3.219951 -0.5688350000000001
27120 -3.2364171 10.17568737 -1.88368677 2.44946 -3.673804 -0.075391
27140 -2.5143226199999997 14.138701740000002 -0.53154504 3.2892879999999995 -2.726221 0.123677
27160 -1.37489112 11.211387929999999 -0.59157243 3.5073730000000003 -0.735737 0.5958720000000001
27180 -0.26030835 9.89248248 -1.05051366 3.028508 1.340745 1.211572
27200 2.31882894 9.967774230000002 -0.02470158 2.489853 1.86474 1.708134
27220 4.26912561 9.55597986 1.15290063 1.829954 0.390485 2.257684
27240 4.94481879 9.83379906 0.04431177000000001 1.300257 -2.503154 2.803554
27260 4.79543211 11.2878765 -2.1306731400000003 1.292517 -3.752796 2.562615
27280 5.2617112200000005 11.64832533 -2.88225648 0.7156779999999999 -4.599176 1.869599
27300 4.11628581 12.979512900000001 -2.84542974 -0.020402 -5.096178 1.588425
27320 3.0247565400000003 15.734082420000002 -1.4533318800000001 -0.384735 -4.947057 1.376317
27340 1.25648442 11.288926170000002 -0.46538640000000003 -0.237583 -4.601017 1.026525
27360 0.50939406 8.626707990000002 0.06945480000000001 -0.038624 -4.376532 0.660158
27380 0.51432849 6.817724370000001 0.7625116799999999 -0.360016 -4.617446 0.7127020000000001
27400 0.16181595000000001 5.60539476 0.12903093000000002 -0.961771 -5.270756 0.775565
27420 0.41822973 5.23700964 -0.88046712 -1.237349 -5.576607 0.777237
27440 1.5432895800000002 5.88546045 -1.77066576 -1.182547 -4.900807 0.892122
27460 3.24719829 6.8804397 -1.83443076 -0.791604 -3.455089 1.051097
27480 4.65636555 7.21724643 -1.84147434 -0.316972 -2.10473 1.008885
27500 5.3646966 7.4224618200000005 -2.6643077100000006 -0.013318 -1.036142 0.982931
27520 5.3890940700000005 8.4795678 -2.43663723 0.443654 -0.582252 1.36476
27540 5.028046830000001 10.01252745 -1.7215667100000003 1.0767129999999998 -0.637258 0.985761
27560 4.270018320000001 9.186849180000001 -1.070271 1.516318 -1.073755 0.538601
27580 3.21276519 7.6929529500000005 -2.2260165300000003 1.187009 -0.969481 0.322523
27600 3.1302925200000002 7.738010280000001 -2.4947124300000003 0.428613 -0.032395 0.270091
27620 1.63460106 11.133094320000001 0.17035065000000002 0.971705 0.982935 0.5674130000000001
27640 -2.5611751800000007 16.52338521 1.10844171 0.926527 1.508803 0.701019
27660 -5.882762700000001 15.685728930000002 0.98854389 -1.595355 1.326905 0.690046
27680 -5.40555525 18.29630727 1.3620204000000002 -0.627969 -0.480818 0.372244
27700 -3.6554022 23.50352394 1.41201216 -0.660311 -0.453637 -0.002963
27720 2.15327538 21.046982220000004 -0.89962605 -1.053144 -0.97459 -0.718611
27740 5.13971406 16.88339259 -4.387375350000001 -1.289711 -1.770003 -0.8666590000000001
27760 8.442593910000001 16.09333443 -5.664225330000001 -1.603495 -2.3246580000000003 -0.683338
27780 7.691608980000001 17.10163566 -2.52599652 -1.801901 -1.318434 -0.396525
27800 3.53489616 13.26286494 -0.81311166 -2.045913 -0.442095 0.176419
27820 1.8176654700000001 9.49909167 0.46313991000000004 -1.998381 -0.074628 0.414494
27840 0.92267955 6.635699820000001 2.2312648800000003 -1.753538 -0.195963 0.17601
27860 0.2282787 4.54828878 2.58946722 -1.2222879999999998 -0.44932 -0.062441
27880 -0.25597233 4.1634424800000005 1.8390708900000001 -0.8721129999999999 -0.450326 -0.114473
27900 -1.1018592 3.7558369799999998 0.07409493 -0.912643 -0.8626870000000001 -0.054408000000000005
27920 -0.48334851000000006 4.268223090000001 -0.41045040000000005 -1.18458 -1.527619 -0.035159
27940 -0.07484049000000001 5.75733204 0.26270199 -1.331064 -1.434137 -0.108941
27960 -0.6185106900000001 6.821913240000001 1.03329711 -1.314863 -0.768033 -0.199412
27980 -1.7396857800000003 7.42620924 1.55421792 -1.220414 0.13355799999999998 -0.372959
28000 -2.20925124 8.85019941 0.47242017000000003 -1.145039 0.297309 -0.363029
28020 -3.2192103600000004 12.001446089999998 -1.4052825 -1.063794 0.34916 -0.346504
28040 -5.41768041 13.01259222 -2.6550274500000004 -0.65317 0.203432 -0.223809
28060 -5.02520193 10.2150549 -3.37263876 -0.068958 -0.089598 -0.17769200000000002
28080 -4.13485614 7.551051300000001 -4.585566780000001 0.495442 -0.563473 -0.17741500000000002
28100 -3.2488463700000003 4.767140070000001 -5.2855102800000004 1.122262 -1.607465 0.083606
28120 -0.7312275899999999 3.1174218000000002 -6.21253566 1.687568 -1.98907 0.4512390000000001
28140 0.24114942 6.4216456200000005 -7.12189323 2.238036 -2.177542 0.752292
28160 3.6061461900000005 16.52997753 -8.681948100000001 2.720994 -2.517767 0.966541
28180 11.077412760000001 23.121218430000003 0.7282355400000001 3.221242 -2.537651 0.97647
28200 1.70405586 15.16870269 0.03981879 3.138135 -2.3941380000000003 0.857133
28220 0.00837774 7.37636463 -0.9316655100000001 2.775093 -1.2373040000000002 0.653357
28240 1.85209857 5.19958449 -1.2567885300000001 2.571343 -0.278814 0.89426
28260 2.98150425 5.04450801 0.01975734 2.284544 0.22527 1.356287
28280 3.6633286800000002 8.166864240000002 0.45221157000000006 1.9213 -0.8926209999999999 1.774994
28300 2.25446553 12.169991700000002 0.5881291200000001 1.66156 -1.926196 1.798005
28320 -0.56297628 13.555811160000001 -0.7879588200000001 1.518718 -2.2596990000000003 1.6735209999999998
28340 -0.30266793 12.95810748 -1.65211191 1.178967 -2.633482 1.4035030000000002
28360 -0.65473902 9.63007479 -1.9706524200000002 0.739606 -2.797296 1.192341
28380 -0.41179437 7.06755564 -1.6826504400000002 0.47908 -2.555944 1.002205
28400 0.5348412000000001 6.883883010000001 -0.8586104400000001 0.347647 -2.12417 0.765724
28420 1.05994107 6.619680090000001 -0.35446473 0.226027 -2.0792900000000003 0.570401
28440 1.0931773500000002 6.39230391 0.70922376 -0.132926 -2.183618 0.33195
28460 0.27737775000000003 6.86711772 1.4114137500000001 -0.765166 -1.953037 0.22682600000000006
28480 0.03562992 7.93649601 1.0844955 -1.309398 -1.277843 0.213613
28500 0.34203546 9.27979893 0.07035732 -1.41059 -0.543459 0.199147
28520 0.7200049500000001 11.00302353 -0.63123426 -0.710791 -0.113289 0.17570999999999998
28540 1.5344605800000002 13.20883146 -1.9377202500000001 -0.211355 -0.16031099999999998 0.578774
28560 2.2369448700000003 12.54646026 -2.51417547 0.068549 -0.775999 0.5922
28580 2.61401184 11.50912143 -1.71378738 0.5608890000000001 -1.782545 0.663159
28600 2.9075564700000003 11.81568393 -1.34330292 0.625256 -1.800491 0.566423
28620 4.01389884 13.172907240000002 -1.46979306 0.682523 -1.796862 0.408721
28640 3.48251076 13.58829207 -0.6393177000000001 1.821136 -1.269364 0.174581
28660 3.8483452800000006 12.165949980000002 0.38290392 1.497763 -1.217516 0.009886
28680 1.5959790900000002 11.101064670000001 -0.5496543 -0.167955 -0.03897 0.300115
28700 -0.65459187 10.402170840000002 0.6861702600000001 -0.6947270000000001 1.031096 0.35809
28720 -2.43752994 13.27244931 0.85367601 -1.027869 1.171953 0.320331
28740 -2.7782214300000003 16.9970022 2.20027509 -1.244602 -0.113041 -0.222193
28760 -1.1280519 15.780189420000001 3.2651604000000005 -1.318442 -1.431267 -0.304341
28780 0.03307932 13.040433 -0.18336852 -1.283524 -2.424202 -0.044315
28800 1.67576382 12.61725903 -3.19615686 -1.196595 -1.886119 0.382891
28820 2.11929354 12.86514792 -3.4389445500000004 -1.375306 -0.908062 0.770291
28840 1.2916630800000002 12.47176692 -1.98038394 -1.590177 -0.404999 0.893127
28860 0.25806186000000003 10.374771509999999 -1.5220313100000002 -1.412125 0.022596 0.634245
28880 -0.11331531000000002 6.820863570000001 -0.98524773 -1.1177979999999998 -0.100671 0.303174
28900 -0.19399275000000002 4.641395490000001 -0.03382488 -0.8901100000000001 -0.189132 0.11687
28920 -0.18636057 3.40137225 0.28186092 -0.690521 -0.272511 0.015822
28940 -0.03726819 3.17968587 0.0432621 -0.365521 -0.405562 -0.026603
28960 -0.32452461 3.5311585500000002 -0.08038314 -0.086139 -0.661192 -0.011505
28980 -0.49516956 3.83262966 -0.93779676 0.117044 -0.940299 0.08000299999999999
29000 -0.92358207 4.24457118 -3.01832118 0.276719 -0.870087 0.231647
29020 -1.25648442 5.43145365 -5.40571221 0.310022 -0.638699 0.413181
29040 -1.4638089600000002 7.02908082 -7.0924043700000015 0.375065 -0.80861 0.4896970000000001
29060 -0.13621185 10.09425456 -6.65141544 0.569042 -0.865692 0.477238
29080 0.5225590800000001 13.93197561 -8.34649515 0.6570779999999999 -0.652353 0.330165
29100 -0.2806641000000001 13.449980880000002 -8.32972986 0.622367 -0.433331 0.200387
29120 1.31127327 9.31318236 -5.407958699999999 0.525189 -0.378012 0.037268
29140 -0.41344245 5.85791397 -2.37780666 0.482623 -0.664129 -0.03637
29160 -1.95089508 5.642819909999999 -4.18305267 0.610819 -1.077996 -0.012512
29180 -0.7068301200000001 12.778780679999999 -4.61879325 1.387613 -1.316039 -0.03135
29200 2.15566902 22.11201468 -5.61137886 2.594164 -1.200534 -0.125619
29220 1.42399017 12.951063900000001 -3.25677285 3.646901 -1.4664 -0.085879
29240 0.55175364 8.0460639 -2.26898433 3.751598 -1.724243 0.101054
29260 2.2873977 5.83441902 2.1068642700000004 2.993155 -1.8541330000000005 -0.05897
29280 4.89512133 6.751261620000001 1.11847734 2.024122 -1.023887 -0.117009
29300 5.579045100000001 8.29828881 0.44876826000000003 1.182625 0.17565999999999998 0.067856
29320 5.51752659 12.0689487 -0.47122335000000004 0.387342 0.665863 0.180245
29340 2.13366519 13.91491602 -0.14445225 -0.105117 1.219473 0.157936
29360 -1.34540226 12.0572748 -1.5170968800000002 -0.647047 1.178007 0.341143
29380 -3.3124642200000003 9.976907340000002 -2.47001085 -1.114781 1.036115 0.532474
29400 -2.2643442 7.72034247 -1.9995428700000002 -1.483164 1.057279 0.6206729999999999
29420 -1.16787069 7.17458274 -2.14787988 -1.920523 1.274131 0.5831569999999999
29440 0.34293798000000003 7.8540135300000005 -2.62344906 -2.41537 1.325886 0.590316
29460 1.76348484 7.867041210000001 -3.21321645 -2.922094 1.188589 0.200256
29480 2.6641605600000005 7.53952455 -2.9410870500000006 -3.110209 0.7400220000000001 -0.413642
29500 3.18671964 7.3786013100000005 -2.6186519699999997 -2.831387 0.281135 -0.716618
