time Ax Ay Az Gx Gy Gz
20 -1.1570895 9.33937506 -2.7443965500000003 0.51688 -0.119958 0.24625100000000005
40 -1.11967416 9.389072520000001 -2.883159 0.6079829999999999 -0.246053 0.265208
60 -1.27355382 9.04778262 -2.8316663100000006 0.710831 -0.384911 0.269309
80 -1.2928599000000003 8.81591346 -2.84393862 0.662292 -0.398056 0.135459
100 -1.1662226100000002 8.64452295 -2.7791239500000002 0.481146 -0.404653 0.077587
120 -0.73481805 8.67147102 -3.4932821400000003 0.248549 -0.603219 0.118945
140 -0.40999914 8.70768954 -3.58250409 0.204661 -0.8609100000000001 0.130719
160 -0.10942074000000002 8.63913726 -3.7074933 0.5432020000000001 -0.937117 -0.019574
180 0.12529332 8.727750990000002 -4.1573014200000005 0.77163 -0.973882 -0.080956
200 0.5613282000000002 9.02188422 -4.35549285 0.450632 -1.099858 -0.000784
220 0.41134311000000007 8.81157744 -4.51611198 -0.146384 0.547463 -0.117092
240 0.13711437 8.86022523 -4.762342980000001 -1.29264 0.7757850000000001 -0.277079
260 -0.08876088000000001 8.50396527 -4.65427602 -2.246757 1.33965 -0.5985229999999999
280 0.24174783000000002 8.21775852 -5.049000990000001 -2.3643110000000003 1.995256 -0.611935
300 -0.4912749900000001 8.653204800000001 -5.360654879999999 -2.160605 1.84075 -0.512037
320 -1.93293297 8.5635414 -5.65778016 -1.565739 1.564645 -0.445572
340 -1.39524687 9.014409 -5.62754574 -1.0570700000000002 1.207449 -0.271714
360 -2.02738365 9.75207195 -5.6098877400000005 -1.058786 0.511185 -0.1106
380 -5.7312864900000005 14.74389045 -4.72687002 -1.086914 -0.33648 -0.159917
400 -1.9489428900000003 15.45746004 -2.8157937299999998 -0.927124 -0.951355 -0.245607
420 -6.612047909999999 5.259759030000001 2.7175956300000004 -0.611525 -1.156341 -0.405509
440 -8.42268942 3.19181103 1.84611447 -0.493918 -0.8447020000000001 -0.385859
460 -5.526806850000001 8.34874164 2.30924457 -0.522105 -0.590472 -0.268878
480 -2.4022041300000003 12.224182140000002 4.17406671 -0.616336 -0.747372 -0.11123800000000003
500 0.24309180000000002 13.05390213 2.35699965 -0.652478 -0.859485 -0.015207
520 3.0765533400000002 11.872562310000001 0.07050447000000001 -0.7369180000000001 -0.906015 -0.027487
540 2.6964943200000002 10.233615420000001 -0.84559257 -0.92512 -0.67986 0.056366
560 1.4432962500000002 9.09643041 -0.7339253400000001 -0.959117 0.310927 0.065541
580 -0.33320646000000004 9.33608871 -0.29907747 -0.7801170000000001 0.521125 0.092159
600 -2.39696559 9.79742358 -0.7994855700000001 -0.719409 0.691533 0.048568
620 -2.5026487200000003 10.126294020000001 -0.9279180900000001 -0.787269 0.986994 0.012464
640 -1.8248562 9.76988691 -0.23516532 -0.8241219999999999 0.8465530000000001 0.0006360000000000001
660 -0.37751823000000007 9.46376586 0.10912644 -0.906776 0.465599 -0.0315
680 -0.37721412000000004 9.48786903 -0.29683098 -0.8347709999999999 0.302531 -0.073517
700 -0.51073803 9.12562497 -0.00104967 -0.68783 0.43534 -0.113253
720 -0.94199544 9.398804040000002 0.11226564 -0.6454449999999999 0.562144 -0.159053
740 -1.6355035800000002 9.493411680000001 0.024848730000000003 -0.68801 0.576184 -0.17005
760 -2.0806715700000002 9.5378706 0.5351355 -0.739727 0.457079 -0.17666800000000002
780 -1.7082447299999999 8.98177113 -0.10208286000000001 -0.768705 0.4251970000000001 -0.17042000000000002
800 -1.89864702 9.26647695 0.20611791 -0.776458 0.150278 -0.144485
820 -1.6386427800000003 9.02563164 0.47630493 -0.6776449999999999 -0.134668 -0.100701
840 -1.42518699 8.89405011 0.21974400000000002 -0.5075 0.080579 0.002761
860 -1.40647932 8.96111127 -0.22244175000000002 -0.025703 -0.290604 -0.031854
880 -1.7085488400000002 9.270077220000001 -0.2282787 0.7495350000000001 -0.727486 -0.141247
900 -1.5513730200000002 9.51585696 0.27078543 1.3362690000000002 -0.7528050000000001 0.087211
920 -1.6251736500000002 9.413175690000001 0.77463684 2.143306 -0.97566 0.23948000000000005
940 -1.6061618700000002 9.33458778 1.10904012 3.229073 -1.204545 0.326406
960 -1.5194905200000002 9.58606713 1.13388885 4.202952 -0.924917 0.416171
980 -1.39330449 10.19469915 1.3671117899999998 4.293412 -0.117275 0.563183
1000 -0.78826293 11.60476893 0.85576554 3.29883 1.492512 0.3213
1020 0.04565574000000001 12.14963595 -0.025143030000000004 2.175454 2.578143 0.200967
1040 1.0180327500000002 11.938426650000002 -1.09975986 1.971375 2.408929 0.336491
1060 0.36494181 11.83199796 -3.04721163 2.333695 2.762512 0.310795
1080 0.41179437 12.03601653 -4.29007977 1.579994 2.615211 0.504408
1100 1.1726579700000002 13.79007396 -3.9215475 1.13179 1.160782 0.974227
1120 1.2322341 13.579610220000001 -4.6886993100000005 0.676926 0.922573 1.531104
1140 0.2228832 12.952417680000002 -5.160668220000001 0.7612369999999999 0.410058 1.487484
1160 -0.94348656 13.678553879999999 -3.72979143 0.728774 -0.16625299999999998 1.248714
1180 -3.6109432800000003 14.36472414 0.7788257100000001 0.757704 -0.581095 0.803999
1200 -5.25063573 16.25335515 7.355999070000001 0.762949 -0.834882 0.33007
1220 -8.160880140000002 15.37722405 8.17090596 0.528563 -0.847676 0.00371
1240 -9.823174830000001 14.801072940000001 1.8389237400000003 -0.052645 -0.635468 -0.07967
1260 -6.04667799 13.401333090000001 -0.35566155000000005 -0.67348 -0.400977 -0.10674000000000003
1280 -3.5369955 11.47902435 0.78122916 -1.037273 -0.308562 -0.257882
1300 0.29833191000000003 10.67804766 2.74559337 -1.359411 -0.234287 -0.4375520000000001
1320 1.2073853700000001 9.60178275 2.3195745 -1.5922 -0.240139 -0.636792
1340 0.36209691 8.25248592 0.44202879000000006 -1.668832 -0.750894 -0.714653
1360 -0.14534496 6.04024263 -0.47900268000000007 -1.6558959999999998 -1.877061 -0.6832090000000001
1380 -0.7725473100000001 5.30032338 -0.68512059 -1.359683 -3.242337 -0.7755310000000001
1400 -2.16389961 4.21283583 -0.5872266 -0.991467 -3.637966000000001 -0.72545
1420 -2.98538901 2.26478565 0.00523854 -0.524137 -1.912791 -0.189217
1440 -3.50690823 1.1546958600000001 1.20020445 -0.204686 -0.108106 0.571276
1460 -3.4516681200000003 0.94783239 1.38267045 -0.472422 -0.330674 1.050391
1480 -3.3522830100000003 2.37945474 0.58213521 -0.396585 -1.240873 0.832033
1500 -2.0044773 3.5398404 -0.12498921000000002 0.4924 -0.41244 0.4163020000000001
1520 -0.33560010000000007 4.54080375 -0.6019023600000001 0.446993 0.926469 0.225193
1540 0.13172868000000001 5.744755620000001 -1.34255736 0.5234989999999999 -0.214107 0.341489
1560 -0.32302368 7.293136590000001 -2.270034 -1.092785 -2.725119 0.183866
1580 -0.31943322 8.96634981 -2.4974101800000006 2.074695 4.031945 0.096919
1600 1.23987609 10.41848487 -2.6834666400000002 2.486006 3.825507 0.48248
1620 3.37967253 11.34895356 -2.53991691 0.980568 2.597173 0.207552
1640 3.91540644 11.49983136 -3.1952543400000004 -0.31663600000000003 0.608933 -0.156816
1660 0.75562506 9.34910658 -5.25347082 -1.6714080000000002 -1.348298 -0.500261
1680 -2.96309088 7.87931352 -6.118075170000001 -2.731479 -2.575417 -0.400339
1700 -6.33527838 8.36534997 -5.55674697 -1.592629 -0.021845 -0.08266699999999999
1720 -6.1079022 13.161978900000001 -1.2641166000000001 0.403464 1.850399 -0.087147
1740 -3.2790807900000005 13.544882820000002 5.057682840000001 0.288304 0.471036 -0.295555
1760 -4.99736115 13.74127902 0.73033488 -0.35025700000000004 -0.4850060000000001 -0.418432
1780 -10.61906994 26.633963610000006 -20.31874668 -0.197329 -0.198852 -0.449777
1800 10.64780343 13.917309659999999 8.13363777 0.037596 0.47616 -0.294109
1820 -3.3413546700000003 6.306535080000001 5.39358705 0.193705 0.968121 -0.11418699999999997
1840 -3.5455302000000004 7.6814262 4.450846050000001 1.050786 1.211518 -0.186493
1860 -3.2668084800000003 8.12211102 1.85240268 1.581132 1.13868 -0.279903
1880 -1.9378674 8.45561178 -0.54216927 2.122474 1.135171 -0.138317
1900 0.03951468 10.046205180000001 -4.89302199 2.407348 1.943631 0.434136
1920 2.6321309100000003 12.202923870000001 -7.38998091 2.77398 1.796882 0.8502870000000001
1940 0.6962058900000001 8.391248370000001 -3.9243924000000003 3.88058 -0.487988 0.653709
1960 -1.9291855500000001 5.19958449 -1.4780236500000004 1.522176 1.016324 1.329652
1980 -2.5596742500000005 5.62725144 -2.23679772 0.29156 1.677762 1.621448
2000 -1.3608235800000001 8.102049569999998 -2.34112707 -0.265075 0.446326 1.033752
2020 -0.40880232000000005 9.55882476 -1.7760612600000003 -0.8450479999999999 0.001918 0.252605
2040 -1.1425707 9.652677030000001 -3.5970228900000003 -1.153099 0.099571 -0.190848
2060 -1.9399667400000002 10.167152670000002 -6.19740864 -1.403718 0.116336 -0.436175
2080 -1.3708494 10.232575559999999 -4.87924875 -1.5576370000000002 0.017833 -0.710588
2100 -0.19205037000000003 13.20014961 -5.98755312 -1.745527 0.02782 -0.913808
2120 0.7722432 16.526828520000002 -4.68944487 -1.7080400000000002 -0.438912 -1.176798
2140 0.6170195700000001 19.18275849 -4.060457100000002 -1.6923740000000005 -1.6556939999999998 -1.131333
2160 0.25896438000000005 20.782328040000003 -0.35416062000000004 -1.673871 -2.813394 -0.944918
2180 -2.16105471 18.02326554 1.61304849 -1.131553 -3.01009 -0.977197
2200 -1.89206451 9.0030294 1.41380739 -0.91767 -1.905144 -0.69404
2220 -1.95987123 3.83038317 0.06151851 -1.135822 -0.391331 -0.253123
2240 -3.37113783 1.49598576 -0.9789595200000001 -1.238679 -0.490988 -0.017637
2260 -2.30146524 2.9509657200000006 -0.42152589 -1.184176 0.055212 0.2726
2280 -0.52840584 4.535869320000001 -0.77553936 -0.791583 0.558758 0.547094
2300 -1.72501002 3.72186495 -0.9316655100000001 1.425929 1.060692 0.708286
2320 -1.58729724 2.09549448 -0.6141746700000001 1.376428 0.276621 0.492096
2340 -0.7057804500000001 1.9989444600000001 -0.9330094800000001 -0.110181 -2.547318 -0.109669
2360 -0.13666311 2.92910904 -2.15297127 -0.502632 -0.107869 -0.559916
2380 -1.06054929 4.0460854500000005 -2.09504322 1.924741 3.307492 -0.022841
2400 -1.2657646800000002 8.57133054 -0.4128440400000001 2.282735 2.407695 0.374987
2420 0.17154747 14.81468922 -2.10926772 0.059191 1.362035 0.061693
2440 0.81924291 16.43536989 -6.78284982 -0.780363 -0.437914 -0.10103
2460 1.8064428300000002 10.617569010000002 -7.358696820000001 -1.780734 -0.960149 -0.236603
2480 1.0524658500000001 8.685391410000001 -3.0789469800000004 -1.995313 -0.360275 -0.081842
2500 -2.07947475 11.234137320000002 -5.351668920000001 -1.190394 0.632257 0.095561
2520 -1.92215178 13.28277924 -9.792783450000002 -0.6110899999999999 0.563278 -0.205816
2540 -2.5908111899999997 8.696918160000001 5.91884388 -0.4139930000000001 -0.236372 -0.469402
2560 -11.18264463 15.756831810000001 2.5697098800000004 0.032017000000000004 0.227687 -0.489314
2580 -9.849367529999999 13.447587239999999 -1.96436421 0.4602100000000001 0.630664 -0.403518
2600 2.98569312 25.583597100000002 -23.50786977 0.21475500000000006 0.141488 -0.403537
2620 3.9130128 8.668322009999999 6.40158417 0.086969 0.153926 -0.206825
2640 -2.22377985 7.73366445 4.83913566 0.654035 1.836775 0.172062
2660 -1.2810388499999998 9.267830730000002 3.4377477300000003 1.804111 1.601564 0.186806
2680 -0.3305087100000001 8.711731259999999 0.91010313 2.495501 0.45799999999999996 -0.015202
2700 0.42002496 10.25068482 -2.29847319 3.3236190000000003 0.321736 0.0431
2720 -0.43185582000000006 10.59407406 -5.376517649999999 3.4176940000000005 0.78842 0.470447
2740 -1.32609618 9.660014910000001 -4.14981639 3.69466 0.011812 0.502219
2760 -1.4582663100000002 7.6055360400000005 -2.79678195 3.217976 -0.23875 0.438322
2780 -0.74110626 6.91621677 -3.5847407700000002 0.942322 0.367249 0.315896
2800 -0.67150431 6.03469998 -3.39763464 0.16104100000000002 0.474608 0.252617
2820 -2.5414178400000003 6.23498094 -2.5891631100000003 -0.524107 0.466303 0.52558
2840 -1.31112612 7.745044050000001 -1.9264976100000002 -1.488995 1.341097 0.778365
2860 0.0290376 9.07009056 -4.70336526 -1.7740919999999998 1.366059 0.377895
2880 0.6474011400000002 11.53770777 -8.796303270000001 -1.833597 1.002557 -0.041866
2900 -0.7369173900000001 10.34723484 -4.8383901 -1.827438 0.394474 -0.360442
2920 -0.58019283 12.24992358 -6.336769500000001 -1.965017 -0.402552 -0.45759
2940 0.60654249 16.316521740000002 -5.56751835 -2.284844 -1.443758 -0.6048359999999999
2960 -1.11817323 17.668810620000002 -2.3140416600000004 -2.129079 -2.568636 -1.018913
2980 -2.7854121600000004 15.99064335 2.5474019400000003 -1.276066 -3.252037 -1.351774
3000 -3.46888467 11.62138707 4.24232469 -1.199202 -2.186062 -0.529004
3020 -2.7186453000000004 5.79505149 0.99408654 -0.719443 -1.6674060000000002 -0.64489
3040 -1.5173911800000002 6.86442978 1.34420544 -0.480486 -2.2674 -0.524948
3060 -2.9648861100000006 8.50711428 -0.31180104000000003 -0.459521 -1.7098259999999998 -0.119591
3080 -2.70113445 7.85940903 -2.63976309 -0.195681 -0.555243 0.4939310000000001
3100 -2.00642949 6.23273445 -1.5539138099999998 1.398808 0.11631 0.336498
3120 -2.7087666300000004 5.472322110000001 -0.9803133 1.967475 1.041121 0.072229
3140 -2.9404886400000003 4.71474486 -1.26322389 0.261308 -0.466432 0.266274
3160 -2.47315986 4.337226629999999 -1.50362775 -1.207177 -0.66471 -0.556646
3180 -1.64717748 3.13672788 -1.73100393 1.960642 3.126555 -0.359916
3200 -1.8018027 2.8358551800000003 -1.58220585 1.872676 1.266629 0.50284
3220 -1.4552742600000002 6.475679100000002 -2.89707939 0.230608 1.369505 -0.089875
3240 1.30273857 12.84388965 -5.18312331 -1.063844 -0.026153 0.003285
3260 2.46357549 14.38987698 -10.88072226 -1.68645 -0.022522 -0.098277
3280 2.4719630400000003 10.34154504 -7.61436504 -1.090856 0.356442 -0.013418
3300 0.97956774 7.89533325 -4.08530583 -0.8198110000000001 0.165631 -0.216378
3320 -3.88008063 12.221631540000002 -5.568420870000001 -0.724589 -0.110212 -0.314704
3340 -5.200781310000001 13.704903540000002 0.26719497000000003 -0.435945 0.310416 -0.259816
3360 -9.389072520000001 16.144827120000002 9.680821920000001 -0.091547 0.578421 -0.180842
3380 -9.5466996 11.24910738 -2.6406558 -0.040194 0.649457 -0.14105
3400 -5.63667885 26.502391890000002 -9.78529842 -0.250483 0.390251 -0.138982
3420 6.931785240000001 11.18503827 1.11652515 -0.226772 0.413724 -0.168757
3440 -1.94850144 7.19283915 4.05521856 -0.018701 0.519127 -0.068094
3460 0.0038945700000000004 8.59572801 5.0247506699999995 0.316704 0.945796 0.034115
3480 -0.47361699000000007 9.827363700000001 0.01362609 0.749947 1.794966 0.154626
3500 0.62001162 10.814857920000001 -1.9826304300000002 1.234384 2.0129740000000003 0.360692
3520 0.26554689 9.18953712 -5.0524443 2.031333 0.451387 0.707955
3540 -1.6796583900000002 8.95677525 -4.36582278 2.074333 1.099801 1.287469
3560 -1.25633727 8.176301460000001 -3.52771524 2.171325 0.340028 1.261346
3580 -0.18396693 6.9728008500000005 -3.4355012400000002 1.92834 -0.287849 1.046809
3600 -0.22692492 6.2505494100000005 -3.42681939 1.257887 0.09041 0.807701
3620 -1.4596102800000001 6.1312500000000005 -2.53782738 0.98882 -1.122305 0.35017600000000004
3640 -1.34105643 6.7954164299999995 -2.9939237100000002 -0.874243 -0.688496 0.8386709999999999
3660 -0.7478457300000001 7.2738207 -2.8192370400000004 -1.7520919999999998 0.6775760000000001 0.969657
3680 -0.46718163 7.4226187800000005 -2.07528588 -1.758877 0.647331 0.547701
3700 0.24189498000000004 8.89136217 -3.9222930600000003 -1.76489 0.236029 0.04719
3720 -0.67764537 10.375968330000001 -6.702309720000001 -1.665082 -0.019495 -0.340618
3740 0.19774017000000002 14.03735463 -5.807323800000001 -1.5190709999999998 -0.316158 -0.604137
3760 2.83390299 17.324675820000003 -6.073616250000001 -1.347076 -0.501169 -0.839844
3780 2.5456067100000004 16.72411743 -3.6628872300000004 -1.126717 -1.083689 -1.07684
3800 1.2975000300000004 15.285167010000002 -0.54831033 -0.617345 -2.7001880000000003 -1.133167
3820 -1.25619012 13.42962513 0.24100227 -0.7346 -3.190607 -0.9336
3840 -1.9896642 10.495571850000001 2.5683561 -1.302923 -1.464863 -0.706909
3860 -2.9650332600000002 9.16020522 2.65547871 -0.8659180000000001 -0.987399 -0.608329
3880 -4.39755813 9.53891046 1.93308012 -0.436906 -1.883721 -0.341401
3900 -1.99459863 6.79272849 -0.11480643 -0.227921 -1.6309790000000002 -0.058253999999999986
3920 -3.5284608000000004 6.90664221 -0.5960556 -0.11453900000000003 -0.295636 0.50378
3940 -4.77162324 6.32944143 -1.043784 0.302874 0.705467 0.7382850000000001
3960 -4.308944400000001 5.38789725 -1.79342496 1.929694 1.122557 0.25239
3980 -3.64416975 4.84812162 -1.68399441 0.696707 -2.482773 0.364834
4000 -2.9512600200000003 5.585333310000001 -0.8301712500000001 -1.119148 -2.519025 0.083005
4020 -1.80090018 5.59117026 -0.9699833700000001 0.109194 2.444584 0.227298
4040 -1.52173701 5.44852305 -1.65016953 3.922134 4.6510440000000015 0.582253
4060 -0.9681881400000001 7.80731793 -1.28044044 1.7283560000000002 3.653992 0.341744
4080 0.06646275 10.60574796 -0.4221243 0.355597 1.307787 0.051014
4100 1.6826504400000002 11.81956869 -5.86555596 -0.051936 -0.038772 -0.115681
4120 2.6250873300000004 10.568921220000002 -7.1162034300000006 -1.6338780000000002 -1.980291 -0.461801
4140 3.30856965 9.53966583 -4.010308380000001 -3.23412 -4.2748800000000005 -0.410218
4160 1.44090261 7.96523931 -2.2905369 -1.362925 0.014671 -0.355643
4180 -1.53715833 8.70828795 -4.37854635 1.201491 1.194045 -0.741961
4200 -1.01549196 9.22906161 2.9918243700000002 0.096796 -0.048558 -0.460734
4220 -5.48205363 12.23271684 0.89797797 -0.286023 0.562912 -0.129838
4240 -11.3428125 14.81004909 -4.75217001 0.735714 1.419096 -0.141958
4260 -4.68944487 31.213389330000002 -20.74880727 1.2556770000000002 0.8439610000000001 -0.088451
4280 6.8594855400000005 9.79593246 5.44043961 2.263703 1.382251 0.021518
4300 -3.4358053500000003 4.87924875 6.227348760000001 3.064943 1.172688 0.051953
4320 -3.1439088000000006 7.40165481 3.4274178000000006 3.342457 0.6861119999999999 0.013922
4340 -1.99504989 7.713455850000001 4.497845760000001 3.519022 0.377437 0.063621
4360 -1.42219494 7.66451376 -0.43424946000000003 3.138664 -0.792641 -0.037949
4380 -1.5094647 10.42776513 -5.63338269 0.874123 -0.493649 0.147744
4400 -1.39689495 13.630210200000002 -7.578136710000001 0.027811 0.074456 0.536346
4420 1.66423707 10.42851069 -5.878573830000001 -0.17643 0.23368200000000006 0.322139
4440 1.5181465500000002 8.17420212 -0.29039562 -0.517649 0.129994 0.174611
4460 -0.55864026 7.950720510000001 -4.39770528 -1.2893 0.323286 0.191406
4480 -1.23987609 10.7757945 -6.863076 -1.801909 0.341484 0.08098
4500 -1.4718924000000002 11.323947870000001 -5.623052760000001 -2.063012 -0.13034400000000002 0.018872
4520 -1.77186258 11.045981520000002 -9.890677440000001 -2.292607 -0.760817 -0.090883
4540 -1.04527512 12.05398845 -6.35533002 -2.471379 -1.340993 -0.30182800000000004
4560 -1.30273857 12.14574138 -2.9349459899999997 -2.240275 -2.01579 -0.6486569999999999
4580 -2.324813040000001 11.789187120000003 0.027095220000000003 -1.943439 -1.809928 -0.971587
4600 -2.96952624 12.509035110000001 3.32847414 -2.138587 -0.08960800000000001 0.020428
4620 -1.80015462 10.743313590000001 4.67657415 -1.313815 -1.124333 -0.076102
4640 0.6441147900000002 6.9153240600000006 1.88562915 -0.83744 -0.8962180000000001 0.273037
4660 0.30402171 7.199725770000001 -0.36823797 1.621047 1.755596 0.719441
4680 -2.24682354 8.831334779999999 -0.01107549 2.377645 1.236851 1.117428
4700 -4.7027668500000015 6.642890550000001 -1.4807214000000002 -0.977475 -6.036043 0.893941
4720 -3.9742370100000004 6.17286402 -1.8250033500000002 -0.259796 -0.942705 -0.589197
4740 -3.92274432 6.11582868 -1.6049650500000001 0.404414 0.6911609999999999 -0.033312
4760 -4.372709400000001 5.427264780000001 -2.0550772800000003 -0.079347 1.371144 0.035076
4780 -4.31402598 5.005140480000001 -2.25341586 -1.919098 -0.062092 -0.12442
4800 -3.86211852 4.23155331 -1.6137940499999999 -1.2569290000000002 0.232252 0.018696
4820 -3.27608874 4.64155245 -1.4792204699999998 -0.350919 0.8285520000000001 0.095832
4840 1.1094913800000001 10.75288815 -2.15806266 -0.457517 0.205243 -0.313243
4860 5.0726529 14.91109209 -9.182650500000001 -0.5326350000000001 -0.29557 -0.480837
4880 4.4878199400000005 12.3436287 -13.51928853 0.0247 0.046525 -0.4667
4900 6.706802700000001 14.26728141 -11.045383110000001 0.255054 0.008615000000000001 -0.243921
4920 3.3548238 8.430468750000001 5.207373629999999 0.141499 0.11883 -0.268356
4940 -6.72656004 9.57827799 5.02011054 0.152245 -0.464473 -0.394652
4960 -15.988848120000002 19.442772540000004 -4.50652761 0.115631 0.023195 -0.305802
4980 -2.6701446600000005 14.240931750000001 1.45033002 0.689999 1.196697 -0.163356
5000 -1.052613 9.09793134 -0.39682431 1.06181 0.712282 -0.290462
5020 -0.17992521 10.257571440000001 3.4569066600000005 1.606362 0.941973 -0.393774
5040 -1.79551449 19.50369264 -5.413638689999999 2.824539 1.51251 -0.00571
5060 1.76827212 13.04956611 -1.9440084600000003 3.683581 0.675346 0.545089
5080 -0.021552570000000004 7.500451320000001 -0.26180928000000003 3.280571 0.458641 0.741241
5100 -1.9655610300000002 5.09195898 -2.19937257 2.410806 1.059517 0.680984
5120 -0.6974027100000001 5.93350983 -4.02498414 2.027523 -0.050997 0.338967
5140 0.18231885 6.55067655 -4.53152349 -0.258347 0.004372999999999999 0.993773
5160 -2.15596332 5.95326717 -4.1116456800000005 -0.41861 0.34307600000000005 1.146043
5180 -3.2031906300000004 5.70118941 -0.6912616500000001 -0.458671 0.273618 0.968528
5200 -1.86736293 7.12818144 -1.5200889300000002 -0.89345 -0.099902 0.7149369999999999
5220 -0.02215098 9.33324381 -5.14629657 -1.269946 -0.71896 0.542185
5240 -0.59381892 10.34154504 -5.9856009299999995 -1.357893 -1.520968 0.316135
5260 -2.37465765 10.226728800000002 -4.16418804 -1.237309 -1.80253 0.02785
5280 -0.43439661 13.49114364 -5.1163564500000005 -1.377872 -1.487965 -0.193588
5300 2.74603482 18.285221970000002 -7.139855340000001 -1.586957 -1.615598 -0.328413
5320 1.66019535 21.24097497 -5.826335580000001 -1.440935 -2.7234830000000003 -0.455228
5340 -2.43723564 15.871343940000001 0.61747083 -0.5067010000000001 -3.778177 -0.714407
5360 -3.3063231600000003 12.42835767 4.225412250000001 -0.367281 -2.924124 -0.494473
5380 -2.13441075 10.521018990000002 2.04938748 -0.014553 -2.651135 -0.603454
5400 -1.0377900899999999 9.95115609 -1.98891864 0.422787 -2.9624330000000003 -0.656616
5420 2.6318268000000002 9.67348404 -2.16165312 0.404938 -2.747792 -0.505329
5440 0.95247252 7.3348977600000005 -1.162485 0.26663400000000004 -1.7424099999999998 -0.059998
5460 -1.68279759 6.53091921 -1.50078285 0.485814 -0.8718870000000001 0.23417800000000005
5480 -2.1794680800000004 6.53001669 -1.6593026400000002 0.675841 -0.95732 0.122384
5500 -2.33005158 6.825807810000001 -1.52353224 1.014489 -1.596714 -0.3797
5520 -2.00328048 6.263871389999999 -1.4605127999999998 2.520529 1.152981 -0.141968
5540 -2.03621265 5.43788901 -1.01968083 0.477314 2.851831 0.628862
5560 -1.5054229799999999 5.328615419999999 -1.3994357400000002 -2.265289 -2.223758 -0.035406
5580 -1.6154421300000001 5.90088177 -2.24638209 2.195065 2.443691 -0.025187
5600 -3.65404842 5.45570397 -2.3147872200000004 1.347859 0.557771 0.005495
5620 -3.9125615400000004 6.8135355 -3.01278834 0.028284 0.307861 -0.289685
5640 -3.7513538100000012 11.456579070000002 -8.531060490000002 -1.174252 -1.559789 0.008752
5660 -1.0431855900000004 11.33622999 -9.401796090000001 -3.050425 -4.251679 0.287516
5680 1.5783210900000002 10.420584210000001 -7.81794216 -3.62446 -5.793787 0.415805
5700 1.6808552100000003 8.75559177 -5.922885600000001 -1.672802 -4.268002 -0.021171
5720 -0.95695569 8.10759222 -5.77753083 -0.141084 0.656479 -0.477185
5740 -3.4768209600000004 7.17922287 -7.28864361 -0.488401 0.959446 -0.283447
5760 -4.09083867 14.436131130000001 -7.90251417 -0.780636 -0.336301 0.062276
5780 -0.22318731000000003 14.52264552 8.80394526 -1.388663 -0.969314 0.116524
5800 -7.9694281799999995 27.134970120000002 14.74284078 -1.897875 -1.007186 -0.094219
5820 -10.27163898 19.71729558 -14.817386970000001 -1.879617 -0.643544 -0.47164
5840 -0.06975891000000001 6.45727554 6.934482990000001 -1.416501 -0.454203 -0.537014
5860 -1.85240268 5.4925307100000005 2.21778594 -1.021397 -0.8582219999999999 -0.54335
5880 -0.41897529 10.493178210000002 9.61390791 -0.6855720000000001 -1.508614 -0.424803
5900 -1.52218827 13.88751669 7.3985156100000005 -0.402147 -2.108005 -0.227639
5920 -3.3736884300000005 15.2933976 0.5786919 0.486832 -2.403697 -0.578905
5940 -2.89033992 12.05203626 -2.03981292 1.323092 -1.330497 -0.8874280000000001
5960 -6.80933682 10.42761798 -6.32674368 1.7792720000000002 -1.0069709999999998 -0.936999
5980 -6.31222488 8.68284081 -2.7969291 2.748773 -2.134834 -1.04415
6000 -0.28979721 8.68119273 -1.19676114 4.443119 -2.97624 -0.955393
6020 2.52898857 7.41377997 0.67449636 5.073721 -2.899852 -0.891265
6040 0.78975405 6.25025511 1.7326422000000001 4.855051 -2.5519990000000004 -0.31319400000000003
6060 -1.50781662 6.9808842900000005 1.36037232 4.297386 -1.942993 -0.013426
6080 -2.6268825600000003 8.736727140000001 0.8134059600000001 2.814241 -1.092593 0.394935
6100 -1.3271360399999999 8.31700629 -0.24129657000000002 1.259143 -0.136371 0.775953
6120 -0.10148445 9.77677353 -1.9435572 1.10183 0.362418 1.38417
6140 0.70892946 12.074491349999999 -3.00858966 1.223789 0.20336 1.627712
6160 -0.0085347 12.11116113 -5.2491348 1.174013 0.025721 1.605159
6180 -2.22168051 11.70536067 -7.353458280000001 0.761822 -0.987063 1.622806
6200 -2.4984500400000003 11.70057339 -6.04532421 0.7202970000000001 -2.543743 1.470687
6220 0.21001248 12.638370150000002 -4.72013055 0.555512 -3.06646 1.530026
6240 0.97536906 13.11347826 -3.5887824900000003 0.384507 -2.595269 1.593389
6260 0.7478457300000001 15.11856378 -7.08581205 0.302464 -2.799661 1.36341
6280 1.31067486 18.37444392 -3.4928406900000004 0.42153 -3.133609 1.123252
6300 4.225412250000001 21.96353052 4.90140954 0.602142 -3.135023 1.054013
6320 7.3507605300000005 15.936462720000003 11.06543475 1.067941 -3.497657 1.026752
6340 4.024081620000001 11.224258650000001 10.14036156 1.389268 -3.402049 1.081217
6360 1.0698295500000001 12.58238448 6.306839190000001 1.174268 -3.469703 1.136418
6380 -0.03652263 13.209282720000003 3.4278690600000004 0.8557600000000001 -3.423595 1.071109
6400 -1.5486752700000002 13.88722239 1.5742793700000002 0.408845 -3.00731 0.985201
6420 -2.12378652 11.806697970000002 1.51021026 -0.043536 -2.4914970000000003 0.790168
6440 -2.28859452 9.696390390000001 2.3135904000000003 -0.387062 -2.327116 0.473501
6460 -0.89139546 9.62168724 3.6721674900000005 -0.60702 -2.4857720000000003 0.114313
6480 1.12176369 9.89636724 3.2933052900000006 -0.363172 -2.530648 -0.063387
6500 0.58138965 9.900860220000002 2.6502401700000005 0.297298 -2.409807 0.046825
6520 -1.67846157 9.96462522 1.7711170200000002 0.801545 -2.48702 0.5364869999999999
6540 -3.42248337 8.80963506 1.5655975200000003 0.839828 -2.310077 0.742695
6560 -3.0828415500000004 8.02137213 1.49449464 0.5962729999999999 -1.344535 0.587001
6580 -2.08336932 8.48870091 1.23657993 0.209565 0.43469 0.336328
6600 -1.83967911 9.14447979 1.07910981 1.52254 4.228466 0.181473
6620 -3.6516547800000003 7.745348160000001 0.6815301300000001 1.0020639999999998 2.772304 0.348483
6640 -3.3820661700000003 6.84226899 0.20911977 -0.458369 -0.235614 -0.088358
6660 -2.66445486 6.311479320000001 0.40400523 -0.940489 -0.136552 -0.732785
6680 -2.4313986900000004 6.052210830000001 0.37451637000000004 -0.673776 0.114923 -0.715221
6700 -2.30550696 6.30414144 -0.58648104 -0.474467 -0.285835 -0.834025
6720 -1.59612624 7.228164960000001 -1.92289734 -0.8033600000000001 -2.030494 -0.615101
6740 -0.8872065900000001 8.296346430000002 -4.16404089 0.596765 -3.001058 -0.472686
6760 0.30221667 11.15076213 -6.88493268 0.13292 -3.143301 -0.196938
6780 2.4318401400000003 14.256951480000001 -8.74765548 -0.192107 -2.689959 -0.065193
6800 1.8056972700000002 14.837448420000001 -8.658149040000001 -0.368851 -2.4439330000000004 0.100968
6820 -0.40835106000000004 12.28540635 -6.217921350000001 -0.502089 -2.362725 0.15441300000000002
6840 -2.6601188400000004 14.06729475 -3.10828869 -0.386844 -2.248518 0.265098
6860 -2.2701811500000004 18.81976887 1.18418472 -0.593641 -1.294124 0.467529
6880 -6.06254076 10.583440020000001 6.599324340000001 -0.550353 -0.7294930000000001 0.421175
6900 -7.483087620000001 0.91504737 -0.24129657000000002 -0.396447 -0.805114 0.284546
6920 -5.55868935 -0.36883638 7.188199020000001 -0.402539 -0.7582409999999999 0.023797
6940 -2.5824334500000004 7.047347040000001 9.0579654 -0.441925 -0.172678 -0.123575
6960 -2.09250243 12.831018929999999 7.590860280000001 -0.494917 0.281822 0.01541
6980 -0.164808 16.42623678 -1.19571147 -0.348605 0.215772 0.155385
7000 3.0756508200000003 17.24907996 -4.28828454 -0.07109800000000001 -0.46062 0.166736
7020 2.07588429 12.01476807 -1.8887683500000003 0.58372 -0.111084 0.10036
7040 -0.17453952 9.04673295 1.13164236 1.041594 -0.379778 0.031263
7060 -1.0041123600000001 7.976010690000001 1.3727917800000002 0.6384380000000001 -1.02621 0.066663
7080 -1.2162241800000002 8.12629989 -0.45924534000000006 0.311181 -0.121178 0.196745
7100 -1.2889653300000001 8.75319813 -1.80390204 0.739183 1.554289 0.411232
7120 -1.9970020800000001 8.89540389 -1.4419522800000002 2.3626720000000003 1.163334 0.335479
7140 -3.36305439 8.72804529 -2.1115044 3.723198000000001 1.129227 0.492441
7160 -4.145627520000001 8.722512450000002 -2.2203365400000004 4.359847 0.923268 0.829369
7180 -4.235595030000001 7.802972100000001 -1.8074925000000002 3.989219 0.28886 0.7602949999999999
7200 -2.7544223700000003 6.811132050000001 -1.3332771 2.607004 0.87328 0.99665
7220 -0.03262806 5.867498340000001 -1.88472663 0.926466 1.104942 1.263421
7240 1.82455209 5.80538142 -1.87874253 1.469233 0.488596 0.947535
7260 1.42548129 7.759562850000001 -2.6958959100000004 0.5827399999999999 0.390009 1.062179
7280 -1.2156257700000002 9.198670230000001 -5.1263920800000005 -0.576621 0.806966 1.1593
7300 -2.6789834700000004 7.1158993200000005 -2.80681758 -0.7712399999999999 0.31387800000000005 0.762262
7320 -2.7117586800000004 5.039269470000001 0.058977720000000004 -1.230694 0.191671 0.5530430000000001
7340 -1.85240268 5.834713320000001 0.38723994000000006 -1.925363 0.301025 0.4487060000000001
7360 -0.8442486 9.02144277 -0.35431757999999997 -2.395576 0.0366 0.116748
7380 0.36044883 10.483603650000001 -5.911358850000001 -2.529075 -0.152028 -0.281322
7400 -1.67920713 11.93872095 -9.74533248 -2.403528 -0.325825 -0.616712
7420 -2.4468102000000003 19.60368597 -4.83464268 -2.140579 -0.918228 -1.083066
7440 -2.05986456 24.99142626 -4.76190153 -1.719647 -2.492097 -1.599401
7460 -4.18499505 18.162027990000002 3.88696725 -0.810078 -4.824455 -1.205499
7480 -3.8627169300000004 8.66023857 8.53959519 -1.435712 -4.24984 -0.771566
7500 -4.80067065 8.0369406 0.1240965 -1.126817 -0.887275 -0.379543
7520 -1.8034507800000001 11.224709910000001 -0.164808 -1.010939 -0.432984 -0.068463
7540 -2.86474563 13.45521942 -0.9381008700000001 -0.799342 -1.06013 -0.060841
7560 -0.94094577 9.64160154 -0.8069706000000001 -0.399418 -0.588453 0.45089
7580 -0.30821058 6.28797456 -0.00494424 -0.301578 0.043067 0.6793640000000001
7600 -1.4831150400000002 5.38445394 0.6765957 2.165487 1.289277 0.180117
7620 -2.4138780300000002 5.497622100000001 0.20866851000000003 2.517236 0.303591 0.21802
7640 -3.57561747 5.281762860000001 -0.5185173599999999 -0.612492 -4.05042 -0.473378
7660 -3.2277352500000003 4.467160080000001 -0.5851370700000001 0.394735 -0.898774 -0.421243
7680 -2.17976238 3.5164827900000004 -0.43319979 0.80032 1.583856 -0.108603
7700 -1.52802522 2.80950552 -0.34757811 2.0808310000000003 2.032784 0.533222
7720 -1.6477758900000001 3.7743975 -0.42481224000000006 0.595929 1.570332 0.253182
7740 -2.38857804 9.27261801 -0.44457939 -0.435734 1.227092 0.137457
7760 -1.9537399800000002 11.791727910000002 -3.4202368800000005 -1.057695 0.15598499999999998 0.004163
7780 -1.7232147899999999 13.903085160000002 -8.57506815 -1.887583 -1.235564 -0.000919
7800 -0.22917141000000002 12.09319902 -8.85319146 -2.55125 -0.960747 0.047504000000000005
7820 0.9758203200000001 10.175834520000002 -6.97040721 -0.81495 1.695674 0.234621
7840 0.40565331 7.73605809 -4.466257560000001 0.8490409999999999 1.618382 0.005993
7860 -2.94901353 10.611437760000001 -5.0960007 0.46062 0.817874 -0.068333
7880 -2.34817065 13.051214190000001 0.67434921 1.005472 0.915315 -0.133019
7900 -0.45146601000000003 12.59106633 9.74638215 1.457616 0.740607 -0.257823
7920 -9.05751414 17.216746200000003 -6.838384230000001 1.607885 0.761161 -0.200184
7940 -2.41478055 15.551165160000002 1.86032916 2.256036 1.591009 0.037221
7960 -4.978349370000001 19.09129986 -14.271617430000001 2.929032 1.414588 0.14897
7980 3.96465264 9.95624748 1.9696027500000002 3.46191 0.972025 0.072074
8000 -2.1037250700000003 9.36318393 3.9941415000000005 3.031435 0.154289 0.079729
8020 -2.7652035600000002 9.9751023 4.57703208 2.380513 -0.16175 0.024313
8040 -1.88039061 8.46354807 2.51806023 0.803201 0.4563680000000001 0.261399
8060 -1.7051055300000002 7.49566404 0.53992278 -0.4231180000000001 1.118878 0.5478810000000001
8080 -0.2225889 8.65260639 -3.8645121600000003 -0.786944 0.8921190000000001 0.5605859999999999
8100 -0.37302525000000003 10.23107463 -7.51212522 -1.585365 1.388755 0.665467
8120 -0.36808101 8.49602898 -5.15198637 -1.936944 1.464579 0.390518
8140 -1.3368675600000002 8.051459399999999 -4.16688579 -1.964922 0.940327 -0.08329600000000001
8160 -2.5875150300000005 8.13813075 -7.13760885 -2.071294 0.317218 -0.5425760000000001
8180 -2.5469506800000006 7.6890583800000005 -4.36761801 -2.327913 -0.311462 -0.810619
8200 -2.5451554499999998 7.6312774800000005 -3.96899847 -2.471423 -2.042355 -0.99741
8220 -1.52278668 8.65530414 -5.927378580000001 -1.90553 -4.277419 -1.192487
8240 -0.13845833999999996 9.72932256 -3.94953543 -1.280383 -3.045062 -0.8938020000000001
8260 -1.64507814 12.79538901 -3.58893945 -0.908733 -1.410388 -0.286551
8280 -1.4742860400000002 12.87008235 -0.12439080000000001 -0.8393799999999999 -0.8590120000000001 0.028353
8300 -2.26778751 13.11242859 3.6173786400000005 -0.649516 -1.062143 0.31195
8320 -2.2947257700000003 13.29564996 3.57786396 -0.232863 -0.35444200000000003 0.660057
8340 -1.07012385 10.50545052 1.26427356 2.032792 1.279097 0.975028
8360 -0.8135629200000001 10.42686261 0.11989782 2.759441 -0.030277 0.11759
8380 -2.9779039800000002 9.91178856 0.5502527100000001 -0.489537 -3.787375 -0.028476
8400 -4.233642840000002 8.13797379 -1.82919222 -0.975515 -1.994057 -0.254223
8420 -2.40744267 5.04061344 -1.5416415 -0.159467 2.382765 -0.595962
8440 -2.63796786 2.828223 -1.08389709 2.2821830000000003 1.253377 0.531354
8460 -2.5307838000000005 2.9518584300000006 -0.8720893800000001 0.959446 1.275973 0.024295
8480 -2.14519194 3.9222930600000003 -1.27939077 -0.120408 1.261431 -0.197942
8500 -1.61917974 6.32016117 -2.8398969000000003 -1.27607 -0.4750970000000001 -0.229427
8520 0.68093172 10.29259314 -3.81316662 -2.156906 -1.929785 -0.118347
8540 3.8127251699999998 11.80265625 -4.41237123 -2.633465 -1.45685 0.040088
8560 3.73069395 11.905043220000001 -6.8256606600000005 -0.667425 0.94233 -0.110555
8580 2.29592259 9.85415481 -5.14180359 0.924877 0.604205 -0.316917
8600 0.38185425 9.40868271 -6.117928020000001 0.671569 0.244045 -0.339589
8620 -2.6710471800000004 13.86641538 -13.266465210000002 -0.099667 0.391131 -0.223388
8640 -2.3017595400000004 9.54400185 5.30332524 0.025532 0.773942 -0.159978
8660 -11.14552359 16.44046128 3.87154593 0.770108 1.119157 -0.02276
8680 -8.43645285 18.09182763 4.644985950000001 1.158667 0.727765 0.015707
8700 -9.47844162 19.10387628 -9.21918294 1.433674 1.259945 -0.108036
8720 8.18542476 13.97958354 -4.738691070000001 2.076013 2.278137 0.18677
8740 -0.15342840000000002 7.89413643 2.03981292 2.941103 1.8010509999999995 0.462616
8760 -2.20341429 8.67565989 4.64155245 3.176692 0.539071 0.431696
8780 -1.5959790900000002 9.918822330000001 3.6079512300000003 3.81658 -0.924996 -0.027703
8800 -1.20214683 9.75207195 -0.40744854 2.836185 0.196338 0.123177
8820 -0.46373832000000004 9.61151427 -1.91961099 0.918324 0.262884 0.328681
8840 0.41897529 9.41167476 -6.259084110000001 -0.528892 -0.290419 0.357737
8860 -1.59028929 7.924223700000001 -7.537729320000001 -1.471875 1.179918 0.8438530000000001
8880 -1.54388799 6.67791225 -3.59102898 -1.966919 1.971642 0.684488
8900 -0.9322639200000001 5.604943500000001 0.34772526 -1.986317 1.686017 0.201882
8920 -1.18987452 6.0614910900000005 -1.1999003400000001 -1.99968 1.20599 -0.15545
8940 -1.54074879 7.89997338 -5.60345238 -2.220382 0.98938 -0.406678
8960 -0.90426618 10.86874425 -5.26230963 -2.244368 0.358877 -0.68698
8980 -1.13448726 9.32590593 -2.8130959800000004 -1.937297 -0.997889 -1.051633
9000 -2.04160815 7.72049943 -4.89437577 -1.288283 -2.897097 -1.125851
9020 -1.08195471 10.91919708 -6.478524 -1.711198 -4.315930000000002 -0.788361
9040 0.15148602000000003 17.4077469 -5.602098600000001 -2.512467 -3.73398 -0.437917
9060 -1.5877485 18.28732131 -3.87888381 -0.509163 -1.028369 -0.262885
9080 -1.9407123000000002 15.05868354 0.20327301 0.044688 -0.040581 -0.013523
9100 -4.24786734 10.97203374 5.016068820000001 -0.137599 0.147032 0.379137
9120 -3.5010712800000006 8.11058427 3.6199194300000004 -0.15385 0.21605 0.981413
9140 -2.6897548500000004 8.80079625 1.7588447100000002 2.290066 1.122265 0.5454640000000001
9160 -3.6127385100000002 10.77099741 -2.3396359500000004 2.012291 0.185069 -0.073775
9180 -3.23536743 8.08798203 -2.43034902 -0.813289 -2.521669 -0.319711
9200 -2.6655045300000006 6.69273516 -0.8252368200000001 0.319648 -1.743216 -0.702696
9220 -3.3332712300000003 5.2115625 -0.2863539 -1.14954 1.335294 -0.46053
9240 -3.4040700000000004 4.32779922 0.05598567000000001 2.515415 1.805713 0.464978
9260 -2.428249680000001 4.2858909 0.12544047 1.105187 1.040716 0.121754
9280 -1.1088929699999999 4.498149870000001 -0.26135802 -0.499919 1.458243 -0.069454
9300 -0.6601247100000001 4.060908360000001 -0.75038652 -1.154743 0.309031 -0.089647
9320 -1.04557923 5.31185013 -2.5595271 -1.603133 -1.032362 -0.180791
9340 -0.9241804800000001 10.13497587 -4.346811 -2.041498 -1.908802 -0.137864
9360 2.7580128299999997 14.626533420000001 -12.819188070000001 -0.938644 -0.356117 -0.172743
9380 4.96577295 11.9010015 -10.14141123 0.549042 0.590288 -0.506463
9400 3.27503907 8.657992080000001 -6.13828377 0.383841 0.95069 -0.182271
9420 -3.33611613 10.77668721 -5.5142304300000005 -0.030043 0.674424 -6e-06
9440 -5.27233545 11.96626743 3.72320892 0.21217 1.046973 0.13046300000000002
9460 -6.65770365 15.59696805 6.627616379999999 0.764618 0.983338 0.114108
9480 -12.2192379 18.38836431 -1.9417619700000002 1.013083 -0.116396 -0.008798
9500 -0.52540398 12.813655230000002 4.98388221 1.392701 0.452605 -0.107288
9520 -2.06375913 24.68591343 -20.42577378 2.17464 1.291919 0.044513
9540 3.75239367 7.61586597 2.0240874900000003 3.005089 1.392426 0.296944
9560 -1.4911984800000002 9.0926928 4.2685272 3.461831 0.955087 0.311377
9580 -2.0098728 9.71644203 4.26673197 3.299151 -0.236937 0.181445
9600 -2.30655663 9.89292393 1.92320145 3.396523 -0.5786640000000001 -0.225498
9620 -1.5001844400000002 8.545579290000001 -0.35311095000000003 1.645259 0.592579 0.100463
9640 -0.37467332999999997 7.065005040000001 -3.5307072900000005 0.20956100000000005 -0.392679 -0.017261000000000002
9660 -1.14287481 7.206465240000001 -6.55711191 -1.2913059999999998 0.584522 0.664279
9680 -1.02192732 7.934995080000001 -6.12855225 -1.835558 1.697675 0.618459
9700 0.9586037700000001 7.325617500000001 -2.45219589 -1.9087 1.541214 0.116084
9720 0.7893126 7.08896106 -1.77530589 -2.020173 0.861146 -0.213904
9740 -0.26569404 8.40202956 -5.86031742 -2.32162 0.411915 -0.297687
9760 -1.3542312600000002 8.70948477 -4.48677027 -2.545958 -0.157107 -0.328435
9780 -1.87440651 8.132588100000001 -2.1718359 -2.568141 -1.273632 -0.546145
9800 -1.73100393 8.637037920000001 -4.42973493 -2.006818 -3.445289 -0.6099439999999999
9820 -0.68332536 9.06170301 -5.665863600000001 -1.945176 -3.994989 -0.393028
9840 -0.49232466 13.918957740000002 -6.610399830000001 -1.154444 -1.578417 -0.14490999999999998
9860 -2.3340933000000006 17.518668570000003 -5.4066049199999995 -0.249156 -0.884194 -0.046541
9880 -3.88082619 15.85876752 -1.3108220099999999 -0.15341400000000002 -1.021535 0.116674
9900 -3.4012251000000004 13.011238440000001 3.01578039 0.050916 -0.779733 0.475645
9920 -5.214103290000001 9.28443906 6.3063879300000005 1.763221 0.642903 0.732542
9940 -2.15701299 8.100852750000001 3.8663073900000002 2.337217 0.519745 0.132096
9960 -2.4718060800000003 10.317441870000001 1.95553521 -0.310223 -3.232181 0.036158
9980 -2.5581831299999997 10.2842154 -2.87058258 -0.381284 -1.229474 -0.4315810000000001
10000 -1.0115973900000002 6.87311163 -1.5944879699999999 -1.61836 -0.351731 -0.147586
10020 -1.5630469200000001 5.16485709 -0.75413394 2.24911 3.033937 0.173124
10040 -2.6870669100000004 4.0739262300000005 -0.47615778 1.295467 1.360812 0.360887
10060 -3.0211660800000004 4.09264371 -0.17184176999999998 0.180317 1.241167 -0.186202
10080 -1.61319564 4.17002499 -0.6354329400000001 -0.378605 -0.060207 -0.332648
10100 -0.155979 4.12900938 -0.92987028 -1.152982 -1.886712 -0.304738
10120 -0.32706539999999995 5.73741774 -2.17288557 -2.215477 -2.537223 -0.276075
10140 -1.42353891 11.490708060000001 -3.5245662300000005 -1.394883 -0.039067000000000005 0.056537
10160 1.8928100700000001 14.30066484 -12.26130318 0.732902 0.784129 -0.390059
10180 3.54957192 11.312725230000002 -9.53427033 0.260642 0.41709 -0.36725
10200 1.3979446199999999 8.52058341 -6.539149800000001 -0.492899 1.081272 -0.109514
10220 -2.9847905999999997 10.42731387 -4.028721750000001 0.033291 2.046943 0.100159
10240 -2.12393367 9.12892113 7.250325750000001 0.640871 1.4249379999999998 0.077426
10260 -8.132283990000001 15.466289040000001 2.7066672900000004 1.051141 0.942557 -0.059027
10280 -7.7607596700000006 17.796487770000002 -0.65683836 1.74042 1.350615 -0.138057
10300 -3.4453897200000005 11.962520010000002 1.31007645 2.472108 1.168697 -0.034436
10320 -1.6137940499999999 25.26281991 -20.51469162 3.241345 0.788536 0.062223
10340 3.33207441 8.1038448 4.20969663 3.245453 0.039637 0.061075
10360 -2.9572539300000003 8.53510221 3.4196384699999998 3.3432470000000003 -0.440487 -0.102133
10380 -2.9433335400000002 8.29605213 3.9540284100000003 2.345936 0.775472 0.109396
10400 -1.31397102 8.01972405 1.7362424699999999 -0.09334 0.623512 0.26560500000000004
10420 -0.68961357 8.56444392 -0.5379804 -1.0560969999999998 -0.31961100000000003 0.123356
10440 -0.6993450900000001 9.437573160000001 -6.19037487 -1.6927869999999998 0.395702 0.546349
10460 -3.42562257 8.833434120000001 -5.80433175 -2.274837 1.59335 0.448881
10480 -2.6262841500000005 7.133115870000001 -2.64754242 -2.422271 1.577547 0.00028700000000000004
10500 -0.7939527300000001 6.812485830000001 -0.26420292 -2.355163 0.718024 -0.362407
10520 -0.28546119000000003 8.55620352 -3.6323487 -2.53376 -0.315778 -0.352715
10540 -0.6231508200000001 10.216850130000001 -5.1361236 -2.695016 -1.242347 -0.5342520000000001
10560 -1.0160903700000001 10.904825429999999 -4.08470742 -1.709573 -3.609137000000001 -0.91851
10580 -0.36568737 10.10324052 -6.219716580000001 -0.879401 -2.845014 -0.653044
10600 0.23576373 9.257795100000001 -5.051100330000001 -0.910748 -2.129309 -0.319827
10620 0.68812245 11.67991353 -5.057231580000001 -0.585548 -1.553649 -0.17194600000000002
10640 -1.43372169 15.410156220000001 -4.42869507 -0.07134700000000001 -0.493733 0.18921
10660 -3.94025517 15.278878800000001 -1.56904083 0.194304 0.141834 0.591902
10680 -3.80060001 12.458592090000002 3.3277285800000005 -0.103242 -0.159089 0.977974
10700 -4.64993019 10.002354480000001 7.394022629999999 1.415646 1.785628 1.112142
10720 -4.024081620000001 6.637347899999999 4.25968839 0.193681 -2.6904 0.509001
10740 -2.71984212 7.98724314 1.41396435 0.284976 -4.210483 -0.916626
10760 -2.5300382400000005 11.858936220000002 -0.01691244 1.688618 1.616252 -0.454953
10780 -3.7208152800000005 8.17270119 -2.43004491 0.982252 2.026163 0.2115
10800 -1.75375332 5.091664679999999 -2.3022108000000006 -1.36587 1.04928 0.38863
10820 -1.55032335 3.6989586 -2.2219748100000007 -1.0026389999999998 1.318793 0.074628
10840 -2.31163821 3.72620097 -1.67487111 0.050106 0.794157 0.091199
10860 -2.0945919600000003 4.01913738 -1.8562874400000002 0.08242100000000001 0.7581359999999999 -0.252496
10880 -1.76782086 6.273750060000001 -5.29703703 -0.197533 0.01412 -0.428687
10900 -2.9267154 9.01455615 -6.59363454 -0.718537 -0.815895 -0.46865
10920 1.49793795 13.39145442 -9.57349071 -0.24793 0.7045640000000001 -0.15539
10940 3.70404999 12.851374680000001 -7.86539313 0.143303 1.995742 0.021944
10960 3.63024936 7.433988570000001 -3.4373062800000005 0.084928 1.570972 0.003921
10980 3.07370844 5.7902544 -2.2071617100000003 0.9113 1.367156 -0.092595
11000 -1.13852898 6.821766090000001 -2.68616439 1.770836 1.269406 -0.102489
11020 -5.00409081 9.42035661 5.46244344 2.236895 1.072519 -0.021001
11040 -8.61548535 14.19079284 -6.518048490000001 2.996048 1.305956 0.08441599999999999
11060 -8.62656084 21.558769920000003 -2.28140379 2.594677 0.924131 -0.252252
11080 -1.9026887399999999 13.50162072 4.39067151 1.85123 0.87605 -0.104628
11100 1.0737143100000002 7.13895282 1.8670686300000001 0.908414 0.787405 -0.029915
11120 -1.06069644 12.20531751 -2.58676947 -1.011767 0.667275 0.506961
11140 -0.07394777999999999 19.926709650000003 -0.16780005000000003 -1.820898 1.574411 0.794976
11160 0.50595075 10.170752940000002 -3.19121262 -1.466515 2.096084 0.5660470000000001
11180 -2.6420095800000003 8.73284238 0.48559500000000005 -1.245746 1.109795 0.069993
11200 -3.01248423 8.31281742 1.2470570100000002 -1.440403 -0.48103 -0.467712
11220 -0.9608502600000001 8.89555104 -3.0542454 -1.7019970000000002 -1.095579 -0.802037
11240 -1.4111194500000002 9.77392863 -6.903346050000001 -1.714387 -2.118599 -0.968524
11260 -1.9107721800000002 9.369619290000001 -4.25325303 -1.581113 -3.360922 -0.765175
11280 -1.31127327 8.93417301 -3.57546051 -1.5822200000000002 -2.341764 -0.686372
11300 -0.6029422200000001 9.051677190000001 -7.02594162 -1.411204 -1.405539 -0.530417
11320 -0.23291883000000002 9.53158239 -5.774097330000001 -0.675128 -1.999877 -0.390986
11340 -1.27011051 9.06514632 -3.85882236 -0.107161 -2.501975 -0.262461
11360 -3.67126497 8.96694822 -2.74379814 -0.165419 -1.960395 -0.050986
11380 -2.44127736 9.217976310000001 0.64515465 -0.471219 -0.941803 0.166694
11400 -1.20334365 8.808428430000001 2.98015047 -0.525792 -0.462403 0.20736
11420 -2.4004089 10.415944080000001 4.85470413 0.361925 0.438003 -0.090969
11440 -1.3278914099999999 10.87218756 4.6710413100000014 1.073159 -0.734657 -0.226571
11460 -0.16301277 10.63538397 0.32946885000000004 0.313793 -3.248352 -0.190198
11480 -0.54292464 10.009231289999999 -1.63295298 -0.211037 -0.024547 -0.07194500000000001
11500 -3.9510363600000002 8.74945071 -0.76580784 0.190229 0.8417370000000001 0.059002
11520 -5.42786319 8.363858850000002 -1.29720573 0.405832 0.511316 0.184845
11540 -4.38572727 7.797439260000001 -1.5808618800000003 0.10433900000000003 0.313393 0.125309
11560 -2.1013314300000006 7.33011048 -2.195487810000001 -0.72246 0.30356700000000003 0.102455
11580 1.10320317 10.164611879999999 -3.25109286 -1.721139 -0.733654 -0.452258
11600 2.34052866 8.263718370000001 -3.3123072600000003 -0.330047 -0.127682 -0.284152
11620 1.2798420300000002 9.99561501 -4.85096652 0.463552 -0.0076180000000000015 -0.361016
11640 0.42437079 11.27081691 -6.41057013 -0.112382 -0.796635 -0.4826
11660 -0.33275520000000003 10.248585480000001 -5.53010301 -0.8938159999999999 -1.6746470000000002 -0.547822
11680 -1.11023694 9.31588011 -3.20064003 -1.7691310000000002 -0.536234 -0.4966430000000001
11700 -1.13464422 7.1923977 -2.31823053 -0.5096350000000001 0.491819 -0.538301
11720 -1.34839431 4.50279 -2.8011277800000003 0.671198 -0.8700110000000001 -0.660767
11740 -2.29952286 3.8736452700000004 -2.7334682100000003 0.975271 -1.7439369999999998 -0.824166
11760 -1.79955621 5.81106141 2.25700632 1.775216 -1.573126 -1.076239
11780 -2.13546042 11.22246342 -1.5705319500000001 2.586278 -1.180095 -0.966391
11800 -4.7265757200000005 15.326928180000001 2.9707230600000005 3.188478 -0.7128 -0.599588
11820 -3.81227391 16.089439860000002 -1.12670793 3.504519 -0.8153199999999999 -0.277851
11840 -1.5507746100000002 10.081383839999999 -0.9804604500000001 3.5849620000000004 -0.031246 0.176769
11860 -1.0380942 8.72296371 -0.18995103 3.175244 0.612055 0.8289709999999999
11880 -1.2970487700000002 10.582988760000001 3.8687010300000004 1.039565 2.4702580000000003 0.725146
11900 -4.856205060000001 19.71879651 -1.84476069 -0.678774 1.032166 0.609232
11920 1.0336012199999998 12.14080695 -3.4618509 -0.564928 0.581954 0.942821
11940 1.37548953 7.28010891 -1.79417052 -0.489499 1.673805 1.15773
11960 -0.15522363 7.211998080000001 1.6310106 -0.959577 2.142653 1.533064
11980 -0.40026762 6.786283320000001 1.9540342800000001 -1.553991 1.123266 1.494967
12000 -0.47541222 9.73724904 -3.0740027400000005 -2.023055 -1.730861 1.166336
12020 -0.05163984 11.4643584 -6.17929938 -1.729726 -1.384147 1.053641
12040 -0.6185106900000001 10.750043250000001 -5.753133360000001 -0.781461 -1.7696869999999998 0.476441
12060 -1.1049984000000002 10.667570580000001 -6.6443816700000005 0.123036 -3.48176 0.0031850000000000003
12080 -1.9152651600000001 10.26250587 -8.04307185 0.476805 -4.194143 -0.374787
12100 -2.85171795 9.9113373 -5.36828706 0.373559 -3.878668 -0.5895560000000001
12120 -2.7146035800000003 14.19244092 -3.1507954200000006 0.551567 -3.968556 -0.642677
12140 -0.96429357 16.527878190000003 -3.22938333 0.6419729999999999 -4.8609870000000015 -0.5223300000000001
12160 0.85936581 15.90831783 1.5995695500000002 0.5112329999999999 -3.775971 -0.018296
12180 1.17356049 15.033236400000002 6.157746810000001 0.459388 -1.016716 0.510849
12200 -1.8660189600000001 15.720760440000001 8.126604 0.9948 -1.400466 0.642199
12220 -5.263359300000001 15.881821020000002 3.6756108000000003 0.945361 -0.431405 0.503879
12240 -3.57322383 14.808852270000001 -1.57547619 0.147939 0.599476 0.206432
12260 -2.07858204 13.831687980000002 -1.00994931 -0.029255 2.798164 -0.427874
12280 -4.29622083 12.0253923 0.40565331 0.280085 0.229139 1.061339
12300 -4.07946888 11.020534379999999 0.9574069500000001 4.036487 0.285584 0.20729
12320 -1.2578382000000001 10.2324186 0.98689581 1.786645 -0.462569 0.109213
12340 -0.21120930000000002 8.46579456 1.69447149 0.316095 -2.147432 -0.314439
12360 2.4819888600000004 9.353746710000001 0.39996351 0.7906270000000001 -3.2036 -0.605668
12380 -0.19833858000000001 8.25338844 -1.5393950100000002 1.49768 -4.393987 -0.30117
12400 -3.21127407 6.6226819500000005 -0.6122224800000001 -1.0807719999999998 -6.2838970000000005 0.36263
12420 -3.3690483 5.288198220000001 0.10687995 -2.836911 -8.149416 0.8740469999999999
12440 -3.04362117 5.24449467 -0.7475416199999999 -1.55912 -2.869685 0.7757930000000001
12460 -2.6035347600000005 6.57837018 -3.64208022 -0.060013 -1.325522 0.39759
12480 -0.56357469 8.41176108 -4.953647790000001 0.235722 -2.169535 0.220207
12500 1.11817323 10.00114785 -6.32554686 -0.112318 -1.945833 0.257014
12520 1.20933756 10.29993102 -7.399408320000001 -1.006857 -1.476537 0.355918
12540 -0.11915226000000001 7.274419110000001 -2.9213297099999997 -1.298453 -1.507764 0.159505
12560 0.6259957199999999 4.45278843 2.15701299 -1.429261 -1.608791 -0.036764
12580 2.19623337 5.05423953 2.7898953300000002 -1.7643349999999998 -1.626897 -0.279431
12600 -2.71070901 18.84880647 5.0008044599999995 -1.939885 -1.455142 -0.454998
12620 -5.56437915 40.74856218 -23.90139792 -1.639273 -0.882733 -0.538021
12640 -0.19728891 5.745952440000001 12.52670292 -1.133351 -0.379476 -0.5554279999999999
12660 -0.30266793 -0.6027950700000001 7.594460550000001 -0.808044 -0.675431 -0.353019
12680 -3.0943683000000006 2.2908410100000003 8.66099394 -0.64412 -1.520459 -0.16278399999999998
12700 -4.1197291200000015 11.442952980000001 9.54430596 -0.027637 -2.7540400000000003 -0.166511
12720 -1.6560064800000003 16.044686640000002 8.529716520000001 1.141673 -1.523855 -0.5946859999999999
12740 -0.10597743000000001 16.342420139999998 -0.74829699 1.618235 0.359672 -0.771096
12760 -1.47278511 12.10233213 1.4424035400000002 2.358494 -0.326954 -0.467011
12780 -5.66766864 11.795024069999998 -1.0975133700000002 3.3165910000000003 -1.004617 -0.1956
12800 -5.7842703 11.15884557 -5.0931558 4.062309 -1.243625 0.05347
12820 -3.10185333 9.42814575 -0.33874911 4.184611 -2.176585 0.15806900000000002
12840 -0.9830012400000001 7.99502247 3.0247565400000003 4.006094 -1.0064229999999998 0.456561
12860 -1.8214128900000002 6.55636635 3.12280749 3.109763 0.414577 0.719808
12880 -2.8252211400000005 6.74691579 2.37915063 1.541167 1.242687 0.6501060000000001
12900 -2.98419219 7.2355028400000005 2.16794133 0.935284 0.527135 1.0965120000000002
12920 -2.90605554 7.0883626500000005 1.0135397700000002 0.8445440000000001 0.173244 1.22986
12940 -1.73010141 7.50733794 0.06122421 0.714621 0.334119 1.337704
12960 -0.73885977 8.641982160000001 0.24144372 0.612255 0.364232 1.355111
12980 0.03248091 10.173597840000001 0.71625753 0.560642 -1.017891 1.248631
13000 0.8422964100000001 10.82877831 0.24219909 0.467254 -2.265269 1.314738
13020 0.7912549800000002 10.365344100000002 -2.15686584 0.376029 -2.478696 1.220371
13040 -1.72411731 9.80071974 -7.540721370000001 0.293274 -2.500277 1.094839
13060 -5.73098238 9.76568823 -6.077814930000001 0.086688 -2.395341 0.873208
13080 -3.7097397900000004 11.942164259999998 -4.159253610000001 -0.010572 -2.363437 0.7047770000000001
13100 0.04879494 14.891334750000002 -3.30003495 -0.001416 -2.043662 0.648883
13120 2.3616397800000004 15.25732623 -4.54409991 0.052159 -1.317182 0.612007
13140 2.8876421700000003 17.900375670000003 0.24414147 0.167607 -1.2198790000000002 0.4214770000000001
13160 2.71804689 16.86707856 3.6206748 0.360133 -1.169294 0.125791
13180 2.8398969000000003 15.252234840000002 8.05669794 0.69481 -1.7775330000000005 -0.17232999999999998
13200 -0.06256818 13.47887133 7.12563084 0.710274 -2.219337 -0.257114
13220 -2.31942735 13.77330867 4.35938742 0.789502 -2.380527 -0.242467
13240 -2.8746243000000002 11.016786960000001 3.13717914 0.77255 -2.5595630000000003 -0.210309
13260 -1.94805018 11.834685900000002 1.64687337 0.491654 -2.482467 -0.066024
13280 -0.42870681 11.572288020000002 0.75083778 0.337282 -1.969284 0.13733900000000002
13300 0.37391796 9.9457704 2.33425026 0.470179 -1.517329 0.218873
13320 -0.36554022 9.04479057 2.99377656 0.4294270000000001 -1.497215 0.28586100000000003
13340 0.19010799 8.06657661 2.85680934 0.319579 -1.4193440000000002 0.354428
13360 0.19774017000000002 7.82363196 1.949247 0.322098 -1.05201 0.39884
13380 -2.1076196400000002 8.31206205 0.30221667 0.161371 -1.100986 0.26532100000000003
13400 -2.80007811 7.8692877 0.5536960200000001 -0.06814400000000001 -0.887265 0.031639
13420 -3.2840250300000005 7.4682745200000005 0.73407249 -0.33182 -0.618162 0.096751
13440 -3.3151521600000002 7.679326860000001 0.09504909 1.095596 1.250512 -0.385987
13460 -3.17684097 7.85072718 -1.06832862 1.7326990000000002 3.931592 -0.350789
13480 -3.7133302500000003 7.531284149999999 -2.04759225 -0.33379200000000003 2.139181 -0.269992
13500 -3.23297379 7.48399014 -3.30617601 -1.211372 0.716033 -0.855411
13520 -2.5119289800000004 8.18692569 -4.79063502 -0.695501 -0.685125 -0.955766
13540 -0.7836228 8.44723404 -4.26358296 -0.426801 -2.106118 -0.677535
13560 0.76865274 7.96284567 -3.04242435 -2.043447 -4.095548 -0.468361
13580 1.48505742 7.81524441 -3.08598075 -2.338234 -1.6999400000000002 0.102282
13600 2.33619264 7.869738960000001 -3.33311427 -0.788445 0.395297 0.396706
13620 1.87799697 8.813823930000002 -4.11314661 -0.53922 -0.211565 0.360768
13640 -0.03981879 10.138713480000002 -5.0486968800000005 -0.7672260000000001 -0.731233 0.245542
13660 -2.3316996600000004 10.098001980000001 -5.343889590000001 -0.951234 -1.544615 0.016699000000000002
13680 -3.25738107 9.94157172 -5.47157655 -0.76013 -1.391424 -0.096462
13700 -2.74679019 8.80708446 -4.43108871 -0.4319 0.125698 -0.157002
13720 -3.8269398600000004 7.52889051 -3.8311287300000005 -0.058898 0.311726 -0.115111
13740 -4.5514377900000005 9.41961105 -4.75336683 -0.160663 0.1706 -0.165847
13760 -4.33782504 14.96528253 -4.414921830000001 -0.071948 0.377224 -0.23279
13780 -3.8965516200000003 25.894348470000004 -6.689890260000001 0.023146 0.931706 -0.183698
13800 -4.1412915 12.171335670000001 7.85551446 -0.137265 1.244814 -0.023918
13820 -3.31216011 1.59538068 9.728272890000001 0.336808 1.5595709999999998 -0.02742
13840 -4.65232383 4.0140558 4.96682262 0.574122 1.229407 0.015253999999999997
13860 -3.4447913100000007 7.73860869 6.36326631 0.28078800000000004 0.5433859999999999 0.265116
13880 -3.1868766 11.49219918 4.31163234 0.5758989999999999 0.902621 0.482498
13900 -0.57121668 13.306127040000002 0.55204794 1.023027 0.941586 0.739808
13920 1.89371259 12.931757820000001 -3.29914224 1.792564 0.946726 0.918228
13940 0.6536893500000001 11.000178629999999 -2.0122664400000003 3.056678 1.232809 1.006808
13960 -1.63369854 9.22082121 -5.765415480000001 3.772527 1.493205 0.802103
13980 -3.8728997100000004 8.76053601 -2.26358883 3.858745 0.917772 0.507546
14000 -2.8864453500000002 8.40562002 -1.3228000200000003 3.197968 -0.275473 0.581371
14020 -2.69035326 8.6273064 -2.98538901 1.884994 -0.103682 1.381692
14040 -2.90036574 7.982004600000001 -3.18253077 -0.530317 0.505454 2.192981
14060 -1.4042328300000002 8.37703368 -2.64005739 -1.440307 1.42908 1.908771
14080 -1.36307007 8.76053601 -2.99167722 -1.396501 1.206907 0.95544
14100 -2.27931426 8.354725740000001 -3.35362698 -1.509047 0.436435 0.058334
14120 -1.81677276 7.45150923 -2.19937257 -1.932675 -0.241093 -0.369977
14140 -1.33073631 7.8083577900000005 -2.30071968 -2.379314 -0.6592439999999999 -0.6406850000000001
14160 -1.4042328300000002 8.38646109 -5.129236980000001 -2.861121 -1.086788 -0.929786
14180 -0.21599658 6.133947750000001 -4.709055060000001 -3.303351 -2.595948 -0.8967579999999999
14200 1.18343916 4.62238371 -1.3632172200000001 -1.592801 -3.233736 -1.12541
14220 0.53708769 7.497155159999999 -2.09025594 -0.207664 -3.1162490000000003 -1.07102
14240 1.73533995 11.4438555 -2.43453789 -0.6751119999999999 -1.556691 -0.665018
14260 2.00343744 13.815668250000002 -5.00169717 -1.032185 -0.937866 -0.596735
14280 0.5081972400000001 13.50656496 -6.76951803 -0.190358 -1.758341 -0.4744350000000001
14300 -1.5314685300000002 13.202994509999998 -6.8038039800000005 0.026359 -1.944427 -0.214173
14320 -0.75248586 12.015964890000001 -1.43626248 -0.029744 -1.006129 0.15276900000000002
14340 -1.67291892 7.48263636 3.28221999 0.924459 0.537316 0.42558
14360 -2.9518584300000006 5.00573889 4.1677785 0.94778 -0.292277 0.341348
14380 -0.9713273400000001 5.45196636 3.50181684 -0.584433 -2.718891 0.316664
14400 2.0246859 10.40112117 6.6225249900000005 -1.406781 -2.649101 0.093981
14420 -2.1038722200000004 13.039089030000001 1.6110963 1.081126 1.517508 0.255571
14440 -3.1952543400000004 10.32403419 -1.9520919 0.802383 0.512826 0.262389
14460 -3.0012615900000004 8.40217671 -1.8021068100000002 0.952121 1.735323 -0.023347
14480 -4.6865999700000005 7.717350420000001 -1.4111194500000002 0.5822390000000001 1.092137 -0.029379
14500 -5.02220988 7.23520854 -1.4088729600000003 -0.347517 0.194458 -0.109499
14520 -4.678967790000001 7.137756 -1.71034407 -0.841068 -0.411083 -0.098283
14540 -2.9186319600000004 7.42351149 -5.29344657 -1.355198 -0.022041 0.026882
14560 -1.95418143 7.937692830000001 -5.732326350000001 -0.8677969999999999 2.228816 0.420508
14580 -2.70802107 9.855351630000001 -7.1916423300000005 0.521273 1.045636 0.196718
14600 -1.57502493 13.137434279999999 -7.751479410000001 0.16960999999999998 -0.251961 -0.008106
14620 0.09954207 14.26938075 -5.30856378 0.770145 0.430925 -0.006923
14640 2.5188156 11.95624161 -3.05813997 1.44934 0.696523 0.117122
14660 2.8783619100000006 8.43166557 -3.9591198000000003 1.867417 0.371555 0.302056
14680 1.07446968 5.56557597 -3.1308909300000005 2.098611 0.528447 0.293856
14700 -0.7945511400000002 4.57089102 3.1034916 2.408382 0.77587 0.221995
14720 -0.44068482 8.62910163 6.22780002 2.6063400000000003 0.16701400000000002 0.196384
14740 -2.83465836 13.102108470000001 -0.29129814000000004 1.961765 0.513814 0.342057
14760 -7.31258982 21.831056280000002 -6.99495183 0.429184 -0.226676 0.901663
14780 -6.165074880000001 13.84800201 -2.43558756 1.002739 -0.320517 0.429363
14800 -6.08110128 12.835659060000001 -5.2558742700000005 0.038808 -0.249848 0.375537
14820 -2.01001995 13.80489687 2.3343974100000002 -1.429667 0.775221 0.780573
14840 -0.49591512000000004 9.49131234 3.9796226999999997 -1.928586 1.3765459999999998 0.819046
14860 -0.24204213000000002 8.16207696 3.0996068400000003 -1.704334 0.992929 0.388474
14880 0.57705363 6.1073037900000005 2.6059284 -1.609788 0.191288 -0.08733300000000001
14900 1.97948142 6.94300788 0.30926025 -1.750168 -0.339386 -0.722158
14920 2.73915801 13.31286651 -10.39468581 -1.865652 -0.7668020000000001 -1.094158
14940 -1.02132891 11.921062950000001 -5.879025090000001 -1.547074 -1.6740549999999998 -1.194388
14960 -1.49868351 8.38600983 -2.43274266 -0.8996639999999999 -3.612994 -1.188449
14980 -0.7849667699999999 8.34874164 -5.099149710000001 -1.197398 -3.214257 -1.011578
15000 -0.16495515000000002 8.95003578 -6.007457610000001 -1.251076 -1.235299 -0.618179
15020 0.18172044 10.587933 -5.864800590000001 -0.371319 -2.355425 -0.451433
15040 -0.99213435 10.58733459 -5.044056750000001 0.301947 -2.859239 -0.251668
15060 -2.7536768100000004 9.863287920000001 -2.24862858 0.277127 -1.975914 -0.016897
15080 -2.0073222 10.080039870000002 -0.76026519 0.24682 0.056984 0.453509
15100 -1.7262068400000001 11.190580920000002 1.70869599 2.492093 1.853672 0.479709
15120 0.9609974100000002 11.800861020000001 1.66528674 2.205735 -2.204327 0.552343
15140 -4.38348078 10.14919056 -6.35713506 -0.316818 -3.346811 0.202901
15160 -0.8617594500000001 9.808351920000002 2.38514454 0.8703540000000001 1.576907 -0.030124
15180 -1.12266621 13.61433762 1.7148370499999999 0.324616 0.565591 0.268598
15200 -3.23267949 12.530293380000002 -2.4234624 -0.389743 0.322435 0.15709800000000002
15220 -2.3305028400000003 8.25039639 -2.42301114 -0.223684 0.615312 0.297819
15240 -4.20835266 5.48758647 -1.8895237200000001 -0.440878 0.661031 0.241764
15260 -4.444253730000001 4.492312920000001 -1.0071044100000002 -0.926267 0.066692 0.108813
15280 -3.9303765000000004 3.63907836 -0.90397188 -1.051887 -0.388643 0.066858
15300 -3.7341372600000002 3.5503174800000004 -0.9342063 -1.142906 -0.567933 -0.039302
15320 -3.02341257 5.979616830000001 -1.2361286699999998 -0.728607 0.327158 0.069267
15340 -2.5333344 8.15609286 -5.3275755600000005 -0.238402 0.7289760000000001 0.124519
15360 1.0011203100000001 10.626250859999999 -4.900359870000002 0.137847 0.7611899999999999 0.001056
15380 4.981635720000001 12.54691152 -7.076384640000001 0.49363 0.773141 -0.099024
15400 3.8636194500000003 9.45538812 -6.71368932 0.7846989999999999 0.854608 -0.211395
15420 2.7357147000000004 7.592508360000001 -4.697528310000001 1.09704 0.683533 -0.324362
15440 1.3397124600000003 7.2631964700000005 -5.992634700000001 1.653398 0.854999 -0.263011
15460 -3.3524301600000004 10.00085355 -7.67214594 2.399487 1.528456 0.104533
15480 -2.20551363 12.383153190000002 5.620364820000001 3.384896 1.362456 0.269725
15500 -7.884699210000001 19.177068690000002 -2.4569929800000003 3.280206 0.21619 0.101684
15520 -6.6563596800000004 19.942876530000003 5.00798538 2.727538 -0.368425 -0.007181
15540 -0.45953963999999997 10.001000700000002 1.74776922 1.463368 0.316994 0.177526
15560 -0.93121425 12.82368105 -1.80285237 -0.150584 0.623087 0.421166
15580 -0.43349409 13.439199690000002 0.82507986 -0.811316 0.436448 0.781053
15600 -1.34255736 11.501479439999999 2.0806715700000002 -1.40084 0.535462 0.773604
15620 -2.19743019 9.739946790000001 1.6128915300000002 -1.772444 0.074924 0.381697
15640 -1.99744353 8.50171878 -0.53288901 -2.018676 0.001596 0.019012
15660 -1.34570637 8.10878904 -2.3568525 -2.276653 -0.152337 -0.4227
15680 -0.59471163 9.740241090000001 -4.31627247 -2.5053240000000003 -0.312181 -0.743491
15700 -0.34652844000000005 9.4453623 -4.767140070000001 -2.207618 -1.766205 -1.02049
15720 -1.04003658 9.08834697 -6.3994946399999995 -0.953896 -4.397352 -1.062841
15740 -1.82875077 7.95655746 -5.206019850000001 -1.515484 -2.99143 -0.5162939999999999
15760 -2.03831199 7.58233539 -4.97280672 -1.417168 -1.502523 -0.248324
15780 -2.11779261 7.16695056 -3.73997421 -0.614354 -0.579984 -0.147758
15800 -2.1571601400000002 7.461986310000001 -4.90469589 -0.206336 -0.174729 -0.081334
15820 -1.29495924 8.68149684 -6.086339820000001 0.165126 0.411832 0.230293
15840 0.47032083 10.45935333 -4.863984390000001 0.660558 0.420232 0.630054
15860 -0.5918667300000001 13.135786200000002 -2.1983327100000003 2.000294 1.31558 0.405392
15880 -1.7205268500000002 12.766655520000002 1.37623509 0.6119439999999999 -1.3207 0.207861
15900 -1.8187151400000001 12.156816870000002 4.2167304 -0.796977 -2.6836740000000003 -0.312981
15920 -2.70802107 11.70625338 4.676427 -0.06780599999999999 1.666842 0.137327
15940 0.08846658 11.233843020000002 2.52210195 0.494 2.410053 0.270622
15960 -1.9434100500000002 12.70243926 0.18411408 2.2011700000000003 2.382084 0.456703
15980 -5.350020840000001 13.037892209999999 -2.7297207900000005 1.14131 1.844261 0.008813
16000 -3.1397199300000005 7.93125747 -2.4237567 0.040745 1.1325379999999998 -0.338725
16020 -3.1295469600000003 4.060457100000002 -1.70405586 -0.8372209999999999 -0.433861 -0.265938
16040 -3.97453131 4.09219245 -0.75158334 -1.639859 -1.851405 -0.187475
16060 -4.0658427900000005 3.80104146 0.11765133000000001 -2.5607830000000003 -2.561052 -0.144928
16080 -3.4902900900000002 4.37360211 -0.88690248 -2.435651 -0.435834 0.014524
16100 -3.6976146300000003 5.8249916100000005 -5.3771160600000005 0.013043 1.5749959999999998 -0.140796
16120 -2.12677857 7.30361367 -2.72029338 1.004297 1.109277 -0.152503
16140 0.32153256 12.883404330000001 -8.145762930000002 0.392966 0.615065 -0.1743
16160 2.8415449800000006 11.79891864 -9.354943530000002 0.232712 0.072409 -0.193952
16180 2.8601055 7.54625421 -5.59941066 0.769524 0.128939 -0.410328
16200 1.8154287900000001 5.43534822 -3.07461096 1.028069 0.220668 -0.39689
16220 -3.1980992400000003 6.178848120000001 -1.72501002 1.476826 1.645255 -0.0655
16240 -2.38349646 9.918223919999999 6.7500648000000005 1.865961 2.179243 0.058311
16260 -7.19479134 17.06750667 0.07035732 2.527822 1.514492 0.022126
16280 -7.6984956 20.01981636 0.52001829 2.96211 0.740958 -0.05183
16300 -2.5782347700000003 15.40102311 0.3793134600000001 3.3330050000000004 0.059443 -0.17228
16320 -0.30462012 20.429217089999998 -19.153868040000003 2.97125 -0.047485 -0.025118
16340 -0.07499745000000001 10.026594990000003 4.34860623 0.835073 0.632263 0.468631
16360 -3.32727732 10.60050942 5.40870426 -0.656021 0.024989 0.712163
16380 -2.55563253 10.27732878 4.916075490000001 -0.289829 0.516027 0.674567
16400 -0.88481295 9.22920876 1.90718172 -0.5489970000000001 0.13302999999999998 0.5076729999999999
16420 -0.70159158 8.84166471 -0.6912616500000001 -1.543762 0.295147 0.521881
16440 -0.7804737900000001 9.183248910000001 -2.5477060500000004 -2.055906 0.331796 0.325977
16460 -0.89199387 10.04650929 -4.9829895 -2.274114 0.218415 0.098135
16480 0.23560677000000002 9.45478971 -7.05347829 -2.493409 0.144278 -0.08596799999999999
16500 0.27991854 8.94778929 -5.2676953200000005 -2.469865 -0.5006109999999999 -0.272984
16520 -0.604296 8.01238617 -2.2519149300000003 -1.698434 -1.353825 -0.426735
16540 -2.09728971 7.615267560000001 -4.35549285 -0.943781 -1.8706 -0.7850659999999999
16560 -2.48842422 6.14397357 -3.09391704 -0.777048 -2.356634 -0.8623270000000001
16580 -2.0648088000000007 7.520807070000001 -3.42233622 -1.02744 -1.904546 -0.482231
16600 -1.06189326 9.24941736 -4.60592253 -1.224493 -0.927671 -0.050093
16620 -1.22670126 10.006092090000001 -6.386614110000001 -1.131559 -0.94794 0.142862
16640 -2.07992601 11.108549700000001 -5.16784914 -0.74445 -0.8359110000000001 0.296042
16660 -1.40392872 12.510830339999998 -2.38603725 -0.006376 -0.613841 0.331891
16680 -0.53393868 13.064977620000002 -0.22228479 0.898658 0.6231720000000001 0.555613
16700 -2.02678524 11.368112490000001 4.08545298 2.581804 2.7537990000000003 0.409747
16720 -4.201466040000001 10.79809263 6.483321090000001 0.80787 -3.202008 0.312053
16740 -2.60683092 10.5907779 0.45280998 0.276814 -2.860743 -0.120451
16760 0.8716381200000001 9.855057330000001 -2.3772082500000002 0.028241 1.4068040000000002 0.34770300000000004
16780 -1.00875249 9.71928693 -1.3521417299999998 -1.6072540000000002 1.491038 0.4141510000000001
16800 -4.51221741 8.372835 -1.720674 1.454461 3.162276 0.734635
16820 -4.211197560000001 8.342149319999999 -2.36747673 1.245623 1.870208 0.089625
16840 -3.80359206 7.069203720000001 -1.5224825700000002 0.656558 0.36806 -0.437061
16860 -3.55765536 7.05752001 -1.1020063500000001 -0.091158 -0.635646 -0.533933
16880 -2.65906917 6.82625907 -1.9543383900000002 -1.590153 -2.066291 -0.305425
16900 -2.83555107 5.71122504 -2.31628815 -2.562069 0.044553 0.136939
16920 -2.4294465 7.48339173 -1.78264377 0.8360639999999999 3.318407 0.322054
16940 -1.5976271700000002 8.65574559 -2.6487392400000003 0.934373 1.69223 -0.153739
16960 -0.13472073 9.994869450000001 -3.8987883 0.8386790000000001 1.551849 -0.129658
16980 1.2091806 10.54093329 -4.2950142 2.23965 3.133721 0.003083
17000 0.9108585 10.97697798 -5.20048701 3.022688 0.806212 -0.172199
17020 0.39787398 9.63411651 -4.34501577 3.787734 1.079275 -0.390464
17040 0.27078543 6.61219506 -3.5076537900000004 4.027278 -0.436576 -0.606902
17060 -0.54307179 3.0130826400000004 -5.0946567300000005 3.210513 -1.171341 -0.50057
17080 -2.5806382200000004 5.85971901 -1.5452319600000002 1.40611 0.104356 0.12292
17100 -2.00792061 9.7869465 -3.10109796 0.048145 0.8698670000000001 0.6059720000000001
17120 -3.6884815200000003 18.27773694 1.10740185 -0.557421 1.497064 0.660758
17140 -6.45173289 18.59957361 6.05101401 -1.641071 2.033509 0.6482289999999999
17160 -4.20490935 15.02485866 -4.69228977 -2.309442 1.965249 0.4492310000000001
17180 3.4816082400000004 18.338961150000003 -8.83327716 -2.229185 1.02228 0.163649
17200 -2.34712098 10.35412146 3.0476628900000002 -2.196415 -0.04727 -0.127445
17220 -3.68503821 8.05445145 3.22713684 -2.523407 -0.480552 -0.447504
17240 -2.18410821 6.939123120000001 3.3373129500000003 -2.539758 -1.292363 -0.947574
17260 -1.5220313100000002 7.634279340000001 2.1369515400000005 -1.935 -2.369192 -1.5124
17280 -0.14699304000000002 10.959614279999998 -6.0953257800000005 -0.964023 -1.6839849999999998 -1.081344
17300 -2.21854131 12.28420953 -11.2326462 -1.263497 -1.497935 -0.729024
17320 -2.94886638 9.21064824 -4.42674288 -0.914172 -2.63973 -0.5445909999999999
17340 -3.907323 7.83111699 -5.2615542600000005 -0.055261000000000005 -2.894955 -0.33423400000000003
17360 -2.12902506 10.15009308 -10.40157243 0.1614 -1.84875 -0.015732
17380 -0.84184515 10.699001820000001 -3.69836019 -0.241461 0.424933 0.503038
17400 -1.36022517 9.19388295 -3.6847341 1.389684 3.986953 1.018341
17420 -1.1795445900000001 8.60829462 -1.79910495 1.427264 -0.704882 0.5439149999999999
17440 -0.9036677700000001 9.12622338 2.35879488 -0.223354 -2.965659 0.442348
17460 -0.60354063 10.57925115 4.97146275 -0.019498 1.419617 -0.416425
17480 0.46388547 12.07882737 3.44523276 -1.5281870000000002 -0.757696 -0.201983
17500 -0.20178189000000002 10.53314415 -0.07289811 0.91729 2.58956 0.035136
17520 -3.11082948 10.48315239 -0.73662309 1.409333 1.686729 0.276875
17540 -5.688769949999999 9.61481043 -3.8059857 0.569751 0.707426 -0.247959
17560 -2.4736013100000003 7.73382141 -4.08800358 -0.427932 -0.384817 -0.364623
17580 -2.27362446 5.946380550000001 -3.04751574 -1.6284 -1.3098459999999998 -0.297048
17600 -3.7006066800000004 4.557569040000001 -2.05522443 -2.432057 -0.469448 -0.107185
17620 -3.29914224 4.00911156 -1.52353224 -0.322484 1.625561 0.025575
17640 -2.28020697 4.32510147 -2.6177592600000006 0.444248 0.478081 -0.32759
17660 -1.5602020200000002 7.884100800000001 -3.2681524500000005 0.07899 0.123681 -0.361734
17680 0.8020361700000002 14.69209365 -5.65210017 1.167468 0.731045 -0.279065
17700 2.16734292 12.92427279 -7.613913780000001 2.021073 0.046158 -0.507234
17720 1.5459873300000002 10.56846996 -5.927074470000001 2.448276 -0.805524 -0.745645
17740 2.69798544 7.594303590000001 -4.44441069 3.368328 -0.140153 -0.637522
17760 2.5385729400000003 5.37232878 -4.15281825 3.966035 -0.16831300000000002 -0.241273
17780 0.8373619800000001 6.749466389999999 -4.50143622 3.793622 -1.016766 -0.234981
17800 -0.41089185000000006 7.30510479 -0.6104272500000001 3.204788 -0.604142 -0.081526
17820 -6.1171824599999995 11.162141730000002 0.58348899 1.07447 0.349902 0.809292
17840 -13.609246230000002 18.60091758 0.20656917 -0.35200000000000004 0.261343 0.483247
17860 -3.2687508600000004 12.719646000000001 4.91802768 -0.53049 0.719704 0.298747
17880 -3.4576620300000003 21.83180184 -14.24692566 -1.401721 1.6396990000000002 0.887551
17900 6.64662816 13.94155998 0.40220999999999996 -2.072972 1.6322139999999998 0.677773
17920 -1.281186 9.98453952 3.63698883 -2.481014 0.715534 0.10246199999999997
17940 -2.3972697000000003 8.7141249 3.64536657 -2.622805 -0.351874 -0.040302
17960 -1.76468166 8.24186169 2.70023193 -2.776784 -1.441816 0.134139
17980 -1.3627659600000002 9.27620847 -0.97716429 -2.55657 -3.581256 0.034801
18000 0.7253906400000001 10.77623595 -7.559429040000001 -1.471108 -3.887131 -0.603499
18020 -0.4784042700000001 9.70596495 -7.699839570000001 -1.942076 0.794441 0.148854
18040 -1.0583028 9.3907206 -5.4777078 -0.866892 -1.343375 -0.032108
18060 0.9410929200000001 9.39865689 -5.53967757 0.048863 -2.654963 -0.23447
18080 0.7044364800000001 10.653198930000002 -10.566223469999999 0.333922 -0.8920889999999999 -0.175986
18100 -1.29181023 10.343045970000002 -7.394925150000001 0.71505 -0.806187 -0.143523
18120 -2.3297572800000004 9.59384646 -6.558612840000001 1.652879 -2.3608990000000003 -0.03884
18140 -0.98091171 8.83791729 -4.742732790000001 0.601713 -2.056174 0.325168
18160 -0.01002582 9.76090095 -2.09354229 -0.943025 -1.701963 -0.068499
18180 -0.13861530000000005 8.725357350000001 1.50990615 1.56342 1.898365 -0.5662149999999999
18200 -0.33560010000000007 7.6788854099999995 6.30578952 1.054367 1.409926 -0.788131
18220 -2.46851973 7.164105660000001 6.302493360000001 -0.168864 1.151701 -0.686317
18240 -5.6179711800000005 8.208625410000002 0.9241804800000001 -1.99877 -1.126427 -0.556243
18260 -2.30356458 11.174561190000002 -0.75382983 -3.01603 -1.526318 -0.370556
18280 -1.33148187 11.89605726 1.4266879200000002 0.152977 0.70709 -0.33525900000000003
18300 -3.95747172 10.73372922 -2.29263624 1.176678 -1.255724 -0.27966
18320 -3.03763707 8.195754690000001 -2.88584694 -0.234914 -2.077213 -0.613207
18340 -3.4391015100000004 6.4117669500000005 -1.4365665900000002 -1.011738 -2.586878 -0.623321
18360 -4.527040320000001 10.21206285 -0.64261386 0.399809 -0.43474 -0.8512280000000001
18380 -5.079539520000001 8.39155248 -2.06361198 1.45895 -1.0792959999999998 -0.954099
18400 -6.825807810000001 7.6731956100000005 -5.712873120000001 1.886683 -1.245208 -0.8601
18420 -2.1275241300000003 7.472306430000001 -1.2633710399999998 2.972383 -1.647939 -0.455689
18440 3.7094356800000003 11.091784409999999 -12.288692700000002 3.382451 -1.897595 0.8806360000000001
18460 5.795502750000001 6.729552090000001 -11.324850390000002 2.969743 -0.688581 2.054452
18480 4.32734796 2.01944736 -3.72904587 1.608662 2.333415 1.684287
18500 3.69776178 1.06608213 -0.7553307600000001 -0.196435 1.069951 0.8646530000000001
18520 0.668061 4.48946802 -2.3833395 -0.418305 -2.315717 0.314103
18540 -5.64715593 14.54480631 4.88120094 -0.30498400000000003 -4.215398 0.023568
18560 -16.34286159 30.866115330000003 -11.33458191 -0.329617 -1.730448 0.395157
18580 -4.5873620100000005 9.51706359 0.00973152 -0.129832 1.686461 1.144202
18600 -2.49516369 7.49970576 1.64657907 -0.27525900000000003 2.747347 1.568048
18620 0.20342997 7.34207868 3.92633478 -0.221178 0.343503 1.134603
18640 -0.27857457 10.841953140000001 -0.031136940000000002 0.325627 -2.808941 0.4684140000000001
18660 0.5123861099999999 19.696037309999998 -5.11740612 0.688528 -2.943746 0.299138
18680 7.63727139 13.76926695 -7.87378068 1.413865 -2.962311 0.317047
18700 2.5080344100000005 6.869511360000001 -0.98569899 1.657682 -3.053789 0.338095
18720 0.56028834 6.98851647 0.87013719 1.403906 -2.663501 0.458668
18740 -1.79132562 9.72153342 -3.93172047 1.091337 -2.774747 0.577336
18760 -3.34269864 11.336975550000002 -8.181540000000002 0.780081 -2.663075 0.6262939999999999
18780 -3.4784690400000002 10.260563490000001 -7.80162813 0.37897 -2.643611 0.635217
18800 -1.0355436 12.09948723 -4.322864790000001 0.13742200000000002 -2.284755 0.613842
18820 1.54149435 14.31907821 -4.11299946 0.71902 -2.245267 0.624264
18840 2.16674451 16.04677617 -4.69783242 0.669642 -1.901818 0.559385
18860 3.60106461 23.2816806 1.52158986 0.6548039999999999 -0.97575 0.7525109999999999
18880 -0.9587607300000001 18.13538403 8.322843240000001 0.583338 -0.4112520000000001 0.838883
18900 -8.234975069999999 11.5685406 4.67447481 0.459754 -0.597402 0.611795
18920 -10.60993683 11.70371259 0.31554846000000003 -0.021336 -1.044359 0.381476
18940 -4.671786870000002 13.27379328 -1.81392786 0.699296 0.195241 -0.147053
18960 -1.56904083 12.724138980000001 -0.98974071 2.405603 0.6179479999999999 -0.508486
18980 -2.5872207300000003 11.30000166 0.92358207 1.982894 1.840841 -0.663625
19000 -4.567300560000001 8.836426170000001 -0.11855385 -0.588201 2.05676 -0.483171
19020 -3.6206748 7.936044750000001 -2.4926130900000003 -1.820654 2.0814310000000003 -1.852726
19040 -3.56468913 7.112014560000001 -1.1567952000000001 -0.53314 -0.223464 -1.727548
19060 -1.20020445 7.0913547 0.8994789 -0.760041 -4.266636 -0.620478
19080 -0.29713509 7.85551446 -0.72479223 -2.510811 -6.5563270000000005 -0.065752
19100 -0.9861502500000001 7.64220582 -0.29593827000000006 -2.234905 -2.827634 0.436666
19120 -1.79536734 6.88358871 0.8948387700000001 -1.163341 -0.328956 0.953695
19140 -2.06345502 5.80462605 1.2897207000000002 -0.983539 -0.8953260000000001 0.974905
19160 -1.6136469 5.25347082 0.5074418700000001 -1.279984 -0.5792619999999999 0.780149
19180 -1.3385156400000002 5.31244854 -1.28956374 -1.420532 -0.741917 0.552913
19200 -2.58976152 6.36386472 -3.6007605000000003 -1.245175 -1.239683 0.205467
19220 -2.68436916 9.6884541 -7.965082350000001 -1.153574 -0.936907 0.06685
19240 -1.04168466 13.001516730000002 -9.86852646 -1.136371 -0.084237 -0.060173
19260 -0.4379870700000001 11.19027681 -5.701944780000001 -1.02456 0.388066 -0.253345
19280 -1.2530411099999998 9.142537410000001 -3.64507227 -1.18329 0.733545 -0.198281
19300 -1.4443459200000002 7.8001271999999995 -4.981635720000001 -1.48934 0.251139 -0.240393
19320 -3.5426853 9.52978716 -6.542593110000001 -1.472097 -0.220695 -0.275987
19340 -5.37816573 18.01787985 -5.93919963 -1.191254 -0.253276 -0.363714
19360 -5.3450864099999995 24.676486020000002 -6.53226318 -0.955338 -0.7672829999999999 -0.43191
19380 -9.874069109999999 12.8061702 2.89737369 -1.0534629999999998 -2.108433 -0.355033
19400 -5.014872 -2.12348241 12.9160422 -0.8043140000000001 -2.268788 -0.164012
19420 -1.4693418 -0.31419467999999995 11.31751251 -0.25308800000000004 -0.8403799999999999 -0.07760299999999999
19440 -3.3144066000000003 8.89136217 8.40921048 0.473169 -0.32147800000000004 -0.20245
19460 -4.68556011 16.90869258 5.60015622 1.333063 -1.307703 -0.469713
19480 0.36224406000000003 17.93211102 -2.5105752 2.281861 -1.230173 -0.70033
19500 3.2067810900000002 13.88856636 -1.4016822299999998 3.649067 -0.131448 -0.660141
19520 0.058977720000000004 11.41316982 -0.81730053 4.020419 -0.33415300000000003 -0.640196
19540 -2.31792642 10.00474812 -4.253400180000001 4.293068 -0.326925 -0.286856
19560 -4.26792879 10.090212840000001 -1.22699556 4.583042 -2.161514 0.306111
19580 -4.649478930000001 8.901387990000002 -0.51732054 3.91171 -2.632512 0.125769
19600 -3.79969749 7.63023762 -1.6064561700000002 2.346551 -0.102899 0.5207229999999999
19620 -2.9192303699999997 7.45390287 -1.44958446 1.301058 2.126114 1.311731
19640 -3.5352002700000003 6.19052202 -0.04445892 0.7596729999999999 1.650448 1.652526
19660 -2.72208861 5.80043718 -0.38888802 0.649216 -0.663804 1.600241
19680 -1.5094647 7.3465716599999995 1.38686913 0.911345 -0.516573 1.583723
19700 -1.0412334 7.32007485 1.6651395900000001 0.829269 -1.010431 1.5474629999999998
19720 -0.88391043 8.04262059 0.27617112 0.6730430000000001 -2.045403 1.5637219999999998
19740 -1.3494439800000002 9.684265230000001 0.51762465 0.564766 -2.835612 1.601366
19760 -1.41949719 10.13631984 0.76865274 0.468236 -3.447713 1.576907
19780 -0.7459033500000001 10.26535077 -0.8012807999999999 0.8205309999999999 -4.054354 1.396411
19800 -0.8388531 11.991714570000001 -2.75712012 1.230115 -4.338093 1.135784
19820 -1.60870266 11.74427694 -2.03427027 1.3038459999999998 -4.1441919999999985 1.066617
19840 -2.95635141 11.15286147 -1.98906579 0.691154 -3.159215 1.16576
19860 -2.86639371 12.278961180000001 -4.426448580000001 0.228087 -2.710115 1.145927
19880 -2.65742109 12.455148779999998 -5.29957782 -0.043155 -2.488928 0.946128
19900 -1.4519781 12.45619845 -5.562436770000001 -0.242764 -2.785405 0.669512
19920 -1.33267869 14.09693076 -7.472610540000001 -0.496039 -2.827452 0.481926
19940 -1.84386798 14.240186190000001 -6.64408737 -0.5771 -2.60657 0.459713
19960 0.44398098 20.28552021 4.24217754 -0.541316 -1.888208 0.337265
19980 5.326977149999999 19.124379180000002 8.1644706 -0.6091979999999999 -1.279879 0.381945
20000 6.737037120000001 15.881222610000002 7.66765296 -0.39146 -0.979336 0.425809
20020 4.32151101 14.517858240000002 7.575743070000001 -0.170121 -0.937225 0.358935
20040 2.32227225 13.298946120000002 5.04690165 -0.436278 -0.948419 0.458572
20060 -0.28905165000000005 11.168724240000003 1.5864045300000003 0.309961 1.6952080000000005 -0.090806
20080 -3.1723578000000003 10.834919370000001 -0.25042968 1.54839 -0.353822 0.29328000000000004
20100 -1.41860448 8.9136603 2.0657015100000002 2.614817 -1.690122 0.012953
20120 -0.33425613 8.24619771 2.85935013 1.461547 -1.417025 -0.681251
20140 0.91490022 7.676187660000001 4.04324055 0.018492 -1.740418 -0.8746510000000001
20160 1.99071387 8.876392110000001 4.034558700000001 0.052515 -1.743715 -0.612695
20180 0.87567984 9.96582204 2.9038090500000004 -0.769703 -3.388472 -0.440074
20200 0.05687838 9.691593300000001 2.62644111 -2.031479 -3.676176 0.140072
20220 -1.1322407700000001 9.72003249 2.7764262 -1.659154 -0.6505810000000001 0.56288
20240 -2.7964876500000004 8.87280165 2.6427551400000002 -0.999585 0.6423840000000001 0.859591
20260 -4.45938075 8.10309924 1.91497086 -0.8809680000000001 -0.399435 0.48574
20280 -5.1861153600000005 7.419175470000001 0.73227726 -0.6260140000000001 -1.513014 0.090501
20300 -4.55292891 6.61594248 -0.53888292 -0.627587 -1.581473 -0.103838
20320 -3.9923462700000005 6.739283610000001 -0.99452799 -0.534087 -1.1982780000000002 -0.109017
20340 -2.7511262100000002 7.28220825 -0.5204695500000001 -0.612222 -0.711449 -0.040752
20360 -1.2451146300000002 8.02421703 -0.92582856 -0.305151 -0.401922 0.076364
20380 0.38604312 8.335713960000001 -2.8984233600000002 -0.196739 0.052287 0.14811
20400 0.76550373 9.93469491 -4.72717413 0.04746 0.313292 0.199688
20420 1.7443259100000001 11.817027900000001 -6.57222912 0.361837 -0.043444 0.16068
20440 2.58946722 11.29206537 -6.95648682 0.186097 -0.7086600000000001 -0.098205
20460 2.5017462000000004 10.676693880000002 -5.76181521 0.330305 -0.284819 -0.18854
20480 -0.15043635 14.649586920000003 3.55376079 0.475657 0.084976 -0.350368
20500 -5.2855102800000004 23.392003860000003 -6.0894888300000005 0.238233 0.51902 -0.26392
20520 -7.02699129 10.94015124 0.00808344 -0.169244 1.581178 0.06943099999999999
20540 -4.773722580000001 3.23208108 6.8109849 0.295768 2.21369 0.264148
20560 -2.13515631 2.8111536 8.2771875 0.554024 1.602044 0.35112600000000005
20580 -3.3934457700000005 8.95797207 7.960295070000001 1.336384 1.7057220000000002 0.385299
20600 -2.83750326 12.555887669999999 4.76145027 2.714111 1.867849 0.471627
20620 -0.08517042 14.93175195 -1.6741157400000002 3.335545 1.557716 0.765853
20640 1.7193202200000002 12.076590690000002 0.50564664 4.545888 0.553752 0.368602
20660 -0.8849601 9.254950200000001 -2.24174196 5.209341 -0.6027319999999999 -0.04082
20680 -3.98950137 8.649908640000001 -3.50780094 4.06395 -0.377557 0.318359
20700 -3.7592802900000004 8.42896782 -1.3063290300000001 2.022148 0.025486 0.663571
20720 -2.1615059700000003 8.470287540000001 -0.46627911 -0.213585 0.586558 1.351194
20740 -1.74132405 8.77025772 -1.20170538 -0.957083 1.337039 1.597139
20760 -0.99423369 8.02989702 -1.77096987 -1.737039 1.62902 1.184324
20780 0.16854561000000004 8.53794711 -2.45714013 -1.846948 0.974637 0.291362
20800 -0.29548701 8.561147759999999 -1.6302552300000002 -2.106306 0.425845 -0.238517
20820 -0.39592179 8.44379073 -1.84386798 -2.420274 -0.282928 -0.407512
20840 -0.47691315 7.93185588 -1.0645910100000002 -2.799828 -0.242122 -0.426239
20860 -2.021841 7.965984870000001 -0.9801661500000001 -3.072086 -0.788726 -0.6934279999999999
20880 -3.58085601 7.7824692 -1.6591456800000002 -2.82551 -3.23315 -1.268618
20900 -4.00477554 6.42673701 -1.0139910300000001 -1.285279 -5.583824 -1.635134
20920 -2.61176535 5.65538652 0.060174540000000006 -1.067817 -3.907515 -0.384875
20940 -1.40722488 6.7675756499999995 -1.7655743700000002 -0.93655 0.448924 0.168071
20960 0.30581694000000004 9.32829957 -2.93090427 -0.476789 -0.306889 -0.096941
20980 0.7357205700000001 10.96021269 -4.4825814 -0.050031 -0.880984 0.043508
21000 0.77119353 12.19199553 -6.10176114 -0.019558 0.441129 0.522727
21020 2.07468747 12.469216320000001 -9.70521939 1.398443 0.881812 0.7104600000000001
21040 2.51985546 12.748095000000001 -8.272547370000002 0.5229590000000001 -3.050294 0.7136560000000001
21060 -1.00516203 12.96109953 -4.57612956 -0.027724 -2.561014 0.046885
21080 -2.49681177 13.400283420000001 -2.9440791 0.297543 1.027598 0.106516
21100 -2.95814664 11.11049208 2.87731224 0.598316 1.881206 0.031679
21120 -1.9995428700000002 9.775419750000001 6.0011694 -0.941465 0.943416 -0.144518
21140 -0.98375661 8.761732830000001 6.531213510000001 -0.46865 1.861392 -0.21503000000000005
21160 -0.054190440000000006 12.967387740000001 4.7114487 0.6543140000000001 1.377826 0.12565
21180 -4.810392360000001 11.37230136 -3.28895946 0.000117 0.2801 0.016733
21200 -5.30646444 8.91276759 -4.62238371 -0.573156 -0.792586 -0.030762
21220 -1.78578297 6.18828534 -1.60765299 0.8339700000000001 1.6787919999999998 0.096609
21240 -2.5409665800000005 4.3525008000000005 0.46942812 1.759516 1.502285 0.27742100000000003
21260 -4.68226395 4.2728632200000005 -0.058232160000000005 2.293328 1.10087 0.032768
21280 -5.12159499 5.25138129 -0.8062250400000001 3.264185 0.589377 -0.235396
21300 -4.7322557100000004 8.03603808 -2.3423337 3.440488 0.731068 -0.390307
21320 -3.4619980500000005 11.518244730000001 -3.83038317 3.619491000000001 0.481962 -0.587426
21340 -3.1265451 12.248275500000002 -5.41798452 2.553389 0.21932 -0.316799
21360 0.33859215 10.637924759999999 -5.992487550000001 0.94356 0.020558 0.16786600000000002
21380 4.173625260000001 14.16324636 -7.738010280000001 -0.567415 0.839144 0.5643239999999999
21400 5.07444813 8.23243428 -6.82954542 -0.925428 1.448646 0.8334379999999999
21420 4.69004328 3.00590172 -4.96801944 -1.6529 2.431234 0.830303
21440 2.9823969600000004 -1.2656175300000003 -3.20828202 -2.047241 1.574834 0.353287
21460 -2.66026599 3.26635722 -2.5457538600000005 -2.053895 0.10876 -0.109558
21480 -7.6651121700000004 13.542489180000002 -3.95792298 -2.483718 -0.4953520000000001 -0.510233
21500 -11.45178198 27.67086099 -3.1889661300000003 -2.983875 -0.967693 -1.035482
21520 -4.39335945 14.897171700000001 2.0824668 -2.897071 -2.950964 -1.444667
21540 -1.7431290900000003 7.1576703 4.61070981 -1.556249 -1.948005 -0.610851
21560 -2.84049531 8.65964016 -1.42518699 -1.465793 0.447411 -0.05995
21580 4.41117441 20.89489779 -3.47442732 -1.144879 -0.85945 -0.129741
21600 3.7567395 12.560979060000001 -2.00178936 -0.787887 -1.883432 -0.109912
21620 0.25072398 7.241791050000001 0.5613282000000002 -0.370657 -2.056477 0.178439
21640 -1.2331366200000002 9.47320308 -5.141509290000001 0.08162799999999999 -1.385548 0.6336649999999999
21660 0.96144867 14.27461929 -10.042761870000001 1.438399 -0.173268 0.258097
21680 -2.3534091900000003 12.66606378 -9.88409493 1.0537 -0.408246 -0.318993
21700 -4.904097480000001 11.746072170000001 -8.18692569 -0.641652 -2.501271 -0.507614
21720 -2.03651676 8.94794625 -3.2377708800000002 -2.409217 -2.28057 -0.354669
21740 -2.00478141 6.475679100000002 -0.7520346000000001 2.86668 5.246045 0.28783400000000003
21760 -2.55473982 4.43737692 3.33581202 1.860127 1.7515599999999998 0.456197
21780 -2.9497689000000005 3.4277219100000003 4.35190239 0.279796 1.268529 -0.454734
21800 -2.3352901200000002 7.44536817 4.97146275 -0.35227800000000004 -0.262197 -0.458255
21820 -2.02948299 14.319519660000001 3.4118591400000002 -1.153758 -2.207826 -0.453883
21840 1.3377700800000003 17.069900309999998 0.5290042500000001 -2.361972 -3.1585400000000003 -0.350009
21860 -2.72208861 11.62003329 -2.19188754 -2.640186 -1.048953 -0.194422
21880 -2.9891364300000003 7.9577542800000005 -3.80732967 -0.017268000000000002 1.533222 -0.32362
21900 -3.16322469 5.373525600000001 -2.8258195500000003 0.153336 1.381989 -0.214344
21920 -3.4711311600000005 4.46311836 -1.89101484 -0.402223 1.016336 0.06639099999999999
21940 -3.91241439 4.75217001 -1.68219918 -0.462693 1.192978 0.167223
21960 -2.4786927000000003 5.235959970000001 -4.46251995 0.226068 1.115916 0.193497
21980 -0.54336609 8.62087104 -2.8054638 0.896905 0.606433 0.214859
22000 3.3751795500000004 10.189166310000001 -5.28640299 1.558302 -0.054594 0.047274
22020 4.635107280000001 10.0155195 -8.6070978 2.420762 0.920589 -0.015249
22040 3.75868188 10.670709780000001 -3.9565692 2.39056 2.149559 0.10047
22060 2.2162948200000003 9.835751250000001 -2.12722983 3.248337 1.565367 -0.004953
22080 -1.33537644 10.52625753 -2.59440165 4.018625 0.300637 -0.078069
22100 -6.2863264800000005 11.73140622 -2.672244 3.218467 -0.197043 0.131692
22120 -5.74894449 11.769871230000001 6.14203119 2.737957 0.249663 0.192925
22140 -8.296493580000002 17.15702292 2.1116613600000003 0.8974780000000001 0.26668800000000004 0.46099
22160 -13.198805640000002 26.91837513 -6.519539610000002 -0.138203 0.31497600000000003 0.205866
22180 10.495875960000001 16.08989112 -8.801394660000001 -0.695485 0.882943 0.37857
22200 -0.8604154800000001 4.9310455499999994 3.67501239 -1.46137 1.167847 0.391015
22220 -3.6748554300000005 8.61697647 4.418512290000001 -1.6669630000000002 0.796431 -0.054325
22240 -2.37271527 10.930723830000002 5.60269701 -1.804626 -0.041096 -0.4120680000000001
22260 -1.6759109699999999 9.12876417 2.29517703 -2.247591 -0.496926 -0.58763
22280 -1.1696659200000001 10.1601189 -0.98255979 -2.76254 -0.656934 -0.353876
22300 0.022602240000000003 10.568774069999998 -5.448218939999999 -2.879084 -1.044973 -0.449265
22320 -0.8777791800000001 7.709571090000001 -5.866154370000001 -2.298384 -2.08818 -0.610514
22340 -0.13651596 6.120468810000001 -3.63639042 -1.922906 -2.497812 -0.5283180000000001
22360 1.80959184 6.52493511 -1.00590759 -1.584748 -1.051302 -0.255413
22380 1.6649924400000002 7.167696120000001 -3.2687508600000004 -1.103503 -1.914955 0.054566
22400 -0.46792719 8.72715258 -6.04068408 -0.524989 -2.235876 0.15409
22420 -1.4373121500000001 9.80521272 -4.61594835 0.05872 -0.8187180000000001 0.36145
22440 -2.0956416300000003 9.08490366 -4.6966356000000005 1.283295 1.942738 0.5662229999999999
22460 -3.2217511500000002 8.569525500000001 -6.780603330000001 1.805817 0.425068 0.293011
22480 -3.04840845 9.333695070000001 -4.84752321 0.632743 -1.700766 0.6624869999999999
22500 -2.1308202900000004 11.054957670000002 -5.42651922 -1.045957 -2.663112 -0.444001
22520 -0.38993769 15.35776101 -2.8159408800000003 -0.783112 -1.042899 0.144349
22540 -1.5994224000000004 14.61306429 -0.028439190000000003 0.445954 1.999797 0.343452
22560 -3.2259400200000004 13.10838687 2.5512965100000002 2.283358 3.0159860000000003 0.369939
22580 -4.8497697 9.628730820000001 4.17272274 1.291667 1.195617 -0.14847
22600 -1.7245685700000002 6.39844497 0.9093575700000001 0.215521 -0.32222399999999995 -0.324958
22620 -0.11061756 7.56227394 1.0955709900000001 -0.694416 -1.105787 -0.189304
22640 -2.59650099 11.16363285 -0.92208114 -1.961056 -2.473998 -0.323517
22660 -3.55959774 9.090593460000001 -3.6456706800000003 -1.165485 1.07377 0.218014
22680 -2.55862458 6.90619095 -2.16958941 2.429347 4.009999 0.21586100000000005
22700 -3.0012615900000004 5.34942243 -1.3066331400000002 1.3141770000000002 1.04731 0.15632
22720 -3.6043509600000005 5.70897855 -0.8089129800000001 3.306104 2.101001 0.260751
22740 -2.49021945 5.52561003 -0.13053186 3.548982 1.530176 0.01001
22760 -2.24862858 4.67537733 0.4801995 3.748593 1.193345 -0.112078
22780 -1.5106615200000002 7.78575555 -1.49464179 3.3680220000000003 0.228803 -0.197889
22800 -0.6873670799999999 12.981602429999999 -3.86646435 1.885851 -0.237042 0.101071
22820 1.60301286 13.954283550000001 -9.16828866 0.650958 -1.361565 0.270143
22840 2.12707287 10.559640960000001 -8.33766615 -0.206072 0.163122 0.676672
22860 2.681073 6.476728770000001 -5.484741570000001 -0.105973 0.638452 0.003783
22880 0.77958108 4.76174457 -4.609817100000002 -0.523208 -0.31687 -0.224371
22900 1.30378824 5.635482030000001 -2.6399102400000003 -2.022237 0.403189 0.02595
22920 -3.5199261 8.318801520000001 3.81646278 -2.653193 0.209776 -0.076485
22940 -10.82773845 19.40669136 1.82186415 -3.192349 -0.294678 -0.263339
22960 -4.1116456800000005 18.76632399 3.04945812 -3.948416 -1.138087 -0.479048
22980 -0.8122091400000001 12.883257180000003 -13.08324384 -3.455455 -2.008164 -0.17111400000000002
23000 2.5677576899999996 19.49994522 -6.81038649 -2.819001 0.742256 -0.159511
23020 -1.5275739600000002 10.00774017 6.70455621 -1.252932 0.869224 -0.23526
23040 -2.71311246 7.52200389 3.7854828 -0.066866 -1.576515 -0.231319
23060 -2.0568725100000003 6.70335939 2.09578878 0.6806979999999999 -1.562425 -0.140658
23080 -2.70831537 8.89525674 2.21838435 0.989425 -0.15043199999999998 -0.001442
23100 -2.2638929400000003 12.220434720000002 -5.90447223 0.327798 -2.41678 -0.100367
23120 -3.7308411 15.041623950000002 -19.022443470000002 -0.302345 -2.793758 0.14674600000000002
23140 -1.53011475 10.882664640000002 -3.8761860599999998 0.18901 0.213927 0.416584
23160 -2.2688273700000003 9.81688662 -8.352027990000002 -0.713976 0.7214189999999999 0.295327
23180 -1.82246256 11.33503317 -8.53135479 -0.888793 0.995683 0.058746000000000013
23200 -3.5717229000000006 10.743460740000002 -0.6328823400000001 2.750967 3.24583 0.29493
23220 -3.23267949 6.01972992 2.6649061200000004 1.783828 1.565441 -0.085686
23240 -1.37309589 4.77118179 4.35803364 0.431125 -0.161727 -0.421934
23260 -1.41964434 6.4155045600000005 5.532643800000001 -0.488176 -1.191088 -0.347988
23280 -1.00530918 12.248726759999998 3.5831025000000003 -1.098848 -1.284825 -0.35320100000000004
23300 -0.9159498899999999 11.3863689 -1.4055768 -3.024716 -2.168002 -0.266177
23320 -2.4716589300000007 8.48360952 0.13921371000000002 0.022883 2.578448 -0.139877
23340 -4.51311012 7.66600488 0.55100808 0.680107 1.746806 -0.261339
23360 -5.17308768 6.979383360000001 -2.3921783100000003 0.5145430000000001 0.8744360000000001 -0.14066800000000002
23380 -3.0463189200000005 6.3502484400000005 -2.61716085 1.887101 1.389933 0.025287
23400 -2.7223927199999998 5.79669957 -1.9002951000000001 2.272972 0.955507 -0.094306
23420 -3.15019701 8.69376915 -1.7525565 2.931842 1.189188 -0.228872
23440 -4.54275594 11.86373331 -1.9646683200000001 3.501207 1.714948 -0.33452800000000005
23460 -1.9258992000000001 13.049860409999999 -1.1576879100000002 3.532196 0.08795900000000001 -0.549075
23480 3.9113647200000004 13.32049869 -9.516759480000001 2.773565 -0.943406 -0.380001
23500 3.52637127 9.038953620000001 -8.55396684 0.79794 -0.5234800000000001 0.214548
23520 3.1433103900000003 3.20663394 -2.7276312600000003 -0.5660390000000001 0.985943 0.8814069999999999
23540 1.2578382000000001 1.96436421 -0.26719497000000003 -0.7724310000000001 1.400755 0.68929
23560 -1.9440084600000003 4.68840501 -4.432432680000001 -1.18422 1.402211 0.682139
23580 -2.19668463 10.22253993 -1.27205289 -2.491834 1.340259 0.52567
23600 -4.59214929 19.92206952 5.614675020000001 -3.050402 0.472933 0.259029
23620 -6.64108551 17.5144797 -0.04969746 -3.080119 -0.550258 0.150106
23640 -11.173217220000002 31.362030450000002 -28.468404180000004 -2.617281 -0.6423300000000001 -0.136031
23660 5.908661100000001 8.97518862 8.73553032 -1.737223 -0.740037 -0.440611
23680 -2.5753898700000004 6.780897629999999 5.1828192 -0.965417 -0.6958529999999999 -0.969388
23700 -2.41942068 7.017554070000001 3.6268060500000003 -1.945162 0.182355 -0.492384
23720 -2.4062458500000004 8.42537736 3.64027518 -1.421835 -0.8274389999999999 -0.435092
23740 -2.23110792 9.343122480000002 2.40130161 -0.553483 -2.743719 -0.426571
23760 -1.3684557600000002 12.759317639999999 -9.070836120000001 -0.125552 -1.938963 -0.116965
23780 -2.89976733 11.66059764 -7.21768788 -0.190298 -1.371973 0.139298
23800 -0.5975565300000001 9.55463589 -3.3271301700000007 0.065261 0.452983 0.415414
23820 0.36059598 12.01776012 -6.659204580000001 0.866663 1.254264 0.471259
23840 0.7309332900000001 11.84276934 -9.55987443 0.433715 -2.755126 -0.028691
23860 -2.1920445 10.548418320000001 -7.55478891 -0.248646 -4.411004 -0.126407
23880 -2.9334450600000004 9.30734541 -6.20938665 -1.136311 -0.5371229999999999 -0.29032800000000003
23900 -2.7578656800000005 8.59168629 -0.25597233 0.486775 2.274595 0.318816
23920 -2.7222357600000002 6.658449210000001 2.2011678 0.605432 1.7697889999999998 0.714465
23940 -2.6973870300000002 5.15019114 4.559217120000001 1.281296 3.3405050000000003 0.27065700000000004
23960 -1.10035827 5.34583197 5.40930267 0.54804 1.157876 -0.188867
23980 0.97851807 8.20878237 1.52922204 -0.050998 -0.870499 -0.445758
24000 1.8046476000000002 9.41886549 0.04431177000000001 -1.170106 -2.219747 -0.38882
24020 -1.06653339 10.26041634 0.18905832000000003 -0.546288 1.525869 0.108529
24040 -7.52111118 11.383376850000001 -1.94790303 1.636603 2.610718 0.247368
24060 -5.682785850000001 12.00728304 -5.214407400000001 1.249798 0.991927 -0.05663500000000001
24080 -2.74528926 9.44041806 -5.760618389999999 2.461724 1.606012 0.102731
24100 -2.1607604100000004 9.28039734 -4.753818090000001 3.394216000000001 0.624992 0.068841
24120 -2.7732870000000003 6.09592419 -2.7196949700000004 3.3734300000000004 0.594788 -0.085089
24140 -3.3416489700000005 4.662957870000001 -1.12910157 3.319207 0.608937 -0.11326
24160 -5.498966070000001 8.784786330000001 0.6890151600000001 2.173721 0.577264 0.009103
24180 -0.5566880700000002 11.17307007 -5.313949470000001 0.460355 -0.418947 -0.059273
24200 2.66206122 11.342665349999999 -8.30892285 -0.666211 0.0316 0.134175
24220 3.26666133 10.431954 -5.241502620000001 -0.784493 1.606123 0.491322
24240 4.04862624 7.601945580000001 -3.36500658 -0.586962 0.946802 0.033143
24260 3.9303765000000004 4.3063938 -1.15859043 -0.920431 -0.41659 -0.250518
24280 0.01062423 1.81617435 1.7078032800000003 -1.814111 -0.747152 -0.193312
24300 -2.52001242 5.469624360000001 1.7823396599999999 -2.651624 -1.4409999999999998 -0.177977
24320 -4.35743523 12.9595986 -1.19047293 -3.289043 -2.567693 -0.25042
24340 -10.59063075 22.4368434 -0.83990277 -2.617422 -3.460452 -0.551164
24360 -3.7889163000000003 15.47437248 -1.6190325900000002 -2.1338790000000003 -1.202741 -0.00375
24380 -2.7735813000000005 15.45281991 -13.529912760000002 -2.1344990000000004 -0.374022 0.013344
24400 1.0623445200000001 15.04700964 -0.20192904000000003 -0.978877 -1.608093 -0.06887
24420 -2.3643375300000002 9.179805600000002 5.46513138 0.049763 -1.816187 -0.069964
24440 -2.24083944 8.05086099 2.65817646 0.367111 0.00412 -0.016669
24460 -0.76102056 8.44034742 0.51822306 0.926422 0.668613 0.357059
24480 0.6423097500000001 12.46622427 -6.5411019900000005 0.839766 -0.371599 0.5575439999999999
24500 -0.16136469000000003 13.45057929 -12.34348155 -0.119141 -1.140042 0.684291
24520 -3.6964178100000002 12.242291400000001 -5.6971575 -1.217464 -1.080762 0.13281800000000002
24540 -1.5849035999999999 10.896143580000002 -6.897352140000001 -1.425185 0.382608 -0.1397
24560 2.7057745800000004 10.758725100000001 -5.8451904 -0.86998 0.556341 0.420499
24580 -0.76386546 8.77909653 -0.88001586 1.606527 4.17475 -0.044334
24600 -4.553978580000001 4.3989021 2.35505727 0.827673 1.263102 -0.105864
24620 -4.55263461 2.08262376 4.30954281 -0.429159 -0.595986 -0.302404
24640 -3.86032329 2.30400603 4.75141464 -1.607885 -1.725394 -0.292099
24660 -4.0621051800000005 8.93027844 2.8298612700000003 0.28496 2.703569 0.310447
24680 0.6509916 14.05188324 1.1795445900000001 0.990277 1.576984 0.11278699999999997
24700 1.7697730500000002 12.270279330000001 -0.81311166 1.553224 -0.087348 -0.28173200000000004
24720 -1.93008807 9.1766664 -1.46979306 2.615636 0.301129 -0.316469
24740 -4.0200399 8.69197392 -1.80914058 3.4531110000000003 0.637604 -0.205296
24760 -5.08642614 9.95369688 -2.8473819300000005 4.077737 -0.093766 -0.332456
24780 -4.790791980000001 10.639121580000001 -3.37608207 4.201493 -0.967186 -0.732123
24800 -3.6929745 10.36594251 -3.70135224 3.844431 -1.318735 -0.6871649999999999
24820 -3.9300821999999997 7.805071440000001 -1.8131823 1.741593 -0.897423 0.203459
24840 -2.28469995 9.11948391 2.88599409 -0.88756 0.8202459999999999 1.038539
24860 0.8994789 13.67166726 -9.02967336 -0.768836 1.495741 1.174166
24880 1.7961129 9.82886463 -9.89308089 -0.860667 2.108924 1.091554
24900 2.66789817 4.585713930000001 -5.33430522 -1.642571 1.512502 0.937306
24920 3.4682862600000006 1.3031898300000002 -3.33940248 -1.936264 0.633901 0.5966859999999999
24940 1.19166975 -0.06002739000000001 -0.49143195 -1.807564 -0.706617 0.053441
24960 -3.0826944000000003 3.3108161400000005 2.21689323 -1.849296 -1.249816 -0.4653100000000001
24980 -7.238200590000001 13.46629491 1.5087093300000003 -1.818774 -1.222927 -0.821918
25000 -10.00264878 27.385399800000002 0.27707364 -1.570375 -1.66098 -0.980923
25020 -3.45751488 14.410978290000001 -2.07708111 -1.166059 -2.677251 -0.799471
25040 -2.9213297099999997 15.199388370000001 -15.841109520000002 -1.137398 -2.25754 -0.822242
25060 1.03046202 14.198277870000002 2.18485377 -1.097429 -1.2825030000000002 -0.66832
25080 -1.84042467 9.70507224 4.71160566 -0.6792600000000001 -1.174826 -0.7851779999999999
25100 -1.6381915200000001 7.984996649999999 1.6075058400000002 -0.356341 -0.674404 -0.202451
25120 1.5655975200000003 9.87720831 -6.259388220000001 -0.384897 -0.321829 0.096
25140 3.6549509400000004 13.104649260000002 -9.01709694 -0.001129 0.556975 0.573982
25160 -1.66229469 13.35388212 -7.993531350000001 0.531432 0.17460699999999998 0.6283979999999999
25180 -3.2540849100000004 10.757979540000001 -6.0953257800000005 1.0617219999999998 -1.186746 0.684053
25200 -0.08337519 10.512189990000001 -7.29582453 3.614412 -2.04793 -0.08536
25220 1.80090018 11.325301650000002 -4.51685754 2.972166 2.442524 0.125521
25240 -1.4593159800000002 10.778933700000001 -1.39150926 -1.982159 -5.150163 0.274765
25260 -2.98988199 8.28257319 2.5247997 0.591698 -0.525617 -0.669241
25280 -2.8984233600000002 6.59558673 5.0807363400000005 0.713903 -0.613479 -0.647979
25300 -2.48333283 7.199725770000001 4.94481879 0.546638 -1.838554 -0.5012310000000001
25320 0.1130112 11.429778149999999 2.85037398 -0.657371 -2.204726 0.2044
25340 2.23739613 14.50992195 -1.22460192 -1.90724 -1.715038 0.5731930000000001
25360 -3.2668084800000003 11.90190402 -1.89296703 -2.739912 -2.375392 0.732729
25380 -5.73442569 9.11948391 -4.26448548 -2.760016 -3.611758 0.645511
25400 -2.7725316300000005 7.162908840000001 -3.8327768100000004 -1.096185 -2.254527 -0.014382
25420 -3.1916638800000006 6.537658680000001 -3.2242919400000005 -0.438161 -0.990956 -0.35644000000000003
25440 -2.50114779 5.64236865 -3.1612725 -0.640045 -0.579972 -0.12871
25460 -1.89625338 5.86585026 -2.38514454 -0.905981 -0.472137 0.041278
25480 -2.0408527800000003 7.43010381 -2.00777346 -1.230257 -0.636367 0.100112
25500 -2.23485534 7.304064930000001 -2.0547731700000003 -1.448125 -0.633796 -0.087283
25520 -3.4009308000000007 7.591909950000001 -1.9730460600000002 -1.312418 -0.429522 -0.405995
25540 -3.4935862500000003 8.960816970000002 -2.90770362 -1.123459 -0.122599 -0.600553
25560 -2.8620478800000004 13.01378904 -7.191946440000001 -1.19054 0.11637 -0.629102
25580 1.8709632 11.808797310000001 -11.89830375 -1.159452 0.243714 -0.533976
25600 6.57822303 11.46421125 -11.12201883 -0.863454 -0.118369 -0.285754
25620 4.55472414 8.97279498 -5.351521770000001 -1.024299 -1.459099 -0.259522
25640 2.7129555000000005 7.49057265 -4.82551938 -0.577504 -2.071776 -0.34427800000000003
25660 -2.93420043 10.344242790000001 -9.743390100000001 0.078112 -1.456389 -0.560541
25680 -7.940841840000001 18.66812589 -10.30397274 0.8934129999999999 -1.272416 -0.6544270000000001
25700 -3.27204702 10.23646032 19.520752230000003 1.95351 -1.618089 -0.909361
25720 -13.82180931 21.5458992 0.55280331 2.8439 -0.707553 -1.079497
25740 -6.086045520000001 19.29757473 12.27477231 3.375961 0.098366 -1.150521
25760 -0.00373761 9.164089980000002 -2.0041830000000003 4.670987 -1.198889 -0.738161
25780 1.30349394 11.55207942 3.97617939 4.618911 -3.06777 0.201769
25800 0.8190957600000001 12.701840850000002 8.00745174 3.743207 -1.48536 0.308992
25820 -1.06967259 13.15045215 6.693333570000001 3.52127 -0.469667 0.379848
25840 -3.0636826200000002 12.713063490000001 3.26321802 2.7126360000000003 -0.255658 0.575819
25860 -5.301824310000001 12.04320726 -3.11128074 1.243324 0.24464 0.878972
25880 -7.81165395 10.147846590000002 -4.082156820000002 0.451174 0.598229 1.58549
25900 -5.20048701 7.5975997500000005 -1.81168137 0.55248 0.654176 1.891637
25920 -1.2115840500000001 7.66436661 0.09864936 0.7093649999999999 -0.508637 1.904905
25940 0.5605826400000001 6.286630590000001 0.78841008 0.059636 -1.6612630000000002 1.934959
25960 -0.6122224800000001 5.573208149999999 0.027242370000000002 -0.164352 -2.788904 1.741491
25980 -2.7837640800000005 7.27965765 0.14564907000000002 0.263499 -3.715342 1.283127
26000 -4.66834356 8.24141043 0.7954438500000001 0.261917 -3.870812 1.003441
26020 -4.12737111 8.223899580000001 0.9695321100000001 0.452769 -3.698856 0.726816
26040 -2.53962261 9.19747341 0.6436635300000001 0.2953 -3.360745 0.49241
26060 -1.2234051000000001 10.516084560000001 0.39756987000000005 0.205499 -3.202615 0.453124
26080 0.20671632 10.10039562 0.38604312 0.4451640000000001 -3.310952 0.431436
26100 -0.16794720000000002 10.719063270000001 -1.5938895600000003 0.685625 -3.369775 0.281504
26120 -2.4920146800000005 11.384426520000002 -3.69102231 0.855525 -3.426363 0.166327
26140 -3.7320379200000002 10.96918884 -2.78660898 0.85241 -3.416726 0.15667899999999998
26160 -3.58968501 12.151431180000003 -5.360654879999999 0.622085 -3.175078 0.132328
26180 -1.69611957 11.62392786 -6.459669180000001 0.268368 -3.005882 -0.047685000000000005
26200 -1.14421878 12.56607045 -7.58802519 -0.159123 -2.609627 -0.202866
26220 -0.09086022 14.282997029999999 -4.02498414 -0.566696 -1.876465 -0.178879
26240 1.26786402 14.099481360000002 -0.8238830400000001 -0.615966 -1.492492 0.011497
26260 4.100118930000001 19.14114447 0.73033488 -0.039956 -1.077617 0.456164
26280 5.2175466 19.95695388 4.75994934 0.107723 -0.570678 0.627462
26300 2.2010206500000002 15.642918090000002 8.168816430000001 -0.238978 1.094511 0.6207699999999999
26320 0.25566822 13.28981301 7.7251395600000015 0.198376 2.337676 -0.020838
26340 -0.46178613 12.29617773 6.383327760000001 1.031516 1.324211 0.4189100000000001
26360 -1.30184586 12.65363451 4.23679185 1.042253 -0.302691 0.199948
26380 -0.30521853 11.79127665 3.38326299 0.666048 -2.425449 -0.356503
26400 1.0159334100000001 9.87002739 3.3010846200000006 0.035348000000000004 -2.947436 -0.608067
26420 0.64770525 8.18977059 5.68517949 0.289425 -1.8930240000000005 -0.775355
26440 0.6409657799999999 7.4705112 6.30624078 1.092051 -1.933717 -0.885064
26460 -1.42248924 8.5547124 5.025947490000001 0.859125 -3.899335 -0.637413
26480 -1.64657907 8.72445483 3.94564086 -0.449445 -5.548527 -0.266289
26500 -1.9655610300000002 9.02682846 4.0314195 -0.5506840000000001 -3.931757 -0.099221
26520 -2.65847076 8.322391979999999 2.3575980600000004 -0.448253 -1.5605719999999998 0.373815
26540 -3.4623021600000006 9.5555286 0.9907903800000001 -0.5892970000000001 -1.010783 0.73532
26560 -3.10065651 11.11603473 -0.17573634 -0.924117 -0.64352 0.82331
26580 -3.32488368 11.33472906 -0.7697024100000001 -1.21839 0.279246 0.7527739999999999
26600 -3.3648496199999998 10.30741605 -0.6487549200000001 -1.003545 -0.434028 0.185826
26620 -3.4211394 9.099128160000001 0.5171733900000002 -0.698923 -1.598072 -0.153453
26640 -3.4596044100000003 7.7228930700000005 1.2295461600000002 -0.8295 -1.571574 -0.272972
26660 -3.31096329 6.2842271400000005 0.88061427 -1.058958 -0.594097 -0.22882600000000006
26680 -2.31194232 5.648205600000001 0.29982303 -1.25769 0.048974 -0.234243
26700 -1.00291554 6.48002493 -0.13921371000000002 -1.2292459999999998 0.1938 -0.24598000000000006
26720 -0.7788257100000001 8.9537832 -1.12266621 -1.080554 -0.230547 -0.282854
26740 -1.0065060000000001 12.35276181 -6.0873894900000005 -0.947718 -1.34085 -0.326436
26760 1.59733287 12.033927 -5.385503610000001 -0.677971 -2.508503 -0.26644
26780 3.74102388 10.208923650000001 -1.21682259 0.049547 -3.727545 -0.272615
26800 1.7600415300000003 13.345200270000001 0.13352391000000002 2.18252 -3.124016 -0.668687
26820 -3.0747581100000003 19.547847450000003 -0.07663572 2.638551 -0.31695100000000004 -0.813308
26840 -4.339178820000002 11.407627170000001 -0.9234251100000002 3.031968 0.5669489999999999 -0.818102
26860 -4.04204373 4.224068280000001 1.7283061800000001 4.533048 -0.8210790000000001 -0.528101
26880 -4.253400180000001 2.78481375 3.2968957500000005 5.077886 -0.285457 -0.14896700000000002
26900 -3.6565990200000003 6.5208933899999995 5.58788391 4.695876 -0.8568020000000001 0.005057
26920 -2.9632380300000003 10.331519220000002 4.81713183 3.956963 1.011699 0.110733
26940 -2.3989079700000002 12.938497290000003 3.3910521300000003 2.610276 1.348226 0.503614
26960 -1.86931512 13.96700712 -0.25057683000000003 1.222887 1.469477 0.954172
26980 -1.70704791 11.951150220000002 -1.27355382 1.313043 2.098709 1.228528
27000 -0.10956789 10.48674285 2.5813837800000003 1.367924 1.371525 1.347348
27020 0.5999501700000001 9.85759812 2.07394191 1.148482 0.474354 1.323464
27040 -0.7749409500000002 10.34678358 0.54097245 0.884869 0.211107 1.316619
27060 -2.95081857 9.42740019 1.00246428 0.5035729999999999 -0.390373 1.280543
27080 -4.8993102 8.326286549999999 1.54119024 0.306648 -1.255801 1.024971
27100 -5.58428364 8.90932428 -1.14780924 0.145065 -1.504055 0.643874
27120 -4.17047625 8.163725040000001 -1.09707192 -0.228381 -1.436163 0.240595
27140 -2.09714256 8.01613359 -0.026192700000000003 -0.588259 -1.287953 -0.014209
27160 -0.9081607500000001 8.77070898 0.72060336 -0.906108 -0.943227 -0.165354
27180 -1.2029022 9.65836683 0.3013239600000001 -1.211565 -0.401672 -0.26539
27200 -1.05874425 9.71045793 0.17289144 -1.519826 -0.141873 -0.498612
27220 -0.36808101 9.02532753 -0.13831119 -1.828775 -0.30803800000000003 -0.767612
27240 0.37137717000000003 10.136172690000002 -1.52173701 -2.048054 -1.210369 -0.833149
27260 0.76401261 11.623025340000002 -2.84348736 -2.172009 -3.187795 -0.391374
27280 -0.10223982000000001 12.092002200000001 -6.525376560000001 -2.550918 -4.517422 -0.022712
27300 -3.3153091199999998 11.68844823 -8.821750410000002 -1.530058 -2.138118 0.021963
27320 -4.85740188 10.523569590000001 -5.503900500000001 -0.493624 0.211149 0.371227
27340 -3.68773596 10.58553936 -3.09092499 0.253657 0.26318400000000003 0.563319
27360 -2.7407962800000005 11.234284470000002 -4.569998310000001 0.682379 -1.113922 0.650332
27380 -2.410591680000001 18.78923034 -1.5819115499999998 1.153637 -1.318593 0.276803
27400 -0.86999004 19.597996170000002 2.7542752200000002 1.499464 -0.019628 -0.120892
27420 -1.12116528 15.330224340000001 8.39364201 0.79202 -2.255838 0.27441
27440 -0.14804271000000002 14.75840925 8.565336630000001 -0.5403819999999999 -1.076989 0.466555
27460 -1.6239768300000001 12.936702060000002 3.20468175 -0.797728 0.220657 0.388319
27480 -1.3208576400000003 11.816125379999999 0.6159699000000001 -2.348075 -2.985619 -0.182423
27500 -2.4159773700000002 11.02383054 -0.3013239600000001 2.470488 5.563373 0.92773
27520 -2.14967511 10.287805859999999 -0.5300441100000001 2.351767 2.817673 0.619567
27540 -1.2555917100000002 8.18587602 0.7439511600000001 0.898243 1.638374 -0.240448
27560 -0.06182262000000001 6.28228476 0.960399 -0.167905 0.210083 -0.17663
27580 -0.4391838900000001 4.50743013 0.7890084900000001 -1.29747 -2.417855 -0.02092
27600 -1.17146115 4.058514720000001 1.0876347 -1.732986 -3.315948 -0.15954300000000002
27620 -1.7950632300000002 3.09016962 0.86685084 -2.97118 -2.893526 -0.560771
27640 -3.00799125 2.87103384 0.5007122100000001 1.263204 6.0249190000000015 0.572602
27660 -3.76810929 3.04062912 0.77478399 2.993726 2.475647 0.347819
27680 -3.7820394900000003 2.9240176500000006 1.08105219 2.371286 -0.768059 -0.191824
27700 -3.83293377 3.6283069800000005 1.10380158 3.881273 -0.256945 -1.178582
27720 -4.34950875 4.9804389 0.74799288 3.524792 0.720073 -0.643941
27740 -3.7998446400000003 6.43601727 -0.28245933 3.418051 0.045926 -0.594684
27760 -2.5592328 10.51713423 -1.4275806300000002 2.908257 -0.699824 -0.6709970000000001
27780 -0.39667716000000003 11.424098160000002 -5.0983943400000005 1.567835 -0.520361 -0.166775
27800 0.19474812000000002 11.701171800000001 -6.68389635 0.173817 0.330353 0.352236
27820 1.26187992 12.08946141 -6.37134975 -0.692883 0.855874 0.485446
27840 1.4154554700000002 9.69429105 -5.608386810000001 -1.54542 2.308599 0.769254
27860 -0.13321980000000003 7.956998909999999 -5.49117693 -1.589399 1.739952 0.488733
27880 -1.23343092 4.79931687 -4.55712759 -1.697407 0.319963 0.310337
27900 -0.41433516000000004 5.41903419 3.57382224 -2.93956 0.117118 0.166256
27920 0.8746301700000001 8.87459688 2.29233213 -3.620782 -0.093314 -0.16510899999999998
27940 -5.6118301200000005 13.126800240000003 3.0662234100000005 -3.142766 -0.756995 -0.841377
27960 -8.26116777 17.15702292 0.37976472000000006 -1.7667099999999998 -0.839433 -0.865842
27980 -8.22000501 18.84117429 -6.386771070000001 -1.221468 -0.6979270000000001 -0.495815
28000 5.40136638 28.37379654 -22.71915558 -0.757677 -1.378526 -0.393427
28020 2.29502988 7.30361367 8.70020451 -0.560686 -1.7973689999999998 -0.25050900000000004
28040 -3.4290658800000005 8.46773694 4.15490778 -0.619438 -1.275326 0.051787
28060 -2.8877991300000003 8.610246810000001 5.76496422 -0.652754 -0.29856900000000003 0.371837
28080 -2.76400674 9.612858240000001 3.3876088200000005 -0.447303 0.713021 0.299337
28100 -2.76460515 12.1756815 2.32736364 -0.040231 0.154371 0.324261
28120 -2.54605797 12.40095834 2.3556556800000004 0.829926 -0.041071 0.226972
28140 3.24659988 15.68768112 -27.09470988 1.23107 0.993914 0.7935369999999999
28160 -1.8190192500000002 11.944263600000001 -17.84184921 0.107693 0.610599 0.389871
28180 -6.750663210000001 9.939776490000002 0.70458363 -1.850584 -2.645527 -0.148405
28200 -8.26102062 6.88358871 -8.24635467 1.678057 4.098044 -0.370612
28220 -1.18882485 5.947577370000001 -1.37758887 2.09625 2.350184 0.266936
28240 0.23096664 3.40841583 3.24555021 0.392517 1.461862 -0.415738
28260 0.53932437 1.70764632 3.8583809100000006 -0.6156510000000001 -0.8433139999999999 -0.361074
28280 -0.12529332 2.47240449 4.00492269 -1.540331 -2.555656 -0.24783400000000005
28300 -1.10080953 5.6946069 4.271215140000001 -2.041758 -0.945016 -0.06539400000000001
28320 -2.40863949 16.90688754 2.97775683 -0.253924 1.379528 -0.045202
28340 -3.1540915800000002 15.656838480000001 0.5029587000000001 0.429723 1.189153 -0.182256
28360 -3.2766871500000003 8.47837098 -1.84087593 1.036151 1.968116 0.029285
28380 -3.8251446300000005 7.6772373300000005 -1.5296733000000002 2.030664 2.081526 0.109793
28400 -7.084919340000001 7.706422080000001 -1.7738147700000002 2.809078 0.938202 -0.227272
28420 -6.20969076 7.47081531 -2.5509924 3.3840760000000003 1.2883 -0.098722
28440 -4.46117598 8.37223659 -3.95716761 3.394658 1.420811 0.053938
28460 -2.88256059 11.92300533 -5.90102892 2.90097 0.991166 0.033948
28480 -0.26539974000000005 13.661641440000002 -6.444100710000001 1.602577 0.640358 -0.08897100000000001
28500 1.30154175 9.816582510000002 -5.791304070000001 0.0369 -0.903218 -0.33187
28520 1.03465089 9.09688167 -4.816239120000001 -0.955477 0.544836 0.441281
28540 0.008681849999999998 9.25121259 -2.7906507 -1.176098 1.535283 0.430993
28560 0.19369845 8.87878575 -2.1055203 -1.465179 0.74822 0.105243
28580 0.35566155000000005 6.82939827 -2.04684669 -2.017425 0.265837 0.004796
28600 -0.29548701 5.6359332900000005 -2.0718425700000003 -2.6495580000000003 -0.196947 0.133433
28620 -1.3623147 6.96636549 -6.323447520000001 -3.244205 -0.617401 0.033678
28640 0.25327458 9.29776104 -2.9175822900000004 -3.493147 -2.488872 -0.337404
28660 -4.81114773 10.27058931 2.9316498300000005 -2.276766 -5.025677 -0.76256
28680 -7.83320652 14.446156950000002 -0.47660904000000004 -1.107375 -2.025042 -0.383291
28700 -13.43515797 24.283703430000003 -10.18781253 -0.287922 0.43793 -0.308084
28720 8.123906250000001 14.90614785 -3.3087168000000005 -0.241125 -0.439487 -0.441229
28740 0.81416133 5.86180854 4.71175281 0.150577 -0.8288190000000001 -0.387787
28760 -1.9154123100000002 7.880510340000002 3.9098736000000005 2.348019 -0.826042 -0.057316
28780 -1.3964436900000001 10.127490839999998 1.02282003 2.548296 -0.184035 0.655764
28800 -1.15664805 11.431426230000001 -0.45161316 -0.998882 -1.9615080000000005 0.94839
28820 0.01751085 11.68216002 -4.74782418 -1.570907 -0.417957 0.38801
28840 -1.0493168400000001 9.49625658 -5.52800367 0.43767 2.798658 0.374417
28860 -1.65526092 9.84098979 -5.57231544 2.175624 3.1212 -0.006963
28880 -1.3913522999999999 12.21100731 -11.379639240000001 0.127419 0.134606 -0.205449
28900 -2.9315026800000004 12.98325051 -10.333157490000003 -1.171794 -1.852237 -0.119043
28920 -2.89648098 9.968372640000002 -3.41155503 1.797569 3.116981 0.3098
28940 -2.20671045 7.68621348 -3.40541397 1.210108 1.873348 0.400226
28960 -3.4211394 6.3179146799999994 0.38185425 2.660813 1.400282 0.229368
28980 -3.54567735 4.43542473 3.92633478 3.561774 1.257445 -0.261947
29000 -2.69020611 4.032616320000002 4.90320477 3.4674089999999995 1.070717 -0.10427
29020 -2.5715051100000004 9.98109621 4.28154507 3.00611 0.95514 -0.371195
29040 0.22153923 13.977180090000001 0.86669388 1.041493 -0.348256 -0.391794
29060 1.91332278 10.7239977 0.16165899 -0.657616 -0.222908 0.103583
29080 -1.81273104 8.080192890000001 -0.57884886 -1.305454 0.629728 0.294518
29100 -2.93584851 8.60350734 -1.17535572 -1.150102 0.510939 0.029768
29120 -4.06315485 8.288262990000002 -1.29615606 -2.040326 0.988751 0.126555
29140 -5.25377493 9.69234867 -0.15148602000000003 -2.416453 0.26392 -0.235134
29160 -4.53108204 9.66585186 -1.04677605 -2.406153 -0.456649 -0.399714
29180 -3.8923529400000003 7.123835610000001 -1.8904164300000001 -2.80234 -1.085731 -0.712527
29200 -2.3204770200000002 5.974525440000001 -2.12826969 -2.751497 -2.190413 -1.024814
29220 3.67141212 9.0001845 -12.42491436 -1.276634 -1.552625 -1.425526
29240 5.61527343 5.545073070000001 -11.89905912 -1.162051 0.7112109999999999 0.04011
29260 4.22675622 1.84117023 -12.68163225 -0.990376 -0.332 -0.03213
29280 -1.05426108 4.831650629999999 -11.80595241 -0.584464 -1.795438 -0.180175
29300 1.015335 12.97306773 7.32127167 0.060446000000000014 -2.203478 -0.462499
29320 -5.19554277 20.49912315 8.125407180000002 0.947057 2.074994 0.018911
29340 -5.47127244 16.21652841 2.64395196 1.51596 2.081105 0.926593
29360 -6.111786960000001 18.598229640000003 -17.455197870000003 -0.25108800000000003 -1.938725 0.996313
29380 -0.51073803 13.74142617 4.2050564999999995 -2.079545 -5.9103949999999985 0.531432
29400 -2.15327538 10.60185339 4.08545298 0.901855 0.363947 -0.420387
29420 -2.08157409 9.61689996 0.08412075 0.649479 0.76122 0.348597
29440 -0.89199387 15.04356633 -12.740158710000001 0.381893 2.888662 0.292727
29460 -2.4161245200000003 15.75518373 -7.127426070000001 0.292995 1.63393 0.06297799999999999
