time Ax Ay Az Gx Gy Gz
20 -0.31344912 8.05579542 0.36673704 1.968809 0.399775 0.083743
40 -0.03367773 7.5320395200000005 -1.7322007500000003 1.778587 0.023715 0.252743
60 0.7113231000000001 6.327037980000001 -3.72650508 2.355204 -0.085739 0.75043
80 -0.01062423 5.516781030000001 -2.95171128 3.005113 -0.5331359999999999 0.980937
100 -1.21847067 6.21732294 -1.33806438 3.118393 -1.079559 0.8670610000000001
120 -1.40856885 8.67790638 -0.22168638000000002 2.3699220000000003 -0.483753 0.637811
140 0.8107180199999999 10.59586929 -1.0731159000000003 1.178736 1.325078 1.138851
160 3.4840018800000006 10.31160492 -3.20079699 -0.5423859999999999 1.783679 1.165765
180 3.68922708 9.57513879 -5.61287979 -0.977951 0.987182 0.662747
200 1.46859624 8.84121345 -3.91211028 -0.771004 1.064733 0.270988
220 0.03922038 10.46683836 -4.4560845900000015 -1.1021299999999998 0.494715 -0.216636
240 1.25050032 15.67914642 -4.5927477 -1.440543 0.279149 -0.626784
260 3.07580778 18.85553613 -3.9381558300000004 -1.567383 0.270039 -0.902191
280 2.94482466 16.617090330000003 -3.1261036500000006 -1.552861 -0.144064 -0.987017
300 0.5836361400000002 15.673309470000001 1.61125326 -1.624723 -1.030717 -0.838968
320 -0.9361486800000001 15.76625922 2.03381901 -1.681656 -2.3586970000000003 -0.89428
340 -4.20580206 15.10568325 -3.0446708399999998 -1.408671 -3.323893 -1.116531
360 -2.27541969 8.328385890000002 -3.9224402100000004 -1.219591 -3.613771 -0.983448
380 -1.69447149 4.66071138 -0.61941321 -2.023605 -2.900684 -0.12578599999999998
400 -1.4106681900000002 5.92183593 -0.6304887000000001 -2.43811 -2.024002 -0.5549569999999999
420 -1.0797082199999999 5.76825057 0.21240612000000003 -0.917781 0.8895209999999999 -0.007551
440 -0.173637 5.2973313300000004 0.48184758000000005 -0.240627 0.761794 0.177873
460 -0.13247424000000002 5.5932696 -0.08996751000000001 0.010001 1.038717 0.239089
480 -0.29742939 5.93979804 -1.01085183 0.342191 1.026347 0.380294
500 -0.45774441000000005 5.73158079 -1.9865151900000002 0.4809060000000001 -0.082321 0.455323
520 -2.33020854 5.634138060000001 -1.4974866900000001 0.395352 -1.067441 0.464533
540 -2.2369448700000003 4.76788563 0.062116920000000006 0.5199199999999999 -0.494537 0.144202
560 -0.5298969600000001 6.5729844900000005 2.4975573300000002 1.520445 -0.843031 -0.152806
580 0.80427285 12.162810780000001 -5.22742527 1.426555 -1.607365 -0.204825
600 1.71977148 11.75850144 -10.398727530000002 1.8705 -0.417838 -0.226749
620 2.6801802900000005 10.01223315 -8.71816662 -0.296597 1.598137 -0.06500800000000001
640 2.19757734 7.051683060000001 -5.023553850000001 -0.418228 0.6175619999999999 -0.09558
660 1.52726985 5.284460610000001 -2.39636718 1.031388 0.360299 0.910458
680 0.42765714000000005 3.66018948 -2.16599895 0.70905 1.421645 0.57463
700 -0.45580203 5.21859627 -2.32720668 -0.583182 1.608093 0.091074
720 -1.34166465 12.912294780000002 -3.88307268 -1.555328 0.237718 -0.289975
740 -1.28762136 20.81107134 -1.2470570100000002 -2.137973 -0.563331 -0.593188
760 -5.833065240000001 21.87430857 -3.60121176 -2.375865 -0.135117 -0.6466729999999999
780 -0.75398679 16.47459027 4.05985869 -1.324066 0.8453780000000001 -0.337208
800 0.52960266 13.983772410000002 5.32233702 0.309651 0.571765 -0.196191
820 5.60284416 19.61790066 -2.87058258 0.4385520000000001 -0.325074 -0.338351
840 3.26081457 10.485840330000002 -4.27974984 0.08012799999999999 -0.653648 -0.442983
860 -2.6011411200000003 10.195895970000002 3.1990017600000002 -0.283447 -0.5768449999999999 -0.419984
880 -3.48055857 10.802134350000001 4.26448548 -0.172815 0.022791 -0.22129
900 -3.23447472 10.28720745 1.3584299400000002 0.445178 0.471699 -0.06479299999999999
920 -1.7322007500000003 11.70790146 -0.82043973 0.754633 0.8302459999999999 0.045868
940 -0.47691315 11.61210681 -1.7149842000000002 0.700498 1.069298 -0.014637
960 0.8665467300000002 10.18212273 -4.14548037 0.793408 1.250379 -0.091132
980 1.52592588 8.414753130000001 -6.258034439999999 1.183381 1.20507 -0.021052
1000 0.8051753700000001 7.262293950000001 -3.2694964200000003 1.953424 1.06435 0.136195
1020 -0.20522520000000002 5.980509540000001 -0.8675963999999999 2.295091 1.23645 0.490874
1040 0.022003830000000002 5.7233502 -0.87089256 3.097662 1.217256 1.131028
1060 0.7295795100000001 6.965610120000001 -2.26853307 3.524318 -0.567208 0.793396
1080 0.5565409200000001 7.46797041 -3.51484452 2.849719 -1.27464 0.8675709999999999
1100 0.10253412 7.13880567 -3.61632897 2.171393 0.617745 0.809133
1120 0.16256151000000002 7.36453377 -1.555866 0.7579859999999999 -0.13438 0.71263
1140 -0.20656917 6.849606870000001 -2.33753661 -0.245816 -0.592306 0.215891
1160 -0.1329255 7.78336191 -5.19659244 -0.90762 1.158527 0.376736
1180 0.90741519 9.65821968 -6.90095241 -1.253347 1.817065 0.094671
1200 2.2402410300000004 10.3160979 -5.70792888 -1.593401 1.808841 -0.21747800000000006
1220 3.5566056900000005 11.26152684 -6.04921878 -1.830153 1.443704 -0.6074970000000001
1240 2.77522938 16.03345419 -5.498220510000001 -1.952971 0.630446 -0.920302
1260 1.0093509 17.869238730000003 -2.74050198 -1.813846 -0.8872959999999999 -1.109665
1280 1.27011051 14.467111110000001 2.5677576899999996 -1.56352 -2.371144 -1.080378
1300 -1.7446202100000001 10.008338580000002 5.14091088 -1.492742 -2.931901 -0.7704489999999999
1320 -2.9835937800000005 10.12449879 0.07079877000000001 -1.621206 -3.354967 -0.6212529999999999
1340 -3.94264881 12.986997930000003 -0.36075294 -2.3359970000000003 -3.148859 -0.6617609999999999
1360 -2.80172619 10.73298366 -1.6913322899999998 -2.951292 -1.858942 -0.628188
1380 -2.37046878 8.09231805 -1.1966139900000001 -1.620016 -0.903755 -0.093479
1400 -2.02034988 6.123617820000001 -0.8102667600000001 -0.32215 -0.934097 0.241433
1420 -2.1023811 5.392086120000001 -0.6749476200000001 0.171319 0.399002 0.50275
1440 -1.7648288100000002 5.07370257 -1.14780924 0.475686 2.937278 0.840249
1460 -0.6155186400000001 5.8290333300000015 -1.67516541 1.432626 2.851252 1.010482
1480 0.09640287000000002 6.70575303 -1.40542965 1.2705959999999998 -3.257997 0.326039
1500 -0.36419625 7.62379245 -1.4473379700000002 1.133512 -3.976613 -0.996456
1520 -0.23381154 8.62746336 -1.4888048400000002 0.605218 1.971705 -0.227967
1540 0.41329530000000003 11.32649847 -2.14488783 -1.152477 1.694377 0.318791
1560 2.7683427600000003 13.404030839999999 -6.949747350000001 -1.233333 -0.253441 -0.020041
1580 4.794980850000001 10.93984713 -8.83073637 -0.306199 -0.24403 -0.246449
1600 3.55271112 6.4406574 -4.59633816 0.269806 -0.648035 -0.146836
1620 1.9459508400000003 2.7791239500000002 -1.55691567 0.107981 -0.463723 -0.277457
1640 -0.5462109900000001 1.4892561 -0.42601887000000005 0.08696 -0.406073 -0.290497
1660 -4.5321219 4.50727317 -4.8819465 -0.320922 -0.603359 -0.417007
1680 -5.20677522 11.80504989 -6.28333443 -1.236817 -0.896649 -0.603558
1700 -4.132158390000001 25.43570154 4.737199950000001 -2.013409 -0.533447 -0.981189
1720 1.06653339 18.729801360000003 5.10947964 -0.989209 0.4862 -1.380198
1740 1.4277277800000001 8.793311220000001 -2.20147191 0.663359 0.101972 -1.032741
1760 -0.11900511 14.58941238 -3.94055928 0.876659 -1.333613 -0.786925
1780 2.9383893000000003 18.17580123 -1.66663071 1.014906 -1.86796 -0.74575
1800 2.30625252 10.95856461 -0.76550373 0.946087 -1.854517 -0.850934
1820 0.57645522 8.466392970000001 -0.02529999 1.117308 -1.761281 -0.87229
1840 -1.0835929800000001 7.5020994000000005 1.01413818 1.534889 -0.917899 -0.356639
1860 -2.1999709800000002 7.07548212 0.8446900500000001 2.40285 -0.503312 0.17338900000000002
1880 -2.5038455400000004 8.67850479 -0.86205375 3.780881 -1.624919 0.81043
1900 -1.34899272 9.498493260000002 -3.28342662 3.892362 0.22343 2.552179
1920 0.52705206 6.895262610000001 -4.5813681 2.2355720000000003 2.896269 2.1088240000000003
1940 2.71804689 6.724764810000001 -5.873482439999999 0.6872199999999999 2.802163 0.879288
1960 2.5770379500000002 8.96949882 -5.11531659 -0.566919 0.4863810000000001 0.337248
1980 0.9324110700000001 9.83065986 -2.52599652 -1.059582 -1.167049 0.528205
2000 0.67344669 9.24477723 -2.13395949 -0.607196 -0.7039880000000001 0.751894
2020 1.06518942 9.198974340000001 -2.4878258100000004 -0.08097 -0.6069180000000001 0.796037
2040 0.57600396 15.20987526 -3.4438887900000004 -0.415744 -0.515366 0.835242
2060 0.7836228 16.81618428 -5.409449820000001 -0.746178 -1.552236 0.678303
2080 4.4279397000000005 20.176540919999997 -1.58146029 -0.456297 -2.736105 0.514134
2100 4.2011619300000005 26.499841290000003 3.0544023600000005 0.195619 -3.383199 0.333646
2120 -0.5816937600000001 19.99422207 4.88673378 0.196117 -3.370024 0.235356
2140 -4.258050120000001 15.701003100000001 2.65442904 -0.17183099999999998 -2.906252 0.193736
2160 -7.182067770000001 13.65086025 -1.26711846 -0.6405890000000001 -2.757605 0.190271
2180 -5.05978218 12.870239310000002 -1.1410795800000002 -0.602156 -2.458622 0.246772
2200 -1.58624757 10.99389042 0.14250006 -0.572921 -2.725605 0.121268
2220 -0.11197134000000002 8.431812720000002 0.33006726 -0.271447 -3.271244 -0.085298
2240 -0.00643536 6.33288474 1.21966749 0.4284850000000001 -3.942794 -0.052843
2260 0.6084848700000001 6.81921549 1.81108296 0.832149 -3.428318 0.142665
2280 -0.23576373 7.51183092 1.061442 0.573806 -1.449551 0.495111
2300 -1.6551039600000002 5.842953720000001 0.05089428 -0.109462 -0.07424299999999999 0.545192
2320 -2.34801369 4.85126082 0.30806343 -0.6013689999999999 0.159652 0.555343
2340 -2.40938505 5.93919963 1.0180327500000002 -0.8414709999999999 -0.134519 0.269896
2360 -2.0688505200000002 6.988663620000001 0.6523453800000001 -0.76549 0.4347470000000001 -0.164001
2380 -1.56784401 6.80155749 -0.0023936400000000003 0.17119700000000002 1.492759 -0.7570180000000001
2400 -1.0571059800000002 7.599699090000001 -1.555866 -2.364898 -0.485645 -0.110968
2420 -0.97836111 10.141107120000001 -3.11711769 1.277273 -0.481158 0.6697
2440 -0.64950048 12.21100731 -5.542826580000001 2.897758 -1.280413 0.13938599999999998
2460 -0.7027884 11.70385974 -7.09584768 1.893463 -0.7366729999999999 -0.433415
2480 -0.20402838 8.83313001 -4.18649598 0.823457 -0.576915 -0.29688400000000004
2500 0.70159158 7.29912069 -2.52494685 -0.01226 -1.253143 -0.426837
2520 0.22094082 8.083489049999999 -1.13314329 0.088792 -3.125563 -0.331864
2540 0.18965673000000005 8.07855462 -1.38881151 -0.473405 -3.911453 -0.182029
2560 2.1921916500000003 7.873025310000001 -0.56911734 -2.492106 -4.906678 0.033745
2580 0.7445495700000001 9.81329616 2.8877991300000003 -3.935562 -5.845374 0.266284
2600 -3.43145952 24.02473905 -3.30347826 -2.075588 -3.166334 0.018401
2620 1.3961493900000002 23.035900859999998 -6.48002493 -0.106752 -1.16211 -0.200082
2640 -1.6437341699999999 7.156169370000001 3.54761973 -0.053646000000000006 -1.56664 -0.31456100000000004
2660 -1.65990105 3.02071482 3.2633651700000006 -0.7489600000000001 -1.695415 -0.275456
2680 -3.5262143100000003 3.1841788500000003 5.8998321 -0.868481 -0.400086 -0.160446
2700 -3.5500133700000003 8.36939169 7.531284149999999 -0.997444 -0.690128 -0.24322800000000006
2720 -2.25640791 12.13332192 7.09628913 -0.922336 -1.313661 -0.487596
2740 -0.8255311200000001 14.58596907 6.08829201 -1.004015 -0.796466 -0.550786
2760 -0.09774684000000002 13.317957900000001 2.98958769 -1.030644 -0.293637 -0.532388
2780 -0.6020495100000001 9.75805605 -3.1443600600000003 -1.077425 -0.557411 -0.5954020000000001
2800 -1.62157338 9.60238116 -1.05021936 -1.053971 -1.318981 -0.6412640000000001
2820 -4.177510020000001 8.89061661 -1.59508638 -0.926309 -1.628393 -0.63143
2840 -4.3180677 10.55365686 -2.2037184 -0.606476 -1.10049 -0.5241180000000001
2860 -2.27616525 11.027264040000002 0.64964763 -0.294804 -0.437476 -0.364694
2880 -2.1225897000000002 8.556056370000002 2.68810677 -0.127029 -0.36991 -0.357199
2900 -3.62515797 6.78553776 1.85704281 0.364455 -0.496069 -0.402743
2920 -2.71879245 8.403677640000002 -1.13179932 1.212649 -0.877559 -0.308735
2940 -1.57816413 8.192164230000001 0.86221071 1.7171470000000002 -1.6609599999999998 -0.107655
2960 -0.32946885000000004 8.899739910000001 3.1322349000000003 2.7078900000000004 -1.519506 -0.110529
2980 -0.38948643000000005 9.158557140000001 3.1611253500000003 4.445325 0.088075 -0.038497
3000 -0.22019526000000003 9.34865532 2.3981624100000003 3.966952 -0.120597 0.079138
3020 -0.37331955 10.25771859 0.96025185 3.922985 -0.097302 0.152509
3040 -0.9996193800000001 10.996578359999999 0.03951468 4.108372 0.216838 0.286929
3060 -2.1472814700000002 9.63036909 -1.8694622699999999 3.4141510000000004 0.791419 0.788749
3080 -2.80771029 10.066717890000001 -2.40055605 1.647768 0.8445799999999999 0.747501
3100 -1.5778698300000003 10.698697710000001 -2.08037727 0.562647 0.650183 1.283895
3120 0.34743096000000007 10.632686220000002 -1.4430019500000002 0.457738 0.17629 1.6021
3140 1.8256017600000003 11.74412979 -1.40961852 1.115981 -0.568396 1.57881
3160 0.71401104 14.23554606 -4.50638046 1.404484 -1.5902040000000002 1.647296
3180 -1.88653167 13.129350840000003 -7.838896320000001 1.06438 -2.160477 1.497168
3200 -2.32586271 13.253143230000001 -3.9104720100000003 0.707023 -2.806076 1.5510469999999998
3220 -1.0777560300000004 16.73415306 0.10403505 0.368559 -2.97065 1.442071
3240 0.44742429 17.02634391 5.654336850000001 0.420344 -3.219653 1.063533
3260 -0.18980388 14.228806590000001 8.02182339 0.636775 -3.263085 0.815137
3280 -0.71491356 12.42670959 7.385340780000001 0.354236 -3.105018 0.6922520000000001
3300 0.27647523 11.34206694 4.11628581 -0.075226 -2.5293 0.681037
3320 3.42757476 10.451868300000001 1.9393683300000002 -0.41727 -1.827796 0.573063
3340 2.92312494 10.619668350000001 1.33237458 -0.590462 -1.106466 0.422446
3360 0.54666225 10.54093329 0.3614985 -0.604243 -1.072496 0.197979
3380 0.22887711000000002 9.78485697 2.25057096 -0.644903 -1.83086 -0.060911
3400 -0.73931103 9.111851730000001 3.09241611 -0.536315 -2.811486 -0.277881
3420 -0.15971661 8.28931266 1.93173615 -0.339671 -3.139502 -0.204516
3440 -0.030832830000000002 8.400234330000002 2.4908178600000004 -0.262062 -2.2225740000000003 0.062974
3460 -1.29181023 8.27733465 1.3720462199999999 -0.402985 -1.1138549999999998 0.243235
3480 -3.86047044 7.872132600000001 1.17176526 -0.386458 -0.313776 0.214552
3500 -5.355563490000001 6.88658076 0.61058421 -0.416003 -0.6749649999999999 0.25540100000000004
3520 -5.8969872 6.7538024100000005 0.1505835 -0.4752270000000001 -1.023255 0.026834
3540 -4.97056023 6.42628575 -0.99452799 0.116498 0.747352 -0.24904
3560 -3.62635479 6.20534493 -2.15507061 1.101442 -1.630273 -0.055379
3580 -3.26425788 6.27420132 -3.2980925700000006 2.031746 0.481136 -0.070814
3600 -2.7496350900000004 7.838602020000001 -3.7702086300000004 0.620315 1.189103 -0.334749
3620 -1.2651662700000001 9.954599400000001 -4.77537066 -0.926885 -0.282928 -0.104388
3640 0.8791231500000001 10.54826136 -4.943317860000001 -1.124052 -1.248196 -0.167554
3660 1.7597374200000002 9.98124336 -4.12886223 -0.483821 -1.967244 -0.193139
3680 1.8191664 9.85595004 -3.5880369300000003 -0.711332 -3.26163 -0.243276
3700 1.23717834 9.60672699 -3.67934841 -2.233054 -5.342551 0.119435
3720 -0.82463841 10.493776620000002 -4.28349726 -1.7803369999999998 -4.143185 0.293044
3740 -2.15866107 13.83333606 -3.64342419 -0.369169 -0.976441 0.215522
3760 -5.62814415 21.03739785 -1.25619012 -0.042444 -0.129931 0.294699
3780 -6.73030746 20.28072312 -8.68119273 -0.432935 0.366686 0.316973
3800 -1.2868758 3.8713987800000003 7.9996626000000015 -0.787449 -0.329218 0.161564
3820 -1.15649109 3.47232798 7.862852340000001 -0.8604379999999999 -1.761167 0.013338
3840 -3.1490001899999998 7.71660486 6.045177060000001 -0.8184520000000001 -1.748244 -0.057956
3860 -0.99019197 8.71083855 4.9753573200000005 -0.80577 -1.2520639999999998 -0.009365
3880 -0.23770611 10.31804028 3.34479798 -0.743742 0.030061 0.053519
3900 0.96429357 11.3254488 1.00740852 -0.943687 0.4259020000000001 0.07084299999999999
3920 0.6114769200000002 10.17389214 -4.01944149 -1.066311 0.095465 -0.038549
3940 -1.9717020900000002 10.21864536 -1.43042553 -0.938096 -0.002425 -0.178533
3960 -4.12916634 9.82078119 -0.08786817 -0.72615 -0.154149 -0.248429
3980 -2.6503873200000005 9.39835278 -0.36927783000000003 -0.812028 -0.535112 -0.275246
4000 -1.1814967800000005 9.29971323 1.62127908 -1.161767 -0.957902 -0.26967
4020 -1.30154175 9.41647185 0.46373832000000004 -1.479509 -1.381873 -0.2628
4040 -1.2436137 9.988424280000002 -0.5159765700000001 -1.516297 -1.680237 -0.209264
4060 -0.8677435499999999 9.481129560000001 0.6861702600000001 -1.027694 -1.193057 -0.187247
4080 -0.74530494 9.22636386 1.1964668400000003 -0.110036 0.265284 -0.17843299999999998
4100 -1.1737076400000002 8.91920295 2.6605701 0.376057 0.940886 -0.121424
4120 -1.4751787500000002 9.42724323 1.76437755 0.477551 0.692492 -0.163126
4140 -1.4853615300000003 9.67482801 1.03869261 0.912135 0.389028 -0.308184
4160 -1.11008979 9.19717911 1.8772416 1.7492919999999998 -0.034132 -0.17360799999999998
4180 -0.8764254 8.92549116 2.40684426 2.780839 -1.2912860000000002 0.029625
4200 -1.0591955100000001 9.40987953 2.03965596 3.54916 -1.197368 -0.146727
4220 -1.79161992 9.65836683 1.5453889200000002 3.743908 -0.232455 -0.258766
4240 -1.9712508300000002 9.60432354 0.66596166 3.511081 0.680162 -0.242334
4260 -1.9561336200000001 9.94666311 -0.7577244000000001 3.21005 1.887934 -0.185096
4280 -2.13366519 10.536734609999998 -1.9261935000000001 2.514487 1.762339 0.390251
4300 -2.32586271 10.890748080000002 -1.8968517900000001 1.761524 2.324226 0.654532
4320 -1.86676452 11.05435926 -1.4748844500000002 1.081495 1.808769 0.943135
4340 -1.72022274 10.96754076 -0.95905503 0.855843 2.043445 1.059831
4360 -1.13239773 11.546085510000001 -0.64440909 0.7492409999999999 1.354567 1.063174
4380 1.01713023 14.44256649 -1.0662292800000002 0.37277 0.428057 1.053186
4400 1.66559085 14.99491854 -2.4578856900000003 0.376884 -0.115109 1.018659
4420 -0.6454587600000001 11.650875930000002 -4.96831374 0.35064 -0.4486350000000001 1.064837
4440 -3.3922489500000004 10.836116190000002 -2.13546042 0.157373 -0.981682 0.802455
4460 -3.3123072600000003 11.199557070000001 2.25880155 0.141415 -1.012464 0.522509
4480 -4.27032243 13.268858849999999 3.6531557100000005 0.031132 -0.6636890000000001 0.244623
4500 -4.69304514 15.14236284 3.75074559 -0.14352 -0.627895 -0.030108
4520 -2.73122172 13.867160940000002 6.039045810000001 -0.494329 -0.509898 -0.196148
4540 -1.06354134 10.4373495 3.8116755 -0.847767 -0.216318 -0.313292
4560 -0.20192904000000003 9.468710100000001 3.42068814 -1.152052 0.220287 -0.5424399999999999
4580 -0.49667049 10.141107120000001 0.93435345 -1.358606 0.478986 -0.855067
4600 -1.21247676 9.667941390000001 -0.21615354000000003 -1.17179 0.27154 -1.087437
4620 -1.9407123000000002 8.62311753 -0.11541465 -0.614252 -0.322615 -1.105214
4640 -2.92207527 7.1798212800000005 -0.7512890400000001 -0.118963 -1.352629 -0.762876
4660 -2.70951219 6.785841870000001 0.6529437900000001 -0.105484 -1.438856 -0.5233899999999999
4680 -2.06450469 7.1597598300000005 0.8232846300000001 -0.114089 -0.956241 -0.261286
4700 -1.83143871 6.98282667 0.5448670200000001 -0.210824 -0.26615700000000003 -0.123977
4720 -3.9109134600000006 6.481673010000001 0.01781496 -0.421171 0.060041 0.002322
4740 -4.77522351 5.91165315 -0.38589597 -0.63117 0.224323 0.126695
4760 -4.45518207 5.94383976 -0.21495672000000002 -0.73134 0.409391 0.285992
4780 -3.3916505400000005 6.4872058500000005 0.11795544000000001 -0.767093 0.372954 0.371246
4800 -2.58901596 6.97459608 -0.37242684 -0.596349 0.113622 0.340725
4820 -1.5760746 7.8023736900000005 -1.19166975 -0.300927 -0.27783800000000003 0.21083
4840 -0.52929855 8.97443325 -1.7253141300000001 -0.096882 -0.775699 0.128504
4860 0.18456534000000002 10.1626695 -2.29921875 -0.097759 -0.990802 0.108477
4880 0.69006483 9.399108150000002 -2.4011544600000003 -0.299039 -1.119113 0.136078
4900 0.0580752 7.902219870000001 -1.7145329400000002 -0.5978680000000001 -1.303731 0.210071
4920 -0.40117014 7.148085930000001 -1.08793881 -0.658895 -0.872101 0.214432
4940 -0.44846415 6.97624416 -1.34449974 0.366095 -0.187764 0.017753
4960 -0.20297871000000003 7.131320639999999 -1.5386494500000003 0.687222 0.275508 -0.229493
4980 0.24504399000000002 7.687861560000001 -1.40722488 0.343029 -0.647688 -0.296944
5000 0.21854718 8.63958852 -2.19922542 0.493029 -0.07821 -0.581842
5020 -0.29129814000000004 8.85049371 -3.4024219200000005 0.098225 1.874487 -0.517667
5040 -0.54426861 8.02001835 -3.6395296200000002 2.548264 1.186208 0.847356
5060 -0.38799531000000004 7.11979389 -3.4868467800000005 1.98485 0.959963 0.638612
5080 -0.64725399 7.200177030000001 -2.68645869 0.39316 3.262412 0.057318
5100 -1.0584499500000002 7.363189800000001 -1.9483444800000003 -0.8846629999999999 3.241662 -0.039175
5120 -1.0785114 7.1696385000000005 -1.6247223900000003 -1.723321 0.560298 -0.095009
5140 -2.5393185000000003 8.90243766 -2.24757891 -3.07476 -2.569751 -0.454019
5160 -5.14060677 15.23441988 -1.9267919100000002 -3.149427 -3.66495 -0.365543
5180 -5.495375610000001 17.40026187 -0.09400923 -1.747035 -1.380818 -0.5605680000000001
5200 -4.8529089 13.398782490000002 3.08329281 0.416892 0.8698100000000001 -0.497062
5220 -3.37682763 13.907283840000002 0.5740517699999999 0.561933 0.401572 -0.477289
5240 -3.93427107 20.85852231 -1.35797868 -0.542358 0.198566 -0.434536
5260 7.330856040000001 20.55360789 -7.277715270000001 -1.009494 -0.186717 -0.382826
5280 0.9135464400000001 8.51279427 1.8775457100000001 -0.638687 0.375812 -0.187609
5300 -3.3670961100000003 8.90961858 5.52874923 0.577871 1.146174 0.047433
5320 -4.45938075 9.309591900000001 8.737335360000001 1.082956 0.5106649999999999 0.027206
5340 -5.885911709999999 10.45770525 6.17226561 1.261496 0.472178 -0.093275
5360 -5.476216679999999 12.35695068 0.46298295 1.151983 0.504725 -0.145356
5380 -2.91413898 11.07322389 -3.09092499 0.583422 0.5831729999999999 -0.089607
5400 -1.35303444 10.106232570000001 -2.35819647 0.556982 1.42346 -0.012889
5420 -0.7662591000000001 10.07195643 -4.97041308 0.911461 1.141414 -0.116873
5440 0.03876912000000001 7.54221249 -3.8242519200000005 0.770962 0.612974 -0.245364
5460 -1.00889964 8.46878661 -0.29818476 0.6945 0.272022 -0.429196
5480 -1.5639494400000002 7.513479 1.05620346 0.511211 -0.289263 -0.565421
5500 -0.39952206 8.073316080000001 -1.2790866600000002 1.1728889999999998 0.148831 -0.406468
5520 1.18193823 8.233326990000002 -5.63787567 2.371568 0.005445 0.045401
5540 1.60301286 7.41377997 -5.7708011699999995 2.936616 -1.1072030000000002 0.213143
5560 -0.85951296 6.203402550000001 -3.18447315 3.127745 -1.239183 0.28515
5580 -1.68953706 5.42606796 -0.48094506000000004 2.878865 -0.083694 0.31825
5600 -2.1713846400000003 5.855677290000001 0.24219909 2.374419 0.122894 0.241823
5620 -2.03127822 8.347839120000002 -1.23433344 1.613357 0.186746 0.384908
5640 -0.78092505 9.33698142 -0.6867686700000001 0.8332579999999999 0.525502 0.528576
5660 0.19654335 8.53599492 -0.34593003000000005 0.026482 0.790077 0.598445
5680 0.04250673 8.31416139 -1.55856375 -0.440957 0.600593 0.4373260000000001
5700 -0.7096750199999999 8.326286549999999 -1.1298471300000001 -0.66894 0.475421 0.236136
5720 -0.17438256000000002 9.10960524 -2.47959522 -0.8345940000000001 0.596586 0.182481
5740 1.4991347700000002 11.262282210000002 -6.7042619100000005 -0.970749 0.61652 0.111002
5760 1.5926927400000002 14.92037235 -9.41511807 -1.07271 0.364875 -0.0068920000000000006
5780 -1.02132891 19.59290478 -6.76547631 -1.212035 0.13986400000000002 -0.093035
5800 -2.7369115200000005 18.360964980000006 -4.62268782 -1.396132 -0.25460900000000003 -0.119453
5820 -4.24248165 14.623992630000002 -1.58849406 -1.394281 -0.393859 -0.196173
5840 -5.87588589 12.63208194 -0.35176698 -1.430368 0.026373 -0.293104
5860 -5.345380710000001 10.92592674 0.32946885000000004 -1.296522 0.592699 -0.308918
5880 -5.35181607 11.602375290000001 -0.9137034 -1.032306 0.344344 -0.235183
5900 -5.39627499 10.58943393 -0.6962058900000001 -1.220611 -1.307759 -0.107263
5920 -4.27690494 6.573730050000001 -0.5903756099999998 -2.0757950000000003 -3.105198 -0.351283
5940 -3.6046550700000006 6.00281748 -0.8123562900000001 -2.549342 -1.360953 -0.304483
5960 -2.72358954 7.238799 -0.9984225600000001 -0.923728 0.408578 0.123347
5980 -2.3605901100000004 7.857162540000001 -0.90442314 -0.285939 -1.015976 0.173425
6000 -2.23215759 7.210055700000001 -0.95816232 0.149043 -0.494905 0.291163
6020 -2.25671202 5.8466913300000005 -1.00246428 0.349712 0.5756600000000001 0.392674
6040 -2.22766461 4.86682929 -1.62068067 0.090705 0.32447800000000004 0.561034
6060 -2.6038388700000006 4.47359544 -0.7634142 -0.8370200000000001 -1.257319 0.532012
6080 -2.4319971000000002 4.78510218 0.5610339 -0.058612 -0.759088 -0.062462
6100 -2.22841998 4.963526460000001 1.2927127500000002 1.37796 1.130376 -0.424453
6120 -2.1475855800000003 5.99743179 1.18733373 0.607019 1.6213799999999998 -0.26703000000000005
6140 -1.6154421300000001 7.56421632 -0.7626686400000001 0.4571310000000001 0.766483 -0.532968
6160 -1.49269941 8.27180181 -3.47727222 -0.527108 0.474544 -0.465762
6180 -0.42855966000000006 9.79338186 -5.0900166 2.448919 0.5382779999999999 0.461865
6200 1.65825297 10.930272570000001 -9.214542810000001 1.65625 0.523019 0.436051
6220 2.092051170000001 8.39095407 -10.332716040000001 0.086023 1.803353 0.231162
6240 1.0737143100000002 7.910303310000001 -4.05462015 -1.125282 1.4764 0.460266
6260 0.51582942 6.57327879 -0.19848573000000003 -1.6912330000000002 0.093854 0.372626
6280 -0.3555144 6.08439744 -0.40146444000000003 -2.462221 -0.985033 -0.083234
6300 -3.37608207 7.139404080000001 -3.3870104100000007 -3.344632 -2.676773 -0.096844
6320 -8.60096655 14.699137230000002 -8.53959519 -2.387189 -2.357266 -0.108726
6340 -8.535553470000002 18.56334528 2.21240025 -0.089127 -0.3462 -0.458446
6360 -5.545818629999999 15.83123085 1.66827879 0.845252 -0.002907 -0.537817
6380 -3.1373262900000003 14.450051520000002 3.16142946 0.170806 -0.225543 -0.487764
6400 -3.0231182700000003 29.21219838 -9.342219960000001 -0.48659 -0.028316 -0.488335
6420 7.927510050000001 14.50468341 -1.36501245 0.113551 0.758199 -0.295008
6440 0.39158577000000006 7.96224726 2.4718060800000003 0.914597 0.8178489999999999 -0.189076
6460 -2.2826006100000003 10.31804028 5.8267868400000005 1.019356 0.32664 -0.25074
6480 -2.49366276 10.30127499 6.27195483 1.0583870000000002 0.487272 -0.22824
6500 -3.10798458 11.63260971 3.3298279200000005 0.642174 0.363515 -0.08784700000000001
6520 -3.7368252 11.339516340000001 1.61529498 0.518545 0.802146 0.084847
6540 -2.8657953000000003 9.337579830000001 -3.64536657 0.385469 1.475321 0.219787
6560 -2.7960363900000003 7.87691988 -2.7117586800000004 0.521879 1.419539 0.198379
6580 -2.1065699700000002 7.42306023 -4.70591586 1.078357 0.918654 0.034129
6600 -1.5387966000000002 6.5547182699999995 -3.3063231600000003 1.569922 0.169977 -0.178327
6620 -1.9350225 7.62918795 -2.19743019 1.500982 -0.17944300000000002 -0.382391
6640 -2.0688505200000002 8.81427519 -1.06638624 1.6846279999999998 -0.297616 -0.293363
6660 -0.3379937400000001 9.37874259 -2.9692221300000003 2.2727310000000003 -0.188985 0.00223
6680 1.30259142 8.05564827 -4.049381610000001 3.0623970000000003 -0.6983010000000001 0.411119
6700 0.45939249000000004 6.18319395 -2.6147672099999997 2.858679 -0.118452 0.5029560000000001
6720 -0.8590617000000002 5.39732466 0.00494424 2.525353 -0.345818 0.374869
6740 -1.56784401 6.16268124 0.7994855700000001 1.436731 0.197443 0.526802
6760 -0.93735531 8.553515580000001 -1.3940500500000002 0.360273 1.244911 0.851226
6780 -0.18531090000000003 8.98222239 -0.24339591000000002 0.038853 0.792832 0.697873
6800 0.43559343 8.821152 -1.3739886 -0.462162 0.266678 0.310487
6820 0.30282489 8.80095321 -3.2576753700000003 -0.797016 0.324098 0.09443
6840 -0.32722236 8.952135120000001 -5.51767374 -0.970282 0.498212 0.126112
6860 -1.1349385200000002 8.9944947 -4.70696553 -0.872821 0.276567 0.05871000000000001
6880 -1.53775674 8.923538970000001 -3.39419133 -0.8541110000000001 0.077653 -0.030635000000000006
6900 -1.26996336 12.051437850000001 -4.34262213 -1.046681 0.042727 -0.186827
6920 0.19863287999999998 18.1594872 -5.98036239 -1.266958 -0.293291 -0.4143979999999999
6940 -0.08772102000000001 20.892357000000004 -5.929468110000001 -1.416983 -0.33060300000000004 -0.543585
6960 -3.43984707 16.220422980000002 -2.07992601 -1.33932 -0.14868599999999998 -0.5496850000000001
6980 -5.41379565 14.56037478 -1.19676114 -1.121059 -0.29096 -0.590707
7000 -6.845712300000001 14.785504470000001 -1.0728215999999997 -1.073543 -1.235423 -0.474865
7020 -5.278319550000001 9.920166300000002 -1.4426978400000001 -1.564745 -2.092019 -0.287055
7040 -4.11883641 6.38512299 -0.5022033300000001 -2.135427 -2.271268 -0.254492
7060 -4.13919216 4.9135347 -1.08583947 -2.167745 0.380937 -0.143817
7080 -3.6670761 6.9072406200000005 -2.0181033900000003 -1.202751 1.347596 0.237699
7100 -2.03831199 8.87474403 -1.90732887 -0.5088050000000001 -1.047883 0.353507
7120 -2.17557351 7.962992820000001 -1.7065966500000003 -0.143117 -0.442704 0.543293
7140 -3.4332645600000005 5.54895783 -0.73826136 0.049354 0.7045819999999999 0.646784
7160 -4.19278419 4.6268766900000005 -0.5086386900000001 0.048596 0.6052350000000001 0.716341
7180 -3.92872842 4.84348149 -0.70473078 -0.5025430000000001 -0.7392770000000001 0.694986
7200 -3.34943811 4.91083695 0.0011968200000000001 -0.743313 -1.780661 0.5237229999999999
7220 -2.7782214300000003 5.610633300000001 0.71670879 0.571548 0.100552 -0.066639
7240 -2.0534292 6.59199627 0.59905746 0.365426 1.540206 -0.004762
7260 -1.51514469 7.12713177 -0.65399346 0.86467 1.172373 -0.358658
7280 -0.77987538 7.623645300000001 -1.7293558500000001 0.975245 0.307149 -0.665493
7300 -0.18726309 8.75484621 -3.04916382 -1.945679 -2.44523 -0.870376
7320 -0.05194395 10.590179490000002 -4.9684707 1.161673 0.991662 0.085892
7340 2.27721492 11.227397850000001 -11.239679970000001 1.550793 1.204479 0.606425
7360 3.9914535600000005 8.948691810000001 -9.90176274 0.332693 2.658703 0.5661430000000001
7380 2.05792218 7.5598803000000006 -2.46192741 -1.051396 2.506183 0.4808270000000001
7400 0.54876159 7.05797127 0.08487612 -1.55709 0.679542 0.309788
7420 -1.41275772 6.9904588500000004 -0.7994855700000001 -1.6912349999999998 -0.5734100000000001 -0.059149
7440 -3.7679621400000003 7.144044210000001 -2.6984367 -2.854441 -3.045037 -0.335435
7460 -7.03776267 13.33711683 -4.32406161 -1.6186 -3.111476 -0.243396
7480 -7.33265127 19.36942317 1.0916764200000002 1.489601 1.258872 -0.686621
7500 -7.26977898 15.75324135 1.3524360300000002 1.185656 1.4043290000000002 -0.568221
7520 -4.195177830000001 12.613070160000001 2.8976778000000003 0.104657 0.635894 -0.337642
7540 -2.4776430300000003 13.213922850000001 5.79115692 0.105468 0.457523 -0.220972
7560 -4.064498820000001 28.404482220000002 -13.07097153 0.697561 0.908271 -0.235573
7580 6.19022772 13.003155 -0.00494424 1.098776 0.710758 -0.207948
7600 0.5661252900000001 6.50023353 1.8250033500000002 0.96153 0.417896 -0.111324
7620 -1.9549368000000003 7.735763790000001 5.375772090000001 0.715138 0.465489 -0.07785399999999999
7640 -2.4923187900000006 9.576934020000001 4.76998497 0.779365 1.030753 -0.034332999999999995
7660 -3.3753267 10.91649933 1.87470081 1.006383 1.225937 -0.024452
7680 -3.14990271 9.96926535 0.4192794 1.314884 1.151808 -0.135433
7700 -1.7717154300000002 8.90033832 -4.26088521 1.323887 0.271889 -0.408776
7720 -3.01293549 8.155788750000001 -11.48875587 1.478035 0.114895 -0.442749
7740 -2.55937995 7.05483207 -4.372709400000001 2.1127580000000004 0.85946 0.087364
7760 -1.80015462 6.03814329 -1.0336012199999998 2.725634 0.545093 0.382604
7780 -0.68048046 7.031631419999999 -1.16981307 3.31187 -0.295302 0.380298
7800 -0.004492980000000001 8.67101976 -2.37346083 2.782581 0.305685 0.529655
7820 0.7080269400000001 9.01964754 -3.13867026 2.286981 0.66106 0.533215
7840 0.7940998800000001 7.63277841 -1.91002662 0.411325 0.5159 0.6313949999999999
7860 -0.43679025000000005 5.92497513 -0.0026977500000000005 -1.030963 0.814937 0.892265
7880 -1.73399598 5.75688078 -0.12020193000000001 -1.116327 1.062218 0.6659579999999999
7900 -1.88981802 7.70717745 -1.05410412 -1.305729 0.2784 0.241555
7920 -0.96534324 9.43158906 -3.2656116600000002 -1.293449 -0.112558 -0.034528
7940 -0.38364948 10.10847906 -3.8637666 -1.1703 -0.33220500000000003 -0.357057
7960 -0.62659413 8.382566520000001 -1.89026928 -1.149608 -0.372219 -0.491458
7980 -1.3096251900000002 7.68501666 -4.03770771 -1.234199 -0.682964 -0.496991
8000 -0.95067729 12.186011430000002 -7.55464176 -1.383806 -0.8894479999999999 -0.412314
8020 -0.09086022 19.47839265 -7.071744510000001 -1.478371 -0.942776 -0.31463
8040 0.39068325000000004 21.49859538 -6.09621849 -1.451366 -1.07615 -0.28436
8060 -1.2250531800000002 16.398396 -3.5419299300000002 -1.287855 -1.213231 -0.24458600000000005
8080 -3.57442065 11.565852660000001 2.22497667 -1.189986 -1.730316 -0.222944
8100 -3.1945087800000005 11.813731740000001 1.2283493400000003 -1.236939 -2.425853 -0.204221
8120 -3.75074559 12.153373560000002 -0.3013239600000001 -1.553246 -2.2099330000000004 -0.113772
8140 -3.02161734 7.6205061 -2.5282430099999997 -1.3705459999999998 0.017962 0.159183
8160 -2.4706092600000003 5.78172951 -1.9284399900000002 -0.775882 -0.253016 0.27584699999999995
8180 -1.90194318 7.115153760000001 -1.6193367 -0.370188 -1.011408 0.169626
8200 -1.5290748900000002 7.600591800000001 -1.20484458 -0.100471 -0.265909 0.250671
8220 -2.22497667 6.39799371 -0.7087725 0.07442599999999999 0.464233 0.524422
8240 -2.6456000400000006 5.490431370000001 -0.9047174400000001 0.048611 0.209494 0.315197
8260 -2.54905002 5.84654418 -1.1829879 0.297602 -0.610946 -0.12212
8280 -2.5761452400000002 6.262978680000001 -0.8098155 0.7653 -0.8212299999999999 -0.420891
8300 -2.4267487500000002 6.37749081 -0.4076055 0.0076019999999999985 -0.33094 -0.362718
8320 -2.22557508 6.51489948 0.17109621 0.8546549999999999 1.822216 -0.090369
8340 -1.47637557 6.17600322 0.08981055 0.197847 1.706017 -0.298838
8360 -0.6191091000000001 6.555620790000001 -1.20484458 -1.469629 0.355502 -0.248934
8380 -0.50055525 7.022645460000001 -2.9214768600000003 1.696834 0.18043 0.559619
8400 -0.68063742 8.81846406 -4.37989032 1.452158 0.509653 0.4923270000000001
8420 0.17124336 9.920774520000002 -9.019196280000001 -0.391217 2.067726 0.332176
8440 0.48888135 8.6244615 -9.44386137 -1.789236 2.230209 0.338226
8460 0.47481381 7.56706122 -5.23416474 -2.021098 0.483886 0.091016
8480 -0.7605693 6.79526928 -1.9205037 -2.086645 -0.8739520000000001 -0.215349
8500 -3.07220751 5.25871917 -1.3703981400000003 -3.113563 -3.879654 -0.250717
8520 -5.20482303 7.80806349 -1.4316223499999998 -1.4710450000000002 -3.892163 -0.145225
8540 -8.724906090000001 15.02545707 -2.5102809 0.969128 -0.12737 -0.68848
8560 -9.1012275 21.33393453 -1.0629429300000002 0.710637 0.6432180000000001 -0.563086
8580 -3.2448046500000003 16.11189495 1.19197386 -0.042391000000000005 0.7924260000000001 -0.460647
8600 0.0663156 11.04971913 6.54184755 -0.288439 -0.17663299999999998 -0.332937
8620 -2.6174551500000005 26.45508807 -4.38333363 -0.463543 -0.550461 -0.20229
8640 5.359301100000001 18.00246834 -3.9757281300000002 -0.223193 0.122492 -0.06901399999999999
8660 0.8791231500000001 8.14366359 1.95089508 0.647899 0.340611 0.040409
8680 -2.39457195 10.1888622 4.5144639 0.951612 0.08152899999999999 0.09841
8700 -3.0964578300000003 10.408007790000001 6.48227142 0.8445590000000001 0.139822 -0.0006889999999999999
8720 -3.7462624200000003 12.29318568 4.32076545 0.703484 0.469846 -0.091828
8740 -4.48122762 12.486736980000002 2.39038308 0.997873 0.6904 -0.091123
8760 -2.79228897 10.247987070000002 -1.16727228 1.042232 0.695041 -0.224347
8780 -1.0593426599999998 8.62461846 -6.768625320000001 0.8753489999999999 0.597498 -0.461464
8800 -1.14961428 8.1932139 -7.488777420000001 0.605317 0.8898969999999999 -0.621822
8820 -1.6211319300000002 6.0873894900000005 -1.93427694 0.851299 1.506862 -0.61128
8840 -2.32107543 6.48451791 1.20828789 1.668975 1.58399 -0.6281
8860 -0.8911011600000001 7.25840919 2.56297041 2.594878 1.045046 -0.652989
8880 0.30761217 7.97691321 0.7925989500000001 3.487109 0.48977 -0.560587
8900 0.8529304500000001 8.39574135 -1.63534662 4.387302 -0.655853 -0.694905
8920 1.1811926700000002 8.080045740000001 -2.8744771500000006 3.883409 -1.048648 -0.06553400000000001
8940 -0.042065280000000004 6.380178750000001 -2.3802003000000003 3.102805 -0.14610399999999998 0.28037
8960 -1.49928192 6.219716580000001 -0.42661728 1.972062 0.8210290000000001 0.495559
8980 -1.9998371700000002 8.16401934 -0.23381154 0.947823 -0.004707 0.620854
9000 -1.9989444600000001 9.41047794 -2.20520952 -0.6442939999999999 1.100471 1.079403
9020 -2.24622513 7.994875320000001 -1.1060480700000002 -1.376236 1.285346 1.035597
9040 -2.9386934100000004 7.50300192 -1.08958689 -1.460077 0.960305 0.609208
9060 -3.7131831 7.691608980000001 -0.8157996000000001 -1.355776 0.787724 0.254439
9080 -2.74514211 9.46062666 -2.84528259 -1.565222 0.609904 0.149587
9100 -1.15724646 11.18503827 -5.0248978200000005 -1.848527 -0.031428 -0.12824000000000002
9120 -0.23306598000000003 12.072990420000002 -7.4282987700000005 -2.032886 -0.546136 -0.455744
9140 -0.30716091 12.614718240000002 -8.024511330000001 -1.990453 -0.886973 -0.505217
9160 -0.84289482 14.938932870000002 -7.722137700000001 -1.562659 -1.596799 -0.255628
9180 -1.01997513 16.38552528 -3.5094490200000004 -1.4302549999999998 -2.161287 -0.131135
9200 -0.42796125 15.062274000000002 -0.6557886900000001 -1.594573 -2.403593 -0.13304000000000002
9220 -2.01032406 13.31421048 1.33148187 -1.638648 -2.421882 -0.31599
9240 -2.72627748 10.439586180000001 2.1661461 -1.241354 -1.846988 -0.305406
9260 -4.330644120000001 10.8512334 0.29159244 -0.84334 -1.253199 0.04058
9280 -5.813906310000001 11.436664770000002 -0.13247424000000002 -0.715825 -0.5413220000000001 0.39414
9300 -5.099149710000001 9.059309370000001 -3.06397692 -0.676333 0.5116970000000001 0.4945479999999999
9320 -3.4835604300000003 6.96621834 -3.65600061 -0.628344 1.006782 0.519886
9340 -3.0229613100000003 6.138136620000001 -1.84117023 -0.448354 1.142637 0.488923
9360 -3.60944235 5.72439987 -0.4801995 -0.168716 0.467187 0.263142
9380 -4.016449440000001 5.5781523900000005 -0.04819653 0.086469 -0.4679390000000001 -0.004137
9400 -3.81930768 5.323680990000001 -0.07304525999999999 0.047267 -1.209935 -0.095328
9420 -3.1951071900000003 6.33258063 -0.41045040000000005 -0.071351 -1.602049 0.030397000000000007
9440 -2.36298375 8.2686528 -0.6240533400000001 -0.17638800000000002 -1.793095 -0.054482
9460 -1.99445148 7.79818482 -1.46006154 -0.191705 -1.832748 -0.247886
9480 -2.43917802 7.39028502 -1.95104223 0.343174 0.318689 -0.07385499999999999
9500 -2.1902492700000002 8.13917061 -2.5129786500000004 0.7920020000000001 0.33168800000000004 0.015788999999999997
9520 -1.21966749 8.61637806 -2.52974394 -0.05517 -2.229843 -0.163102
9540 -0.42122178 8.9193501 -3.07385559 1.1682 -0.729603 -0.240869
9560 -0.41059755000000003 9.842932170000001 -4.197267360000001 1.831112 0.470218 0.169216
9580 -2.10821805 10.88581365 -5.60120589 0.525375 1.06256 0.489417
9600 -2.9207214900000005 9.593552160000002 -5.704034310000001 -0.994708 1.655625 0.548542
9620 -2.40758982 6.793022790000001 -3.63220155 -1.680239 1.296848 0.5548960000000001
9640 -1.6681316400000001 5.722898939999999 -3.1714552800000004 -2.225085 -1.055409 0.260343
9660 -2.06839926 6.26238027 -2.28515121 -2.080502 -3.946514 -0.144071
9680 -1.74956445 5.992938810000001 -1.6181398800000002 -1.257944 -4.6474129999999985 -0.603172
9700 -0.6779396700000001 5.582341260000001 -0.33440328 -0.738879 -1.960274 -0.6489229999999999
9720 -2.8159408800000003 10.298587050000002 0.42975648 -0.625583 0.562554 -0.544543
9740 -5.55555015 16.637603040000002 -1.92215178 -0.412069 0.427296 -0.471307
9760 -1.4012407800000002 17.000151210000002 0.8589145499999999 -0.211396 -0.964697 -0.459576
9780 -2.21613786 16.204099139999997 2.245028310000001 -0.186638 -1.3389030000000002 -0.407649
9800 -5.3374542300000005 20.65300281 -3.5923827600000005 -0.207937 -0.853073 -0.405215
9820 -3.08329281 19.11165561 -4.63166397 0.013822999999999998 -0.210277 -0.439741
9840 1.61334279 10.068513120000002 3.6238140000000003 0.377316 0.217667 -0.41425
9860 0.10508471999999999 9.77257485 4.33618677 0.389929 0.123134 -0.22817
9880 -0.57660237 11.47963257 6.00057099 0.155671 -0.772817 -0.277796
9900 -1.24256403 11.16678186 6.23213604 0.110192 -1.038508 -0.395278
9920 -3.1859740800000003 10.02704625 3.37907412 0.510365 -0.267843 -0.593228
9940 -5.68099062 9.210501090000001 -0.7309332900000001 0.497124 -0.5271819999999999 -0.99464
9960 -4.45443651 9.09314406 -2.5439586300000006 1.125621 -0.7648189999999999 -1.252728
9980 -2.48378409 7.547303879999999 -3.4021276200000004 1.594817 -0.34236500000000003 -1.011778
10000 -1.26157581 6.42149847 -2.25820314 2.313152 -1.058195 -0.844542
10020 -0.3646377 6.37180101 -0.8147597400000001 3.122505 -0.955167 -0.405322
10040 -0.023347800000000002 6.41026602 -0.1850166 4.0082830000000005 -1.405209 0.281899
10060 0.15297714 6.295008330000001 -0.60234381 4.034122 -0.751512 0.8869239999999999
10080 -0.56072979 7.2733792500000005 -2.3466697200000004 2.925729 1.929203 0.928089
10100 -1.60032492 8.04741768 -2.52090513 0.505087 1.817722 0.536378
10120 -1.5187449600000003 6.07466592 -2.03800788 -1.011258 0.311666 0.990256
10140 -0.54441576 4.92925032 -0.23980545000000003 -0.829709 0.993419 1.636925
10160 -0.54471987 7.49506563 0.22931856000000003 0.152662 1.47329 1.460506
10180 -1.4576679000000001 10.926682110000002 -2.0209482900000006 0.220238 -0.395347 1.171748
10200 -1.4956914600000002 10.715463000000002 -4.31043552 -0.204576 -1.406975 0.911567
10220 -2.38379076 9.25315497 -1.34614782 0.025318 -1.958819 0.720532
10240 -3.35991519 8.22584196 -2.7813704400000003 0.254875 -2.216222 0.423363
10260 -3.0340368 11.20555098 -5.411549160000001 0.7342380000000001 -3.2866480000000005 0.230462
10280 -1.6121459699999998 16.10665641 -1.8233552700000002 1.054083 -3.747262 0.05703
10300 -0.47106639 17.41134717 -3.1731033600000003 0.957047 -3.800991 -0.008740000000000001
10320 0.55204794 18.400489470000004 -4.11449058 0.755534 -3.426921 -0.139882
10340 1.65301443 21.668641920000002 2.22841998 0.400799 -3.469661 -0.06646200000000001
10360 0.5382845100000001 21.216283200000003 7.12368846 0.060273 -3.382705 0.061371
10380 -2.91368772 17.45055774 7.02130149 -0.520582 -3.098987 0.209706
10400 -4.5472391100000005 12.588672690000001 2.33425026 -0.508293 -2.615889 0.333087
10420 -4.168985129999999 11.908780830000001 0.33485454 1.069799 -1.772747 0.435965
10440 -1.1981051100000002 10.286010630000002 -0.24174783000000002 1.360616 -1.849484 0.459459
10460 -1.28477646 9.4860738 -0.42272271 0.923081 -0.260395 0.6477149999999999
10480 -0.97612443 8.79959943 0.048049379999999996 0.061322 0.451277 0.5788260000000001
10500 0.33200964 8.10025434 1.3992885900000003 -0.748138 0.8251700000000001 -0.311795
10520 0.94827384 8.03873583 0.97941078 -0.226032 0.09619 -0.415104
10540 -0.7027884 8.11073142 0.32018859000000005 2.483342 -2.433323 0.036488
10560 -2.7711876600000003 6.9269979600000005 0.6126737400000001 2.876116 -1.585226 -0.33787
10580 -3.4371493200000005 6.05790063 1.2513930300000002 0.373351 -1.810768 -0.373222
10600 -3.18283488 4.938079320000001 1.24555608 -0.6936060000000001 -0.563112 -0.302157
10620 -3.7546401600000006 6.06913308 0.9562101300000001 0.006324000000000001 -0.064812 -0.047943
10640 -3.7969997400000004 6.2123787 0.70892946 0.719544 -1.342433 0.221459
10660 -3.6642312000000006 7.46362458 0.12738285000000002 0.04853 -2.565807 0.645628
10680 -3.7673637300000005 9.34506486 -1.78548867 -1.876476 -4.199925 0.978244
10700 -3.43924866 12.178977660000001 -8.80005069 -2.732583 -4.263147 1.0140049999999998
10720 -1.27564335 13.19895279 -14.07822309 -2.17755 -1.5224030000000002 0.852
10740 0.05957613 9.49909167 -6.09442326 -2.063627 -0.4499260000000001 0.551251
10760 1.53250839 5.382511560000001 0.23980545000000003 -1.314678 -0.673331 0.093161
10780 2.7331641 6.25100067 0.46927115999999996 -0.67415 -1.198169 -0.280911
10800 -0.94169133 16.03016784 0.31449879 -0.017218 -0.341716 -0.310535
10820 -9.89891784 30.207933 -6.380630010000001 -0.337966 0.684236 -0.321568
10840 -1.7744131800000003 12.445721370000001 -3.04646607 -0.767139 0.151054 -0.080328
10860 -0.11989782 2.64335355 8.344395810000002 -0.95047 -0.6912159999999999 -0.012163
10880 0.74514798 2.21854131 8.60769621 -0.87697 -0.499641 -0.032191000000000004
10900 -0.14983794 6.33722076 10.032588900000002 -0.817137 -0.349218 -0.13878800000000002
10920 -0.27946728 11.25644526 8.57537226 -0.7612260000000001 -0.583398 -0.23210100000000006
10940 0.02410317 13.74905835 5.929468110000001 -0.739176 -1.123624 -0.218436
10960 -0.1733427 13.09357377 3.1753498500000004 -0.759209 -1.326946 -0.237543
10980 -2.3572939500000003 10.504852110000002 -0.97821396 -0.681014 -1.07453 -0.2918
11000 -3.70793475 9.138495690000001 1.09078371 -0.6204069999999999 -0.931797 -0.340698
11020 -4.333184910000001 8.09067978 4.05926028 -0.617003 -1.070509 -0.287085
11040 -6.194416590000001 7.80207939 -1.45003572 -0.346835 -1.148573 -0.180412
11060 -6.28079364 9.274413240000001 -1.4925424500000002 0.13780599999999998 -0.990971 -0.319302
11080 -4.53108204 9.53082702 -1.30349394 0.66292 -1.0256120000000002 -0.636057
11100 -2.6378109000000003 7.750881000000001 1.21682259 1.395893 -1.152276 -0.764302
11120 -1.3953940200000001 8.26132473 1.1539503 2.161442 -1.458698 -0.7233109999999999
11140 -0.23486121000000001 10.04500836 -0.05957613 3.135702 -2.078028 -0.667642
11160 0.31045707000000006 10.097550720000001 0.07739109000000001 3.999981 -2.575151 -0.70797
11180 -0.9430353 10.130787 1.5058644300000001 3.94027 -2.989546 -0.655513
11200 -1.8308403 9.560315880000001 1.1106882 3.923578 -1.267796 -0.440987
11220 -1.7744131800000003 9.4396725 1.0659349800000002 3.3281339999999995 1.100283 -0.18433
11240 -1.327293 9.73006812 0.65473902 2.7125790000000003 1.373011 0.078077
11260 -1.34794305 10.25921952 0.47646189000000005 2.139227 -0.025145 0.436922
11280 -1.3248993599999999 10.3476861 0.6165683100000001 1.660068 -0.254675 0.709471
11300 -0.99887382 10.48179861 0.27453285000000005 1.56588 -0.269362 1.000456
11320 -0.9580053600000001 11.368112490000001 -0.89259228 1.6692619999999998 -0.261218 1.271428
11340 -1.4980851 11.42513802 -1.8513530100000002 1.541596 -0.5118020000000001 1.176854
11360 -2.19757734 11.188628730000001 -2.60937171 0.971088 -1.608229 1.203116
11380 -1.52413065 11.152557360000001 -2.9047115700000004 0.753262 -2.465549 1.335153
11400 0.17798283 12.8642454 -2.88599409 0.645595 -2.502231 1.277832
11420 2.31748497 14.059368270000002 -2.8381016700000004 0.742056 -2.9933080000000003 0.924485
11440 2.81055519 14.854812120000002 -3.5374467600000004 0.910156 -3.477067 0.543856
11460 1.02881394 14.404699890000002 -2.4845296500000003 0.811133 -3.173317 0.326994
11480 -1.0326987 11.490403950000001 -1.21292802 0.606065 -2.8112220000000003 0.263141
11500 -1.4009366699999999 12.53927934 1.2482538300000001 0.425573 -2.414165 0.22612
11520 -1.7316023400000002 14.87201886 3.4317636300000003 0.172041 -2.078832 0.236738
11540 -1.44704367 14.29706457 4.78135476 -0.101661 -1.768803 0.199178
11560 -0.34817652000000004 14.11594254 5.919736590000001 -0.3263 -1.7495619999999998 0.111058
11580 1.59313419 12.18196971 5.1654555 -0.613209 -1.804724 0.035417000000000004
11600 1.4983794 11.784694140000001 2.71505484 -0.709016 -1.802079 -0.010121
11620 0.6198644700000001 10.71337347 0.7502393700000001 -0.377809 -1.7232330000000002 -0.034614
11640 1.19706525 10.17958194 1.05440823 0.130107 -1.769382 0.14311300000000002
11660 0.65144286 9.34237692 2.5267420800000004 0.692768 -2.116529 0.420953
11680 -0.61506738 8.638234740000001 1.6593026400000002 0.79062 -2.156286 0.687675
11700 -0.7722432 7.79967594 1.7865383400000001 0.4679430000000001 -1.595599 0.8791190000000001
11720 -0.9336078900000001 7.6261959 2.2656881700000002 0.199457 -0.984477 0.932008
11740 -1.7148370499999999 7.81135965 2.8901927700000005 -0.011179 -1.145429 0.871991
11760 -2.5247997 7.5857787000000005 3.08029095 -0.150884 -1.166221 0.598645
11780 -2.7652035600000002 7.019055000000001 1.9023944400000001 -0.329815 -1.144324 0.073938
11800 -3.15693648 6.76023777 0.70293555 0.446812 -0.854462 -0.092992
11820 -4.065989940000001 6.6259683 -0.38799531000000004 1.139054 -2.465906 -0.239916
11840 -4.71189996 6.5310663600000005 -0.82478556 1.186091 0.48431 -0.397192
11860 -5.32158165 6.29964846 -1.51664562 0.005334 1.53109 -0.608675
11880 -5.3790682499999996 6.55636635 -1.64522529 -1.460293 0.106006 -0.201548
11900 -3.77948889 7.856112870000001 -1.7465724 -1.343553 -0.449529 0.094809
11920 -1.80419634 10.604992590000002 -3.15887886 -0.553959 -0.8593930000000001 0.14251
11940 -1.22086431 11.78603811 -5.322935429999999 -0.289379 -1.423385 0.294632
11960 -0.51537816 10.87578783 -8.02510974 -0.843614 -1.960587 0.584142
11980 0.06751241999999999 10.487194109999999 -8.82564498 -2.289386 -3.321499 0.91014
12000 1.07985537 10.66097826 -6.79526928 -2.284599 -2.387696 1.016868
12020 0.91698975 9.561512700000002 -3.18058839 -1.456226 0.47632 0.693176
12040 -1.09946556 9.07786989 -2.93659407 -0.440868 1.917785 0.30958800000000003
12060 -2.4161245200000003 9.883947779999998 -2.6677510200000003 0.114294 1.6594330000000002 -0.032307
12080 -3.51319644 11.11438665 -0.9686394 0.358102 1.425772 -0.152081
12100 -5.42666637 13.61748663 -2.9292561900000003 0.277002 1.085674 -0.013343
12120 -10.813366799999999 18.914219550000002 -2.9952676800000004 0.005696 0.450059 0.132991
12140 -5.23266381 10.35022689 3.2335722000000002 -0.070674 -0.039134 0.256998
12160 -0.73662309 1.75404762 10.933117470000001 0.003311 -0.158845 0.292919
12180 -2.18590344 5.66002665 6.404429070000001 -0.135781 -0.145033 0.15626600000000002
12200 -2.7753765300000004 10.42506738 4.901860800000001 -0.177348 0.036471 0.090582
12220 -0.5450141700000001 10.60125498 5.17069404 -0.123607 0.136373 0.102579
12240 0.37451637000000004 10.967844870000002 4.05701379 -0.218013 -0.436487 0.119746
12260 -0.07933347 10.45261386 1.86137883 -0.26902600000000004 -0.8794139999999999 0.107138
12280 -1.39555098 10.05713352 -0.41553198 -0.380387 -1.061881 0.013659
12300 -3.10903425 9.171427860000001 -2.68915644 -0.21548 -0.34075700000000003 -0.112164
12320 -4.83075792 8.94105963 -0.40999914 0.321776 1.061085 -0.030091000000000007
12340 -5.28625584 9.33653016 -2.5682089500000003 0.682551 1.319817 -0.043925
12360 -4.38917058 9.557029530000001 -2.45115603 0.330882 0.654355 -0.089326
12380 -2.5737516 10.0382787 -1.2064926599999997 0.118998 1.260026 -0.054195000000000014
12400 -1.05366267 9.68336271 -0.32617269000000004 0.306753 2.211812 0.191588
12420 0.06196977000000001 9.43472826 0.09909081000000002 0.341953 1.423685 0.11699999999999999
12440 0.8857056600000001 9.828109260000002 -0.13412232000000002 0.69601 0.8229639999999999 -0.213042
12460 0.7234482600000001 9.51646518 0.59920461 0.8421639999999999 -0.181996 -0.504494
12480 -0.8345170799999999 8.696918160000001 0.77374413 0.728562 -0.577704 -0.549646
12500 -2.21883561 9.18759474 0.054936000000000006 0.928965 0.758827 -0.359815
12520 -1.53520614 9.29103138 0.17917965 1.220878 0.809433 -0.2147
12540 -1.02506652 8.530314930000001 0.58947309 2.375162 0.033369 -0.014431
12560 -1.217421 7.4881790100000005 -0.02215098 3.45986 -0.745848 0.235563
12580 -1.4202427499999999 7.46378154 -0.26121087000000004 3.439035 -0.190631 0.201591
12600 -2.14519194 9.633213990000002 -2.5216605000000003 2.986582 -0.194556 -0.022686
12620 -2.6559299700000003 10.93251906 -2.53422711 2.1415740000000003 0.17758 0.354426
12640 -2.26778751 7.701183540000001 -1.54149435 0.229993 1.340638 0.734825
12660 -2.9885380200000005 4.6994805 -0.029488860000000002 -0.088783 1.166879 0.508495
12680 -2.76580197 3.28806675 -1.5789195000000003 0.053971000000000005 0.866993 0.254571
12700 -1.51485039 5.35960521 -1.6886345399999998 -0.102801 0.764675 0.13717100000000002
12720 -0.45415395000000003 6.77161737 0.19339434 -0.353453 0.554574 0.148508
12740 -0.5644772100000001 8.976532590000001 -2.48289138 -0.48769 0.014316999999999996 0.039304
12760 -1.3985430300000004 7.9822989 -0.20537235 -0.379273 -0.161487 -0.046239
12780 -1.06009803 6.62043546 0.49217751000000004 -0.268212 -0.011226 -0.156751
12800 -0.8952900300000001 8.115528509999999 -3.59282421 -0.406633 0.151724 -0.293591
12820 0.36044883 10.720701540000002 -4.0917411900000005 -0.5761229999999999 -0.190152 -0.432138
12840 -0.32003163 13.69486791 -4.02049116 -0.789445 -0.034565 -0.527831
12860 -0.75697884 19.608473250000003 -5.60554191 -1.029212 0.441633 -0.591004
12880 -1.30064904 22.91555178 -7.58532744 -1.253035 0.810668 -0.5097189999999999
12900 -4.633763310000001 18.72396441 -2.7542752200000002 -1.363425 0.791507 -0.41753
12920 -5.73308172 15.152987070000002 1.1907770400000002 -1.1827530000000002 0.22177600000000006 -0.355718
12940 -5.75403588 14.399304390000001 1.3045338 -1.458134 -0.412593 -0.251075
12960 -5.8944464100000005 10.97937162 2.26838592 -2.142427 0.033863 0.049085
12980 -4.35070557 9.14927688 -0.9098088300000001 -2.465543 -0.042333 -0.063101
13000 -3.40526682 9.87002739 -2.7780742800000002 -1.6121 -0.641206 0.30895900000000004
13020 -3.1027460400000004 9.64653597 -1.7191730700000003 -0.4759600000000001 -1.389735 0.299695
13040 -3.6077942700000003 8.57133054 -0.73272852 -0.323376 -0.369998 0.366752
13060 -3.7238073300000005 8.300839410000002 -1.2705617700000003 -0.050323 1.071301 0.400995
13080 -3.25138716 7.9197307200000004 -1.01968083 -0.157111 1.728127 0.605575
13100 -3.73189077 7.68501666 -1.0190824200000002 -0.8884559999999999 0.33457 0.750735
13120 -3.6411777 6.4417070700000005 -0.6209043299999999 -1.004409 -1.952329 0.523188
13140 -3.4117021800000007 5.3013730500000005 -0.32153256 0.538342 -0.937737 -0.126429
13160 -2.9991622500000004 4.71893373 -0.11271690000000001 0.559599 -0.033392000000000005 -0.392359
13180 -2.80217745 4.46746419 -0.08038314 0.40078 0.402084 -0.465597
13200 -2.59171371 4.691240100000001 -0.0432621 -0.6158359999999999 2.0687290000000003 -0.255848
13220 -2.1652435800000003 4.4971002 -0.016765290000000002 2.696799 0.987169 -0.121297
13240 -1.6423803900000002 4.78615185 0.29398608000000004 2.557711 -0.368007 0.035429
13260 -1.22086431 5.832623790000001 -0.41208867000000005 1.244464 0.481821 -0.092338
13280 0.5457695400000001 6.02751906 0.00808344 -0.17540799999999998 0.837975 -0.015118
13300 2.57494842 8.95288068 -0.5291514 -1.292906 0.358902 0.079172
13320 3.20632983 10.074801330000001 -5.90940666 -2.100212 -0.814001 0.254497
13340 2.7093650400000007 9.0263772 -10.59032664 -3.823457 -2.260072 0.27315500000000004
13360 1.9507479300000001 7.6092736499999996 -5.853273840000001 -3.694218 -1.568835 0.459042
13380 1.18343916 6.5768692500000006 -1.16068977 -0.150642 0.311944 -0.356102
13400 0.2080701 5.94129897 -0.40804695 1.495108 -0.459057 -0.781589
13420 -1.9263406500000002 6.323447520000001 -2.5210620900000005 0.636 0.094136 -0.648362
13440 -4.76998497 8.33137794 -5.21395614 -0.715282 0.059143 -0.316993
13460 -9.0810189 15.176344680000001 -7.06485789 -1.052041 -0.268043 -0.254833
13480 -7.6728915 18.68668641 3.3715890900000005 -0.6350210000000001 0.031606 -0.160437
13500 -7.024744800000001 20.430413910000002 3.3346152 0.188088 0.422751 -0.122073
13520 -1.41920289 18.87245838 1.22070735 0.471584 0.5890310000000001 -0.125647
13540 3.9562749 26.716887540000002 -17.781076260000003 0.540078 0.725854 -0.035614
13560 -0.47331288 10.88820729 3.9234898800000004 0.715087 0.8250149999999999 0.056281
13580 -3.44029833 9.45972414 4.9671169200000005 0.95609 0.5589350000000001 0.054032
13600 -2.7882472500000004 10.480307490000001 6.81128901 0.96114 0.097235 -0.107711
13620 -2.26927863 11.994108210000002 6.56010396 1.038184 -0.039698 -0.296072
13640 -2.5741930500000003 13.04342505 3.56693562 1.132185 0.08304500000000001 -0.436578
13660 -2.45864106 13.129949250000001 -1.3692013200000002 1.338573 0.700042 -0.399608
13680 -2.03276934 10.446472799999999 -3.1596342300000004 1.927595 1.178502 -0.415335
13700 -3.89191149 10.3596543 -7.54670547 2.951988 0.664028 -0.25156
13720 -3.31306263 7.898472450000001 -7.162908840000001 3.515092 0.551647 -0.075498
13740 -2.8315093499999997 6.99300945 -1.34121339 3.276811 0.148234 0.315392
13760 -1.3470503400000002 5.982756030000001 2.2159907100000003 3.269428 0.15481 0.541795
13780 -0.45190746000000004 5.671857510000001 0.60159825 2.335706 1.048686 0.524513
13800 0.06795387 5.64326136 -2.29952286 0.815936 1.142733 0.966703
13820 0.70264125 5.31244854 -3.8872615500000003 -0.21328200000000005 1.582564 1.09141
13840 0.71476641 5.208266340000001 -3.83397363 -0.862092 1.405381 0.941827
13860 -0.4713705 6.34740354 -3.7917612 -1.313502 1.226365 0.5468649999999999
13880 -0.69515622 7.909999200000001 -3.06292725 -1.599834 0.915063 0.323074
13900 -1.6082514 8.14890213 -2.40160572 -1.5188959999999998 0.758685 0.198858
13920 -2.07782667 6.178848120000001 -0.6285463200000001 -1.421716 0.5144 -0.06720599999999999
13940 -2.17228716 5.216349780000001 -0.39936510000000003 -1.53086 0.366904 -0.382905
13960 -2.7851080500000003 6.56863866 -0.8535288600000001 -1.7519999999999998 0.286664 -0.6375149999999999
13980 -2.33798787 10.28017368 -2.77313004 -1.916141 -0.08811000000000001 -0.812301
14000 -0.75038652 12.03646779 -4.6268766900000005 -1.686719 -0.728328 -0.747922
14020 0.31105548 10.16071731 -5.81211108 -1.1788459999999998 -1.784154 -0.6212439999999999
14040 -0.6385721400000001 13.010944140000001 -9.39146616 -0.970073 -2.507397 -0.555834
14060 -2.64814083 19.37421045 -5.241502620000001 -0.944031 -2.909 -0.579706
14080 -3.3890999400000004 20.680392330000004 -3.3759251100000003 -1.34492 -2.437459 -0.404718
14100 -1.72501002 16.69089096 -1.4275806300000002 -1.464405 -1.247028 -0.16459100000000002
14120 -3.7910156400000004 14.63626494 1.66423707 -0.962036 -0.7811 0.097899
14140 -4.92101973 13.75983954 0.7286868000000001 -0.927192 0.07435800000000001 0.323509
14160 -6.518048490000001 11.7418833 -1.2322341 -0.696209 1.468816 0.6523479999999999
14180 -4.35355047 6.70246668 -1.509759 -0.62032 1.496373 0.8878510000000001
14200 -4.48347411 5.617068659999999 -0.71641449 -0.596355 -1.155641 0.736525
14220 -3.98576376 7.42021533 -0.66956193 2.711182 2.293128 -0.11646
14240 -2.8240243200000004 8.00341002 -0.6408186300000001 3.239468 2.274366 -0.41078
14260 -2.97191988 5.76900594 -0.11929941000000001 -0.443669 -1.53506 -0.148547
14280 -3.3822133200000004 4.314928500000001 0.43903674000000004 -0.78487 -0.546553 -0.633965
14300 -3.05185176 4.441860090000001 -0.26599815 2.480578 1.16744 -0.25977
14320 -2.6429022900000003 5.38744599 -0.6572798100000001 1.852899 0.883056 0.00647
14340 -2.0101671000000003 6.51594915 -0.40864536 0.339895 2.260455 -0.013341
14360 -1.42324461 5.658084270000001 -0.62330778 -1.307469 1.494123 0.182301
14380 -0.53917722 5.0388182100000005 -0.50759883 -2.291742 -0.6761199999999999 0.039338
14400 -0.11705292 6.242318820000001 -0.99408654 -2.867642 -2.3208990000000003 0.004308
14420 -0.07948062 7.54266375 -2.3369382 -2.986389 -2.461888 -0.065775
14440 0.28725642 9.49071393 -6.806050470000001 -1.6923439999999998 0.180603 -0.00778
14460 1.02327129 8.541988830000001 -9.47889288 -0.086091 1.239189 -0.259631
14480 1.7865383400000001 6.99181263 -5.497916399999999 0.117407 0.524397 -0.437823
14500 1.10021112 6.32629242 -2.4822831600000006 -0.387583 0.080433 -0.330754
14520 -1.46634975 5.94189738 -3.9814179300000005 -0.570208 -0.281744 -0.176674
14540 -7.787109330000002 12.50678862 -12.056676390000002 -0.246331 0.466526 -0.036502
14560 -5.1361236 17.65144692 6.236776170000001 0.359323 1.212861 0.076799
14580 -6.806197620000001 20.42756901 7.144338510000001 0.625492 1.0629030000000002 0.051077
14600 -9.40045212 19.710114660000002 -2.6945421300000003 0.505598 1.121206 -0.039566
14620 -5.46513138 23.61968415 -6.01644357 0.866149 1.557879 -0.06324400000000001
14640 4.23334854 12.8958336 0.06765957 1.135413 1.435402 -0.037706
14660 0.6723970199999999 9.621088830000001 3.2840250300000005 1.16815 1.789145 -0.083864
14680 -1.5304188600000002 11.40014214 8.74781244 1.069642 1.318194 -0.239909
14700 -2.406393 11.619886140000002 6.0908328 1.138994 0.31150100000000003 -0.297955
14720 -3.87708858 13.048516440000002 1.4166522899999998 1.777123 1.124985 -0.221901
14740 -3.15095238 11.489354279999999 -0.9689337 2.404657 0.5684100000000001 -0.107846
14760 -1.42683507 9.73081368 -2.3316996600000004 2.631021 0.479833 0.0017399999999999998
14780 -1.6031698200000002 7.8576138 -4.50219159 3.040429 -0.405216 0.130715
14800 -2.09114865 7.02204705 -3.22579287 3.182728 -1.468992 0.16511900000000002
14820 -1.96496262 7.9561062 -1.5470370000000002 2.420923 -0.824808 0.103425
14840 -1.3593226500000002 7.871681340000001 -0.01272357 1.280214 -0.329894 0.402471
14860 -0.23351724 7.59310677 -1.4573736000000002 -0.703529 0.551751 0.890617
14880 0.87417891 7.834560300000001 -4.06120266 -1.434772 0.973851 0.928765
14900 -0.2803698 6.85828872 -4.233495690000001 -1.572779 1.366237 0.691222
14920 -1.6639427700000002 6.62208354 -2.50698474 -1.548694 1.062193 0.248467
14940 -2.09609289 7.14988116 -1.9579288500000003 -1.47767 0.651991 -0.061363
14960 -1.7899816499999999 6.643488960000001 -1.1139843600000001 -1.388048 -0.164011 -0.404728
14980 -2.0676537 6.4135621800000004 -1.29510639 -1.163122 -0.7801239999999999 -0.503848
15000 -1.2660687899999998 7.39806435 -2.3447273400000004 -0.832835 -1.384103 -0.531745
15020 -0.9247788900000001 7.449557040000001 0.14594337000000002 -0.468442 -1.858789 -0.42177
15040 -0.22467843 7.67528514 -3.19121262 -0.27826 -1.963072 -0.348737
15060 0.24758478 9.350156250000001 -4.4918616600000005 -0.483805 -1.726491 -0.193447
15080 0.34038738 11.19372012 -5.209620120000001 -0.919631 -1.7732 -0.122724
15100 -0.6601247100000001 14.36682348 -5.838313590000001 -1.331395 -1.423821 -0.024567
15120 0.182466 18.477125190000006 -4.30789473 -1.022031 -0.905143 0.267486
15140 1.0027683900000002 17.762211630000003 -4.465364850000001 -0.950566 -0.626362 0.551775
15160 -0.26674371 14.127174990000002 -0.8740317600000002 -1.826653 -1.26187 0.662906
15180 -2.10626586 13.17560499 3.0460148100000004 -2.006543 -1.274559 0.795193
15200 -6.74826957 12.900768030000002 1.6878889799999999 -1.090421 0.288408 1.014302
15220 -6.34965003 10.94793057 -1.9532887200000002 -0.488973 0.855504 0.933387
15240 -2.80277586 8.303380200000001 -2.35056429 -0.0011619999999999998 -0.390094 0.583741
15260 -4.22646192 9.120082320000002 -1.46545704 0.902112 -1.883845 0.12622
15280 -3.80508318 8.37343341 -2.94812082 1.829787 -1.072489 -0.846831
15300 -4.554881100000001 8.65215513 -0.90142128 1.675066 0.247263 -0.94788
15320 -2.37077289 5.99143788 -2.8726721100000003 -0.179588 0.306723 -0.091378
15340 -1.9083785400000002 5.68218744 -2.22287733 1.140098 1.304194 -0.2629
15360 -2.04788655 6.25743603 -1.6724676600000001 0.438152 -0.347821 -0.510309
15380 -2.23650342 6.79721166 -0.61192818 -0.5944159999999999 0.546842 -0.372321
15400 -2.27063241 6.406077150000001 0.00523854 0.50476 0.631556 0.13304000000000002
15420 -1.7771011200000002 5.757773490000001 -0.24249339000000003 0.31297 -0.001598 0.394226
15440 -0.6509916 5.8363613999999995 -0.30686661000000004 -0.248224 0.576248 0.4974560000000001
15460 -0.21271023000000003 6.092932139999999 0.50235048 -0.686285 0.758414 0.343543
15480 -0.29818476 5.765415480000001 0.88166394 -1.058915 0.322429 0.205835
15500 -0.6427610100000001 6.952445100000001 -1.67487111 -1.642078 -0.387833 0.109736
15520 -0.24100227 8.88117939 -5.682933 -1.494604 -0.269405 -0.06350599999999999
15540 0.73167885 8.20398528 -5.9718276900000005 -0.188253 0.5546939999999999 -0.290446
15560 1.4668010100000002 5.917342950000001 -5.28835518 0.7139409999999999 0.6232479999999999 -0.367553
15580 0.29173959000000005 4.416265800000001 -5.403161610000001 0.461157 0.24775 -0.284448
15600 -3.3209891100000006 4.520153700000001 -6.631206840000001 0.08680399999999999 0.341468 -0.219885
15620 -7.230715560000001 10.392135210000001 -2.5722506700000003 0.268074 0.796762 -0.215998
15640 -10.173744990000001 20.38879989 3.2067810900000002 0.355429 0.979788 -0.241259
15660 -10.508001120000001 23.621175270000002 2.4369315300000003 0.5000020000000001 1.141043 -0.199864
15680 -3.09511386 16.43806764 1.64447973 0.749686 1.232511 -0.113847
15700 -3.9600125100000003 12.74030586 4.38648264 0.895842 1.259583 -0.08401900000000001
15720 -1.71962433 16.69358871 2.0181033900000003 0.993631 0.783697 -0.241891
15740 2.4768974700000004 19.05746517 -0.6819813900000001 1.19775 0.627436 -0.235992
15760 3.0975075 13.44983373 -0.8406483299999999 1.733618 1.718341 0.08254700000000001
15780 -0.27482715 11.71179603 0.5436702 2.395049 2.180727 0.559796
15800 -2.8011277800000003 11.21437998 2.48797296 3.086828 1.134279 0.845844
15820 -3.1638231000000006 9.73920123 1.6070545800000002 3.385609 -0.481967 0.642767
15840 -2.7825672600000004 8.47373085 0.25492266 3.136749 -1.083888 0.33628800000000003
15860 -3.08808009 7.916434560000001 -2.11211262 2.090012 0.110493 0.126621
15880 -2.8421433900000004 8.26072632 -3.2904603900000002 0.241775 0.4582100000000001 0.553372
15900 -1.76288643 7.43369427 -3.73189077 -1.050845 0.629677 0.618899
15920 -1.1557455300000001 7.22921463 -2.39098149 -1.299048 1.126042 0.315291
15940 -1.3624618499999999 6.975047340000001 -1.90732887 -1.457987 0.842269 0.02292
15960 -1.3232512800000003 6.5806166699999995 -1.2380710499999998 -1.728229 0.594648 -0.155975
15980 -0.63123426 5.9607522 -1.70390871 -1.950902 0.98911 -0.306519
16000 -0.5343899400000001 6.0972681600000005 -3.1747514400000005 -2.291387 0.874402 -0.629217
16020 -0.64620432 6.673870530000001 -2.79993096 -2.280669 -0.47263 -1.03975
16040 -0.63393201 6.86082951 -2.23514964 -1.770825 -2.2498720000000003 -1.12471
16060 -1.1169764100000001 7.01590599 -2.35924614 -1.080777 -3.0404720000000003 -1.148787
16080 -0.67748841 6.9698088 -2.443671 -0.852599 -2.494125 -1.045344
16100 0.06196977000000001 7.723187370000001 -4.26238614 -0.8673290000000001 -2.122539 -0.717979
16120 1.52667144 9.72273024 -5.57006895 -0.81297 -1.414351 -0.709961
16140 2.0806715700000002 12.36159081 -6.05280924 -1.054208 -0.8301790000000001 -0.335312
16160 -0.52211763 15.978518190000003 -7.73052525 -1.230991 -0.221324 0.204261
16180 -4.2224202 17.15058756 -3.33311427 -1.010105 0.386852 0.569288
16200 -4.00716918 13.3933968 0.058232160000000005 -0.592055 0.223023 0.6835140000000001
16220 -2.8234259100000005 9.955796220000002 4.384677600000001 -0.310638 -0.378479 0.611475
16240 -3.14091675 10.807677 4.08844503 0.009082 -0.408655 0.421467
16260 -8.90662653 14.99042556 -4.73375664 0.5160819999999999 -0.954289 0.301793
16280 -5.872884030000001 13.08054609 -5.980215240000001 0.488396 -2.660537 0.245034
16300 -3.02221575 8.35622667 -2.7652035600000002 0.210175 -2.862011 -0.011956
16320 -3.3521260500000007 5.85926775 -0.87627825 0.938287 0.717275 -0.100119
16340 -4.76339265 5.78441745 0.7113231000000001 0.845138 1.63888 -0.054949
16360 -4.96113282 6.03664236 0.19534653000000002 -2.282723 -0.588935 -0.458502
16380 -4.08739536 6.1171824599999995 -1.32698889 0.121745 1.851324 -0.074161
16400 -2.48677614 6.43197555 -2.5119289800000004 1.95843 0.849826 0.232644
16420 -2.1594066300000003 7.930060650000001 -3.3617104200000005 1.222983 1.175446 0.15979200000000002
16440 -1.6244182800000002 7.57334943 -3.02999508 -0.502358 2.814457 0.169141
16460 0.23650929 8.17345656 -2.44217007 -1.7617189999999998 1.21274 0.081212
16480 1.32639048 8.57880576 -3.05364699 -1.921023 -0.233672 -0.104986
16500 2.00792061 7.912991250000001 -5.00873094 -2.577756 -1.914021 -0.232402
16520 1.28252997 9.15002244 -6.386319810000001 -2.89635 -3.416293 -0.16433599999999998
16540 0.18037647 9.37979226 -5.8562757 -0.640548 -0.918879 -0.35687800000000003
16560 -1.28702295 8.07511131 -4.1706234 0.352102 0.536296 -0.420175
16580 -2.30146524 5.526061290000001 -3.19780494 -0.131347 0.33636 -0.351725
16600 -1.8532953900000002 3.5342977500000003 -1.4792204699999998 -0.477511 -0.317188 -0.184527
16620 -1.55840679 3.4091613900000004 -0.77209605 -0.589529 -0.507666 -0.139132
16640 -2.74798701 8.0489088 -0.90651267 -0.17306 0.194456 0.00602
16660 -7.57200546 18.33911811 -2.41447644 0.633332 0.465129 0.082876
16680 -6.654260340000001 22.73651928 7.4621334599999996 1.410557 0.25505500000000003 -0.004361
16700 -4.73765121 12.410238600000001 4.61639961 1.7615330000000002 0.406484 -0.08222
16720 -7.866737100000001 24.73082361 0.8147597400000001 1.783987 0.459392 -0.278684
16740 0.94408497 18.62980803 -3.70135224 1.3864 0.613771 -0.445097
16760 0.41164722000000004 9.01455615 3.64327704 0.971615 0.636641 -0.476865
16780 -0.72149607 9.74204613 4.239479790000001 1.269025 1.110495 -0.419848
16800 -1.79970336 10.90107801 8.315809470000001 1.6578400000000002 0.813651 -0.582326
16820 -2.27047545 14.16728808 4.81727898 1.990464 0.429364 -0.673513
16840 -3.3852151800000003 12.85347402 2.8104080400000004 2.77422 0.6596989999999999 -0.346799
16860 -2.17767285 10.347381989999999 0.14804271000000002 3.388412 0.418759 -0.033484
16880 -1.7028590399999999 8.991355500000001 -5.4866937600000005 3.893866000000001 -0.637422 -0.082011
16900 -1.44509148 8.205034950000002 -5.74026264 3.652819 -1.5536370000000002 0.412066
16920 -0.36748260000000005 5.71466835 -1.73339757 2.60183 -0.541284 0.970653
16940 -1.16757639 5.886657270000001 0.33755229 0.610042 1.103361 1.400082
16960 -0.46058931000000003 5.93919963 1.31112612 -1.189007 0.7604029999999999 1.346294
16980 0.91325214 6.4176039 -0.79888716 -1.288433 0.34476 1.212604
17000 1.68279759 6.94615689 -3.1774393800000005 -1.177406 1.178059 1.319134
17020 0.14220576000000001 8.29529676 -4.73196141 -1.887368 0.557287 0.7990189999999999
17040 -1.87529922 8.90662653 -4.24067661 -1.88682 -0.378657 0.690196
17060 -3.0329969400000003 8.086333950000002 -2.5991987400000003 -1.640236 -1.382885 0.129184
17080 -3.1484017800000004 7.294029300000001 -0.54606384 -1.336438 -2.38873 -0.343832
17100 -3.0544023600000005 7.24389039 -0.24189498000000004 -1.067824 -2.566005 -0.466711
17120 -2.30940153 8.0081973 -0.45580203 -0.8411549999999999 -2.442219 -0.450331
17140 -1.6064561700000002 9.24776928 -4.03651089 -0.7732140000000001 -2.211568 -0.380718
17160 -1.03793724 9.842932170000001 -3.3750324000000003 -0.791812 -1.952187 -0.494411
17180 -0.8759741400000002 10.56937248 -5.265900090000001 -0.693665 -1.962083 -0.502259
17200 0.47930679000000004 10.97143533 -7.957155870000001 -0.790984 -2.432819 -0.446788
17220 0.56492847 12.43464588 -6.67566576 -0.7192 -2.291794 -0.610973
17240 -0.43813422 14.842530000000002 -5.25571731 -0.042515 -1.407225 -0.496285
17260 -0.09490194 14.85809847 -0.8478390600000001 0.266156 -1.219026 -0.142925
17280 1.0571059800000002 13.428271350000001 3.07116765 0.33907600000000004 -0.8475959999999999 0.14766500000000002
17300 1.1443659300000002 11.396551680000002 5.979312719999999 0.507468 -0.669029 0.367597
17320 -2.0561269500000003 11.53740366 3.7901229300000003 0.8956120000000001 -0.833844 0.488024
17340 -5.06172456 13.181441940000001 -2.88165807 0.911351 -0.983735 0.396459
17360 -3.23162982 13.68469494 -3.5543592 0.735835 -1.262658 0.237494
17380 -2.3601388500000002 11.109452220000001 -2.19982383 0.74473 -1.834031 0.059895
17400 -2.1472814700000002 8.53360128 -2.86085106 1.972578 -2.150355 -0.220611
17420 -3.5088506100000005 7.79758641 -1.98771201 1.551184 -2.418471 -0.7370260000000001
17440 -2.8648927800000004 7.5975997500000005 -2.83614948 0.9002819999999999 -1.075628 -0.322414
17460 -2.33200377 6.94615689 -2.40086016 0.376509 0.031383 -0.182213
17480 -2.07513873 6.90229638 -1.55766123 0.048517000000000005 -0.069742 -0.183306
17500 -2.2369448700000003 6.07451877 -1.19781081 -1.554353 -2.323384 0.019894
17520 -3.0540982500000005 5.654493810000001 -1.16861625 -1.410137 -2.224936 0.31667199999999995
17540 -3.05604063 6.14397357 -0.8526263400000001 -0.976961 -1.21137 0.617502
17560 -2.6994863700000002 6.72686415 -1.28013633 -0.8213219999999999 -0.87155 0.749545
17580 -2.94243102 7.77543543 -3.7576322100000006 -1.198385 -0.064717 0.705284
17600 -2.53707201 9.50269194 -5.670062280000001 -1.459755 -0.103159 0.422566
17620 -0.20761884 9.42754734 -7.676040510000001 -1.3013940000000002 -0.66435 0.233179
17640 1.83248838 8.88222906 -7.579941750000001 -0.896121 -0.331888 0.12448900000000003
17660 1.71648513 8.31461265 -4.83374997 -1.008925 -0.816963 0.049547
17680 1.18643121 8.14217247 -3.8145204000000006 -1.086453 -1.127142 -0.103353
17700 -0.50190903 8.08783488 -2.81055519 -1.542409 -1.154667 -0.283827
17720 -1.96137216 6.819970860000001 -1.9363762800000002 -1.526375 -1.133584 -0.508069
17740 -1.57502493 5.335060590000001 -1.77425622 -1.162573 -1.129658 -0.7394729999999999
17760 -4.40219826 10.50021198 -1.73564406 -1.340068 -1.05629 -0.817719
17780 -8.188573770000001 14.83310259 3.15139383 -1.758666 -1.006368 -0.6850430000000001
17800 -7.39567071 19.092947940000002 7.83724824 -1.267861 -0.826608 -0.509861
17820 -5.98514967 15.60175533 6.63959439 -0.374659 -1.012744 -0.02482
17840 -4.16494341 13.783491450000001 8.13468744 0.353895 -1.0736370000000002 0.185445
17860 -3.01368105 16.235834490000002 6.95828205 1.667403 -0.782464 -0.507575
17880 -2.9069580600000005 19.52135064 0.54292464 2.322091 -0.293209 -0.8817790000000001
17900 -0.47032083 15.34039731 2.75652171 3.103307 -0.017931 -1.135185
17920 -2.41537896 12.83071482 -0.8753757300000001 4.1334019999999985 0.037445 -0.958213
17940 -4.8440799000000005 13.750853580000001 -0.47091924000000007 4.3108260000000005 -0.588332 -0.46479
17960 -4.6270238400000006 10.918441710000002 0.8271792000000001 4.148493 -1.874042 0.188407
17980 -3.33880407 8.13797379 0.9651960900000001 3.97408 -1.019159 0.20639
18000 -2.8228275000000003 7.39342422 0.98375661 3.165817 -0.19401 0.217847
18020 -2.65323222 5.0960007 1.6277144399999999 1.957868 0.030558 0.250782
18040 -1.3186111500000002 4.30534413 -0.69754986 1.468366 -0.581448 0.542976
18060 -1.44180513 5.8546276200000005 0.16241436 1.5491549999999998 -0.239288 0.953299
18080 -2.63302362 5.845494510000001 0.51358293 1.119279 0.331926 1.2689629999999998
18100 -3.2675540400000003 5.986954710000001 0.68812245 0.848984 0.247871 1.74361
18120 -3.3310247400000006 6.626419560000001 0.89199387 0.834242 0.14719100000000002 1.360144
18140 -2.68721406 9.243129150000001 -0.13277835000000002 0.44454 -1.79683 1.138791
18160 -1.50362775 10.8512334 -1.86407658 0.05328 -2.226825 1.117381
18180 0.6361785000000001 11.04253821 -3.2001985800000003 0.083051 -2.426487 0.939452
18200 0.12768696000000002 13.518238859999999 -5.45345748 0.186359 -2.6360240000000004 0.7695270000000001
18220 -3.18477726 13.52677356 -7.50643542 0.653569 -3.346257 0.554715
18240 -6.02123085 12.306507660000001 -7.5244073400000016 0.8840889999999999 -3.89001 0.470496
18260 -3.2560272900000005 13.64846661 -5.80687254 0.812925 -3.228692 0.5866560000000001
18280 -1.13928435 14.931594990000002 -4.4942553 0.688446 -2.683872 0.5786789999999999
18300 1.2840309 15.21615366 -3.48669963 0.607854 -2.581298 0.571575
18320 1.6239768300000001 18.49673538 1.3837201200000002 0.624736 -2.097925 0.6223479999999999
18340 2.8619007300000003 20.427274710000003 6.25953537 0.756238 -2.033415 0.6263890000000001
18360 2.9509657200000006 15.60639546 7.47574974 0.582136 -1.839995 0.625993
18380 -0.53364438 12.521611530000001 5.612134230000001 0.225194 -1.5031709999999998 0.619863
18400 -2.20551363 13.074257880000001 3.75599394 -0.129772 -1.215302 0.599923
18420 -2.6616197700000006 12.272682780000002 2.36493594 -0.373414 -1.3527360000000002 0.548191
18440 -1.82110878 11.40882399 3.2983868700000003 -0.398299 -1.6849439999999998 0.530283
18460 0.26465418 11.54204379 2.7819688499999997 -0.113396 -1.895864 0.548567
18480 0.3634408800000001 10.69555851 3.3335655300000004 0.21742 -1.967919 0.698385
18500 -0.5363323200000001 9.39550788 5.0942054699999995 0.4493680000000001 -2.067963 0.740726
18520 0.27901602 7.938742500000001 -0.11331531000000002 0.555438 -2.075359 0.6335850000000001
18540 -0.1761876 7.45778763 3.07535652 0.243554 -1.863668 0.446333
18560 -0.16406244 7.27786242 2.97371511 -0.31612 -1.253702 0.241885
18580 -0.22902426 7.49671371 2.46687165 -0.648888 0.22252800000000006 -0.20778
18600 -0.9110056500000001 8.040531060000001 2.23050951 -1.029469 1.082984 -0.604646
18620 -2.11030758 9.19582533 2.28095253 -2.144021 -1.265052 -0.661766
18640 -3.15095238 9.35659161 1.49509305 -0.463077 -1.123614 0.071913
18660 -4.62358053 8.8439112 0.7833186900000001 2.828502 1.30522 -0.384635
18680 -4.65607125 9.35464923 -0.28575549 1.589623 1.091928 -0.31717199999999995
18700 -3.7809898200000003 9.679772250000001 -1.06218756 -0.499128 -1.069287 -0.162349
18720 -3.2665043700000003 9.34895943 -1.79161992 -0.56867 -1.386241 0.039465
18740 -2.8603998 8.203543830000001 -1.33881975 0.047166 -0.610776 0.052387
18760 -1.9832288400000002 6.880292550000001 -0.60009732 0.308604 -0.16835799999999998 0.009849
18780 -0.65818233 6.420448800000001 -0.6559358399999999 -0.420379 -0.583909 0.132408
18800 -0.36599148000000004 7.10857125 -1.2284964900000002 -3.172034 -3.612736 0.448217
18820 0.17408826000000002 8.53689744 -2.33289648 -2.649233 -3.254006 0.328564
18840 0.96654006 9.90205704 -4.12856793 -0.846786 -0.770867 0.102963
18860 1.9426644900000003 11.13983379 -5.357505870000001 0.073203 -0.026195 -0.172507
18880 2.88195237 12.066260760000002 -5.119652610000001 -0.192179 -0.166034 -0.136794
18900 2.19248595 11.20928859 -5.27862366 -0.48032 -0.858675 -0.100531
18920 0.69380244 9.09539055 -4.45024764 -0.457867 -1.866227 -0.169586
18940 -0.75966678 6.970103100000001 -2.71565325 -0.602449 -1.813168 0.006661
18960 -3.01967496 6.7936212000000005 0.28845324000000006 -0.715581 -0.307902 0.096877
18980 -5.59281834 8.25847983 3.76542135 -0.751779 0.733761 0.172202
19000 -7.879166370000001 16.49360205 0.35910486 -0.992285 0.297165 0.072805
19020 -11.17111788 25.011634860000004 -12.57968673 -0.986085 -0.4678020000000001 -0.173999
19040 -0.18351567000000002 12.54780423 -2.3872340700000003 -0.864038 -0.814689 -0.377801
19060 -1.8359316900000002 4.37539734 7.40150766 -0.879231 -0.73752 -0.481623
19080 -1.4852143800000002 6.02496846 4.68121428 -0.952689 -0.466678 -0.483552
19100 -1.00320984 6.086643929999999 5.622905610000001 -0.96938 -0.363364 -0.464573
19120 -0.40849821 7.99293294 7.185805380000001 -0.795922 -0.430146 -0.431229
19140 -0.6122224800000001 12.028237200000001 6.73569315 -0.658673 -0.679127 -0.357312
19160 -0.7315317000000001 13.024118970000002 4.1962275 -0.647055 -0.814972 -0.22887
19180 -1.30543632 11.42049789 -0.8897473800000001 -0.540978 -0.376849 -0.128278
19200 -2.3197216500000004 8.88327873 -4.428243810000001 -0.240656 0.390417 -0.18912
19220 -3.64416975 8.371196730000001 -0.02470158 -0.131194 0.471244 -0.250416
19240 -3.9492411300000003 7.461986310000001 -1.05740028 -0.096768 -0.230678 -0.303755
19260 -2.42750412 8.56129491 0.02065986 -0.113897 -1.011243 -0.359491
19280 -1.29046626 10.29634056 0.85382316 0.036296 -1.169006 -0.463993
19300 -0.12185001000000001 10.643761710000001 0.1070271 0.372933 -1.055081 -0.474606
19320 -0.25327458 10.26790137 0.11884815000000001 1.065652 -0.979757 -0.464523
19340 -0.84664224 8.70185259 1.16158248 2.410264 -1.227944 -0.304194
19360 -1.3102235999999998 8.96634981 2.37496176 3.5921800000000004 -1.7283369999999998 0.197154
19380 -1.57143447 9.34477056 1.64462688 3.734682 -1.6474369999999998 0.621061
19400 -2.3451687900000002 9.02847654 0.90770949 3.198753 -1.37449 0.494122
19420 -2.6985838500000003 8.62057674 1.16712513 3.169541 -0.572116 0.198061
19440 -2.6337691800000003 8.593628670000001 1.4076761400000002 3.115944 0.804265 -0.032677
19460 -2.20266873 9.28429191 1.38911562 2.772094 1.811528 -0.14532799999999998
19480 -1.40153508 9.40299291 1.71273771 2.263287 2.039377 0.059129
19500 -0.9216298800000001 9.45149355 1.3554280800000003 1.907982 1.454175 0.191993
19520 -0.81430848 9.73066653 1.3247424000000003 1.755106 -0.010164 0.220576
19540 -1.28044044 9.99950958 0.8234415900000001 1.767914 -0.945572 0.233614
19560 -1.7872839 9.60627573 0.26135802 1.412843 -0.002096 0.896496
19580 -2.5521892200000003 9.649233720000002 -0.33410898 1.471564 0.144155 1.034519
19600 -2.07454032 9.80026848 0.34757811 1.455068 -0.543539 0.930599
19620 -1.35962676 10.29259314 0.8214894 1.330662 -0.999807 0.8544709999999999
19640 -0.8385588 10.559189700000001 0.92358207 0.972094 -1.387925 0.722141
19660 -0.80966835 10.14574725 0.06990606 0.458585 -1.3090959999999998 0.6351319999999999
19680 -0.7650622800000001 11.884383360000001 -0.6102801 0.091136 -0.757879 0.569902
19700 -0.44666892 13.218111720000001 -1.5482338199999999 -0.327622 -0.047528 0.447494
19720 0.85501998 14.11938585 -2.36642706 -0.717383 0.608781 0.22815
19740 1.8535995 15.575258520000002 -2.08141713 -1.058391 0.902937 -0.043801
19760 1.21726404 14.97456279 -0.64290816 -1.273883 0.577975 -0.376039
19780 -1.9809823500000001 11.959076700000002 0.58213521 -1.292043 -0.147491 -0.6230640000000001
19800 -5.408253 10.63763046 2.2192868700000004 -1.175452 -1.076631 -0.669129
19820 -6.31282329 12.720401370000001 3.0466132200000002 -1.12785 -1.428135 -0.453633
19840 -6.7156317 14.153073390000001 4.34695815 -0.8074939999999999 -1.060821 -0.147423
19860 -7.05198717 13.314965850000002 4.56176772 -0.443792 -0.640009 0.06288200000000001
19880 -5.825433060000001 11.164682520000001 3.30048621 -0.394523 -0.30590100000000003 0.117277
19900 -3.4937334000000004 9.82332198 2.37586428 -0.386904 0.021948 0.174594
19920 -1.33447392 9.74593089 2.8720737 -0.434414 0.261284 0.30321
19940 0.46478799 9.772133400000001 1.72232208 -0.5349510000000001 0.09176 0.4266390000000001
19960 1.85808267 10.02959685 1.20589425 -0.614138 -0.494694 0.367017
19980 0.43649595 9.74638215 -0.09116433 -0.6409189999999999 -1.142753 0.217041
20000 -1.50901344 8.25788142 0.29369178 -0.633899 -1.592934 0.103367
20020 -2.7300249 7.51078125 1.0897340400000002 -0.651105 -1.875114 0.088654
20040 -2.9840450400000003 7.3030152600000005 1.2049917300000001 -0.671126 -1.902407 0.005228
20060 -4.24098072 6.721625610000001 1.07655921 -0.534724 -1.193539 0.038387
20080 -5.295987360000001 6.016737870000001 0.39861954000000005 -0.010556 -0.344579 -0.13316
20100 -4.36178106 5.00214843 -0.12109464000000002 0.029587 -0.61457 -0.31519899999999995
20120 -3.2560272900000005 4.83284745 -0.33784659 -0.265203 0.513571 -0.063399
20140 -2.4632811900000005 4.83524109 -0.8583161400000001 -0.123448 1.264877 0.008199
20160 -1.9464021 5.285059020000001 -1.30438665 2.194284 2.120451 -0.175397
20180 -1.38701628 5.5844406 -1.80854217 2.814039 0.739662 0.134076
20200 -0.37018035000000005 6.042037860000001 -2.1314187 1.355307 1.406094 -0.09168
20220 0.50759883 7.2690334199999995 -1.65256317 -0.176318 2.304832 -0.007390000000000002
20240 1.08239616 9.21318903 -1.99265625 -1.203077 1.286829 0.249525
20260 1.10695059 7.46467425 -2.9877826500000007 -1.90542 -0.5669109999999999 0.365568
20280 0.42646032 7.122638790000001 -3.3648496199999998 -2.789564 -2.417329 0.341467
20300 0.47182176000000003 7.17637797 -2.5614694800000004 -3.73212 -3.3350120000000003 0.479201
20320 0.14205861 7.29792387 -1.79491608 -2.717261 -0.8270569999999999 0.324979
20340 -0.56732211 7.1994314699999995 -1.36695483 1.083934 0.457423 -0.245115
20360 -1.6040625300000002 7.6413131100000005 -1.53969912 2.043628 -0.183915 -0.533487
20380 -2.15596332 7.85326797 -1.7714211300000002 0.746261 0.265967 -0.558081
20400 -2.21269455 8.0918766 -2.00568393 -0.571009 -0.239173 -0.432039
20420 -2.40878664 8.26611201 -2.3745105 -0.732248 -0.807217 -0.495462
20440 -2.5036983900000003 7.650593370000001 -2.8520220600000004 -0.675541 -1.186891 -0.435828
20460 -3.0120329700000004 7.031327310000001 -2.3107455000000003 -0.462936 -0.745037 -0.294972
20480 -5.67379989 9.9577386 -1.6847497800000002 0.086145 0.048154 -0.128715
20500 -7.050937500000001 17.70054597 0.22842585 0.646748 0.426372 -0.093237
20520 -5.658535530000001 20.94803856 2.8334615400000005 0.631563 0.390129 -0.07406900000000001
20540 -3.7115350200000004 19.3828923 -2.7807720300000005 0.321777 0.374834 -0.242856
20560 -2.7439452900000005 23.56683768 -15.02545707 0.127797 0.512441 -0.387529
20580 3.19271355 11.83588272 3.36020949 0.540284 0.840407 -0.44382
20600 -1.4826637800000002 10.440194400000001 6.030511110000001 0.731957 1.047261 -0.391471
20620 -1.58909247 10.189764720000001 8.21266713 0.821415 1.661971 -0.21430900000000006
20640 -1.0008162 10.177482600000001 7.792642170000001 1.204761 1.58041 -0.130342
20660 -2.97581445 12.365034119999999 3.2416556400000003 1.943319 0.7127439999999999 -0.104844
20680 -3.4438887900000004 12.81081033 0.52810173 2.298613 0.479387 0.13508199999999998
20700 -2.2129986600000002 11.828701800000001 -2.3264611200000003 2.274639 0.185342 0.429053
20720 -0.053140770000000004 10.784319390000002 -4.20954948 2.971213 -0.5298390000000001 0.452995
20740 -1.8696094200000002 9.58262382 -7.48219491 2.545664 -0.452905 0.496925
20760 -3.07370844 7.55209116 -3.01891959 2.094207 -0.536254 0.686159
20780 -2.7719332199999998 8.3696958 1.22474907 0.784037 0.384758 1.135162
20800 -2.17332702 6.652170810000001 2.51731467 0.053087 0.779532 1.0804120000000002
20820 -0.2080701 6.99810084 1.8203632200000002 0.046823 0.208965 0.7147
20840 0.75248586 6.97249674 0.37451637000000004 -0.15259 -0.103252 0.378285
20860 1.2546891900000001 6.7021625700000005 -1.4430019500000002 -0.361119 -0.21766 0.132352
20880 1.5209914500000001 7.155266850000001 -3.3656049900000005 -0.485611 -0.274224 0.000164
20900 -0.038621970000000005 7.4164777200000005 -3.68623503 -0.576117 -0.335287 -0.101871
20920 -1.3524360300000002 6.52388544 -1.1976636600000001 -0.731486 -0.3206 -0.176682
20940 -2.63661408 6.23198889 -0.2980278 -0.885483 -0.4668100000000001 -0.242732
20960 -3.21576705 5.41049949 -0.76850559 -1.107096 -0.6768029999999999 -0.283535
20980 -2.9183278500000003 5.4805527000000005 -1.6007663699999999 -1.234544 -0.5962689999999999 -0.332599
21000 -1.7714211300000002 6.564449790000001 -1.3703981400000003 -1.157637 -0.32813000000000003 -0.321723
21020 -0.84260052 9.28280079 -2.77432686 -1.0296040000000002 -0.315837 -0.310162
21040 0.2555210700000001 10.96724646 -4.273167330000001 -0.992929 -0.93915 -0.310175
21060 0.92672127 10.798396740000001 -5.301824310000001 -1.0940379999999998 -1.984184 -0.223017
21080 0.09520605 10.3565151 -5.20617681 -1.574362 -2.77602 -0.255267
21100 -1.0904796 15.134426550000002 -4.01599818 -1.958132 -1.7944790000000002 -0.294457
21120 -1.7092944 18.38716749 -3.3908951700000003 -0.927873 0.163719 0.088381
21140 0.3505701600000001 18.87289983 -2.3050557 -0.07343999999999999 -0.240219 0.196348
21160 -0.19863287999999998 18.87215427 -0.7455992400000001 -0.052336 0.5284 0.305537
21180 -1.6703781300000002 19.3279563 -0.8589145499999999 -0.16058599999999998 0.956872 0.607607
21200 -5.901627330000001 14.737307940000003 -1.55242269 -0.082913 0.292554 0.703004
21220 -7.1983818 10.86036651 -2.56192074 -0.004825 -0.616379 0.6983050000000001
21240 -6.94481292 9.15960681 -1.77485463 1.306798 0.296553 0.09741
21260 -5.44028265 8.19800118 -1.06503246 0.391723 -1.979104 -0.117573
21280 -3.8119698 7.663611240000001 -0.8818209 0.817641 -0.074736 -0.400117
21300 -2.5852783500000003 7.2362484 -0.6825798 0.948624 1.009562 -0.20938
21320 -2.6470911600000004 6.30129654 -0.14729715000000002 2.3657470000000003 2.475018 0.250499
21340 -2.9292561900000003 5.317539930000001 0.23081949000000002 1.425432 1.887287 0.4572600000000001
21360 -3.35407824 4.79393118 0.17858124000000003 0.538938 2.72385 0.08039099999999999
21380 -3.64297293 4.328996040000001 0.029184750000000002 -0.40065 1.4368299999999998 0.137434
21400 -3.60525348 3.9520860300000002 0.5724135 -1.636414 -0.906063 0.231149
21420 -2.8569564900000004 4.00447143 1.26652005 -2.667584 -2.793984 0.122748
21440 -1.83518613 4.80455541 1.17026433 -3.498397 -2.594551 0.253421
21460 -1.061442 5.22682686 0.27602397 0.424837 2.673586 0.494128
21480 -0.73272852 5.551204320000001 -0.96280245 1.723236 2.554268 -0.095922
21500 -0.44322561 6.305191110000001 -2.6005427100000005 0.785068 0.498439 -0.652111
21520 -1.18898181 6.865920900000001 -5.31215424 -0.293578 -1.110858 -0.5999
21540 -0.06960195000000002 8.94974148 -10.10938158 -0.7337560000000001 -1.050576 -0.641508
21560 1.1455725600000002 10.02031659 -9.95115609 -0.077652 1.085228 -0.392902
21580 0.91145691 8.891656470000001 -4.09054437 0.607229 1.6831060000000002 -0.252152
21600 0.83691072 7.60807683 -2.24607798 0.189795 0.8019850000000001 -0.122547
21620 -0.36508896 6.41939913 -2.75741442 0.353624 0.991867 -0.063962
21640 -4.0799201400000005 7.9617960000000005 -3.44104389 0.915736 0.863532 -0.159216
21660 -6.5529230400000005 14.66724492 4.31746929 1.022031 0.8711909999999999 -0.301625
21680 -9.428891310000001 21.079011870000002 -2.20745601 1.275784 0.466028 -0.431793
21700 -5.344939260000001 18.61588764 -0.7707520800000001 1.69743 0.504021 -0.441715
21720 -5.75657667 25.78523184 -11.83573557 2.322467 0.797728 -0.107645
21740 3.9851653500000004 16.449594389999998 1.22924205 2.68894 0.875552 0.092436
21760 -1.2156257700000002 8.54288154 5.6896724700000005 2.857192 -0.293996 0.181636
21780 -2.53288314 8.522231490000001 7.93680012 2.531262 0.556309 0.6760609999999999
21800 -2.0580693300000004 9.72856719 4.817583090000001 0.702455 1.843665 0.803711
21820 -3.2448046500000003 11.710746360000002 0.33351057 -0.502945 0.366229 0.225685
21840 -3.3608079 12.497665320000001 -1.16413308 -0.152372 0.274331 -0.006756999999999999
21860 -0.8048810700000001 12.83970078 -6.667582320000001 -0.940525 1.164097 0.344452
21880 -0.84708369 12.10203783 -11.540699820000002 -1.458979 0.797886 0.200294
21900 -2.3921783100000003 7.887701070000001 -0.16794720000000002 -1.417522 0.359521 0.032367
21920 -3.9686943600000006 5.363499780000001 0.58662819 -1.5249620000000002 0.364312 -0.272833
21940 -4.34606544 3.8694564000000002 0.5373819900000001 -1.593893 0.425291 -0.5436529999999999
21960 -2.15371683 5.749542900000001 -0.026192700000000003 -1.437457 -0.12711 -0.532238
21980 -0.48139632000000004 7.30421208 -5.2838622 -1.398972 -1.016921 -0.489169
22000 0.49621923000000007 7.03776267 -3.06487944 -1.284899 -1.566774 -0.545351
22020 -0.16466085 6.913371870000001 -1.0463247900000001 -1.243903 -1.438129 -0.517456
22040 -0.43693740000000003 8.01523107 -2.6427551400000002 -1.316193 -1.065345 -0.43939
22060 -1.38986118 8.3261394 -3.79955034 -1.323721 -1.367649 -0.491398
22080 -2.31703371 8.11956042 -3.26530755 -1.309513 -1.977146 -0.463812
22100 -1.39330449 7.87392783 -3.26920212 -1.297741 -1.845482 -0.100703
22120 0.37946061000000003 8.86232457 -5.291798490000001 -1.105012 -0.260833 0.384653
22140 2.2528174499999998 9.891727110000001 -6.05206368 -0.656274 0.6175390000000001 0.6483760000000001
22160 0.6599775600000001 13.4309691 -6.448289580000001 -0.36004200000000003 -0.032822000000000004 0.7933520000000001
22180 -4.17092751 15.08592591 -4.343514840000001 0.004838 -1.505995 0.98366
22200 -3.8914602300000003 14.12792055 -0.12154590000000001 2.455964 0.741371 0.28326
22220 -3.68533251 10.340642520000001 4.298908770000001 1.888095 0.968429 -0.859722
22240 -2.59679529 8.645719770000001 0.90890631 -0.383826 -1.696345 -0.093443
22260 -1.01893527 11.040438870000001 -3.39478974 0.220666 1.746735 -0.111792
22280 -2.77522938 15.60654261 -2.88419886 0.76907 2.675977 -0.13479000000000002
22300 -5.11515963 13.43486367 -4.28993262 2.00978 1.462705 0.101895
22320 -2.9855459700000004 8.11881486 -3.10723902 1.146933 1.411827 -0.013026
22340 -3.4151454900000004 5.3132039099999995 -1.8768001500000002 -0.050271 1.172986 0.014169
22360 -4.02498414 4.81144203 -0.97088589 -1.145944 -0.355577 0.137729
22380 -3.9395096100000004 5.021160210000001 -0.5140341900000001 -1.953648 -1.727241 0.202211
22400 -3.4018235100000003 5.911506 -1.06084359 -2.679834 -1.740198 0.342434
22420 -2.44231722 6.60980142 -1.2344805900000002 -2.404471 0.638742 0.325285
22440 -1.7815941 6.547978800000001 -1.34166465 -0.772551 1.196718 0.033663
22460 -1.2933111599999998 6.15579462 -1.65794886 -0.07145599999999999 0.112519 -0.370248
22480 0.47242017000000003 6.330039840000001 -2.20551363 -0.066495 -0.663207 -0.5892729999999999
22500 2.2510222200000003 6.57253323 -2.6641605600000005 -0.333959 -0.7138680000000001 -0.475708
22520 3.17684097 7.32246849 -3.72275766 -0.145859 0.293398 -0.251359
22540 2.60128827 8.63105382 -4.768788150000001 0.349541 0.700379 -0.15975699999999998
22560 1.81423197 8.99674119 -5.5679696100000005 0.371685 0.383999 -0.180562
22580 1.06518942 7.48803186 -5.5741106700000005 0.304083 0.7529 -0.200735
22600 -1.1332904400000001 6.14786814 -6.35324049 0.421131 1.216718 -0.141759
22620 -7.1576703 8.86666059 -8.30547954 0.6240939999999999 0.835558 -0.103534
22640 -5.96763882 14.07972402 9.544904370000001 0.832651 0.4153520000000001 -0.162427
22660 -14.31038655 28.52677368 -4.692888180000001 1.108687 0.488298 -0.262073
22680 -8.27448975 17.514332550000002 5.2781724 1.236528 0.918238 -0.264936
22700 -4.71608883 16.51276098 -7.023243870000001 1.448332 1.112166 -0.194271
22720 4.48916391 14.56545636 -0.76984956 2.364933 0.518459 -0.102718
22740 0.09145863 9.1997199 3.47816493 2.899418 -0.542927 -0.206583
22760 -1.68938991 10.3624992 5.6934100800000005 3.201165 -0.797609 -0.181716
22780 -1.6262135100000001 11.13818571 4.4878199400000005 3.638325 -1.186411 -0.033955
22800 -1.7901288000000002 12.57848991 1.42114527 2.991144 -0.018073 0.327496
22820 -1.46006154 11.046727080000002 -0.16974243 2.042232 -0.227269 0.451459
22840 -0.53543961 10.15607718 -1.7600415300000003 1.269903 -0.643487 0.245772
22860 -0.90696393 9.71375409 -3.4847572500000004 -0.011105 0.389038 0.48867
22880 -2.56192074 8.3839203 -4.99496751 -1.060984 0.700321 0.80995
22900 -3.20723235 7.579941750000001 -2.91713103 -1.346196 0.8716 0.582343
22920 -2.28934008 7.44790896 -1.70405586 -1.490769 0.367641 0.196351
22940 -0.50804028 7.97032089 -2.6747847900000004 -1.462843 0.36771 0.154885
22960 0.50549949 7.61436504 -2.8455867 -1.672044 0.252706 0.0585
22980 -0.19878984000000002 6.24351564 -2.63796786 -1.980775 0.090027 -0.017156
23000 -1.3828274100000002 5.68517949 -2.4509990700000004 -2.218623 -0.023674 -0.147926
23020 -1.21322232 6.30414144 -0.9759674700000001 -2.167637 -0.004002 -0.316374
23040 -0.14505066000000003 7.4357838 -1.2802834800000003 -1.868162 -0.388241 -0.390702
23060 -0.07215255 8.286919020000001 -2.4845296500000003 -1.655405 -1.346232 -0.498015
23080 -1.05560505 8.79106473 -3.34688751 -1.5405879999999998 -2.318546 -0.6679510000000001
23100 -1.34121339 8.87519529 -3.19436163 -1.226257 -2.296654 -0.554689
23120 -0.34862778 9.15316164 -2.9240176500000006 -0.944896 -0.722852 -0.097541
23140 0.03622833 10.15069149 -6.461758710000001 -0.975059 0.233692 0.212943
23160 -1.06413975 13.362259860000002 -8.30488113 -0.951854 0.117834 0.394852
23180 -2.99422782 17.21136051 -6.730748909999999 -0.809199 0.466024 0.5759310000000001
23200 -2.2867992900000003 17.91699381 -3.79820637 -0.429756 0.975563 0.695433
23220 -0.6179122800000001 17.56746351 -4.384981710000001 -0.171638 0.93747 0.673784
23240 -2.10477474 14.97036411 1.78384059 -0.356763 0.5186310000000001 0.614276
23260 -4.649027670000001 10.60200054 1.08629073 -0.451603 -0.475723 0.543317
23280 -5.20512714 9.64624167 -0.210915 0.003554 -0.480005 0.15446400000000002
23300 -5.86630152 8.28422127 0.67629159 1.295458 0.465535 -0.059914
23320 -4.39201548 6.37105545 -0.21450546 0.731047 0.871605 0.112948
23340 -4.0799201400000005 7.20916299 -0.8083145700000001 0.565254 0.973548 0.07106699999999999
23360 -2.39382639 7.85701539 -2.09324799 -0.439955 -0.053156 -0.4441810000000001
23380 -2.5237500300000004 6.27824304 -0.71027343 1.712123 -0.689222 -0.154868
23400 -3.02640462 4.67568144 -0.30910329 1.662138 0.039784 0.06497
23420 -3.3440426100000002 4.24038231 -0.38919213 0.253922 1.0925790000000002 0.144584
23440 -3.51484452 4.84961274 -0.43529913000000003 -1.15518 1.137069 0.363283
23460 -3.7679621400000003 6.048924480000001 -0.1935513 -1.610379 0.170712 0.263066
23480 -3.32877825 7.16171202 -0.75697884 -1.727911 -0.611837 -0.008081
23500 -2.67598161 6.965462970000001 -1.9754397000000001 -3.104046 -0.961189 -0.161455
23520 -1.89536067 6.95034576 -2.8830020400000005 -1.976768 1.054858 0.056411
23540 -1.4388032700000002 8.36594838 -2.56476564 1.107322 1.5868 -0.045573
23560 -0.08696565000000002 9.625287510000001 -3.4624493100000002 1.617298 0.292105 -0.390729
23580 0.76865274 10.365049800000001 -6.72177276 0.7416560000000001 -0.270859 -0.306393
23600 1.10155509 10.031087970000002 -8.82430101 0.482325 0.048164 -0.208201
23620 1.12969998 8.71607709 -4.98029175 0.341874 1.0778370000000002 0.025576
23640 0.6316855199999999 6.92430021 -1.9267919100000002 1.0190000000000001 2.010543 0.089999
