time Ax Ay Az Gx Gy Gz
20 0.37197558000000003 7.729024320000001 -3.32488368 -0.801495 -0.392769 0.614474
40 0.6333336 7.8463813500000015 -2.6589220200000003 0.164393 -2.6549810000000003 -0.063816
60 1.2290949000000002 7.86883644 -2.1752792100000002 0.232814 1.483089 0.008272
80 1.6458237 9.41078205 -2.8020204900000003 -0.107968 1.65905 0.521617
100 1.5013812600000003 11.17051947 -3.21172533 -0.508041 1.190642 0.523695
120 2.6208984600000003 12.182264009999999 -0.87118686 -1.177791 -0.244762 0.690704
140 3.7949102100000003 14.211894150000001 1.8206673300000003 -1.101185 -1.011993 0.682608
160 3.6818892 12.18182256 -0.01586277 -0.905789 -0.541775 0.405633
180 4.904097480000001 6.449633550000001 -0.41164722000000004 -0.478763 0.541737 0.004507
200 7.14119931 10.32343578 0.8039785500000001 -0.379058 0.33928 -0.068244
220 7.70627493 14.51816235 -1.1106882 -0.6286069999999999 -0.396723 0.122168
240 8.62297038 22.926470310000003 -7.876468620000001 -0.6833279999999999 -0.824176 0.238769
260 3.50839935 7.59640293 -2.01181518 -0.437122 -0.975913 0.142407
280 1.7061552 3.1942046700000004 -2.68436916 -0.089987 -0.852736 -0.059355999999999985
300 6.130504439999999 9.71359713 -2.31658245 0.141965 -0.6697069999999999 -0.210726
320 5.43025683 11.65970493 1.2250531800000002 0.20381 -0.75165 -0.284965
340 3.5194846500000003 8.58674205 0.12813822000000002 0.039877 -0.6626890000000001 -0.278746
360 4.00117527 6.868618649999999 -3.21276519 0.160639 -0.616243 -0.27689400000000003
380 1.72022274 8.574469740000001 -3.8369754900000004 0.321721 -0.746261 -0.402721
400 1.93293297 9.05646447 -3.01278834 0.368847 -1.170553 -0.631516
420 4.2745113 8.53704459 -1.33462107 0.367095 -1.338797 -0.647336
440 4.85874585 8.02690497 -1.85614029 0.210531 -0.345241 -0.425376
460 4.16583612 8.120914200000001 -3.9704895900000006 0.011692 -0.25047600000000003 -0.242084
480 3.3214403700000004 8.39933181 -4.48901676 -0.064829 -0.49376 -0.075664
500 2.9710173600000003 7.87332942 -2.8746243000000002 0.06440499999999999 -0.6320140000000001 -0.2455
520 2.44441656 7.74834021 -1.5669414900000003 0.169888 -1.004807 -0.350039
540 2.02348908 7.8261727500000005 -0.7445495700000001 0.199539 -0.652012 -0.422923
560 2.12797539 7.6031424 -1.09991682 0.624373 -0.192089 -0.721784
580 2.6461984500000004 6.75081036 -1.00980216 0.921689 -0.500169 -1.191466
600 1.6693284600000002 6.263577090000001 -0.54441576 0.963753 -1.214589 -1.056729
620 0.46837845000000006 6.86038806 -2.3779538100000006 1.001971 -1.090863 -1.128191
640 2.9024650800000003 6.802450200000001 -2.1248361900000003 1.131032 -1.092401 -1.121947
660 4.7267228700000015 7.31454201 -2.71325961 0.935294 -1.447384 -0.8910549999999999
680 3.4643916900000002 7.14569229 -1.9998371700000002 0.8043359999999999 -1.181329 -0.445794
700 3.8285879400000002 6.865920900000001 -2.68616439 0.651159 -1.242772 -0.13272799999999998
720 2.02872762 9.06949215 -3.4126047 0.638417 -1.394288 -0.059984
740 1.7874310500000001 10.337356170000001 -4.69424196 0.484295 -1.525755 -0.083324
760 3.5196318000000004 9.67797702 -4.3824409200000005 0.30077600000000004 -1.7572720000000002 0.163518
780 3.0735612900000002 10.566821880000001 -2.447114310000001 0.108072 -1.536616 0.294349
800 0.45415395000000003 12.51532332 -2.61431595 -0.144243 -1.033623 0.201143
820 2.6023379399999995 13.975688970000002 -2.5999443000000007 -0.297347 -0.8311379999999999 0.047058
840 5.75028846 16.061903190000002 -1.69043958 -0.34717600000000004 -0.52098 0.049517
860 6.084995850000001 16.78129992 -2.28350313 -0.577946 -0.14498 0.26
880 4.65202953 15.097305510000002 -2.72358954 -0.894481 0.195826 0.28833000000000003
900 3.04212024 14.06819727 -3.2016897 -0.96476 0.7063159999999999 0.293595
920 2.0119623300000002 12.597805800000001 -2.9792577600000003 -0.825268 1.325951 0.261728
940 1.70570394 11.7649368 -2.828223 -0.6610199999999999 1.747395 0.220675
960 1.7134832700000002 11.072625480000001 -1.6796583900000002 -0.8384860000000001 1.968267 0.284314
980 1.7071950599999999 7.97316579 -1.07521524 -1.404702 2.39066 0.63874
1000 1.54015038 5.41573803 -0.89813493 -1.919381 3.041172 0.910981
1020 0.9586037700000001 5.57679861 -0.6843750300000001 -1.7906689999999998 2.6183240000000003 1.049154
1040 -0.23081949000000002 6.3879678900000005 -0.10164141000000002 -1.0092709999999998 1.366681 0.890642
1060 -1.2954105 6.5012832000000005 -0.0230535 -0.398289 0.094666 0.646576
1080 -1.37309589 6.524631 -1.06383564 -0.297356 -0.375976 0.5068779999999999
1100 0.49741605 6.77415816 -2.3902261200000003 -0.121617 -0.040731 0.433969
1120 1.09931841 7.469314379999999 -2.9882339100000004 0.033964999999999995 0.15474100000000002 0.433737
1140 0.26240768999999997 7.91494344 -3.3332712300000003 0.02416 -0.16466 0.39669
1160 -0.97013052 7.4922207300000006 -3.7214136900000003 -0.048628 -1.039621 0.286208
1180 -2.0151113400000003 6.21357552 -3.28806675 -0.001578 -1.301648 0.237734
1200 -0.8640059400000001 5.5787508 -2.56387293 0.377768 -0.014916 0.20562
1220 1.5206873400000003 7.122334680000001 -2.29158657 0.304146 0.55901 0.067638
1240 3.32069481 9.7667379 -3.4212865500000005 0.04482 -1.451788 0.447622
1260 2.98928358 10.81126746 -3.5774127 -0.36548 0.257711 0.8698540000000001
1280 0.48215169 8.40562002 -3.37697478 -1.532878 1.618997 0.850341
1300 0.10717425000000001 8.2598238 -3.6745611300000003 -1.90191 0.541992 1.172815
1320 0.50549949 10.08812331 -3.78637551 -1.316231 -0.664944 0.926352
1340 1.20245094 9.78620094 -2.6770312800000005 -1.3081 -1.815134 0.576438
1360 1.86047631 8.64526851 -1.49389623 -0.72002 -0.994073 0.400032
1380 1.75061412 10.52401104 -1.8068940900000001 -0.058275 0.727132 0.163167
1400 2.6997904800000003 12.446015670000001 -2.72538477 0.110753 1.147956 0.00678
1420 3.7628707500000003 14.83699716 -1.6227800100000003 -0.436903 0.224902 0.345969
1440 5.65598493 14.155162920000002 0.6071409 -0.995254 -0.695064 0.455411
1460 6.4098245700000005 8.42552451 -1.48491027 -0.5237390000000001 -0.994888 0.167464
1480 6.816821850000001 7.154070030000001 1.9230543000000002 0.409668 -0.609284 -0.368099
1500 4.9472124299999996 12.701536740000002 2.5313822100000003 1.05393 -0.169534 -0.6077170000000001
1520 2.38678281 9.548190720000001 1.2057471000000002 1.099505 -0.06502999999999999 -0.673762
1540 4.738543920000001 10.12374342 -0.6575839200000001 0.990622 0.303245 -0.76793
1560 9.53113113 22.631434560000002 -6.261330600000001 0.897323 0.422925 -0.779417
1580 3.81691404 7.009176330000001 -3.4302627 0.988773 1.012989 -0.8340139999999999
1600 -1.15529427 3.6836942400000003 -0.64381068 1.034878 1.004545 -0.893501
1620 0.9247788900000001 7.71061095 -1.80075303 0.8834299999999999 0.7145100000000001 -0.958281
1640 5.13716346 10.29005235 0.33949467 0.405241 0.463671 -0.6856979999999999
1660 4.2728632200000005 8.49229137 1.5898478400000002 0.391181 0.048915 -0.582716
1680 3.8839752 7.554337650000001 -2.86518708 1.618596 -1.444963 -0.75703
1700 1.8511960500000002 8.61982137 -5.38115778 2.356162 -1.418787 -1.28175
1720 0.06646275 8.90557686 -2.19383973 2.421784 -1.432433 -1.655152
1740 0.5751014400000001 7.6950522900000005 -0.27917298 2.292908 -1.568552 -1.602467
1760 0.20103633 5.793256260000001 0.33590421000000004 1.613276 -1.3570870000000002 -1.149218
1780 -0.0344331 5.169350070000001 -1.40407587 0.249371 -3.50112 -0.5919760000000001
1800 2.87926443 5.3334125100000005 -1.51485039 0.633671 -2.950536 -0.085796
1820 3.33805851 6.45038892 -0.14250006 1.3044209999999998 -0.7461869999999999 0.058138
1840 1.4425506900000002 6.35683095 -1.6986701700000002 1.088154 -0.25519200000000003 0.003655
1860 2.32287066 7.21694232 -2.25251334 0.980996 -0.42489 0.176176
1880 6.14517039 8.92324467 -2.0209482900000006 0.364799 -0.812459 0.395627
1900 4.959936000000001 11.09522772 -2.47644621 -0.451761 -1.027367 0.501293
1920 4.347105300000001 11.299099140000001 -2.6435007 -0.8834540000000001 -0.663821 0.5373359999999999
1940 2.46027933 14.24557188 -1.11592674 -0.822042 0.148902 0.504677
1960 3.2067810900000002 17.98375086 -5.61617595 -1.001111 1.332148 0.462386
1980 5.92213023 19.046988090000003 -6.1255602 -1.142595 2.481529 0.33173800000000003
2000 5.1480918 16.85928942 -1.8781441200000002 -0.8333379999999999 3.012627 0.182599
2020 3.73787487 18.106493580000002 -0.11360961 -0.384774 3.14931 -0.021678
2040 2.74619178 14.805713070000001 -1.11592674 -0.442047 3.333257 -0.151569
2060 -1.7143857900000001 11.320955820000002 -3.88277838 -1.119828 3.290884 0.10973800000000003
2080 -1.54553607 9.34027758 -2.82043386 -1.6008209999999998 3.100994 0.593731
2100 0.7471001700000001 7.24373343 -2.4373827900000005 -1.380402 2.37668 0.916665
2120 0.8652027600000002 4.946466870000001 -0.82163655 -0.602363 1.6509470000000002 0.84505
2140 -0.36972909000000004 4.4336295 0.11690577 0.253116 1.454726 0.6889069999999999
2160 -1.61499087 4.70965347 0.95142285 0.725046 0.904983 0.295529
2180 -1.7787492000000003 5.23791216 0.09026181000000001 1.005827 0.557229 -0.095169
2200 -1.31531499 5.9879945700000015 -2.2718292300000003 0.897842 0.510606 -0.329805
2220 -1.2481066800000002 7.180713990000001 -4.259394090000002 0.192232 -0.497889 -0.065317
2240 -1.53730548 6.92879319 -5.0666589900000005 -0.005633 -0.765746 0.490188
2260 -1.89326133 6.279587010000001 -3.68025093 0.475098 0.934016 -0.087609
2280 -0.90576711 5.25931758 -1.8794880900000002 0.833508 -1.400622 -0.5094029999999999
2300 0.6009998400000001 5.25961188 -0.73736865 0.217422 0.198405 0.011947
2320 2.49531084 6.702613830000001 -1.71677943 -0.027189 1.545814 -0.001103
2340 4.6428964200000005 9.11304855 -5.220244350000001 -0.298785 1.7149150000000002 0.303363
2360 3.67800444 10.302030360000002 -6.7062042900000005 -0.950956 0.8813850000000001 0.722892
2380 0.50579379 10.073447550000001 -6.71952627 -1.149289 0.856815 0.911682
2400 -0.43589754000000003 8.76921786 -5.8107671100000005 -1.033204 0.264297 0.6013310000000001
2420 -0.04371336 7.01875089 -3.5052601500000002 -0.656623 -0.722383 0.333897
2440 2.08605726 10.630743840000001 -1.2073853700000001 -0.522647 -0.24931 0.195358
2460 5.33401092 13.662092700000002 -1.7639361 -0.514096 0.379522 0.108086
2480 8.80619175 14.018352660000001 -2.02828617 -0.455093 0.512232 0.169217
2500 6.97339926 15.89110128 1.84311261 -0.948615 -0.245849 0.49789
2520 2.1692853 15.607739430000002 -4.15835109 -1.518625 -1.104168 0.652037
2540 2.5735946400000005 8.68269366 -0.03712104000000001 -1.230536 -1.252731 0.258997
2560 4.774468140000001 9.95878827 -0.8178989400000001 -0.377441 -0.935016 -0.27917600000000004
2580 6.503676840000001 12.71456442 -0.02679111 0.254419 -0.803508 -0.679787
2600 5.3823546 10.33092081 -0.55100808 0.723176 -0.213073 -0.887709
2620 4.51071648 7.29328374 -0.84992859 0.8690530000000001 0.280374 -0.8040010000000001
2640 4.95514872 12.51547047 -4.591854990000001 0.482312 0.39053 -0.577176
2660 4.13230554 11.807149230000002 -5.38445394 0.207338 -0.221195 -0.540925
2680 0.59935176 7.13850156 -3.7178232300000005 0.208711 -0.095728 -0.483392
2700 2.00298618 6.09442326 -4.13110872 -0.076572 -0.055859000000000006 -0.349772
2720 5.679038429999999 8.07525846 -2.55114936 0.14347 -0.523011 -0.399979
2740 5.91944229 8.18168715 -1.06383564 0.807509 -0.423292 -0.870827
2760 4.22002656 7.140453750000001 -2.6262841500000005 1.945932 -0.249167 -1.179292
2780 0.50085936 7.36019775 -4.77731304 2.219305 -0.486389 -1.233694
2800 -1.5988239899999999 7.702831620000001 -4.54364865 2.160133 -1.301148 -1.226654
2820 -1.8045004500000001 7.19448723 -3.8227509900000003 1.616058 -2.3086450000000003 -0.818967
2840 0.19938825000000002 6.25100067 -3.2241447900000004 1.29293 -3.827163 -0.946396
2860 2.52494685 5.401817639999999 -1.77037146 1.32029 -1.734156 -0.90509
2880 3.5127451800000005 4.828364280000001 -0.28111536000000004 0.906092 0.11786 -0.422179
2900 3.22908903 5.557639679999999 -1.6232214600000001 0.472328 -0.7900189999999999 -0.246721
2920 3.70195065 6.12646272 -0.8782206300000001 0.20645 -1.040534 0.027345
2940 2.7719332199999998 6.83898264 -1.04003658 -0.12783 -0.995009 0.387078
2960 2.03202378 7.8761743200000005 -2.68511472 -0.435204 -0.645079 0.523352
2980 2.3340933000000006 10.018217250000001 -3.4456840200000003 -0.641368 -0.130221 0.619529
3000 3.65240034 13.284878579999999 -2.7357147000000004 -0.881969 0.381309 0.7784939999999999
3020 2.1633012000000003 14.505733080000002 -1.9863680400000001 -1.293234 1.310221 0.8705709999999999
3040 2.4043034700000003 19.07887059 -3.1142727900000002 -1.7706669999999998 2.455681 0.945885
3060 3.60150606 20.415747960000004 -3.15184509 -2.28077 3.39812 1.203897
3080 3.87094752 16.973654400000004 -0.8000839800000001 -2.229633 4.037443 1.386101
3100 3.10903425 13.65475482 -3.5199261 -1.668536 2.759357 0.8393870000000001
3120 3.2230951200000004 11.38936095 -5.770349909999999 -0.974977 1.485205 0.25941
3140 1.5539138099999998 14.211295740000002 -5.050943370000001 -0.307431 -0.033986 0.240383
3160 0.27722079 10.0155195 -3.1060422 0.358222 -0.8763610000000001 0.13181199999999998
3180 0.21285737999999998 6.6303141299999995 -1.49628987 0.791276 -0.205716 -0.123464
3200 0.29952873 5.06217582 0.04221243000000001 1.3286209999999998 -1.249379 -0.133328
3220 -0.80173206 4.26537819 0.50879565 1.115075 -0.152365 -0.425714
3240 -2.14787988 3.79476306 -0.16466085 0.686867 1.897548 -0.667409
3260 -1.65526092 3.6904239000000003 -0.34054434000000006 0.8290040000000001 -1.14819 0.036104
3280 -0.42002496 4.19427531 -0.35999757000000004 -0.557289 1.958609 0.856721
3300 0.18262296000000003 4.261640580000001 -0.40176855 -1.587791 1.151056 0.96913
3320 1.6058577600000001 4.997802600000001 -1.2159200700000001 -1.710711 0.10673599999999997 1.162958
3340 1.49733954 8.01029664 -4.48706457 -1.694843 0.408728 1.01954
3360 0.5776520400000001 9.23983299 -4.26972402 -1.3593309999999998 0.4120430000000001 0.433289
3380 -0.79110783 8.16806106 -3.4983735300000003 -1.140566 -0.791411 0.167167
3400 -0.19040229 8.05595238 -3.68174205 -0.5786220000000001 -0.659107 -0.105746
3420 0.6890151600000001 10.30083354 -2.7824103 -0.260811 0.480776 -0.124215
3440 2.7602593200000003 14.884899390000001 -3.7826379 -0.359816 0.775101 -0.11567
3460 5.76900594 14.621598990000003 -1.9309807800000003 -1.115566 -0.308438 0.310933
3480 5.39807022 12.21744267 4.4559374400000005 -1.263715 -1.129633 0.406022
3500 5.164405830000001 9.966871710000001 -8.296493580000002 -0.6935939999999999 -1.004151 -0.0324
3520 9.350156250000001 9.81823059 -2.0995362 0.097821 -0.6287510000000001 -0.557191
3540 8.59018536 16.11443574 -1.9577817000000002 0.427173 -0.08631799999999999 -0.8942120000000001
3560 4.8993102 12.214597770000001 -0.10642868999999999 0.400822 0.536651 -0.817214
3580 4.22825715 8.10893619 -0.77089923 0.155824 0.018391 -0.471089
3600 4.69573308 11.81867598 -2.2671891000000004 0.114351 -0.24425500000000006 -0.288376
3620 2.60892045 16.64867853 -3.71302614 0.038103 -0.641142 -0.337539
3640 -0.21330864 8.91441567 -2.40729552 -0.093961 -0.422019 -0.408176
3660 -0.15223158 4.2309549 -4.333184910000001 0.282452 -0.021711 -0.6752520000000001
3680 4.65861204 5.90971077 -2.97446067 1.094087 -0.324923 -0.67774
3700 6.057155070000001 7.610323320000001 -0.18157329000000003 1.830973 -0.941883 -0.742305
3720 4.36791231 7.242987870000001 -0.22603221 2.202793 -0.8599319999999999 -0.779337
3740 2.3713713000000007 7.162457580000001 -4.12077879 2.40536 -0.6847449999999999 -0.809125
3760 -1.37518542 7.53428601 -5.26619439 1.815956 -1.436112 -0.743913
3780 -1.53266535 6.82849575 -2.8611453600000005 0.439408 -3.62006 0.214943
3800 1.3079771100000002 5.65538652 -0.9060614100000001 1.396825 -2.793852 -0.236627
3820 4.287686129999999 5.77903176 0.03951468 1.062373 -1.557736 -0.312118
3840 6.06913308 5.69041803 -0.38544471 0.832205 -1.988079 0.146161
3860 4.91248503 6.093677700000001 -0.10164141000000002 0.239345 -2.315371 0.456497
3880 2.35221237 6.793022790000001 -2.3830452 -0.377019 -2.27583 0.426503
3900 2.5746443100000005 8.18662158 -1.949247 -0.558937 -2.047789 0.299958
3920 4.28993262 11.62737117 -1.4379105600000002 -0.55987 -2.044483 0.273242
3940 3.7850315400000003 13.4480385 -2.51566659 -0.743628 -1.175435 0.486626
3960 0.74650176 14.36682348 -2.2845528000000006 -1.181991 -0.347604 0.572234
3980 0.96639291 16.13779335 -3.05634474 -1.3358290000000002 0.321913 0.574574
4000 2.0600117100000004 16.44615108 -2.35295793 -1.168457 0.697654 0.5047590000000001
4020 5.810315850000001 21.62313333 -1.35857709 -0.847933 1.126437 0.357966
4040 4.90724649 18.05215599 1.16697798 -0.446358 1.613266 0.276825
4060 -0.02784078 15.025604220000002 -5.53159413 -0.377829 1.636591 0.24522800000000006
4080 0.9006757200000001 13.589940150000002 -5.54132565 -0.629872 1.14515 0.284689
4100 3.5362499400000003 10.15922619 -3.7908684900000003 -0.625119 0.395873 0.37755
4120 2.93913486 7.643108340000001 -2.36778084 -0.675434 -0.13545 0.358651
4140 0.77104638 7.678581300000001 -0.51523101 -0.473417 -0.627905 0.258144
4160 -1.61948385 6.746621490000001 1.15095825 0.720713 -0.367829 -0.014791
4180 -2.8572606000000005 4.4656591500000005 1.7651329199999999 0.885978 -1.028329 -0.416578
4200 -1.76198391 3.8574783900000003 0.24459273 0.839809 -1.80688 -0.4180390000000001
4220 0.28994436 4.123770840000001 -0.44697303 0.624967 -2.356088 -0.882444
4240 0.36284247000000003 5.30721 -0.7849667699999999 1.101867 -4.139059 -2.434296
4260 -0.19654335 5.816604060000001 -1.0627859700000002 0.526937 0.406969 -0.996697
4280 -0.7444024200000001 6.20324559 -1.79282655 -0.17642 4.5037660000000015 1.271658
4300 -0.63453042 6.6304612800000005 -2.64514878 -0.140183 -0.7852210000000001 1.213527
4320 -0.33155838000000004 7.34193153 -3.44553687 0.331044 -1.573362 0.498915
4340 -0.14684589 7.2072108 -2.6110197900000003 -1.391578 0.978081 0.10119
4360 0.63079281 7.00498746 -2.8035214200000005 -1.315142 0.632868 0.316879
4380 1.49778099 7.41468249 -4.8557538 -0.657846 2.548527 1.270801
4400 1.8944581500000002 10.65843747 -7.48593252 -1.081375 4.651948 1.229896
4420 -0.90950472 12.05054514 -7.53158826 -2.079027 3.1556 0.938561
4440 -2.40774678 10.742715180000001 -6.233038560000001 -2.505714 0.288327 0.663654
4460 -4.307296320000001 6.59438991 -3.96840006 -1.682295 -2.081798 0.720512
4480 -2.37046878 5.209168860000001 -3.96735039 -1.253121 -2.73098 0.722206
4500 -2.07528588 15.30822051 -7.00542891 -1.648507 -0.981562 0.473647
4520 3.55136715 13.67346249 8.626256730000001 -1.279954 0.228704 0.392418
4540 10.50320403 9.01425204 5.5899734400000005 -0.833627 0.180798 0.264206
4560 10.156528439999999 20.35497501 -11.841278220000001 -0.5249560000000001 0.292387 0.06325599999999999
4580 16.194818880000003 37.84504743 2.6318268000000002 -0.410069 0.157892 -0.234871
4600 2.5128216900000004 9.33324381 7.6550765400000005 -0.227017 0.010325 -0.519687
4620 -0.19040229 8.347691970000001 -3.84011469 0.116579 0.325145 -0.69181
4640 3.76332201 12.3837516 -1.0659349800000002 0.819836 -0.069602 -0.88615
4660 5.2870014 13.799805480000002 2.08650852 1.366234 -1.195374 -0.6170399999999999
4680 2.51642196 11.187883170000001 1.58684598 0.8339610000000001 -0.826326 -0.271922
4700 0.7620604200000001 7.899070860000001 -0.61836354 0.463376 -0.950571 -0.314944
4720 2.05537158 5.97737034 -3.7342844100000003 0.558247 -0.65422 -0.714176
4740 3.0608377200000003 6.255944909999999 -4.4559374400000005 1.664308 -1.91211 -1.189811
4760 2.9241648000000002 5.02220988 -4.76114616 2.835783 -2.167717 -1.6865689999999998
4780 2.0332206 5.755527000000001 -4.78225728 3.3679900000000003 -1.2068709999999998 -1.873158
4800 2.5626663000000005 7.32067326 -3.82035735 2.923249 -2.044852 -1.319716
4820 2.5924592700000004 7.82707527 -2.1903964200000003 2.500062 -3.404293 -0.384099
4840 2.01540564 8.81920962 -2.2510222200000003 1.894359 -3.365422 0.542042
4860 2.49920541 10.04755896 -2.03501583 0.985675 -2.739185 1.098913
4880 4.25236032 9.97241436 -1.3401637199999998 0.632362 -3.01906 1.331813
4900 3.8317271400000004 10.511287470000001 -2.6840650500000005 0.664131 -3.787222 1.328746
4920 3.9818691900000003 11.063639519999999 -1.9464021 0.790354 -3.937919 1.34264
4940 3.2687508600000004 12.98519289 -0.19759302 0.7954319999999999 -3.78549 1.314706
4960 0.06720831000000001 11.79891864 -3.55061178 0.494819 -3.4596660000000004 1.346372
4980 -0.16899687000000005 9.76733631 -3.5810031600000003 -0.047714 -3.062739 1.389075
5000 0.7258419 8.666830890000002 -4.52644191 -0.3229 -2.687294 1.510586
5020 3.13448139 11.03101146 -3.4774193700000002 -0.387024 -2.366857 1.618686
5040 5.5760530500000005 12.78342081 -2.3281092 -0.237256 -2.170731 1.726303
5060 7.493417550000001 14.42280915 -2.19668463 -0.327367 -2.008741 1.521435
5080 9.043289640000001 14.52953214 0.7716447900000001 -0.659066 -1.6872919999999998 1.34245
5100 8.35307766 10.359811259999999 -0.8782206300000001 -0.8872479999999999 -1.512486 1.248765
5120 5.1163564500000005 9.03505905 -0.69156576 -1.129941 -1.480377 1.155162
5140 2.33619264 9.09807849 -1.07701047 -1.251748 -1.357148 1.080446
5160 0.9166954500000001 9.3702177 -2.0658584700000002 -1.183172 -1.32211 1.049901
5180 0.29324052 8.77085613 -2.2113505800000004 -1.053024 -1.4477719999999998 0.927058
5200 0.10612458 8.60365449 -2.0215467 -0.592658 -1.5200870000000002 0.497736
5220 1.1934649800000001 8.53943823 -1.22520033 0.212754 -1.718298 0.08380499999999999
5240 2.3309541 8.55516366 -0.81880146 1.062175 -2.040341 -0.036968
5260 1.73952882 8.64781911 -1.3039353900000001 0.849902 -2.535794 0.171556
5280 0.47481381 8.315809470000001 -2.0797788600000002 0.08043600000000001 -3.124939 0.583543
5300 -0.41523768 9.818534699999999 -2.58093252 -0.086414 -2.564629 1.000402
5320 -0.58992435 7.989931080000002 -1.97679348 -0.17612 -1.507963 1.36589
5340 0.54845748 7.03911645 -2.44740861 -0.229193 -1.525682 1.04828
5360 0.02425032 7.77139371 -2.61252072 0.508695 -2.404038 0.019453
5380 -0.16181595000000001 7.910146350000001 -2.5765965 0.28672800000000004 -1.340844 -0.332769
5400 0.02215098 7.90566318 -2.5891631100000003 -0.99873 -0.066776 -0.28356
5420 0.14115609 8.39529009 -3.47218083 -1.795208 1.912421 0.16126600000000002
5440 -0.38140299 9.28758807 -4.80306429 -1.853559 0.091311 0.882106
5460 -0.73272852 10.250086410000002 -5.6056890600000004 -0.983199 -0.490781 1.305538
5480 -0.21135645000000003 10.773096749999999 -5.93979804 -1.410279 1.059776 1.264248
5500 0.5192727300000001 10.90736622 -8.586889200000002 -1.967841 1.201922 0.832883
5520 1.37788317 9.935734770000002 -8.66023857 -1.380397 0.589655 0.789701
5540 1.6122931200000001 7.736509350000001 -4.89512133 -0.697453 1.675558 0.8999020000000001
5560 1.97184924 6.2686684800000005 -3.7444671900000004 -0.816704 1.441814 0.8491620000000001
5580 1.42353891 7.367525820000001 -4.44485214 -1.057222 0.824946 0.809816
5600 0.89050275 8.97638544 -4.28109381 -1.251278 -0.037605 0.631173
5620 -0.35700552 15.705643230000002 -4.4238979800000005 -1.0938709999999998 -0.342038 0.4361100000000001
5640 3.02266701 24.39551781 -0.88615692 -0.847568 -0.240217 0.334082
5660 1.04826717 5.4009151200000005 4.89137391 -0.6783710000000001 -0.155363 0.279608
5680 1.89625338 2.2559566500000003 3.72320892 -0.579387 -0.254592 0.233424
5700 4.08934755 7.6580784 0.03322647 -0.547151 -0.650036 0.26193
5720 9.97420959 16.554826260000002 -2.3255684100000003 -0.588406 -0.803313 0.26718000000000003
5740 8.46414648 12.30949971 0.45235872000000005 -0.693383 -0.740835 0.185181
5760 0.01241946 9.03027177 -0.2775249 -0.8231850000000001 -0.699747 0.145766
5780 -2.64185262 8.679103200000002 -3.53788821 -0.912617 -0.860433 0.180599
5800 0.50055525 8.642129310000001 -3.1055909400000004 -0.630483 -1.022152 0.151798
5820 4.54709196 8.7078465 -1.1915225999999999 0.000553 -1.231741 0.069948
5840 4.645142910000001 7.71390711 -0.23172201 0.541186 -1.744101 -0.141399
5860 2.5939602 8.01972405 -0.8494871400000001 0.6267020000000001 -0.958483 -0.342635
5880 1.7801029800000001 8.79840261 -1.75150683 0.723572 -0.568891 -0.618058
5900 2.23469838 8.93132811 -1.58370678 1.074637 -0.349587 -0.8861469999999999
5920 2.5785388800000004 8.694367560000002 -1.1533518900000002 1.996368 -1.4274209999999998 -1.4743959999999998
5940 2.80576791 8.99315073 -1.16997003 2.40955 -1.656707 -1.76925
5960 3.0873345300000006 9.5817213 -1.1473677899999999 2.4986490000000003 -1.412388 -1.406813
5980 3.42951714 9.0983826 -1.22265954 2.038047 -2.162015 -0.557697
6000 3.7534433400000005 8.45711271 -0.9241804800000001 1.752023 -2.396216 0.181951
6020 3.87020196 9.342671220000001 -1.07191908 1.036936 -2.745901 0.603625
6040 3.5093018700000003 10.04591088 -1.6217303400000003 0.779492 -3.2185040000000003 0.199713
6060 2.9591963100000003 10.197848160000001 -3.2858202600000004 0.695667 -3.499078 -0.424355
6080 2.82956697 10.318344390000002 -4.28109381 0.927039 -3.249721 -0.379261
6100 2.6583236100000005 11.029961790000002 -1.7836934400000002 1.1359 -2.890989 0.038344
6120 2.25566235 10.4199858 1.13823468 0.890495 -2.4244830000000004 0.27211
6140 1.79821224 10.82429514 0.6936552900000001 0.459691 -1.917863 0.49171
6160 2.8289685600000003 12.03003243 0.8678907000000001 0.094481 -1.625226 0.620175
6180 3.05335269 12.1440933 -1.2814803000000001 -0.123112 -1.013503 0.744989
6200 1.49329782 11.43441828 -2.2182372 -0.227156 -0.206542 0.964351
6220 1.47398193 11.46810582 -0.5683717800000001 -0.48200000000000004 0.164652 1.065712
6240 3.7163223000000003 12.748242150000001 0.060174540000000006 -0.801325 0.410453 1.14542
6260 6.9250457700000005 12.72863196 -0.03637548 -1.237754 0.375831 1.124256
6280 8.252044470000001 11.53007559 0.71955369 -1.533093 0.666461 0.895358
6300 5.65778016 11.354633549999999 0.12738285000000002 -1.313294 1.020825 0.532175
6320 3.42562257 9.891727110000001 -0.23830452000000002 -0.830514 1.029076 0.181955
6340 2.4692652900000005 9.16828866 -2.15431524 -0.340627 0.996771 0.110643
6360 0.24219909 8.391248370000001 -1.59777432 -0.321845 0.595488 0.278999
6380 -0.30446316 7.895186100000001 -1.65166065 -0.222355 -0.012246 0.32427
6400 0.69156576 7.192996110000001 -1.48431186 -0.185947 -0.171185 0.6120800000000001
6420 0.76805433 6.37509717 -1.0779129900000002 -0.252333 0.422776 0.784975
6440 0.41987781 6.37239942 -0.94214259 -0.27460300000000004 0.54605 0.8786649999999999
6460 -0.42870681 6.462062820000001 -1.28776851 -0.228176 0.058537 0.7428819999999999
6480 -1.33133472 6.766231680000001 -1.5967344600000002 -0.048384 -0.309652 0.488236
6500 -1.1886777000000002 6.34590261 -2.5367777100000004 0.020039 -0.8657290000000001 -0.102368
6520 -0.5709125700000002 5.963597100000001 -3.03015204 0.272956 -0.428572 -0.153505
6540 -0.03262806 6.27809589 -3.31994925 -0.08111900000000001 1.23153 0.052335
6560 0.36808101 5.7667594499999995 -1.80419634 -0.16166 0.672629 0.56203
6580 0.85516713 6.030207000000001 -1.36156914 -0.106253 -0.131214 1.202244
6600 0.40325967 6.730003350000001 -2.6885580300000003 -1.324637 0.5602229999999999 1.174688
6620 0.004492980000000001 8.15818239 -3.5880369300000003 -0.8234440000000001 -0.286185 0.619525
6640 -0.12558762 7.04015631 -3.5967187800000002 -0.6105970000000001 -0.249311 0.537643
6660 1.02027924 4.98284235 -3.3949368900000003 -0.417954 0.6647069999999999 0.36797
6680 2.7614561400000004 6.205649040000001 -3.30318396 -0.921014 0.4379520000000001 0.5004109999999999
6700 3.4459881300000004 8.44244676 -3.5308544400000006 -1.233618 -0.356284 0.656274
6720 1.6935787800000002 10.174941810000002 -3.5839952100000003 -1.100672 -1.053977 0.525637
6740 0.50280174 10.09396026 -3.4163423100000005 -0.871714 -0.790117 0.409394
6760 -0.5824393200000001 9.787250610000001 -2.32062417 -0.187945 -0.487345 0.024949
6780 -0.7349750100000001 13.175006580000002 -2.39576877 0.47052 -0.4154060000000001 -0.420265
6800 1.16697798 13.042532340000001 0.33545295 0.6905979999999999 -0.505137 -0.814923
6820 5.10783156 11.91582441 2.2758709500000003 0.916784 -0.578174 -1.127307
6840 6.74093169 10.654690050000001 -0.7277842800000001 1.190989 -0.360655 -1.149171
6860 5.08358124 10.755281790000002 -1.9434100500000002 0.977942 0.39984 -0.936921
6880 6.0757155900000015 15.470477910000003 -0.14220576000000001 0.187762 0.417999 -0.531199
6900 7.01426772 20.733680250000003 -1.9094282100000002 0.040371 -0.687714 -0.414375
6920 3.87349812 14.51352222 -5.06142045 0.405187 -0.595775 -0.5454720000000001
6940 2.67134148 8.93118096 -2.20581774 0.789521 -0.33185 -0.812318
6960 3.27803112 7.74414153 1.04766876 1.844807 -1.446892 -1.003275
6980 4.176018900000001 7.1172531 0.57315906 2.434323 -1.082581 -1.244247
7000 4.77073053 8.7488523 -1.5025780800000001 2.64661 -1.426044 -1.583087
7020 2.790945 7.621997220000001 -2.27871585 2.400847 -2.410656 -1.29619
7040 0.8899043400000001 6.39769941 -3.38027094 2.095219 -2.443882 -0.981021
7060 -0.78122916 5.53773519 -2.6707430700000003 1.314087 -1.189771 -0.640912
7080 -0.8255311200000001 5.74520688 -1.4533318800000001 0.515876 -0.782808 0.043063
7100 -0.35535744 5.72230053 -2.4538439700000003 0.191209 -0.733171 0.165713
7120 0.5343899400000001 4.92610131 -3.78817074 0.040077 -0.823457 0.231003
7140 4.16822976 4.34007153 -2.8445370300000006 -0.17163599999999998 -1.101966 0.532188
7160 4.030664129999999 5.955219360000001 -0.25222491 -0.460959 -1.21986 0.694824
7180 1.6842985200000002 7.73201637 -1.16232804 -0.8308469999999999 -0.955267 0.648104
7200 1.9869664500000002 8.02137213 -3.5503174800000004 -0.963315 -0.5392680000000001 0.627418
7220 3.3202435500000003 8.2626687 -2.7828615600000006 -1.018224 -0.176876 0.625502
7240 3.1031973 13.62496185 -4.7604006000000005 -1.382884 0.775977 0.817218
7260 2.9370453300000006 14.554233720000003 -3.51753246 -1.432397 1.62731 0.8157810000000001
7280 0.4656807 15.76970253 -1.55691567 -1.049823 2.243827 0.8198
7300 2.1654005400000003 19.447854120000002 -4.04967591 -0.8537459999999999 2.542986 0.695804
7320 3.8814246000000003 19.417619700000003 -4.397999580000001 -1.020014 2.389867 0.503627
7340 0.75787155 13.351635630000002 -5.2980867 -1.2338129999999998 2.158935 0.364629
7360 1.61573643 11.998895489999999 -5.624406540000001 -1.450951 1.619357 0.423625
7380 2.77762302 13.16946393 -4.79108628 -1.326343 1.1807530000000002 0.509446
7400 -1.7714211300000002 12.03751746 -4.99272102 -0.559149 1.027516 0.336609
7420 -1.0493168400000001 10.07554689 -3.44314323 0.181435 0.927478 0.203041
7440 1.56529341 7.21933596 -2.0062823400000003 0.347463 0.7249479999999999 0.091229
7460 1.59133896 5.38130493 -0.25402014 0.241384 0.5615140000000001 0.02874
7480 -0.36972909000000004 4.766688810000001 0.55235205 0.305132 0.213046 -0.261992
7500 -1.8815874300000002 4.87895445 0.66596166 0.786575 -0.37914 -0.439468
7520 -2.18260728 5.55584445 -0.9695321100000001 0.796166 0.789607 -0.216573
7540 -1.5211386 6.04637388 -2.2429387800000002 0.720385 1.590681 0.118362
7560 -1.22295384 6.312372030000001 -3.62247003 0.316673 0.743444 0.55353
7580 -1.2900150000000001 6.3060838200000005 -4.17482208 -0.892101 1.7171900000000002 1.046971
7600 -0.19728891 6.80290146 -3.9034284300000004 -1.585746 0.90917 0.98441
7620 0.23591088000000002 6.8476644900000005 -1.4883535800000003 -2.134544 0.171402 0.810606
7640 0.38560167000000006 6.90169797 -1.4662026 -1.35169 0.020879 0.478709
7660 0.8110123200000001 7.7029787700000005 -2.9978182800000006 -0.533433 0.147329 0.381713
7680 0.6316855199999999 8.77939083 -5.47397019 -0.5839 0.922482 0.5171
7700 -0.1038879 8.39155248 -5.78172951 -0.848453 0.980727 0.5664520000000001
7720 -0.22976981999999999 7.572299760000001 -3.66198471 -1.1273879999999998 0.481755 0.647396
7740 0.5516064900000001 7.27053435 -2.2965210000000003 -0.958636 -0.209163 0.389882
7760 0.84319893 8.8786386 -1.4105210400000001 -0.337432 -1.300398 -0.049829000000000005
7780 1.3518376200000002 15.544719990000003 -3.3729330600000003 0.15092 -1.407494 -0.330427
7800 4.08470742 16.82426772 -1.8540409500000001 0.483157 -0.750765 -0.481704
7820 6.7222240200000005 13.728104190000002 0.7372215 1.096888 -1.269255 -0.821788
7840 3.4323620400000006 6.48930519 -1.14766209 1.497687 -0.8342629999999999 -1.258585
7860 4.42300527 12.495261870000002 -0.67719411 1.6275389999999998 -0.118078 -1.184889
7880 7.3259118 16.698974400000004 -0.5405211900000001 1.107807 0.5487270000000001 -0.720424
7900 6.108343649999999 12.46847076 0.25222491 0.336543 -0.290509 -0.635005
7920 4.66325217 17.4974103 -3.72320892 0.416549 -1.399109 -0.792191
7940 3.11082948 12.32925705 -5.23327203 0.978409 -0.882906 -0.898955
7960 1.7122864500000001 8.14755816 -2.49516369 1.706382 -0.6169 -1.184767
7980 3.9101679000000003 7.49012139 -1.2882197700000002 2.317721 -1.040123 -1.371166
8000 5.134769820000001 8.11747089 -0.32841918 2.172312 -1.467263 -1.25413
8020 3.5485222500000004 7.12354131 -0.11137293000000001 2.2754790000000003 -2.24954 -1.252407
8040 1.6703781300000002 6.59453706 -1.3238496900000003 2.704648 -2.0556650000000003 -1.35648
8060 0.37795968 7.1319190500000005 -4.133502360000001 2.393666 -1.331552 -0.75283
8080 -0.15792137999999997 5.72469417 -2.0119623300000002 1.233136 -1.216741 -0.220563
8100 0.20283156000000002 4.926258270000001 -1.45572552 0.500019 -0.5132359999999999 0.042606
8120 -0.9457330500000001 5.08043223 -4.77118179 0.277426 -0.696405 0.486735
8140 -1.4837134500000002 7.2610971300000005 -5.00798538 -0.189246 -0.4194270000000001 0.623057
8160 3.3452394300000003 7.15167639 -2.7789669900000002 -0.745336 0.13061 0.749859
8180 5.403760020000001 3.0455635500000007 0.38933928 -1.15906 0.575641 0.905564
8200 0.16375833 5.40810585 -0.3305087100000001 -1.434815 0.923946 0.888237
8220 -0.65937915 7.624390860000001 -3.54328371 -2.055341 1.544808 0.941859
8240 2.98748835 7.9278141600000005 -2.5122232800000006 -2.898012 2.400606 1.043835
8260 2.9226736800000004 12.07927863 -2.7973803600000005 -3.299524 3.2978980000000004 1.309072
8280 2.05971741 16.734604320000003 -2.9367412200000005 -3.197262 3.37899 1.187905
8300 2.44635894 17.31389463 -2.9491704899999998 -2.084109 2.702903 0.665641
8320 3.75973155 21.43019025 -4.90050702 -0.827176 0.799058 0.158773
8340 3.41155503 21.80200887 -5.2913472299999995 0.164617 -0.982234 0.135936
8360 1.16652672 13.092524100000002 -4.18125744 0.658011 -0.946374 0.06456100000000001
8380 0.07739109000000001 8.17315245 -5.181171120000001 0.809933 -0.353749 -0.14985
8400 0.11420802000000001 16.34151762 -6.24126915 1.5343129999999998 -2.278292 -0.879397
8420 -3.4925365800000003 9.51915312 -5.10992109 1.386623 0.368986 -0.502466
8440 -1.65810582 4.96068156 -3.99968415 0.959474 2.302613 0.095618
8460 1.20185253 5.14120518 -1.98471996 1.152497 0.065301 0.252589
8480 0.6921641700000001 5.30961345 -0.7933543200000001 -0.8918969999999999 3.098144 0.957609
8500 -1.28312838 3.9052334700000007 -0.51133644 -2.209611 1.573421 1.1127280000000002
8520 -3.25738107 2.39382639 -0.16076628 -1.719929 -1.006725 0.434725
8540 -2.57899014 2.5653640500000003 0.6797349 -0.4502140000000001 -3.208448 0.349207
8560 -0.022307940000000002 1.49793795 0.20911977 -0.947727 1.476185 0.360025
8580 1.8419157900000003 4.27151925 -1.65495681 -1.087369 1.52145 0.616433
8600 2.76580197 8.85738033 -2.7184981500000003 -1.044382 1.241691 0.743142
8620 1.05455538 9.19357884 -3.8673570600000002 -1.818453 0.104892 0.918653
8640 -1.73893041 6.61953294 -4.4336295 -1.509837 -0.717985 0.506325
8660 -0.8087658299999999 7.713455850000001 -4.5514377900000005 -0.221863 -1.106437 -0.169979
8680 0.26240768999999997 8.2683585 -3.1515507900000004 0.984771 -0.780045 -0.786879
8700 1.0870362900000001 16.625026620000003 -4.498149870000001 1.179731 -0.468304 -1.125611
8720 4.414764870000002 21.65771358 1.5458401800000001 1.209148 -0.521863 -1.077267
8740 6.159394890000001 10.03318731 4.8536544600000004 1.186038 -0.11096 -0.983951
8760 7.89188994 6.991057260000001 -8.053705890000002 0.831933 0.6539560000000001 -0.955358
8780 7.584130620000001 12.624744060000001 1.84341672 0.263439 -1.411687 -0.445004
8800 5.302569870000001 18.03808845 -0.64455624 0.42455 -1.206402 -0.240111
8820 3.72574971 20.280428820000004 -1.35962676 0.768465 -1.068378 -0.422688
8840 4.8358395000000005 25.655004090000002 -11.83917888 1.525091 -1.623608 -1.022374
8860 0.07050447000000001 4.75171875 -1.66827879 2.296029 -1.655527 -1.433554
8880 3.02730714 2.53094076 -4.611465180000001 2.551484 -1.826818 -1.709288
8900 7.511526810000001 8.08603965 -1.1049984000000002 2.18704 -2.44754 -1.477098
8920 4.33767789 7.3461204 1.4368608900000002 1.814195 -2.733897 -0.938815
8940 0.97971489 5.54895783 0.65787822 1.801972 -1.603805 -0.8869370000000001
8960 -0.66581451 6.205492080000001 -5.51228805 1.4757360000000002 -0.043225 -0.326126
8980 -3.6206748 7.41018951 -5.99099643 1.3134940000000002 0.228779 -0.275265
9000 -3.4587117000000003 6.727011300000001 -2.9503673100000007 0.801298 -0.255135 -0.028259
9020 0.20582361000000002 5.10947964 -2.21359707 -0.002157 -0.376233 0.58158
9040 3.5232222600000003 4.87865034 -3.8145204000000006 -0.700263 -0.558528 0.952951
9060 3.87649017 4.49110629 0.034874550000000004 -0.893056 -0.491905 0.710101
9080 3.1042469700000006 5.60748429 -1.83383235 -1.210785 0.550849 0.7567520000000001
9100 5.236411230000001 6.93193239 -0.52166637 -1.864012 1.119216 0.912762
9120 3.8251446300000005 8.640029970000002 -2.12603301 -2.374989 1.5548879999999998 1.095574
9140 0.59949891 10.316392200000001 -3.95238033 -2.146694 2.31343 1.147471
9160 0.07394777999999999 12.10771782 -2.7934956000000004 -1.862758 3.000836 1.091958
9180 -0.40296537000000004 15.757881480000002 -3.5574984000000005 -1.952212 3.23768 0.8154279999999999
9200 2.1225897000000002 17.150734710000002 -3.0078441000000002 -1.856659 2.647231 0.804033
9220 5.073251310000001 20.21830209 -4.28993262 -1.002475 0.957572 0.629499
9240 5.907915540000001 19.42300539 -4.07542716 0.059615 -0.145463 0.360594
9260 1.60121763 14.886096210000002 -4.31478135 0.475955 -0.392835 0.057239
9280 -2.83614948 13.02096996 -4.26418137 0.638705 -0.426941 -0.345368
9300 -4.070787030000001 10.380167010000001 -5.775735600000001 0.250397 0.7452449999999999 -0.370947
9320 -0.17303859 6.9907629600000005 -5.85507888 -0.278632 1.079308 -0.070627
9340 2.26449135 6.541249140000001 -3.0942113400000006 0.6461560000000001 -0.781766 0.734043
9360 0.9767228400000001 5.7929521500000005 -1.1289544200000001 -0.807926 0.780479 1.323293
9380 -2.37541302 3.5691821100000003 0.43709436 -1.940332 0.778717 1.413662
9400 -3.6781515900000006 1.9778333399999999 0.08801532 -1.49755 -0.5679350000000001 0.533992
9420 -2.5495012800000003 3.3838614000000002 -1.0897340400000002 -0.792837 -1.865878 0.29916
9440 0.05837931 3.25707696 -1.20663981 -0.367808 1.174442 -0.074577
9460 1.6563105900000004 3.21321645 -1.60870266 -0.395681 2.003906 0.31193000000000004
9480 1.13448726 5.92393527 -2.54336022 -0.762687 2.260668 0.090052
9500 0.047902230000000004 8.2162674 -2.9855459700000004 -1.754188 0.986151 0.794059
9520 0.05223825 9.75176784 -3.60570474 -1.784103 -1.202713 0.750721
9540 1.10395854 8.7773013 -4.05940743 -0.77988 -2.899828 0.179866
9560 -0.7789826700000001 6.97744098 -4.023336060000001 -0.363318 -0.35893200000000003 -0.233882
9580 -0.84604383 8.00265465 -4.11943482 -0.201122 -0.111413 -0.468075
9600 1.36456119 13.102402770000001 -2.9958660900000003 0.006169 -1.113955 -0.352111
9620 4.8539585700000005 17.86205781 3.58519203 0.952752 -1.503113 -0.556508
9640 7.756865100000001 16.732956240000004 -0.96908085 1.434934 -0.08396100000000001 -1.024976
9660 7.8185405700000015 7.172336250000001 -2.04849477 1.287001 0.5680069999999999 -1.16785
9680 5.669012610000001 9.883202220000001 0.09131148000000001 1.1429049999999998 0.381821 -1.1023889999999998
9700 6.905435580000001 19.352805030000003 -1.6769606400000001 0.546128 -0.216544 -0.665683
9720 7.958352690000001 33.969606930000005 -4.8597955200000005 -0.081202 -1.405109 -0.193183
9740 -0.11690577 9.321717060000001 -3.24659988 -0.053975 -1.2879969999999998 -0.199552
9760 -4.567300560000001 2.42959365 -0.53049537 0.182548 -0.11958599999999997 -0.621345
9780 2.5008534900000003 4.497845760000001 -5.39523513 1.576928 -0.818145 -0.8296959999999999
9800 8.6850873 9.79038981 2.08322217 2.1182830000000004 -1.2332040000000002 -0.865975
9820 6.53795298 6.929391600000001 4.173174 1.941929 -1.173676 -1.213387
9840 3.1945087800000005 6.170166270000001 -0.97522191 2.020705 -1.355319 -0.8793190000000001
9860 0.37632141 7.751479410000001 -6.89855877 1.304777 -2.910724 -0.76589
9880 -1.72785492 8.20683018 -2.15132319 0.940948 -4.311363 -0.500649
9900 1.43027838 8.48959362 -0.7890084900000001 1.6317700000000002 -0.776355 -0.40635
9920 1.8070412400000002 9.258697620000001 -3.0169772100000003 1.285356 -0.664517 -0.368321
9940 0.9125065800000001 9.4800897 -6.6942262800000005 0.6981149999999999 -0.7720560000000001 -0.13941199999999998
9960 -0.44188164 4.571793540000001 -2.06555436 0.191851 -0.67955 0.075918
9980 0.10792962 2.3195745 0.07708698000000001 -0.07425 -0.907031 0.184378
10000 2.58901596 4.27331448 0.040711500000000005 -0.30709000000000003 -0.940404 0.207363
10020 5.214407400000001 6.382729350000001 0.35999757000000004 -0.453526 -0.732291 0.23812
10040 3.8007471600000002 7.585180290000001 -1.03793724 -0.701623 -0.337471 0.286088
10060 2.47120767 8.53091334 -3.2254887599999997 -1.114687 0.67981 0.391926
10080 1.78623423 9.82152675 -2.22077799 -1.419204 1.940281 0.327295
10100 3.8805318900000003 15.407762580000002 -2.9562042600000003 -1.509881 2.68404 0.356687
10120 1.3497480900000003 13.892156820000002 -2.03831199 -1.515839 3.278509 0.61653
10140 -0.6586335900000001 15.404917680000002 -1.7419322700000002 -1.575889 4.02931 0.723039
10160 1.41081534 19.25431263 -2.93659407 -1.462979 3.961914 0.69614
10180 0.18546786 16.912283040000002 -0.20627487000000003 -1.200263 2.686453 0.550058
10200 1.76767371 18.24735537 -0.11945637 -0.684387 0.606475 0.243338
10220 5.2316239499999995 18.85988196 -4.80515382 0.375004 -0.349576 0.248758
10240 -0.19054944000000001 11.8284075 -6.165378990000001 0.528718 0.313933 0.420966
10260 -0.49052943 9.261993780000001 -3.4892404200000002 0.39249 0.234068 0.265224
10280 1.92320145 10.381059720000001 -1.9687100400000002 -0.254385 1.564576 -0.23345
10300 0.30821058 8.44184835 -0.4251163500000001 -0.420486 2.5093080000000003 -0.313801
10320 -1.5829612199999998 5.07654747 0.42241860000000003 0.494428 0.091217 0.469081
10340 -2.09908494 3.71886309 1.93726899 0.106802 0.045789 0.975974
10360 -1.8217071900000001 3.2060355300000003 1.3697997299999998 -1.301369 1.697764 0.931974
10380 -1.28792547 3.03523362 -0.15387966000000003 -0.629713 -1.388248 0.327461
10400 -0.8852544000000001 3.40017543 -1.37534238 0.433078 -1.459691 0.222813
10420 -1.69312752 4.5373604400000005 -1.21292802 -0.241746 2.452228 0.218427
10440 -1.336122 4.99316247 -0.7548795 -0.328867 2.761498 0.208877
10460 -0.7973960400000001 6.735840300000001 -2.26853307 -1.059755 1.87646 0.524304
10480 -0.67449636 7.491171060000001 -4.02812334 -1.670409 0.8411129999999999 0.7617149999999999
10500 0.19549368000000003 6.862026330000001 -4.837487580000001 -1.418077 -0.690711 0.532568
10520 1.94654925 6.71084442 -5.671857510000001 -1.0715629999999998 -0.607453 0.190915
10540 2.4348321900000003 8.32418721 -5.31514629 -0.854049 0.183809 0.062165
10560 1.20214683 8.880433830000001 -4.114049130000001 -0.521822 -0.312238 -0.052383000000000006
10580 0.24234624000000002 11.210338259999999 -2.85231636 0.25419400000000003 -0.461004 -0.284985
10600 0.22199049 15.32992023 1.31980797 1.061101 -0.354439 -0.727071
10620 1.4879023200000001 20.66347989 4.909345830000001 1.382096 -0.368626 -1.186282
10640 1.3787856900000002 9.18070812 -0.20073222000000002 1.361536 -0.603186 -1.118827
10660 5.4660339 9.556431120000001 -0.70099317 0.8506950000000001 -1.473896 -0.847815
10680 9.92570895 20.28342087 0.40565331 0.738863 -1.92595 -0.390818
10700 8.593177410000001 31.141688040000002 -4.80995091 0.096262 -0.423459 -0.4794850000000001
10720 2.50788726 10.742862330000001 -7.140905010000001 0.5102359999999999 -0.829011 -0.651262
10740 -1.32818571 4.199670810000001 -0.9488722500000001 0.573576 -0.5679810000000001 -0.7152470000000001
10760 1.8250033500000002 9.12472245 -3.3932888100000005 0.928365 -0.949377 -0.749668
10780 7.04165724 11.14237458 0.9369040500000001 1.881276 -0.629247 -1.179257
10800 5.717807550000001 7.23984867 3.0383826300000005 2.168756 -1.164338 -1.347479
10820 2.75277429 5.7154139100000005 -0.13651596 2.063242 -1.195706 -1.403723
10840 0.71581608 6.43107303 -4.25984535 1.713973 -2.8024560000000003 -1.022748
10860 0.06751241999999999 7.359599340000001 -1.6949227500000001 2.42722 -4.019793 -1.17644
10880 0.9574069500000001 7.26768945 -1.40363442 2.206301 -1.962677 -1.002226
10900 1.7402841900000001 5.9161461300000004 -4.58616519 1.377533 -0.562602 -0.36033
10920 -0.20417553000000002 4.25624508 -4.92685668 0.962066 -0.6908920000000001 -0.152628
10940 -2.26659069 5.77394037 -4.48677027 0.568512 -0.98086 0.241305
10960 0.9834525000000001 5.47935588 -2.7723844800000004 0.14925 -0.967493 0.7244
10980 5.504950170000001 8.025561000000001 -1.6856424900000002 -0.31645300000000004 -0.8920870000000001 0.918672
11000 7.188355980000001 11.391313140000001 -5.1126188400000006 -0.531931 -0.976189 0.825407
11020 3.9547739700000006 4.40114859 0.86953878 -0.6778420000000001 -0.553395 0.715956
11040 0.7438040100000001 3.77680095 0.03458025 -1.1344459999999998 0.590477 0.903581
11060 0.92387637 9.25554861 -1.09243179 -1.758832 1.400575 1.056278
11080 -0.14878826999999997 10.76711265 -2.3084990100000002 -1.981457 2.216297 1.318597
11100 1.8200689200000002 12.582237330000002 -2.93105142 -1.7724080000000002 2.883622 1.288223
11120 0.57375747 14.869026810000001 -3.4756241400000003 -1.469897 3.019742 0.819076
11140 -0.6478524 14.750472960000002 -1.17490446 -1.326052 2.508734 0.347513
11160 2.6849675700000004 20.36141037 -0.8990276400000001 -1.480809 1.7858330000000002 0.110214
11180 4.76563914 22.7752884 -1.6741157400000002 -1.381962 1.813913 0.461245
11200 2.32915887 18.14317317 -2.76564501 -0.964459 1.501058 0.547883
11220 3.8669058 12.820090590000001 -5.11411977 -0.221057 0.8290049999999999 0.40225
11240 0.29833191000000003 11.605514490000001 -5.095107990000001 0.462992 0.483128 0.25792
11260 -2.15207856 12.19065156 -4.1734683 0.642022 -0.4245100000000001 0.108646
11280 -1.96451136 8.17285815 -3.40990695 0.10765 -0.074629 0.187786
11300 -0.14309847 5.28161571 -1.4010838200000002 -0.459468 2.120822 -0.098862
11320 0.90591426 3.8221525800000005 0.09445068 -0.131831 -1.247167 0.312598
11340 -0.17738442000000001 2.6059284 0.72239859 -0.15793900000000002 -1.171976 0.977822
11360 -2.1630069 1.60301286 1.1972124 -1.078179 1.632455 0.820385
11380 -3.71856879 2.98419219 0.24504399000000002 -0.860439 -0.06718099999999999 0.762127
11400 -2.6939437200000005 4.379439060000001 -1.6075058400000002 -0.74745 -0.293767 0.318827
11420 -1.5358045500000002 5.10438825 -2.24937414 -0.344408 0.751174 -0.006573000000000001
11440 -0.36015453000000003 6.89959863 -3.30003495 -0.143332 0.6725180000000001 0.041934
11460 -0.19219751999999998 7.468568820000001 -2.9452759200000003 -0.452237 0.340032 0.073317
11480 -0.63766962 6.35204367 -2.1115044 -0.513592 0.00141 0.092551
11500 -0.70608456 7.24389039 -2.11630149 -0.547619 -0.230621 0.072314
11520 0.35027586000000005 11.196113760000001 -4.12436925 -0.5853970000000001 -0.576659 0.060743
11540 2.1612018600000003 12.733419240000002 -6.50621763 -0.360033 -0.460616 -0.116224
11560 1.8227568600000001 10.715619960000001 -5.87782827 -0.107185 -0.339591 -0.231049
11580 0.8015849100000001 12.650789610000002 -4.63795218 -0.113891 -0.222177 -0.28359
11600 1.4742860400000002 15.686631450000002 -3.81092994 -0.043622 -0.366848 -0.396145
11620 4.07123829 12.921133589999998 1.38656502 0.27365100000000003 -0.255229 -0.611989
11640 4.22331291 13.26675951 5.4893817 0.434438 -0.158564 -0.682561
11660 2.49306435 9.015752970000001 -3.27130146 0.191012 -0.594791 -0.605722
11680 6.26896278 9.07398513 -2.32332192 0.13117 -1.096197 -0.372625
11700 7.081171919999999 15.875836920000001 -0.16136469000000003 0.192833 0.318012 -0.572696
11720 2.77972236 13.92389217 -0.35700552 0.613682 -0.5009319999999999 -1.266256
11740 1.24196562 11.832890670000001 -2.04519861 1.209618 -1.53745 -1.2490139999999998
11760 2.61940734 12.93070815 -2.7943883100000004 1.82321 -0.386481 -0.8338700000000001
11780 3.3136610400000004 8.685685710000001 0.64395783 2.237445 -1.061186 -1.096099
11800 2.69918226 8.36475156 0.47974824000000005 2.224782 -0.9581 -1.02368
11820 2.69214849 9.25540146 0.12229146 1.98421 -0.364848 -0.788976
11840 1.60376823 7.6907064599999995 -0.81715338 0.982602 -2.568892 -0.19067
11860 0.8467893900000001 6.356232540000001 -2.39261976 0.973887 -3.85961 -0.016025
11880 1.00425951 8.506506060000001 -4.21163901 1.26936 -1.7216220000000002 -0.000678
11900 1.18044711 8.07855462 -4.00762044 0.71933 -1.320451 0.05265
11920 1.54359369 5.757773490000001 -1.46634975 0.615057 -2.058921 0.201351
11940 0.55744344 5.028046830000001 -1.55691567 0.467166 -1.77794 0.392238
11960 0.45625329000000003 3.6814477500000002 -1.6548096600000002 -0.115648 -1.423081 0.334301
11980 0.90142128 4.40758395 -1.2530411099999998 -0.512776 -0.960602 0.374732
12000 0.9636951600000001 7.17907572 -2.03352471 -0.7145739999999999 -0.674739 0.457345
12020 3.00275271 9.5062824 -4.58691075 -0.916223 -0.357975 0.537784
12040 4.48766298 6.44739687 -0.23156505000000002 -1.157866 0.08143099999999999 0.618854
12060 0.58932594 6.72641289 -0.7954438500000001 -1.311394 0.679184 0.718497
12080 0.46882971 9.95923953 -3.63818565 -1.326317 1.176642 0.738051
12100 4.9753573200000005 15.458205600000001 -1.2606831000000003 -1.23316 1.728123 0.740132
12120 -1.06263882 15.34953042 -3.48820056 -1.086844 1.854962 0.595713
12140 -1.76333769 17.272280610000003 -3.9353207400000003 -1.069544 1.724603 0.4133350000000001
12160 2.45923947 18.23807511 -2.9084491800000003 -1.087319 1.627485 0.473156
12180 2.9195246700000004 19.931653890000003 -1.56963924 -0.912558 0.86851 0.712494
12200 1.19286657 18.04258143 -0.12558762 0.001123 -0.494055 0.206808
12220 -0.33964182000000004 13.30732386 -3.4473321 1.153899 -0.482943 -0.373745
12240 -0.18965673000000005 14.108614470000001 -5.339700720000001 1.37098 -0.103627 -0.581018
12260 -0.08607293999999999 11.838727620000002 -3.36964671 0.8620540000000001 -1.16775 -0.694304
12280 0.33590421000000004 7.025343210000001 -1.75121253 0.695364 -2.930243 -1.216639
12300 0.18695898 5.0843267999999995 -0.7030925100000001 0.4215600000000001 1.089888 -0.126639
12320 -1.20424617 5.79414897 0.07215255 0.234032 2.654676 1.391194
12340 -2.5999443000000007 5.848035300000001 0.8116107300000001 -0.133528 0.608379 0.887048
12360 -2.6646118199999997 5.63473647 0.76715181 -0.17738900000000002 -2.260827 -0.300649
12380 -1.77066576 5.15168226 0.12693159 -0.656275 -0.688231 0.051845
12400 -0.56253483 5.016215970000001 -0.5793001200000001 -1.0325959999999998 1.186632 0.915279
12420 -1.16861625 5.19749496 -1.49269941 -0.922432 2.491311 1.688837
12440 -2.40340095 5.238657720000001 -2.15102889 -1.308285 3.427171 1.353794
12460 -1.97215335 5.16336597 -2.2676305500000007 -2.483805 2.007041 1.070733
12480 -0.97387794 4.944367530000001 -1.8811361700000002 -2.622836 2.01963 0.4416310000000001
12500 0.43963515000000003 6.435418860000001 -0.98899515 -1.647991 0.147151 0.060939
12520 0.73601487 9.884399040000002 -2.7276312600000003 -0.571138 -2.152139 0.298939
12540 0.39697146000000005 11.343715020000001 -5.970630870000001 -0.7760859999999999 -0.305295 0.030222
12560 -1.6780103100000001 9.59100156 -7.560027450000001 -1.081576 0.309439 0.011277
12580 -3.4536203100000002 8.036783640000001 -6.4665558 -1.0969950000000002 -0.06313300000000001 0.222086
12600 -3.4389445500000004 7.1118576000000004 -3.86181441 -1.139137 -0.313751 0.327867
12620 -3.2010912900000004 10.80468495 -4.05102969 -1.041204 -0.210418 0.242961
12640 -0.006582510000000001 17.354910240000002 -0.72658746 -0.990717 0.047319 -0.051846
12660 6.86711772 13.727652930000001 2.55174777 -0.880064 0.435725 -0.309012
12680 11.50043958 10.687622220000002 0.20522520000000002 -0.736598 0.301037 -0.317452
12700 9.358690950000002 24.979458060000002 -4.72193559 -0.575515 -1.008162 -0.197144
12720 2.28230631 27.49378068 0.5070004200000001 -0.271413 -1.126846 -0.084841
12740 -1.9350225 6.536609010000001 1.16232804 -0.011527 -0.261732 -0.07131599999999999
12760 -0.35087427000000004 7.236846810000001 -5.9692869 0.59897 -0.282848 -0.381082
12780 5.65030494 14.383892880000001 -0.34877493 1.100762 -0.7902640000000001 -0.72944
12800 5.2458386400000006 10.908720000000002 1.6528672800000002 1.526507 -0.983734 -0.934521
12820 3.0597880500000008 8.68987458 5.385797909999999 1.76764 -0.910396 -1.10171
12840 0.7643069100000002 8.553515580000001 1.99145943 1.903706 -0.528616 -1.322371
12860 -0.42332112000000005 6.69138138 -6.519392460000001 1.873675 -0.024894 -1.258065
12880 1.2783410999999998 6.718927860000001 -2.8472249700000005 1.894244 -0.929081 -0.8017
12900 3.5245662300000005 6.1011627299999995 -2.3781009600000003 1.479351 -3.468275 -0.282188
12920 3.4259266800000003 7.325617500000001 -1.26307674 1.266191 -4.943385 0.094227
12940 3.31471071 8.80469082 -0.7289811 1.076381 -4.778185 0.237968
12960 2.4069914100000003 8.91485712 -1.8000074700000002 1.015233 -3.578931 0.086453
12980 1.07132067 8.692121069999999 -2.6502401700000005 0.798424 -3.268788 -0.02869
13000 0.37587015 9.1766664 -1.5880428 0.8103899999999999 -3.915619 -0.253173
13020 2.8915367400000003 10.571020560000001 1.2843252 1.191325 -3.610371 -0.195355
13040 4.94811495 11.710746360000002 2.61356058 1.237564 -3.2972120000000005 0.038507
13060 4.0203440100000005 11.51630235 1.21322232 0.942141 -2.8718 0.202541
13080 2.4231582900000004 12.68896032 -1.81392786 0.766339 -2.547374 0.47543
13100 0.57705363 12.736264140000001 -4.98388221 0.789345 -2.414183 0.713634
13120 2.0528307900000007 11.606260050000001 -4.26837024 0.746488 -2.297485 0.871282
13140 5.14614942 11.610605880000001 -1.8473112900000002 0.454317 -2.198719 0.934276
13160 6.417751050000001 11.53875744 0.0015009300000000001 0.14269 -2.032315 0.882748
13180 4.744537830000001 10.2235896 0.7351221600000001 -0.06615499999999999 -1.728014 0.889445
13200 1.81751832 10.48614444 1.5138007199999999 -0.347842 -1.523458 0.8615780000000001
13220 0.41688576 11.94111459 1.6557023700000002 -0.6899390000000001 -1.207987 0.854511
13240 -0.07648857 11.570335830000001 0.06301944 -1.04462 -0.5931850000000001 0.8608600000000001
13260 3.1609782 11.810592540000002 0.9824028300000001 -1.474846 0.068746 0.868757
13280 5.38655328 10.29124917 2.9921284800000003 -1.813886 0.32254 0.83188
13300 5.01951213 9.13206033 1.7700673500000002 -1.279697 0.19615 0.540944
13320 3.95462682 9.059309370000001 -1.0741655700000001 0.467113 -0.398602 -0.357285
13340 3.0949667100000005 9.262288080000001 -2.0044773 1.123179 -1.667454 -0.898006
13360 1.88936676 9.186397920000001 -1.02596904 0.194174 -2.461222 -0.32557
13380 1.58684598 8.52507639 0.3008727 -0.494473 -2.85438 0.8205979999999999
13400 1.8661661100000002 8.57791305 0.09086022 -0.481208 -0.7411479999999999 1.409778
13420 2.0945919600000003 9.60432354 -0.2935348200000001 -0.368558 0.616559 1.44194
13440 1.4218908300000002 9.67078629 -0.26704782000000005 -0.4277220000000001 0.252298 0.94527
13460 0.67884219 9.24807339 -0.36958194 -0.292777 -0.7617010000000001 0.526633
13480 0.15133887000000001 8.93432016 -1.17595413 -0.417053 -1.358966 0.279771
13500 -0.12857967 8.64287487 -1.5525698400000003 -0.8304739999999999 -0.7315 -0.165097
13520 -0.71491356 8.27284167 -0.8180460900000001 -1.299374 0.20608 -0.059547
13540 -1.5160472100000002 8.13139128 -0.75473235 -1.834125 1.325476 -0.076467
13560 -1.4754828599999998 7.66660329 -0.92193399 -1.809458 1.727626 0.299204
13580 -0.78541803 7.46587107 -0.6394746600000001 -0.98341 1.102739 0.806771
13600 -0.37960776 7.63682013 -0.69260562 -0.15087 -0.354759 0.934095
13620 -1.04812002 7.718400090000001 -1.32684174 -0.312891 -0.654221 0.838275
13640 -1.60032492 8.45890794 -2.7994797000000005 -0.993768 -0.167485 0.653434
13660 -1.5459873300000002 11.39924943 -5.28775677 -1.182303 -0.08603200000000001 0.427686
13680 0.38888802 18.26785827 -9.73650348 -1.117651 -0.7516689999999999 0.331783
13700 -1.9281358800000001 16.20799371 -8.522525790000001 -0.773632 -1.281657 0.17035899999999998
13720 -0.9609974100000002 7.465576770000001 -3.25857789 -0.4113850000000001 -1.306809 0.019097
13740 2.47465098 2.2103009100000004 -5.033285370000001 -0.437142 -0.673762 -0.026759
13760 6.020475480000001 3.73548123 -2.37046878 -0.702897 -0.153254 0.040152
13780 2.77298289 10.066119480000001 -1.18284075 -0.966714 -0.170639 0.08747
13800 1.0324044 19.45025757 -1.19257227 -0.875675 -0.613921 0.040604
13820 0.31973733000000004 22.95896103 -0.11061756 -0.695785 -0.978731 0.006008
13840 0.9306158400000001 5.2781724 2.4039993600000003 -0.695941 -0.812401 -0.030526
13860 -1.6208278200000001 1.99519704 3.67201053 -0.781192 -0.611595 -0.090131
13880 0.09609875999999999 4.02842745 1.9829247300000001 -0.733588 -0.52523 -0.15079800000000002
13900 3.4908885 10.906022250000001 1.21322232 -0.519092 -0.5322939999999999 -0.168518
13920 5.282361270000001 13.52333025 0.08772102000000001 -0.22152800000000006 -0.561001 -0.17388
13940 6.402937950000001 11.66509062 -0.51148359 -0.125162 -1.276878 -0.254543
13960 6.03319905 10.046362140000001 -2.18096901 0.180466 -1.429109 -0.27891900000000003
13980 5.00409081 9.37814418 -1.36351152 0.33910500000000005 -1.124492 -0.137196
14000 3.22564572 9.1072116 1.23358788 0.654834 -1.171274 -0.166977
14020 1.95822315 9.70926111 1.8473112900000002 1.257877 -1.322855 -0.611224
14040 1.6889386500000003 9.414519660000002 1.0234184400000002 1.755281 -1.476206 -1.05407
14060 1.61798292 9.51945723 0.42257556000000007 2.0513220000000003 -0.969944 -1.374185
14080 1.66543389 9.418414230000002 -0.27797616 2.1937580000000003 -0.582799 -1.343776
14100 2.00193651 9.18415143 -0.09954207 1.963005 -1.194033 -0.936544
14120 2.6072821800000003 9.365273460000001 0.72060336 1.552065 -3.126955 -0.453033
14140 2.91084282 9.346114530000001 1.5380510399999998 1.459051 -4.462907 -0.082366
14160 2.4822831600000006 9.079969230000001 1.7461211400000003 1.383486 -4.2396699999999985 0.100554
14180 2.20596489 8.53270857 0.8960355900000001 1.4040860000000002 -3.701736 0.090395
14200 2.5800300000000003 8.89196058 0.19623924 1.483552 -3.78431 -0.107634
14220 2.71879245 9.41107635 -0.6009998400000001 1.651909 -3.510501 -0.261701
14240 2.63886057 9.51721074 -1.12460859 1.736359 -3.031291 -0.293771
14260 2.65323222 9.4226031 -1.09212768 1.430087 -2.50956 -0.231418
14280 2.18650185 10.344684240000001 -0.51837021 0.839282 -1.942938 0.040399
14300 1.85973075 10.54916388 0.01078119 0.490584 -1.386777 0.320329
14320 4.159547910000001 9.49236201 0.47601063 0.293403 -0.890539 0.536233
14340 2.86683516 11.99485377 -0.42346827 0.095659 -0.349288 0.684778
14360 0.68048046 12.695395680000003 -2.13096744 -0.272725 0.126828 0.753165
14380 0.90591426 11.134448100000002 -3.22818651 -0.6541680000000001 0.32807 0.841042
14400 3.1045412700000004 11.05631145 -2.5114777200000002 -1.08421 0.339036 0.8690030000000001
14420 4.31687088 11.001218490000001 -0.62898777 -1.72058 0.514692 0.916675
14440 2.9036619000000004 10.578799889999999 0.87582699 -2.207371 0.559624 1.024312
14460 1.94085945 12.765154590000002 1.6242711300000001 -2.049183 0.549784 0.950654
14480 0.7964935200000001 12.69809343 1.11787893 -1.231945 0.321905 0.486637
14500 2.87866602 11.25824049 1.68923295 1.455124 -0.770137 -0.741945
14520 4.57748334 11.025920070000002 2.7753765300000004 2.027969 -1.323805 -1.04061
14540 3.97693476 10.89988119 1.38851721 0.193668 -2.192285 -0.18064
14560 2.53288314 10.25592336 -1.1485646100000002 -0.6559659999999999 -2.128988 0.443595
14580 1.9576247400000002 9.795775500000001 -0.41329530000000003 -0.399824 0.394409 0.8138920000000001
14600 1.6709765400000003 9.055414800000001 -0.12065319 0.164856 0.7331850000000001 0.8526530000000001
14620 0.38469915000000005 7.99337439 -0.55190079 0.266993 -1.401508 0.20235
14640 -1.13134806 7.548206400000001 -1.08464265 -0.786445 -0.715482 -0.21288
14660 -1.9625689800000001 7.596550080000001 -1.1787990300000002 -1.414651 1.263927 0.299352
14680 -1.98412155 7.642058670000001 -0.26270199 -1.280361 1.6803119999999998 0.7494770000000001
14700 -1.59433101 7.55569143 -0.69336099 -0.861309 -0.182652 0.602036
14720 -1.49030577 6.718329450000001 -1.61199882 -0.5085850000000001 -0.332789 0.54594
14740 -1.22864364 6.16837104 -2.64125421 -0.737522 -0.050323 0.968063
14760 -1.02297699 6.62776353 -2.35444905 -0.772796 0.329362 0.8872129999999999
14780 -1.0523088900000002 6.3301869900000005 -1.79342496 -0.583018 1.061197 0.459244
14800 -0.83631231 6.630912540000001 -1.8525498300000003 -0.539883 1.0901040000000002 0.385801
14820 -0.15956946 8.27344989 -2.262990420000001 -0.361309 0.788737 0.4707560000000001
14840 -0.051041430000000006 12.122687879999999 -3.3849110700000002 -0.460559 0.464498 0.389293
14860 -0.11720988 18.31037481 -6.48272268 -0.668141 0.031898 0.327509
14880 -1.43401599 18.76902174 -11.1432771 -0.642588 -0.448655 0.333645
14900 -2.8851013800000005 11.61225396 -7.92811827 -0.5021770000000001 -0.785744 0.32758000000000004
14920 -0.8903457900000001 3.64327704 -2.1761719200000007 -0.30093600000000004 -0.720067 0.24558
14940 2.7256790700000004 4.040542800000001 0.6491963700000001 -0.094296 -0.463478 0.102485
14960 5.83501743 12.673244700000001 0.6285463200000001 -0.019661 -0.368399 -0.029575
14980 3.6585414000000003 19.09399761 -2.73017205 0.035466000000000004 -0.585348 -0.168849
15000 -2.02963014 10.94015124 -1.4218908300000002 0.127974 -1.015545 -0.292634
15020 -4.19293134 3.5375939100000005 6.0760197 0.460505 -1.7287169999999998 -0.454972
15040 0.36449055 4.71624579 4.2827418900000005 1.067288 -2.303903 -0.72987
15060 2.82028671 10.10398608 0.35416062000000004 0.986241 -0.7499819999999999 -0.846728
15080 6.7497606900000005 12.760210350000001 -2.40280254 0.5013449999999999 0.448558 -0.719191
15100 6.3460497600000005 10.96918884 -0.9864445500000001 0.085009 -0.514126 -0.439923
15120 2.30820471 10.58239035 -1.4162010300000003 0.125779 -2.115416 -0.430109
15140 0.18576216000000004 9.61180857 -1.3455494099999998 0.131298 -1.588062 -0.179714
15160 -0.19743606000000002 8.77280832 -0.42421383 0.252225 -0.201013 -0.299219
15180 0.75712599 8.95782492 -0.38888802 0.15987 0.50284 -0.411861
15200 2.1644980200000004 9.516759480000001 0.11197134000000002 -0.06395 0.146479 -0.344602
15220 3.3325158600000004 9.357494130000001 0.5096883600000001 -0.153522 -0.394905 0.054981
15240 2.8557596700000003 9.588156660000001 -0.0344331 -0.004884 0.251877 0.152399
15260 2.34353052 9.509274450000001 -0.60683679 0.627368 -0.115673 -0.12152
15280 2.336791050000001 9.72227898 -1.40512554 1.28044 -0.187002 -0.697979
15300 2.00777346 9.489968370000001 -1.58969088 1.589996 -0.176374 -0.959682
15320 1.59148611 8.987912190000001 -1.32968664 1.62575 -0.795201 -0.749267
15340 1.3605194699999998 8.59152933 -0.82897443 1.278717 -2.355292 -0.58305
15360 1.00875249 8.036342190000001 -1.16053281 1.477894 -3.907765 -0.398071
15380 0.8792703000000001 7.965533610000001 -2.1871002600000002 1.976702 -2.725343 -0.28928000000000004
15400 0.61731387 8.729693370000001 -3.724857 1.608164 -1.900512 -0.313207
15420 0.23022108 8.573871330000001 -4.868477370000001 1.242083 -1.923875 -0.546471
15440 0.7625116799999999 6.07901175 -1.9592728200000002 1.143481 -1.935604 -0.458482
15460 3.0912192900000006 3.8290392 0.9999234900000001 0.986041 -1.584516 -0.208999
15480 3.1840317000000002 5.89878243 0.02245509 0.619132 -1.327451 0.025254
15500 0.47450970000000003 10.582243199999999 -2.6101270800000003 0.307766 -1.156461 0.158524
15520 1.41380739 9.893973599999999 -2.86279344 0.045456 -0.633625 0.17311300000000002
15540 2.67179274 5.79714102 -2.38843089 -0.37542 0.431121 0.403818
15560 0.61941321 4.9614369300000005 -0.84798621 -1.082789 1.2704719999999998 0.771679
15580 0.26989272000000003 7.83545301 -1.57457367 -1.417991 1.860098 0.929883
15600 1.97050527 11.832292260000001 -3.50451459 -1.501652 1.927897 1.096923
15620 3.99219912 12.07703214 -2.46372264 -1.413689 1.565373 1.103343
15640 2.9126478600000003 11.43292716 -2.9885380200000005 -1.946653 1.304633 0.969631
15660 1.35602649 13.528568790000001 -2.47285575 -2.318492 2.128325 0.967047
15680 0.84289482 15.71880825 -1.86391962 -1.941696 3.026585 1.114874
15700 0.5577377400000001 18.08928684 -0.6125265900000001 -1.104236 2.648148 0.987681
15720 -1.7561469600000001 17.955615780000002 1.02881394 -0.467313 1.240534 0.532462
15740 -0.54321894 17.19639045 -0.43155171000000003 -0.021277 0.127557 0.353269
15760 1.9537399800000002 17.165400660000003 -1.5832555200000002 0.4648 -0.228884 0.092202
15780 2.43752994 12.75048864 -3.93441822 0.565125 0.354026 -0.045644
15800 1.94580369 11.94366519 -2.22886143 0.024801 0.123225 0.065177
15820 0.35341506000000006 9.77048532 -0.9413970300000001 -0.08626 1.569854 -0.366878
15840 -1.7024077800000001 6.49334691 -0.7589212200000001 0.14564000000000002 1.342447 -0.441879
15860 -2.5018933500000005 5.84429769 -0.58932594 0.231145 -0.256616 0.303182
15880 -2.24757891 5.16875166 0.5140341900000001 -0.065974 0.350841 1.029924
15900 -1.7122864500000001 4.35579696 1.1379305700000002 -0.758889 1.0580379999999998 1.134204
15920 -1.9459508400000003 3.62546208 0.78302439 -1.005983 -0.250628 0.676956
15940 -1.9000008 3.2694964200000003 -1.40542965 -0.022617 -2.873061 0.022752
15960 -1.9447540200000002 4.440516120000002 -2.3336518500000003 0.421012 0.335354 -0.046627
15980 -2.35594998 5.03702298 -3.19255659 0.199124 2.807304 0.284077
16000 -1.1656242 4.33438173 -3.5959732200000003 -0.275638 1.585212 0.484221
16020 -0.93031173 3.8305303200000003 -3.46888467 -1.037546 0.566523 0.6831659999999999
16040 -0.6867686700000001 6.21596916 -0.94498749 -1.464657 -0.853511 0.526042
16060 -0.24997842000000003 10.27927116 -0.41089185000000006 -0.8680709999999999 -2.238412 0.286293
16080 0.28889469 12.48030162 -2.22661494 -0.129831 -0.478611 -0.078274
16100 -0.02006145 10.49168709 -5.087917260000001 0.124815 0.511694 -0.198473
16120 -2.0101671000000003 8.808585390000001 -5.89519197 -0.030684 -0.492814 -0.075427
16140 -2.4581898000000004 9.39895119 -4.28603805 0.363936 -1.62171 -0.225047
16160 -2.06181675 11.23069401 -1.58595327 0.6699689999999999 -1.394069 -0.673991
16180 -0.26734212 13.973589630000001 -1.02836268 0.6913600000000001 -0.340004 -0.8194020000000001
16200 3.33910818 16.71903585 0.32706539999999995 0.692928 -0.405235 -0.758419
16220 4.05326637 15.220646640000002 3.3632015400000004 0.324297 -0.127637 -0.595776
16240 2.9475224100000004 8.067920580000001 -0.15313410000000002 0.305329 -0.8961520000000001 -0.466737
16260 3.50062002 6.13529172 -0.20671632 -0.021004 -0.601109 -0.4405520000000001
16280 5.83172127 14.66664651 -1.34764875 -0.050324 -0.898438 -0.385897
16300 7.123384350000001 20.38954545 -1.48865769 0.078936 -0.575241 -0.33627
16320 4.9590334799999995 19.464021000000002 -3.84430356 0.117973 0.254562 -0.358425
16340 0.92702538 7.65672462 -1.04557923 0.43924 -0.165422 -0.5703550000000001
16360 -1.5935854500000002 4.71175281 0.92073717 1.314418 -0.8660899999999999 -0.866719
16380 -0.07079877000000001 9.49445154 -2.6987408100000003 1.622069 -0.037435 -0.8346540000000001
16400 4.48796709 13.4597124 0.16660323000000002 1.551496 0.652947 -1.060358
16420 3.9134640600000004 9.06978645 2.53962261 1.512477 -0.421824 -1.049639
16440 1.6600482 7.521405479999999 -2.07842508 1.283696 -2.404651 -1.030537
16460 0.6575839200000001 8.525969100000001 -6.5189412 1.410441 -1.809216 -0.860567
16480 0.63572724 9.29132568 -4.94481879 1.440612 -0.467213 -0.29378200000000004
16500 1.63295298 8.160281730000001 -2.1454862400000003 1.166033 -0.704162 -0.207802
16520 1.78623423 7.56182268 -2.0258827200000002 0.914386 -0.982099 -0.280774
16540 0.7803266400000001 7.49267199 -4.78675026 0.731571 -1.135537 -0.113076
16560 -1.8778498200000002 6.18229143 -2.5673064300000004 0.482156 -1.325222 0.119366
16580 -1.6938730800000001 5.88740283 -2.3540076 0.121396 -1.031377 0.208336
16600 1.28508057 6.73853805 -1.4425506900000002 -0.298792 -0.6595880000000001 0.30427
16620 2.59260642 7.194340080000001 -0.7535355300000001 -0.689782 -0.136889 0.464307
16640 1.67755905 7.211105370000001 -0.9199916100000001 -1.137364 0.868504 0.642558
16660 1.2939095699999998 7.05184002 -1.0036611 -1.393059 1.432996 0.890012
16680 0.8665467300000002 9.01006317 -3.63115188 -1.625633 1.8697740000000005 1.0875860000000002
16700 1.70480142 9.637412670000002 -3.8475997200000003 -2.001188 2.053562 1.272734
16720 1.4485347899999998 8.03708775 -1.59777432 -2.3369470000000003 2.147312 1.295906
16740 -0.09968922 10.751838480000002 -3.8627169300000004 -2.018244 2.722691 0.98761
16760 1.02925539 14.200073100000001 -4.56700626 -1.446957 2.394474 0.7869229999999999
16780 1.7863813800000001 12.11116113 -2.43154584 -0.871133 1.02183 0.430577
16800 0.55400013 14.870076480000002 -0.8940932100000001 -0.275852 0.322863 0.217713
16820 0.55744344 17.10761976 -1.9856224800000002 0.212543 0.4131510000000001 0.125937
16840 0.997677 15.982412760000003 -0.7586269200000002 0.675006 1.330385 -0.016218
16860 1.20364776 16.51066164 -1.6061618700000002 0.346026 1.500841 -0.0005740000000000001
16880 0.86325057 16.38597654 -4.65457032 -0.053508000000000014 -0.12398900000000003 0.150404
16900 -1.0904796 12.20486625 -4.79333277 0.5364979999999999 -0.031702999999999995 0.003788
16920 -0.86685084 11.93902506 -2.36613276 0.198974 0.062601 0.422189
16940 0.50145777 9.60297957 -1.34405829 -0.5803699999999999 0.209254 0.91969
16960 0.13756563000000002 6.03709362 -0.70652601 -0.783853 -0.06882200000000001 0.573589
16980 -0.74335275 4.85336016 0.24144372 -0.367676 -0.439416 0.182797
17000 -2.1980286 4.68451044 0.69889383 0.256525 -0.483961 0.12525799999999998
17020 -2.336791050000001 4.0380020100000005 0.2484873 0.247449 1.124367 0.192568
17040 -1.8312915600000002 3.7296442800000005 -1.65885138 -0.114652 2.072394 0.523177
17060 -2.14938081 4.744537830000001 -2.4010073100000002 -0.7824260000000001 1.207337 0.582646
17080 -2.01256074 4.4045919 -2.53453122 -0.926295 -0.095449 0.429487
17100 -1.37594079 4.3755543 -2.16404676 -0.531805 -0.8384729999999999 0.21955
17120 -0.05673123 6.328391760000001 -0.57210939 -0.166329 -0.429878 0.020753
17140 1.07550954 8.87564655 0.37572300000000003 -0.016734 0.114946 0.040328
17160 0.10014048 9.44191899 -1.6949227500000001 -0.42469 -0.081235 0.17019
17180 -1.58969088 8.16057603 -4.21163901 -0.635574 -0.384472 0.260972
17200 -2.59874748 7.28280666 -6.03500409 -0.43228 -0.366619 0.14913800000000002
17220 -2.3243617800000003 7.7646542400000005 -5.9778216 -0.183752 -0.28594400000000003 0.005492
17240 -0.43035489 11.068436610000001 -2.4984500400000003 0.169095 -0.714907 -0.11968
17260 1.5197848200000001 16.516508400000003 -0.32542713 0.567711 -1.239614 -0.317049
17280 3.4666381800000003 18.927541530000003 -1.05890121 0.599009 -0.7812680000000001 -0.413558
17300 4.93793217 12.86604063 2.0871069300000005 0.4452390000000001 -0.681231 -0.521582
17320 5.037327090000001 5.61496932 0.5029587000000001 0.46899 -0.408495 -0.548471
17340 4.24203039 13.28846904 -0.63093996 0.442237 -0.347997 -0.469687
17360 3.8184051600000006 21.252805830000003 -0.64395783 0.250502 -0.4498680000000001 -0.40253
17380 1.5561603 16.498987740000004 0.01197801 0.224394 -0.778076 -0.620209
17400 -0.3817071 10.6747515 -1.81751832 0.293313 -0.889042 -0.635609
17420 1.29436083 8.65964016 -1.67217336 0.111278 -0.482747 -0.318002
17440 3.1934591100000005 8.51594328 0.14818986 0.146229 0.021723 -0.230811
17460 4.411331370000001 11.01634551 0.53408583 -0.074573 0.252548 -0.486886
17480 2.51642196 10.34872596 1.21383054 0.041317 -0.08455 -0.735608
17500 0.5204695500000001 8.405325720000002 -1.6536128400000003 0.229222 -0.55266 -0.518983
17520 0.8478390600000001 8.84300868 -4.0086603 0.544205 -0.271303 -0.29068
17540 2.59664814 9.61465347 -3.4456840200000003 1.039275 -0.099097 -0.36115
17560 2.89124244 9.349704990000001 -0.6616256400000001 1.247772 0.213363 -0.625013
17580 2.8151953200000004 9.24358041 -0.8584632900000001 1.234599 -0.430842 -0.951156
17600 2.34980892 9.18849726 -3.0765533400000002 1.310352 -1.529866 -1.101974
17620 1.5492736800000002 8.92968003 -2.9876355 1.276419 -1.980271 -1.124067
17640 1.31681592 8.923990230000001 -2.30924457 1.11934 -1.410404 -0.974206
17660 0.9291149100000001 8.73193986 -2.65143699 1.043813 -0.715205 -0.802573
17680 -0.17782587000000002 8.5228299 -0.59171958 0.83859 -0.674405 -0.438727
17700 -0.8587674 8.07855462 -1.27998918 0.7882640000000001 -1.0772469999999998 -0.087117
17720 1.3105277100000001 7.93843839 -2.11644864 0.8432559999999999 -0.879682 -0.256833
17740 3.52592001 7.67064501 -1.2584366100000002 0.629231 -0.6240319999999999 -0.333431
17760 3.33611613 6.8850798300000005 -0.18097488 0.384814 -0.434414 -0.12173699999999997
17780 1.2231108000000002 6.4135621800000004 -0.1038879 0.06782200000000001 -0.23714 0.103327
17800 -0.37272114 7.07593338 -1.90359126 -0.127505 -0.240783 0.117991
17820 0.4939727400000001 9.06066315 -3.59941653 -0.323475 0.032768 0.077815
17840 2.89543131 9.110802060000001 -3.68398854 -0.636908 0.734108 0.252052
17860 0.84888873 7.555838580000001 -1.2195105300000002 -0.7181960000000001 1.279346 0.36829
17880 -1.4784749099999999 7.76375172 -2.06091423 -0.702982 1.4874969999999998 0.515544
17900 -0.29922462000000005 9.828109260000002 -4.97639718 -0.8850389999999999 1.467359 0.647826
17920 3.95268444 12.30875415 -4.357739340000001 -1.290314 1.338498 0.72314
17940 3.66842007 12.69135396 -3.84894369 -1.747116 1.303965 0.963548
17960 0.7051820400000001 12.79598742 -2.44845828 -1.7954150000000002 1.5435530000000002 1.030202
17980 -1.3518376200000002 13.07276676 -1.2386694600000003 -1.5807 1.759384 0.949172
18000 -1.44584685 14.873519790000001 -0.53812755 -1.447558 1.6887 0.92776
18020 0.5204695500000001 14.42774358 -0.24219909 -1.036893 1.545022 0.804763
18040 1.3678573500000002 12.477456720000003 -1.0578515400000001 -0.314723 1.115889 0.402296
18060 1.09826874 12.4216182 -2.3460713100000006 0.121905 0.200356 0.139464
18080 0.46792719 12.760063200000001 -3.08208618 0.306921 -0.013043 0.06518600000000001
18100 -0.51732054 13.132794150000002 -2.44561338 0.054270000000000006 0.647741 0.205716
18120 -0.76042215 11.43891126 -2.9165326200000004 -0.074677 1.113882 0.163625
18140 0.24399432 10.5361362 -2.7075698100000003 -0.033735 0.408856 0.08149400000000001
18160 -0.8000839800000001 7.35809841 -1.9390642200000001 -0.153218 -0.4327220000000001 0.187491
18180 -1.5762217500000002 6.170470379999999 -1.09257894 0.052292999999999985 0.538713 0.299845
18200 -2.2107521700000006 6.53840424 -0.8165549700000001 -0.016275 1.303242 0.177678
18220 -2.36089422 6.74841672 -0.9187849800000001 -0.236212 -0.06512799999999999 0.506907
18240 -2.0254412700000004 7.22876337 -1.8768001500000002 -0.2229 -1.122947 0.761524
18260 -1.6268217299999999 7.21080126 -3.53324808 -0.481925 0.620514 0.5523819999999999
18280 -1.91122344 7.59595167 -3.7083860100000003 -0.574962 0.158045 0.135718
18300 -2.56057677 7.39237455 -3.44493846 -0.0611 -0.5450729999999999 0.23207600000000006
18320 -1.8363829500000002 6.24666465 -2.9699775 0.301554 1.239447 0.138319
18340 -1.2189121200000002 5.52156831 -1.91062503 0.298097 1.552117 0.271422
18360 0.11945637 5.64401673 -0.9382480200000001 -0.350646 0.752621 0.435626
18380 1.46455452 6.952288139999999 -0.24219909 -0.973167 -0.164079 0.583071
18400 1.2913687800000002 8.14321233 -1.3814736300000001 -0.8361959999999999 -0.69129 0.439425
18420 -0.57779919 9.67542642 -3.6256092300000002 -0.394804 -0.107852 0.140522
18440 -1.9922049900000003 10.22568894 -4.604872860000001 -0.276404 0.007254999999999998 0.023697
18460 -1.98906579 8.79900102 -4.30938585 -0.344673 -0.461243 0.027025
18480 -0.5587874100000001 7.679483820000001 -4.1097033000000005 -0.158125 -0.532058 -0.0079
18500 0.47242017000000003 7.840250100000001 -3.3260805 0.054645000000000006 -0.515411 -0.092961
18520 0.83107377 8.680751279999999 -2.58932007 0.281355 -0.728878 -0.186176
18540 -0.42691158 11.129052600000001 -2.1038722200000004 0.5333359999999999 -1.325645 -0.351362
18560 -0.71670879 15.317196660000002 -2.17452384 0.7021470000000001 -1.229572 -0.546859
18580 2.56416723 14.456192580000002 -0.8008393500000001 0.5523899999999999 -0.671642 -0.61485
18600 4.352647950000001 10.50560748 1.01473659 0.444879 -1.015767 -0.777529
18620 3.2594706 13.22739198 2.1106116900000003 0.724719 -0.978262 -0.808738
18640 1.85314824 11.52543546 -0.94214259 0.505592 -0.27157 -0.722511
18660 3.26530755 10.72863783 -1.1859799500000001 0.276727 -0.278693 -0.607665
18680 4.418208180000001 16.90779006 -0.2402469 0.313824 -1.139078 -0.463161
18700 2.5135770600000003 19.33453881 -2.24428275 0.200736 -0.659328 -0.459225
18720 0.29578131 8.40487446 -1.8679613400000001 0.275718 -0.538366 -0.404377
18740 1.34001657 7.76779344 -1.5386494500000003 0.338056 0.051526 -0.39081
18760 3.25647855 8.73449046 -0.99138879 0.4259439999999999 -0.452068 -0.270979
18780 4.080361590000002 9.47858877 1.81078866 0.5355409999999999 -0.617057 -0.132201
18800 2.63527011 8.971892460000001 1.4691946500000002 0.6321869999999999 -0.24464 -0.374489
18820 1.74297213 8.840163780000001 -1.9772349300000003 0.940909 0.195688 -0.733956
18840 1.7926695900000003 9.257795100000001 -3.57127164 1.039439 0.098069 -0.915809
18860 1.31397102 9.76434426 -1.1612881800000001 0.939622 -0.419668 -0.8261120000000001
18880 1.69312752 9.425448000000001 -0.5956141500000001 1.0429190000000002 -1.181671 -0.83296
18900 2.0115208800000004 8.446037220000001 -2.10881646 1.139318 -1.32055 -0.818222
18920 1.9815807600000002 8.3526264 -2.6295803100000006 1.070974 -0.366854 -0.561411
18940 1.72336194 8.60336019 -2.6376637499999998 1.443026 -0.713233 -0.8425159999999999
18960 1.3253408100000001 8.97803352 -2.88959436 1.7158790000000002 -0.723971 -0.791458
18980 0.8786718900000001 8.235573480000001 -1.8984998700000002 1.390949 -0.395524 -0.329472
19000 -0.72239859 6.68135556 -0.33634566000000005 0.581457 -0.513312 -0.27515500000000004
19020 -0.41149026 6.75200718 -1.8227568600000001 0.206104 -0.929654 -0.26122
19040 1.73893041 7.99502247 -2.17452384 0.14896600000000002 -1.026536 -0.226244
19060 2.85126669 7.32067326 -0.7693983000000001 -0.140576 -0.493495 -0.076193
19080 1.15349904 6.94211517 -0.36583452 -0.443374 0.17064300000000002 0.068255
19100 0.5288472900000001 8.411005710000001 -2.8993160700000002 -0.5777770000000001 0.577387 0.23237
19120 0.16810416000000003 9.45883143 -3.1897215 -0.550367 0.801821 0.293162
19140 0.060321690000000004 9.05272686 -4.35908331 -0.585114 0.915881 0.304524
19160 1.34734464 8.40592413 -2.5421633999999997 -0.767216 1.067475 0.381038
19180 -0.09490194 9.450002430000001 -3.68712774 -1.063835 1.413201 0.493891
19200 0.44352972000000007 10.75603716 -5.47397019 -1.415737 1.593885 0.635411
19220 0.97836111 10.68149097 -5.44028265 -1.819195 1.491262 0.807913
19240 1.0030626900000001 10.54167885 -2.69439498 -1.970123 1.145564 0.809438
19260 -0.31390038 12.42775926 -2.07064575 -1.7158790000000002 1.126934 0.719371
19280 -0.48888135 12.753029430000002 -1.2772914300000002 -1.2223540000000002 1.560678 0.779946
19300 0.73736865 14.977554840000002 -0.24548544000000003 -1.009502 1.750341 0.8506239999999999
19320 1.0671318 14.802868170000002 -0.6209043299999999 -0.862418 1.117559 0.725344
19340 1.8043434900000002 17.42256981 -2.67688413 -0.546607 0.44932 0.529717
19360 0.13053186 17.58558258 -4.01585103 -0.130018 0.464237 0.434331
19380 -2.3254114500000003 11.671977240000002 -2.276910810000001 -0.155628 0.408089 0.378677
19400 -1.3222016099999998 7.0537824 -2.07169542 -0.13103499999999998 0.5692159999999999 0.28998
19420 0.46642626 7.707471750000001 -3.7580834700000003 -0.007720999999999999 0.7506649999999999 0.095124
19440 0.9047174400000001 9.84847482 -3.27219417 -0.085333 0.5973310000000001 -0.119934
19460 -0.8220878100000001 8.31805596 -2.2448811600000003 -0.113039 -0.090808 -0.103223
19480 -2.4277984200000002 6.10685253 -1.9279887300000003 -0.345822 0.25358600000000003 0.286748
19500 -2.22497667 6.38137557 -2.4354306 0.07067000000000001 1.591895 0.111685
19520 -2.28529836 7.041058830000001 -3.30766713 0.282605 0.7667510000000001 0.083245
19540 -2.37046878 7.67064501 -3.79340928 -0.09699 -0.7003550000000001 0.467033
19560 -2.27137797 7.62409656 -3.2242919400000005 -0.435373 -0.207252 0.523858
19580 -2.21778594 7.04135313 -2.4887283300000003 -0.768645 0.989813 0.622545
19600 -1.6766663400000001 6.56849151 -2.5836302700000005 -0.910234 0.175102 0.68883
19620 -1.52472906 6.34171374 -3.04362117 -0.8584 -1.521473 0.275828
19640 -1.2849236099999999 6.39545292 -3.65180193 -0.070842 -0.184641 0.148225
19660 -0.6761444400000001 7.144642620000001 -3.4557098400000004 0.472074 1.544043 0.008796
19680 -0.09714843000000001 7.97811003 -2.1198919500000004 0.286047 1.556014 0.106826
19700 0.07648857 8.02106802 -0.5060979 -0.478091 0.5913579999999999 0.381531
19720 -0.37706697 8.26640631 -2.0161610100000003 -0.8234969999999999 -0.427346 0.489382
19740 -0.36523611 8.5174344 -3.8577825 -0.654331 -0.623577 0.39788
19760 -0.06167547 8.4536694 -4.77941238 -0.281005 0.257261 0.110939
19780 -0.26150517 8.58479967 -3.23672121 -0.440305 0.279688 -0.031208
19800 -0.39952206 8.97548292 -3.24225405 -0.585839 -0.278066 -0.017623
19820 -1.10095668 8.825193720000001 -3.3916505400000005 -0.36765 -0.37372 0.00432
19840 -1.5423968700000001 8.703049410000002 -3.30797124 -0.113433 -0.109195 -0.033767
19860 -1.1126403900000001 7.953261300000001 -2.4644780100000006 0.021457 -0.095458 -0.122573
19880 -0.7801794900000001 8.84795292 -1.77425622 0.227947 -0.598355 -0.279652
19900 0.32272938000000007 12.67534404 -2.20985946 0.444575 -1.010623 -0.465617
19920 5.54371929 17.200883429999998 0.14235291 0.492572 -0.8761629999999999 -0.565867
19940 4.31612532 16.46740935 1.22819238 0.718276 -0.481836 -0.539159
19960 1.4745803400000002 10.74046869 -0.33410898 0.724302 -0.569086 -0.303996
19980 1.26367515 8.30847159 0.12828537000000004 0.47924 -0.956056 -0.289188
20000 4.61984292 11.941869960000002 -0.17678601 0.203843 -1.032786 -0.5751609999999999
20020 5.350619250000001 13.668528060000002 0.6786852300000001 0.476605 -1.287636 -0.749186
20040 3.21426612 19.147883940000003 -1.53535329 0.7128680000000001 -0.2369 -0.514941
20060 0.34817652000000004 12.31069653 -3.20123844 0.409188 0.060407 -0.5420119999999999
20080 -1.2240035100000002 6.27794874 -1.30933089 0.413267 -0.68109 -0.529283
20100 0.5935148100000001 7.846832610000001 -1.4906000700000002 0.349089 -0.432847 -0.48198
20120 3.5953748100000005 9.86044302 -0.08951625 0.22352600000000006 -0.263418 -0.385866
20140 3.8875656600000004 9.55897191 2.2589487 0.493022 -0.675233 -0.46464
20160 2.9473752600000003 9.40987953 -0.85382316 1.214943 -0.589158 -0.7705609999999999
20180 1.87484796 9.14612787 -3.81780675 1.449939 -0.07005 -0.787744
20200 0.69814827 9.40000086 -1.99939572 1.225017 -0.5462229999999999 -0.5942890000000001
20220 1.1608369200000002 9.49625658 0.6081807600000001 1.419057 -1.321331 -0.865405
20240 1.3665035700000001 9.58621428 -0.45235872000000005 1.481873 -1.942134 -0.982743
20260 2.13201711 9.35539479 -2.65547871 1.14081 -1.763348 -0.642455
20280 2.4929172000000004 8.73074304 -1.88981802 0.8781030000000001 -0.8843690000000001 -0.18074
20300 2.11914639 8.59393278 -0.6942537000000001 1.365592 -1.175786 -0.4536310000000001
20320 0.8156524500000002 9.07832115 -1.72965015 1.445981 -1.396204 -0.280803
20340 -0.56911734 9.23384889 -2.6102742300000004 1.112173 -0.9822 0.105167
20360 -0.38679849 8.322843240000001 -2.53273599 0.471487 -0.923283 0.046137
20380 3.4182945 8.214619319999999 -1.92425112 0.16401 -1.135667 -0.121313
20400 4.6945362600000005 7.38833283 -0.33664977 0.124977 -1.0460120000000002 -0.130246
20420 1.70704791 5.95326717 1.08030663 -0.113672 -0.5760310000000001 0.027718
20440 -1.6384956300000002 6.36775929 -1.2663630900000002 -0.374195 0.20102 0.13706600000000002
20460 -0.57315906 9.52768782 -4.42734129 -0.43091 0.509709 0.246301
20480 3.0527542800000003 8.56877994 -2.3164353 -0.446587 0.609789 0.273837
20500 0.20582361000000002 5.901931439999999 -0.041309910000000005 -0.596055 0.835039 0.28425500000000004
20520 -1.41201216 7.110366480000001 -3.28522185 -0.7650680000000001 1.047321 0.357578
20540 1.5111029699999998 8.14471326 -3.733686 -0.8405879999999999 1.399932 0.42176
20560 2.84542974 9.541009800000001 -3.49179102 -0.939854 1.453286 0.485091
20580 1.3564777500000003 9.37125756 -3.4170976800000004 -1.042522 0.935872 0.496788
20600 1.30154175 11.83080114 -4.05012717 -1.006241 0.736392 0.533616
20620 0.87567984 14.0848056 -2.73301695 -0.907543 0.916905 0.593895
20640 0.09700128 13.39609455 -1.03510215 -0.978376 1.177676 0.71057
20660 0.06615864 15.171106140000001 -0.12589173 -1.17243 1.264398 0.769992
20680 0.72838269 15.53484132 -1.5965775000000002 -1.381813 1.228808 0.7942130000000001
20700 1.28986785 16.26338097 -2.5397697600000004 -1.181686 1.2976299999999998 0.726088
20720 0.5975565300000001 18.18807354 -4.781658870000001 -0.741537 1.532062 0.593198
20740 -1.65211191 14.73430608 -3.56737707 -0.5062399999999999 1.320733 0.490426
20760 -3.06607626 9.1157463 -1.7232147899999999 -0.432061 0.862843 0.381504
20780 -1.08614358 7.00049448 -1.44405162 -0.133524 1.000518 0.325729
20800 0.72673461 8.57641212 -2.1607604100000004 0.053786 1.039663 0.230848
20820 -0.04266369 8.9455428 -1.17385479 -0.02785 1.029796 0.105308
20840 -2.7819688499999997 6.89151519 -1.1020063500000001 -0.104925 0.6914819999999999 0.061406
20860 -3.80763378 6.442158330000001 -1.84880241 -0.188961 -0.104383 0.160115
20880 -2.34771939 7.127426070000001 -2.67643287 0.37776 0.583156 0.09269
20900 -2.11644864 7.920329130000001 -3.4031772900000004 0.177155 1.454474 0.01967
20920 -2.4435140400000006 8.28811584 -3.43011555 -0.544834 0.944045 0.153081
20940 -2.41583022 7.837101090000001 -3.0210189300000003 -0.698756 0.107734 0.569685
20960 -2.2718292300000003 7.287741090000001 -2.74693734 -0.962899 0.337055 0.460723
20980 -1.8248562 7.5254472 -3.09870432 -1.127909 -0.840283 0.389509
21000 -1.4245885800000002 8.14605723 -3.23956611 0.150969 -1.343355 0.677892
21020 -1.281186 8.58120921 -3.2515343100000003 0.635757 1.966046 0.094857
21040 -0.62898777 8.092023750000001 -2.19937257 0.167423 2.390821 0.035494
21060 -0.11166723 7.1867079 -1.6612450200000002 -0.238316 1.081306 0.45949
21080 -0.18546786 6.5565135 -2.16105471 -0.697354 0.113333 0.500253
21100 -0.48813579 6.73509474 -3.29584608 -0.591885 -0.312523 0.345575
21120 -0.70128747 7.2554171400000005 -3.56184423 -0.247009 0.17213399999999998 0.057874
21140 -0.6216597000000001 7.6989370500000005 -2.72283417 -0.21671 0.17347 -0.035919
21160 -0.39847239000000007 8.312366160000002 -1.86676452 -0.475633 -0.388402 0.039904
21180 -0.80921709 8.51054778 -2.7771717600000003 -0.471234 -0.518694 0.118082
21200 -0.42466509 8.70080292 -3.71766627 -0.117043 -0.367263 0.037041
21220 -0.28845324000000006 9.223823070000002 -3.5848977300000002 0.139901 -0.276114 -0.069172
21240 -0.30297204000000005 9.306295740000001 -2.89093833 0.108823 -0.409816 -0.172835
21260 -0.7553307600000001 8.823996900000001 -2.29831623 0.110199 -0.621637 -0.216351
21280 -0.6011469899999999 10.653198930000002 -1.84566321 0.177117 -1.023084 -0.314714
21300 0.37347651000000004 14.714254440000001 -2.65098573 0.391755 -1.4139959999999998 -0.5114029999999999
21320 3.21606135 14.656767839999999 -1.58430519 0.663894 -1.299328 -0.651722
21340 2.6017395300000006 10.90138212 1.35962676 0.696138 -0.456166 -0.811743
21360 2.0809756800000003 9.17396865 3.18657249 0.483813 0.01967 -0.8084939999999999
21380 1.6801096500000001 8.76921786 1.23418629 0.404525 -0.434248 -0.712327
21400 3.1174218000000002 15.08623002 -0.6108785100000002 0.07711599999999999 -0.582491 -0.652467
21420 4.68795375 30.41584614 -4.79139039 0.182063 -1.260051 -0.466063
21440 5.37502653 10.154134800000001 -7.229970000000001 0.371093 -0.5923229999999999 -0.313911
21460 1.5060213900000003 1.5314685300000002 2.87312337 0.087535 0.06424400000000001 -0.423555
21480 0.08232552 7.59834531 0.8952900300000001 0.16745 -0.851334 -0.3662760000000001
21500 1.17356049 11.675871810000002 -0.0013439700000000003 0.206835 -0.488797 -0.220119
21520 1.96780752 10.85288148 2.5469506800000006 0.555771 -0.56104 -0.305183
21540 2.23964262 8.20683018 0.4251163500000001 0.988377 -0.4986390000000001 -0.833148
21560 2.4578856900000003 8.065232640000001 -4.153710960000001 1.248096 0.046964 -1.103361
21580 1.1862840600000002 9.63441081 -3.4127518500000003 1.249434 -0.032264999999999995 -1.004974
21600 1.4468867100000002 9.68321556 -0.28126251 1.229069 -0.93794 -0.939862
21620 2.39261976 9.37366101 -1.1030560200000001 1.399281 -2.001548 -0.7055060000000001
21640 2.6101270800000003 9.35974062 -3.45077541 1.532549 -2.414607 -0.621793
21660 2.50413984 9.53472159 -3.66677199 1.51291 -1.934619 -0.758209
21680 1.98846738 9.301959720000001 -1.41096249 1.47146 -0.810106 -0.617866
21700 1.20274524 8.86905423 -0.14445225 1.270341 -0.839492 -0.288085
21720 0.8765725499999999 7.88994756 -0.029783160000000003 0.882567 -1.054812 0.081224
21740 1.21038723 7.7369606100000015 -1.15155666 0.54916 -1.072172 0.182535
21760 0.7800323400000001 8.97473736 -2.93105142 0.307891 -1.259267 0.027265
21780 0.6147730800000001 7.59850227 -1.6151380200000003 0.128374 -0.877149 -0.004389
21800 1.82875077 6.026763689999999 -0.26659656 -0.176514 -0.236308 0.10696
21820 2.07169542 6.53405841 -0.86325057 -0.370887 0.129066 0.27925500000000003
21840 0.5524992000000001 7.969124070000001 -1.2766930200000002 -0.429514 0.411433 0.312666
21860 -0.34383069000000005 9.51915312 -3.2073795000000005 -0.539428 0.690729 0.359611
21880 1.55376666 9.92824974 -4.219271190000001 -0.7290989999999999 0.8507469999999999 0.467039
21900 2.7913962600000004 6.6401928 -1.6862409000000003 -0.982854 0.965303 0.544168
21920 -0.85277349 6.6464810100000005 -1.9083785400000002 -1.14547 1.203022 0.644209
21940 -0.22453128 9.01859787 -3.9375574200000005 -1.29241 1.364004 0.740185
21960 2.2439884500000002 11.022025500000002 -3.51903339 -1.497856 1.236858 0.74639
21980 0.5565409200000001 9.12083769 -3.4705327500000003 -1.6268049999999998 1.0211 0.735084
22000 -0.51628068 10.218046950000002 -3.7646757900000005 -1.5035120000000002 1.128369 0.709102
22020 0.54561258 11.694128220000003 -2.14069896 -1.136039 1.343842 0.585342
22040 0.5758568100000001 14.12657658 -0.54112941 -0.761484 1.304414 0.530325
22060 0.49995684000000007 16.71813333 0.59322051 -0.524245 1.2149219999999998 0.592986
22080 1.03584771 18.5901462 -0.6616256400000001 -0.367392 1.188932 0.563136
22100 1.2213057600000001 16.142129370000003 -1.9606266 -0.099679 0.8273020000000001 0.456511
22120 -0.24279750000000003 13.29475725 -2.4691181400000004 0.103097 0.769363 0.384294
22140 -0.7652094300000001 11.85010722 -2.58048126 0.068799 1.185037 0.360021
22160 -1.6066131300000002 10.59975405 -3.16710945 -0.050666 1.162134 0.330374
22180 -2.12826969 9.126517680000001 -2.49500673 0.038512 0.674539 0.177798
22200 -0.68048046 10.1601189 -1.75585266 0.071264 0.4439 0.018089
22220 -0.021258270000000003 8.71832358 -1.58550201 -0.138975 0.545371 0.132926
22240 -1.55691567 6.289622639999999 -1.8799393500000001 -0.67488 0.319042 0.453144
22260 -2.6232921 6.92130816 -1.9970020800000001 -0.254071 0.277669 0.311927
22280 -3.4063164900000005 7.632327150000001 -2.2418891100000002 0.366326 0.964147 -0.06917899999999999
22300 -3.16067409 7.434586980000001 -2.77687746 -0.074285 0.223314 -0.103354
22320 -2.13935499 7.59864942 -2.96727975 -0.156778 0.039959 0.265909
22340 -1.27744839 7.701929100000001 -3.13957278 -0.5328149999999999 0.8097260000000001 0.4321430000000001
22360 -1.31935671 7.678287 -3.2031906300000004 -0.8204319999999999 0.655371 0.653591
22380 -1.7107953300000003 7.778721780000001 -2.9210256000000006 -1.067484 -0.787679 0.7680140000000001
22400 -1.97903016 7.92123165 -2.63302362 -0.581909 -0.032119 0.543974
22420 -1.7893832400000003 8.068518990000001 -2.62823634 -0.103851 1.1614 0.293684
22440 -0.92702538 8.22210435 -2.2716722700000003 -0.1511 1.410409 0.134938
22460 0.11331531000000002 7.994875320000001 -1.70869599 -0.344405 0.710968 0.1911
22480 0.75038652 7.68621348 -0.85741362 -0.510905 0.022163 0.228207
22500 -0.05883057 7.436980620000001 -1.3148637300000001 -0.512621 -0.374056 0.213748
22520 -0.63407916 7.924223700000001 -2.4351363000000004 -0.334831 -0.31040100000000004 0.125177
22540 -0.5167221300000001 8.05923873 -3.87094752 -0.31251100000000004 -0.173794 0.042905
22560 -0.5524992000000001 7.7863539600000005 -4.00117527 -0.376271 -0.379072 0.018154
22580 -0.19654335 8.263865520000001 -2.9386934100000004 -0.341688 -0.530411 0.005771
22600 0.02185668 9.26123841 -2.8445370300000006 -0.165277 -0.502043 -0.048581
22620 -0.16675038 9.721386270000002 -3.33671454 -0.02635 -0.516112 -0.113822
22640 -0.6968043 9.122632920000001 -3.3307206300000005 0.026476 -0.630286 -0.112239
22660 -0.76131486 7.822582290000001 -2.2210821000000003 -0.045575 -0.704813 -0.060304
22680 -0.47870838000000004 9.696086280000001 -1.6423803900000002 -0.16175499999999998 -0.905792 -0.049107
22700 0.8210381400000001 14.89103064 -2.40804108 -0.146147 -0.89676 -0.190015
22720 3.82589019 17.83510974 -2.2053664800000004 0.045494 -0.726116 -0.405744
22740 1.8672157800000002 13.770767880000001 0.6557886900000001 0.281541 -0.552804 -0.528231
22760 -0.4628358 9.2202228 0.23576373 0.353412 -0.274833 -0.574019
22780 1.86108453 8.87130072 0.1966905 0.391672 -0.07043300000000001 -0.574014
22800 5.04720576 12.000994830000002 -0.69575463 0.394547 -0.111052 -0.541895
22820 5.280271740000001 16.793130780000002 -0.019306080000000003 0.177607 0.199083 -0.388916
22840 3.0943683000000006 16.28672877 -1.3632172200000001 0.121092 -0.220633 -0.340702
22860 2.49366276 9.01620423 -1.1094913800000001 -0.035108 -0.135707 -0.39745
22880 0.20013381 8.09247501 -1.10635218 -0.190321 -0.378597 -0.527478
22900 0.48858705 8.30218338 0.6936552900000001 -0.488767 -0.034713 -0.485138
22920 1.9696027500000002 9.31932342 1.5919373700000001 -0.44253 -0.06945499999999999 -0.361925
22940 2.55009969 8.86352139 1.8636253200000001 -0.259658 -0.031398 -0.181235
22960 2.5251038100000005 8.905135410000002 -0.7969447800000001 -0.119237 -0.27511 -0.095552
22980 2.41373088 9.74578374 -3.2055842700000006 -0.280783 -0.472295 -0.194704
23000 2.23440408 9.57918051 -2.5933617900000003 -0.266611 0.14510399999999998 -0.357766
23020 2.03142537 9.589961700000002 -0.7532314200000001 0.132273 0.724703 -0.45934
23040 1.83353805 9.66690153 -0.93271518 0.6420170000000001 1.139485 -0.465925
23060 1.64253735 9.07697718 -1.92155337 0.922284 0.070118 -0.751017
23080 1.6685829000000003 9.44072217 -2.287692 1.03205 -1.445784 -0.576324
23100 2.21419548 9.62887797 -1.9486485900000001 1.336564 -1.2999120000000002 -0.290237
23120 2.7113074200000002 9.306295740000001 -0.9083079000000001 1.284251 -0.426665 0.356689
23140 2.2778133300000003 8.96216094 -0.31464594 1.1023379999999998 -2.264473 0.30009
23160 1.03719168 8.35966998 -0.48184758000000005 1.084202 -3.216754 0.29691100000000004
23180 0.32423030999999997 8.260422210000002 -1.13823468 0.98665 -3.064155 0.315262
23200 0.9141448500000001 8.789269500000001 -1.58401089 0.630332 -3.174302 0.197546
23220 1.1404811700000002 8.60171211 -1.05201459 0.415213 -3.915581 0.079489
23240 0.89993016 7.77408165 -0.55549125 0.442673 -4.2002739999999985 -0.144281
23260 0.49906413000000005 7.644001050000001 -1.5513730200000002 0.559685 -3.734475 -0.313908
23280 0.7637085 7.90686 -2.04998589 0.490709 -2.405011 -0.254137
23300 1.6994157300000001 8.33826456 -1.61948385 0.17497 -1.790819 -0.128943
23320 1.7784549 7.67274435 -1.87799697 0.276499 -1.458921 0.166171
23340 1.13598819 7.24702959 -2.380651560000001 0.464768 -1.358228 0.395956
23360 0.8815167900000002 8.52701877 -3.2680053000000004 0.514865 -0.998872 0.529373
23380 2.16509643 9.59759388 -3.02371668 0.361181 -0.723694 0.578154
23400 3.18223647 9.817033770000002 -2.6301787200000004 0.058676 -0.572603 0.618576
23420 3.1777434900000006 9.253753380000001 -2.8003724100000005 -0.246278 -0.470592 0.680408
23440 1.47937743 9.91792962 -4.38333363 -0.4926180000000001 -0.526931 0.597575
23460 0.38051028000000003 9.11649186 -3.9851653500000004 -0.76603 -0.441468 0.507961
23480 1.72306764 8.533758240000001 -2.1489295500000005 -0.872182 -0.130916 0.4608890000000001
23500 3.5262143100000003 11.8315467 -0.2228832 -0.754894 -0.147301 0.460661
23520 1.15813917 13.439356650000002 0.83212344 -0.407334 -0.614399 0.286362
23540 -2.9373396300000003 11.08729143 -1.47653253 0.412486 -0.913926 -0.111316
23560 -0.17004654 15.131728800000001 -1.72336194 1.176409 -0.771302 -0.20978
23580 6.73614441 23.0989203 -0.52480557 0.814758 -1.375422 0.130299
23600 3.81526596 21.666248280000005 0.5029587000000001 -0.018651 -2.78188 0.659323
23620 -0.8565209100000001 13.90099563 -1.2301445700000002 -0.306366 -2.08042 1.047383
23640 -0.09968922 9.27187245 1.3319331300000001 -0.32599 -0.757139 1.278423
23660 1.98038394 9.66958947 0.38515041 -0.30409899999999995 -0.486275 1.188498
23680 2.10582441 10.98745506 -0.45804852 -0.375596 -1.150119 0.762629
23700 1.01997513 8.82744021 0.8048810700000001 -0.45805 -0.8514459999999999 -0.062997
23720 0.11346246 6.50083194 2.8758211200000003 -0.384655 -0.567875 -0.444203
23740 0.30042144 6.4842138 2.7445437000000004 -0.430391 -0.521968 -0.429626
23760 0.7839171000000001 7.563176460000001 -0.10747836000000001 -0.76769 0.206798 0.099058
23780 -0.6228565199999999 8.65619685 -1.25334522 -1.499329 1.7645540000000002 0.6517
23800 -2.03696802 9.29716263 -1.39165641 -1.407701 1.750441 0.904459
23820 -2.31194232 9.65507067 -1.8874243800000001 -0.7592840000000001 0.235518 0.63426
23840 -1.7759043 9.85550859 -2.0155626 -0.560787 -1.030353 0.543265
23860 -1.9743900300000001 8.94674943 -2.1056674500000003 -0.615001 -0.16761099999999998 0.8889530000000001
23880 -2.0809756800000003 8.08543143 -2.27377161 -0.607596 0.997695 0.642888
23900 -1.24196562 8.307274770000001 -1.74671955 -0.881233 2.003366 0.335245
23920 -0.49007817000000004 8.292010410000001 -0.91265373 -1.0628959999999998 1.6429939999999998 0.037472000000000005
23940 -0.63228393 8.370745470000001 -1.0523088900000002 -0.638841 0.839116 -0.164703
23960 -1.51454628 8.94974148 -2.074089060000001 -0.08269800000000001 -0.026835 -0.14368499999999998
23980 -2.0329263000000006 9.41346999 -3.1397199300000005 -0.02793 -0.484734 0.032473
24000 -0.8873537400000001 10.68522858 -4.176617310000001 -0.380699 -0.5159600000000001 0.155031
24020 -0.39233133000000003 11.720929139999999 -5.82662988 -0.698962 -0.318973 0.186738
24040 -1.2593293200000002 12.00877416 -7.536081240000001 -0.754153 -0.367222 0.312465
24060 -1.49389623 8.27644194 -7.01097156 -0.810246 -0.7059270000000001 0.347758
24080 0.56043549 5.6339811 -3.2994365400000003 -0.876533 -0.976268 0.345505
24100 2.2671891000000004 6.31806183 -2.153569680000001 -0.903276 -1.018679 0.31866700000000003
24120 0.20207619000000002 10.07944146 -2.70113445 -0.8302139999999999 -0.77137 0.214175
24140 -1.81587024 13.23023688 -2.63302362 -0.795291 -0.913919 0.134485
24160 -2.58303186 15.66731556 -1.6808552100000003 -0.75955 -1.188257 -0.021943
24180 -1.29720573 18.268907940000002 1.20978882 -0.6032489999999999 -0.973048 -0.1632
24200 -1.0178856 11.27500578 1.4277277800000001 -0.434632 -0.515455 -0.190382
24220 -0.7261362 4.71414645 -0.16645608 -0.362774 -0.372133 -0.130244
24240 0.9801661500000001 3.62651175 0.20747169000000001 -0.416562 -0.905809 -0.090411
24260 3.4816082400000004 7.4263563900000005 1.61199882 -0.215326 -0.798756 -0.129735
24280 6.1173296100000005 10.95706368 0.69664734 -0.177162 0.338805 -0.124517
24300 6.69183264 12.657381930000001 -1.08554517 -0.108916 0.322622 -0.13256600000000002
24320 3.9902567400000004 11.533518899999999 -2.69918226 0.128067 -0.817163 -0.352708
24340 0.20971818000000003 9.968372640000002 -1.58939658 0.474004 -0.96773 -0.561607
24360 -0.64022022 8.64093249 0.37976472000000006 1.037695 -1.126382 -0.802089
24380 0.12649014 8.352184950000002 1.6257720600000003 1.504415 -0.933511 -0.953968
24400 1.41964434 9.227109420000001 1.18358631 1.716216 -0.392965 -1.250147
24420 1.3398596100000002 10.355171130000002 0.91325214 2.137636 -0.145312 -1.47612
24440 0.96280245 10.304571150000001 -0.0059841 2.419516 -0.637011 -1.302606
24460 1.5308701200000001 9.26094411 -0.5490558900000001 1.899264 -2.896669 -0.800211
24480 2.9936294100000005 9.158557140000001 -0.69515622 1.570067 -4.627695 -0.260841
24500 3.9808195200000003 9.26498583 0.13307265000000001 1.609804 -3.809783 0.025741000000000003
24520 2.86654086 9.556725420000001 1.0930302 1.393783 -2.968547 0.029563
24540 1.7377335900000002 9.15765462 0.88465599 1.345755 -3.218793 -0.218279
24560 1.19585862 8.250837839999999 0.04864779000000001 1.492276 -3.776854 -0.381047
24580 1.2762417600000002 8.45247258 -0.5551969500000001 1.746375 -3.271695 -0.389533
24600 1.3233984300000001 10.227935430000002 -0.39637305000000006 1.548716 -2.955193 -0.24711
24620 0.83870595 10.50695145 -0.7349750100000001 1.162389 -2.927318 0.042849
24640 0.9458802000000001 9.58905918 -1.18238949 0.947145 -2.686437 0.462984
24660 1.09093086 9.796079610000001 -0.8156524500000002 0.789096 -2.316792 0.867331
24680 1.15275348 10.06102809 -0.24683922000000003 0.611987 -2.030772 1.155216
24700 1.66633641 10.359055890000002 0.6086320199999999 0.466692 -1.965722 1.2641440000000002
24720 1.87065909 10.626996420000001 0.56357469 0.291128 -2.097208 1.264155
24740 2.9114412300000003 9.849965939999999 -0.19145196 0.01276 -1.953034 1.148794
24760 2.6750889 12.072990420000002 -0.30371760000000003 -0.23036 -1.665821 0.929879
24780 1.0795512600000001 13.242067740000001 -0.95531742 -0.534733 -1.378787 0.808812
24800 0.78975405 11.177258940000002 -2.6186519699999997 -0.802607 -1.035446 0.694338
24820 2.3543019000000003 10.859022540000002 -2.77477812 -0.930173 -0.7874869999999999 0.601262
24840 3.9371159700000002 11.05720416 -1.85793552 -0.8395790000000001 -0.603377 0.5685439999999999
24860 4.570292610000001 11.458668600000001 0.36793386 -0.8748469999999999 -0.7178979999999999 0.466963
24880 3.7250041500000006 10.82339262 1.8405718200000003 -0.5850350000000001 -1.038607 0.231185
24900 1.37159496 10.19364948 1.9164619800000002 0.526684 -1.2695040000000002 -3.5e-05
24920 -0.7545852000000001 10.564585200000002 1.5064628400000002 1.3883219999999998 -0.791491 -0.139908
24940 -0.7906565700000001 12.050986589999999 -0.04176117000000001 1.081383 -1.4931450000000002 0.035104
24960 2.26209771 12.68357463 -0.567018 0.315325 -2.637865 0.31964000000000004
24980 4.165983270000001 11.791727910000002 2.021841 -0.060554 -2.097977 0.6966100000000001
25000 4.55906997 10.87892703 2.30371173 -0.191 -0.8218280000000001 1.088237
25020 3.5769614400000003 10.153683540000001 0.39263544 -0.332486 -0.160183 1.183609
25040 2.39576877 8.761428720000001 -1.06488531 -0.323716 -0.650187 0.638437
25060 1.7082447299999999 7.94532501 -1.1461709699999998 -0.194633 -0.8292209999999999 -0.25453400000000004
25080 1.10320317 7.45270605 -1.29420387 0.090647 -0.412127 -0.644045
25100 0.57645522 8.23871268 -0.4076055 0.076663 -0.576637 -0.7838689999999999
25120 0.7048877400000001 9.20331036 0.40565331 -0.33079400000000003 -0.644837 -0.159581
25140 0.5427676800000001 9.36632313 -0.47106639 -1.064517 0.6524 1.074905
25160 -0.56402595 8.542135980000001 -2.185452180000001 -1.498775 0.921359 1.589615
25180 -1.34869842 7.84099566 -3.0365874 -1.256782 -0.264683 0.679495
25200 -0.91265373 8.25533082 -2.1174983099999998 -0.777993 -1.229846 0.004686999999999999
25220 -0.32153256 8.79046632 -1.1085986700000001 -1.331839 0.122182 0.435989
25240 -0.32557428000000005 8.44020027 -0.5516064900000001 -1.400688 1.51765 0.772346
25260 -1.09946556 8.26850565 -0.8809183800000001 -1.167088 1.425549 0.691843
25280 -1.3245952500000002 8.29828881 -0.7461976499999999 -0.838319 1.003447 0.470354
25300 -1.2925655999999999 8.3583162 -0.92059002 -0.46345 0.7415970000000001 0.360076
25320 -1.2440649600000002 8.797951350000002 -1.44015705 -0.32791 -0.144335 0.414501
25340 -1.46799783 9.33533334 -2.45070477 -0.452864 -0.945807 0.352698
25360 -0.7218001799999999 9.15301449 -4.09728384 -0.507844 -0.985381 0.439959
25380 0.6421626 10.86635061 -4.58197632 -0.430975 -0.779875 0.396436
25400 0.19788732 13.6968201 -6.373292129999999 -0.359675 -0.6689890000000001 0.310266
25420 -1.18657836 14.09738202 -6.9030419400000005 -0.142676 -0.71499 0.170835
25440 -1.9739485800000003 8.8467561 -5.41858293 0.162598 -0.6396390000000001 -0.022614
25460 -0.7894597500000001 5.26290804 -3.4387974000000003 0.324207 -0.6556609999999999 -0.15178699999999998
25480 0.36838512000000007 6.8135355 -2.74050198 0.317295 -1.100543 -0.246337
25500 -0.08487612 9.56959614 -2.27975571 0.3635 -1.6709040000000002 -0.17691800000000002
25520 -1.69147944 11.25764208 -2.17692729 0.182597 -0.4681770000000001 -0.028035
25540 -2.47704462 15.40521198 -1.8131823 -0.019703 0.428051 0.064475
25560 -0.6394746600000001 19.80186759 -0.41493357000000003 -0.277099 -0.133415 0.03776
25580 1.1365866 11.572886430000002 1.2376296 -0.132577 -1.326672 -0.316488
25600 -0.06496182 3.0132297900000005 1.2777426900000002 0.6816720000000001 -2.823718 -0.672077
25620 1.86332121 2.07858204 0.5611810500000001 1.103079 -1.616413 -1.123607
25640 4.6469381400000005 8.40083274 -0.10448631000000001 1.046496 0.908582 -1.679509
25660 7.65612621 13.61224809 -0.5762982600000002 0.93139 1.05148 -1.085496
25680 5.68786743 13.12096329 -0.5836361400000002 0.563713 0.008054 0.160956
25700 0.9985697100000002 11.13339843 -0.35386632 -0.080002 -0.038858 0.196044
25720 -2.9413813500000003 9.18759474 0.40012047 0.360281 -1.036755 -0.25146
25740 -3.5236735200000004 8.0397855 0.83212344 0.059888 -0.405384 -0.43917
25760 -0.9174410100000001 8.77774275 -0.01362609 0.179377 -0.526756 -0.5599569999999999
25780 1.68654501 10.05698637 0.6045903 0.783345 -0.3242 -0.8551
25800 3.2190534 10.314901080000002 0.42136893000000003 1.496975 -0.662061 -1.164808
25820 3.69461277 10.03123512 -0.48933261000000006 1.629815 -1.012058 -1.399508
25840 2.94348069 9.97555356 -0.95575887 1.4920639999999998 -1.5609620000000002 -1.2085549999999998
25860 1.5039220500000001 9.071140230000001 -0.18546786 2.028302 -1.171676 -0.72354
25880 1.31187168 9.08894538 -0.08562168 2.275038 -1.7894560000000002 -0.6911149999999999
25900 1.2347847 9.31572315 -0.35745678 2.3015060000000003 -1.404696 -0.497007
25920 0.5653699200000001 8.99015868 -0.76221738 2.084641 -1.523874 -0.076421
25940 0.1704978 8.83313001 -0.7024842900000001 1.708619 -2.0480810000000003 -0.259974
25960 0.32856633 9.813139200000002 -0.7469432100000001 1.399227 -2.670544 -0.172675
25980 0.09490194 10.95676938 -1.3515433200000002 1.187577 -2.330652 0.25910900000000003
26000 0.25776756 9.86239521 -2.7264344400000002 0.666484 -1.545489 0.43072
26020 1.5507746100000002 8.05534416 -0.44382402 0.25000900000000004 -0.560215 0.55153
26040 3.8059857 6.424039260000001 1.06383564 -0.097786 -0.176084 0.694955
26060 3.56363946 6.469999110000002 2.70622584 -0.549417 0.07228899999999999 0.779076
26080 1.09931841 10.085876820000001 0.91205532 -0.887854 0.43601 0.956776
26100 -1.8959590800000001 9.41497092 -3.49298784 -1.060307 0.656578 1.092021
26120 -3.78353061 4.62388464 -2.21718753 -1.123996 0.988013 1.113584
26140 -4.8120404400000005 3.2359756500000003 0.03307932 -1.558961 0.880639 1.169436
26160 0.03023442 7.38548793 -2.6159640299999998 -2.0994 0.638065 1.294158
26180 6.71907501 14.831307360000002 -3.9446010000000005 -2.013425 0.958637 1.2388
26200 6.25833855 8.149353390000002 0.7444024200000001 -1.40145 1.223293 1.124163
26220 -0.030391380000000003 5.44252914 -3.00918807 -0.647972 1.070241 0.917046
26240 -2.3770611 5.33221569 -2.25176778 -0.463211 1.150296 0.717408
26260 0.5177718 8.646318180000002 -1.73204379 -0.766578 0.683334 0.806687
26280 1.10350728 12.001593240000002 -0.47795301 -0.72075 0.216508 0.825765
26300 -0.63153837 14.264887770000001 -1.66304025 -0.294993 0.434609 0.793208
26320 -1.8479097000000002 14.12582121 -1.97813745 -0.076543 0.479131 0.659013
26340 0.40041477000000003 18.72441567 -1.47084273 0.089331 0.44919 0.27778600000000003
26360 0.24414147 22.924832040000002 -1.9377202500000001 0.150474 -0.73225 -0.028989
26380 -1.02716586 17.50505229 -1.66184343 -0.429884 -1.210407 0.435451
26400 -0.6385721400000001 12.277921319999999 -0.33545295 0.060175 0.793587 0.224798
26420 0.7087725 9.28773522 -1.08434835 -0.255525 0.6377430000000001 0.0444
26440 0.8146027800000001 12.409493040000001 -2.8560637800000004 -0.414412 -0.28204 0.294432
26460 -0.24279750000000003 13.89829788 -2.44441656 -0.464554 0.018399 0.596004
26480 -1.36366848 9.222322140000001 -0.83825469 -0.8006310000000001 0.311118 0.4127520000000001
26500 -1.39779747 6.25025511 -1.03629897 -0.614867 -0.283359 0.26526
26520 -2.00972565 4.3439661 -1.3253408100000001 -0.33737399999999995 0.5047189999999999 0.081386
26540 -4.243374360000002 4.0459383 -1.68654501 -0.207617 1.300394 0.256461
26560 -4.43093175 5.41843578 -1.8122797800000001 -0.42226 1.16208 0.399349
26580 -3.1165192800000003 6.40098576 -2.57883318 -0.57628 0.227961 0.5009520000000001
26600 -3.21816069 6.354437310000001 -2.6626596300000003 -0.608715 -0.136124 0.469145
26620 -2.5165691100000003 5.248232280000001 -3.06816579 -0.5300239999999999 -0.132493 0.292365
26640 -2.04549291 5.360203620000001 -3.7235032200000004 -0.380441 -0.004543999999999999 0.134081
26660 -0.9485779500000001 5.795502750000001 -1.76932179 -0.368314 -0.182378 0.10662
26680 0.5599842300000001 6.91142949 0.62958618 -0.249722 -0.37139 0.118372
26700 0.20986533 7.29223407 0.7738912800000001 -0.134218 -0.350321 0.07749199999999999
26720 -1.31741433 7.03821393 -2.81265453 0.08498700000000001 -0.41218 -0.09395
26740 -2.22347574 6.45457779 -5.0088879 0.403265 -0.786342 -0.307028
26760 -1.9959524100000001 6.6842004600000005 -5.443284510000001 0.549415 -0.8855350000000001 -0.403088
26780 -0.7394581800000001 7.432791750000001 -4.701275730000001 0.470064 -0.421116 -0.324121
26800 1.64792304 9.58920633 -3.0605336100000002 0.370397 0.159935 -0.35654
26820 2.62883475 11.33068734 -2.2023744300000003 0.346646 -0.275134 -0.492881
26840 0.9833053500000001 10.33556094 -1.68714342 0.234124 -0.419594 -0.765879
26860 -1.10724489 13.95682434 -2.8358551800000003 0.465386 -0.6891649999999999 -1.217912
26880 -1.5031764900000002 17.8788231 -4.18619187 0.79795 -0.370388 -1.30466
26900 1.03180599 14.503937850000002 1.15559838 0.351799 0.535809 -0.830374
26920 0.70428933 9.95115609 2.1743766900000003 0.215731 -0.376148 -0.426368
26940 1.7699202 12.13332192 0.32751666 0.325798 -0.463265 -0.314393
26960 3.9152592900000003 13.281582420000001 -0.17394111 0.275783 -0.402609 -0.520986
26980 3.45421872 15.27228648 1.9053864900000002 0.449821 -0.875022 -0.548007
27000 0.0634707 17.11630161 -1.1054496600000001 0.465382 -0.130021 -0.6546069999999999
27020 0.07933347 12.97710945 -1.82844666 0.692148 0.442329 -0.925085
27040 1.5666373800000002 7.9504164 0.17274429 0.619472 0.351221 -0.988501
27060 2.22257322 7.87077882 0.65683836 0.542226 0.53466 -0.708333
27080 2.2688273700000003 9.59489613 0.00928026 0.5192479999999999 1.070769 -0.757251
27100 1.6854953400000003 9.70192323 0.33889626 0.904615 0.038876 -0.648551
27120 1.7323479000000002 9.238783320000001 -1.13838183 0.931253 -0.568983 -0.774705
27140 1.0057604400000002 9.18864441 -2.48632488 1.007567 -1.264327 -0.645094
27160 0.35625996000000004 9.67527927 -1.12460859 1.082108 -1.511925 -0.862173
27180 0.59635971 9.684265230000001 -0.73272852 1.036921 -1.34999 -1.092364
27200 1.1826936000000001 9.43188336 -1.4995860300000001 1.051418 -0.644131 -1.000232
27220 1.41575958 9.42874416 -1.8958119300000003 0.397975 0.318737 -0.39928
27240 1.33222743 9.36108459 -2.1838041 0.023521 0.227969 -0.020424
27260 0.83361456 9.01799946 -2.06165979 0.119343 -0.8872190000000001 -0.142239
27280 -0.18726309 9.14777595 -2.0995362 0.355304 -0.607883 -0.13881300000000002
27300 0.19235448000000002 8.81591346 -1.2617229600000002 0.301178 0.236792 -0.069771
27320 0.8357139 8.73583443 -0.39667716000000003 0.027196 0.463923 0.110691
27340 0.3468325500000001 7.378002899999999 -0.22527684 -0.108156 0.17084000000000002 0.26074
27360 -0.18636057 5.79205944 -0.14429529 -0.256946 -0.099529 0.336959
27380 0.164808 7.192692 -1.83803103 -0.478213 -0.098076 0.4315520000000001
27400 1.2916630800000002 7.97780592 -0.9003814200000001 -0.707104 0.013501 0.433015
27420 1.53161568 8.02166643 -0.6911145000000001 -0.7878890000000001 0.513562 0.391217
27440 1.15155666 7.976461950000001 -2.5146169200000004 -1.118154 1.110243 0.645587
27460 0.46134468 9.02503323 -1.64493099 -1.5134729999999998 1.629719 0.81628
27480 -2.2469805000000003 11.301051330000002 -3.41753913 -1.531874 1.920045 0.689729
27500 -1.75076127 10.921443570000001 -3.7685605500000006 -1.256236 2.121861 0.331405
27520 0.13022775 8.876990520000001 -3.3635056500000005 -0.972081 2.045866 0.17539100000000002
27540 -1.17970155 9.41422536 -2.7605634300000004 -0.771379 1.456753 0.27155100000000004
27560 -2.20357125 9.712106010000001 -3.60974646 -0.722051 1.055013 0.5277149999999999
27580 -0.047902230000000004 10.520273430000001 -2.13441075 -0.772874 0.984557 0.608636
27600 0.5619266099999999 12.552748470000001 -1.36336437 -0.691308 0.649645 0.6416810000000001
27620 0.5936619599999999 13.61044305 -0.52929855 -0.377484 0.322016 0.517175
27640 0.5688132300000002 15.38126577 0.23052519000000005 -0.134154 0.141933 0.319348
27660 -0.8059209300000001 16.84731141 -0.87253083 0.003663000000000001 0.06523 0.200768
27680 -3.0870304200000005 13.57451883 -1.5483809699999997 0.08631699999999999 0.31568 0.101679
27700 -2.8159408800000003 9.06978645 -0.95816232 0.082673 0.913376 0.08593300000000001
27720 -1.1999003400000001 7.874820540000001 -0.8704413 0.027155 1.089551 0.032977
27740 -0.5373819900000001 11.85983874 -3.7595844000000005 -0.151186 0.742118 -0.040463
27760 -1.01069487 15.29684091 -3.8847207600000004 -0.37941 0.309368 0.219144
27780 -1.6429788 12.41907741 -1.40347746 -0.619472 -0.261255 0.60169
27800 -1.06518942 9.5148171 -0.08067743999999999 -0.120016 0.362812 0.481533
27820 -1.11817323 7.566011550000001 -0.6962058900000001 0.018932 1.119784 0.470851
27840 -2.13605883 7.767351990000001 -0.97971489 -0.128984 0.215086 0.6685989999999999
27860 -2.7054704700000003 7.725433860000001 -0.8961827400000001 -0.312573 -0.446309 0.26010300000000003
27880 -2.7532255500000007 6.93613107 -0.7806307500000002 -0.17214400000000002 0.344871 -0.047578
27900 -2.39696559 6.09547293 -0.71341263 0.111225 -0.058393 0.120493
27920 -1.6040625300000002 5.137761870000001 -1.05500664 0.386489 0.540967 0.245561
27940 -1.1078433 4.934636010000001 -1.21383054 0.197351 1.702721 0.524762
27960 -2.0098728 7.052134320000001 -2.30535981 -0.421217 1.47399 0.718355
27980 -2.94961194 9.61001334 -3.26411073 -1.0790959999999998 0.6176470000000001 0.721267
28000 -3.20932188 10.49497344 -2.96233551 -1.085622 0.0077 0.6130439999999999
28020 -2.5270461900000005 9.43128495 -1.2120255 -0.602107 -0.6704899999999999 0.363054
28040 -2.0660056200000003 8.02615941 -0.39368511 -0.379095 -0.42424 0.12715
28060 -0.88750089 6.792571530000001 -1.15065414 -0.199652 0.01648 0.047723
28080 0.34832367 6.824610990000001 -2.4679213200000003 -0.179319 -0.383315 0.109266
28100 0.7123727700000001 8.5345038 -3.8577825 -0.189107 -0.413156 0.120986
28120 -0.31449879 10.09396026 -4.35564 -0.043861 -0.449601 0.051544000000000006
28140 -1.7823396599999999 9.81418887 -3.34853559 0.125416 -0.658466 -0.077329
28160 -2.28439584 8.713526490000001 -3.08029095 0.398686 -0.755835 -0.206686
28180 -2.0460913200000004 8.75963349 -4.02108957 0.426628 -0.58716 -0.32100700000000004
28200 -2.03726232 9.28025019 -3.97947555 0.539694 -0.959878 -0.4511310000000001
28220 -2.45190159 9.29971323 -2.6894605500000006 0.6571319999999999 -0.816026 -0.562658
28240 -3.06652752 8.65844334 -1.60466094 0.658678 -0.40097 -0.729822
28260 -3.2888123100000004 8.40576717 -1.27864521 0.551858 -0.6351979999999999 -0.936435
28280 -2.49785163 9.975406410000002 -0.9370512 0.574902 -1.147906 -0.879001
28300 0.9759674700000001 12.80437497 -1.28702295 0.160012 -0.343387 -0.578487
28320 4.78764297 17.322576480000006 -0.24309180000000002 0.13526400000000002 -0.180095 -0.367361
28340 2.63617263 13.66628157 2.4762990600000006 0.1533 -0.629895 -0.319657
28360 0.24968412 8.13213684 0.31973733000000004 0.025796 -0.376575 -0.421285
28380 0.82253907 14.452749270000002 -0.77478399 0.255911 -0.6226550000000001 -0.35420100000000004
28400 2.0041830000000003 20.28791385 0.89978301 0.318752 0.009064 -0.411187
28420 1.54852812 13.805495280000002 0.20597076000000003 0.6703140000000001 0.226688 -0.792502
28440 1.0479728700000002 7.87976478 -0.99737289 0.908832 -0.335608 -0.7751600000000001
28460 1.7762084100000002 7.77797622 -0.7782273000000001 0.8727030000000001 -0.467761 -0.463322
28480 2.9353972500000003 8.748558000000001 -0.006141059999999999 0.8072520000000001 0.411162 -0.690301
28500 2.88959436 10.5389811 1.3509449100000002 1.0360120000000002 -0.431235 -0.681214
28520 1.6248695400000002 10.32403419 1.84910652 0.935934 -1.584418 -0.456109
28540 0.8220878100000001 9.27546291 -1.1683219500000002 0.7938890000000001 -1.914873 -0.27828400000000003
28560 0.16346403 9.41856138 -4.51595502 0.678862 -1.955568 -0.125212
28580 0.82299033 9.45538812 -2.26135215 0.984378 -2.047531 -0.302421
28600 1.8236593800000003 9.573637860000002 -0.21211182 1.299821 -1.956745 -0.3687
28620 1.9145196 9.65432511 -1.18972737 1.309842 -1.40161 -0.142879
28640 1.2117312 9.401796090000001 -2.47225734 0.959616 -0.907611 -0.299782
28660 0.9178922700000001 9.362134260000001 -3.06652752 0.694768 -1.13599 -0.234041
28680 0.86639958 8.84659914 -2.70532332 0.526302 -1.151119 -0.034373
28700 0.63498168 8.87070231 -1.33911405 0.181065 -0.448427 0.095843
28720 0.30416886 8.43420636 -0.62704539 -0.020345 0.345783 0.12546500000000002
28740 0.32363190000000003 6.88462857 -1.05021936 -0.143789 0.557632 0.267473
28760 -0.03202965 5.38130493 0.21644784 -0.257644 0.494746 0.374649
28780 -0.65818233 6.1629853500000005 -0.2168991 -0.371424 0.659933 0.455895
28800 -0.7839171000000001 8.319399930000001 -1.5603589800000002 -0.6036020000000001 0.856324 0.561912
28820 0.53903007 8.50126752 -1.32249591 -0.934162 1.019962 0.6854439999999999
28840 2.4020569800000002 7.695945 -0.51073803 -1.357066 1.0454629999999998 0.802098
28860 1.96510977 8.276137830000001 -2.75532489 -1.7483259999999998 0.720508 0.886307
28880 -0.20133063 9.05361957 -1.91317563 -1.7839349999999998 0.651307 0.906444
28900 -1.75495014 9.07188579 -3.6994098600000003 -1.569654 1.073539 0.8913760000000001
28920 0.12244842 8.89435422 -3.07236447 -1.266453 1.824594 0.886122
28940 1.18942326 9.19148931 -1.7107953300000003 -0.7446020000000001 2.402951 0.722384
28960 -0.27841761000000004 13.36122 -1.72576539 -0.5844050000000001 1.770401 0.52776
28980 -1.0267146 14.146029810000002 -3.5248703400000005 -0.458653 0.541632 0.279181
29000 1.1946618 12.06850725 -1.43970579 0.06448200000000001 0.259079 0.156079
29020 0.32841918 13.64667138 0.07394777999999999 0.269139 0.462868 0.164725
29040 -1.15844328 15.829582770000002 -0.51477975 0.06912 0.6221479999999999 0.199443
29060 -1.72366605 15.065275860000002 -0.74215593 -0.020878 0.705832 0.129273
29080 -0.31928607000000003 14.984588610000001 -1.1915225999999999 -0.164867 0.07964199999999999 0.205981
29100 0.47646189000000005 15.79514967 -2.33858628 -0.199421 -0.538844 0.392403
29120 0.20747169000000001 15.156430380000002 -1.9928034 0.14968 0.076263 0.245571
29140 0.07289811 10.508746680000002 -0.83181933 0.074112 0.712962 0.128859
29160 -0.0025407900000000002 5.606591580000001 -0.36224406000000003 -0.180796 0.06501900000000001 0.413124
29180 0.26509562999999997 7.95730302 -1.0612948500000001 -0.4446890000000001 -0.352213 0.552821
29200 -1.8302418900000001 7.924822110000001 -1.0449808200000001 -0.382826 0.08871699999999999 0.522777
29220 -3.8172083400000005 6.429277800000001 -0.8155053 -0.197038 -0.14945999999999998 0.250916
29240 -3.5592936300000004 6.68570139 -1.2891222900000001 -0.107452 0.591406 0.048698000000000005
29260 -3.2168069100000003 7.15093083 -2.55773187 -0.103801 1.383085 0.266695
29280 -2.82073797 7.7682447 -3.7753000200000004 -0.6728430000000001 1.38376 0.590663
29300 -1.73444724 8.346946410000001 -3.4329604500000004 -1.060258 0.907753 0.617409
29320 -1.95642792 8.108641890000001 -2.3628366 -1.079297 -0.163212 0.458415
