time Ax Ay Az Gx Gy Gz
20 2.93090427 4.67043309 -4.424653350000001 1.457395 -0.578497 0.613398
40 0.50280174 13.444291080000001 4.28558679 1.530359 0.736503 0.17211600000000002
60 -0.22872015 16.013549700000002 1.4883535800000003 0.714753 1.473725 0.067197
80 1.5908877000000001 12.41054271 3.0961635300000006 -0.162106 0.311492 0.298639
100 4.756662990000001 8.86890708 4.40653428 -1.21981 -0.070461 -0.235961
120 3.5034649200000003 7.8580552500000005 3.77515287 -1.580862 -0.786732 -0.619989
140 0.95216841 7.10946396 2.9262641400000002 -1.225025 -4.540722 -0.938501
160 -0.12498921000000002 5.94563499 1.3861137600000002 -1.911197 -3.208015 -1.952335
180 -0.9780668100000001 6.170166270000001 0.12393954 -2.824604 -0.107529 -2.624985
200 -1.78099569 8.61593661 -0.76011804 -2.448053 -3.2841190000000005 -2.700538
220 -2.51238024 12.582688590000002 0.2168991 -2.297162 -4.8343300000000005 -1.974311
240 -4.05971154 15.59202381 3.12520113 -2.555264 -2.497057 -2.0314520000000003
260 -4.25520522 11.73530079 4.13230554 -2.23326 -0.151766 -2.730825
280 -2.9410870500000006 10.34094663 3.0570903000000005 -1.455934 1.186334 -3.4321370000000004
300 -3.83681853 11.370957390000001 7.81569567 -1.123782 0.155585 -3.829079
320 -6.8693642100000005 14.36383143 6.52941828 -1.168668 -1.354433 -3.659747
340 -7.994571210000001 16.05875418 -6.29845164 -1.189607 -2.425917 -3.155387
360 -9.636961410000001 17.441277480000007 -7.2530136899999995 -0.907535 -2.907678 -2.537504
380 -10.445432940000002 16.01385381 2.0071750500000003 -0.474676 -3.038672 -2.123047
400 -1.9625689800000001 17.27842167 -2.9324052000000003 -0.327952 -2.977877 -1.470485
420 6.472245600000001 19.66431177 -7.15856301 0.312933 -2.076518 -0.7290220000000001
440 7.97107626 18.51455034 -6.690635820000001 1.256894 -0.931157 0.002495
460 1.9520919 13.07246265 -4.997802600000001 1.711294 -0.32369499999999995 0.875492
480 -3.4408967400000003 9.973905479999999 -2.0989377900000004 1.985136 -0.393596 1.60068
500 -5.171890860000001 8.80215003 -3.55735125 2.384622 -0.14416700000000002 1.748429
520 -4.16509056 9.51585696 -3.8148147000000003 2.409905 0.36346 1.853709
540 -2.6200057500000002 10.341692190000002 -3.4973238600000003 2.271766 0.555527 2.160146
560 -1.49449464 9.48277764 -3.16246932 2.320091 0.7347319999999999 1.792786
580 1.052613 7.08865695 -2.8607039100000002 2.321013 0.988804 1.125896
600 4.14323388 4.0600058400000005 -3.17160243 1.953537 0.653108 0.413392
620 5.6080925100000005 0.6749476200000001 -2.28275757 1.078245 0.12631199999999998 -0.021472
640 1.77965172 1.1599344 -2.09190402 0.382744 1.013375 0.126357
660 1.2500490600000003 -1.5633510300000002 -1.7071950599999999 0.680127 0.368718 0.974224
680 2.30340762 -2.5255452600000003 -1.20694392 0.5390590000000001 -3.60982 1.561586
700 3.04721163 -0.7804737900000001 0.84992859 1.181111 -6.694427 0.8981120000000001
720 2.06689833 2.34307926 2.4556392 1.480618 -4.304469 0.502967
740 0.07963758 8.72700543 4.541853420000001 1.703944 2.435314 -0.4345310000000001
760 -2.7526271400000004 19.019598570000003 2.98943073 0.209347 5.824525 -0.8787389999999999
780 -6.68165967 23.012847360000002 -2.2537101600000002 -0.955142 -0.489563 -1.151178
800 -6.85903428 13.13219574 -1.91556927 -1.374201 0.202701 -0.7469319999999999
820 -6.12331371 6.842867399999999 -0.51822306 -2.6894400000000003 -0.950484 -0.533519
840 -5.088819780000001 3.37084353 1.7275606200000002 -3.411277 0.618434 -1.446424
860 -2.4957621000000003 1.3608235800000001 2.19817575 -3.71105 1.296713 -2.441765
880 2.57045544 -1.78353648 -4.32690651 -3.142321 0.538312 -3.218759
900 8.888811570000001 -4.960387260000001 1.1951130600000002 -2.831356 0.075081 -3.79497
920 8.80619175 5.798494800000001 1.44509148 -3.21635 0.589862 -3.790841
940 -1.06323723 22.96719162 -2.2489228800000003 -1.700423 0.5865020000000001 -3.998165
960 -5.63053779 39.852526590000004 6.21118188 -0.922875 2.7286330000000003 -2.508514
980 -14.44376331 38.02333437 3.14196642 -0.308229 -2.522938 -0.17410799999999998
1000 -9.82332198 13.31960598 3.96061092 -0.062526 -3.062794 0.883703
1020 -2.68422201 6.41042298 2.4843824999999997 0.7823720000000001 -2.785475 1.661574
1040 -3.7080917100000006 1.72426446 10.297537380000001 1.92051 -1.788374 2.005804
1060 0.07260381 9.69099489 9.139398210000001 3.398464 -0.951852 2.784175
1080 0.32662395 13.8098313 3.0291023700000004 4.221421 0.6014729999999999 2.83173
1100 2.8051695 10.742106960000001 -8.136031410000001 4.379802 2.023613 2.961337
1120 3.62606049 2.20357125 -11.75161482 2.139482 -0.897769 2.605465
1140 2.61192231 -4.27077369 -0.09116433 1.0173450000000002 -2.6059080000000003 1.308335
1160 -6.38541729 1.43252487 4.00133223 1.090285 1.555902 -0.561604
1180 -7.7915925 11.773020240000001 -0.27827046 -0.369721 -2.485134 0.015557
1200 -7.8026778000000006 20.73413151 -1.34525511 1.03904 -6.43458 0.24303400000000006
1220 -2.55398445 13.640834430000002 -1.08210186 1.445464 -3.815614 0.027805
1240 0.01826622 2.99078451 -1.1569423499999998 -0.014913999999999997 4.556589 -1.152145
1260 2.5607239200000005 -1.15364619 0.5334874200000002 -1.093038 1.996879 -2.64977
1280 3.9492411300000003 -1.30813407 2.0880094500000004 -3.446153 0.894493 -1.720486
1300 2.3195745 0.8439444899999999 3.13867026 -2.291014 1.871641 -0.664675
1320 1.6585472700000001 5.7571750800000006 1.7738147700000002 -2.730013 2.023157 -0.878376
1340 -1.4162010300000003 15.860121300000001 0.4564004400000001 -2.615517 0.608337 -0.944129
1360 -8.10130401 12.829674960000002 8.414007569999999 -2.719812 0.093392 -1.281756
1380 -15.41240271 12.32372421 11.61599157 -2.176276 -0.412035 -1.89688
1400 -3.87154593 7.72064658 -5.3054147700000005 -2.08897 -1.114664 -2.085514
1420 4.24188324 1.9970020800000001 -10.35097245 -2.074273 -1.849768 -1.816345
1440 3.9974376600000006 9.55538145 -3.3425514900000004 -1.541841 -0.083638 -1.720886
1460 0.68272695 34.08681681 26.40314412 -0.27618200000000004 -0.363383 -1.592046
1480 -12.86080209 38.37569976 2.24907003 0.255473 -1.981644 -0.429374
1500 -4.739142330000001 12.70842336 5.29223994 1.073892 -2.17599 0.308323
1520 1.99145943 6.11897769 11.52453294 2.125955 -1.671215 1.035007
1540 0.38036313000000005 5.5787508 2.9831425200000004 3.248127 -0.8678620000000001 1.892121
1560 -2.70831537 6.11358219 -1.6693284600000002 3.450485 -0.367241 1.997578
1580 -6.17420799 3.7619780400000002 -1.2356774099999999 3.278825 0.017317 1.881587
1600 -6.07885479 4.11628581 -3.01159152 4.2046410000000005 2.654803 2.4444220000000003
1620 -2.9073995100000003 4.54110786 -3.3664977 0.951911 -1.500649 2.021102
1640 -0.06735546 4.46311836 -1.8068940900000001 0.239076 -1.780864 1.054014
1660 -1.89730305 10.282567320000002 2.4120828 1.320057 0.131833 0.7845810000000001
1680 -2.29548114 19.11509892 0.93959199 1.016769 -2.753275 0.334302
1700 -4.26118932 13.77809595 -0.14459940000000002 0.392244 -1.526327 0.937253
1720 -1.7107953300000003 6.08365188 0.9788123700000001 0.33895 3.020137 0.484538
1740 0.8451413100000001 4.63570569 3.11501835 1.076102 1.265909 -1.021735
1760 1.09407006 3.2930011800000005 4.44485214 1.608034 2.754236 -2.048624
1780 0.9342063 2.62673541 6.17226561 0.048544 1.578508 -2.11249
1800 -3.0368817000000004 6.143522310000001 5.791755330000001 0.355774 -2.274382 0.228658
1820 -3.19091832 6.330481290000001 12.46622427 -0.690539 -1.01161 0.231482
1840 -5.38086348 7.76494854 3.81032172 -1.85793 -0.961608 -0.8695280000000001
1860 -7.35315417 12.22612452 2.70592173 -3.036814 -0.487058 -1.836565
1880 -3.9272373000000003 5.85582444 2.9542520700000003 -3.853352 0.5374939999999999 -2.399057
1900 1.0330028100000002 4.19233293 -0.08292393 -3.326329 0.842167 -2.324196
1920 8.05909158 7.70986539 0.69949224 -2.573162 -0.312313 -2.514008
1940 6.27659496 22.82783076 1.3882131 -1.7781169999999995 0.477577 -2.002061
1960 -5.895044820000001 22.197793320000002 2.15536491 -0.569191 2.189554 -1.7383689999999998
1980 -11.1865392 12.466077120000001 -4.05282492 0.711658 1.237226 -0.194236
2000 -21.764142270000004 13.82899023 3.788622 1.632973 -0.815902 0.955692
2020 -13.608951930000002 11.79352314 1.3509449100000002 1.985027 -1.106251 1.863307
2040 -4.994516250000001 10.04785326 3.38625504 2.54884 -2.2442900000000003 2.520319
2060 -3.2681524500000005 7.5956573700000005 6.693333570000001 3.068784 -2.95291 2.921169
2080 -2.62853064 13.726152 9.40628907 3.445636 -2.637826 3.18618
2100 1.79221833 15.45162309 6.57657495 3.215404 -1.881835 2.942185
2120 6.255640800000001 10.73178684 0.96713847 2.335594 -0.8630950000000001 1.491566
2140 7.104823830000001 5.957465850000001 -6.62043546 1.361834 0.25777100000000003 0.157665
2160 5.48848899 2.17976238 -1.57412241 1.31972 2.495936 -0.343289
2180 -0.12798126 -0.1329255 5.31514629 0.20386 1.786504 0.34630700000000003
2200 -5.36424534 5.91195726 -5.266351350000001 0.573051 -3.292314 0.720726
2220 -8.693170740000001 10.97068977 -2.77867269 0.801377 -3.412881 0.836775
2240 -5.66542215 13.616280000000001 -2.18006649 0.581733 1.656875 -0.06429
2260 -3.27654 7.88933934 -1.6338555000000001 0.14090999999999998 2.582335 -1.478608
2280 -1.64612781 5.733827280000001 -0.02604555 -1.147818 2.060945 -1.309616
2300 0.5266008 5.671857510000001 2.32736364 -1.573035 1.56779 -0.958373
2320 1.9008935100000002 7.85850651 5.814955980000001 -2.149091 0.06409400000000001 -0.578047
2340 1.58475645 12.273428339999999 7.27487037 -2.675805 0.737396 -0.931897
2360 0.36389214000000003 12.70273356 7.313188230000001 -3.187545 0.984374 -1.245572
2380 -5.6717103600000005 7.28714268 6.679560330000001 -3.5694120000000003 0.09782 -1.917947
2400 -7.81509726 3.2322282300000005 6.462209970000001 -3.827349 0.133734 -2.416518
2420 1.49509305 -1.0118916900000001 -0.10298538000000002 -2.464969 -1.455515 -2.567335
2440 8.64332613 3.99354309 -7.504797150000001 -1.626841 0.540404 -2.127135
2460 4.70965347 17.95411485 0.43155171000000003 -0.8226379999999999 1.484882 -1.121804
2480 -7.165145520000001 36.625389750000004 9.4080843 0.066184 1.7218919999999998 -0.42476
2500 -9.011858400000001 21.83658912 0.7156591200000001 1.062533 -1.704638 0.459328
2520 -10.81351395 10.751838480000002 3.06038646 2.096329 -2.159579 1.4434870000000002
2540 -3.25647855 10.82668878 7.28400348 3.093074 -2.6269720000000003 2.111209
2560 -3.30423363 7.04091168 5.4398412 3.668344 -3.096243 2.548458
2580 -4.29546546 9.099128160000001 6.0456283200000005 4.231789 -3.379143 2.476913
2600 -1.12640382 9.57543309 3.0042536400000004 4.2133910000000006 -1.648626 2.3656080000000004
2620 0.22603221 9.09688167 -0.8747773200000001 2.978091 -1.494921 1.762851
2640 -0.42676443000000003 6.14038311 -5.761373760000001 1.422041 -3.075751 1.238057
2660 1.15275348 4.446657180000001 -2.5725547800000004 1.14921 -0.736664 -0.057258
2680 0.52406001 2.7175956300000004 5.78651679 0.612928 4.018541 -0.610823
2700 -2.5020503100000004 6.98567157 -1.6801096500000001 0.393969 2.433972 0.236778
2720 -6.020475480000001 12.361149359999999 -4.51879992 0.7131149999999999 -5.54183 0.779066
2740 -6.94615689 15.980921640000002 -2.09534733 0.164243 -2.174154 1.169363
2760 -4.51611198 9.66749994 -0.7354164599999999 0.12432 3.645103 -0.040122000000000005
2780 -1.5405918300000003 5.93246016 0.2573163 -0.932812 3.540254 -1.1401629999999998
2800 0.75697884 4.76938656 1.52862363 -1.455216 -1.076607 0.099105
2820 1.4585704199999998 5.14315737 3.39763464 -2.0102900000000004 1.7744509999999998 -0.313281
2840 1.27370097 9.50597829 3.4546699800000003 -1.884596 -0.541135 0.02919
2860 1.08793881 11.447445960000001 1.3328258400000002 -2.391716 -0.930351 -0.764338
2880 -0.15806852999999998 10.49961357 7.460632530000001 -3.052044 -0.755374 -1.32465
2900 -5.843100870000001 8.056099530000001 14.141693790000001 -3.51425 -0.553674 -1.547122
2920 -6.042489120000001 4.292179110000001 8.39574135 -3.253782 0.397789 -1.815714
2940 3.0088937700000002 -0.13053186 1.0554579000000002 -2.368055 -0.8653540000000001 -2.650736
2960 13.711191750000001 3.79640133 -8.8846227 -1.501491 -2.01454 -2.664574
2980 10.989544590000001 16.1988606 -2.5857198000000006 -1.072734 1.626766 -2.551946
3000 -4.4143234200000006 31.445856900000003 12.15786654 -0.664246 1.348091 -3.278331
3020 -17.85457278 30.47707035 9.2432763 -0.107894 -0.522634 -2.404652
3040 -14.06325303 11.15480385 -5.2135048799999995 0.381279 -0.7036789999999999 -1.511174
3060 -8.03050524 7.803717659999999 2.69350227 1.188942 -2.174967 -0.8445540000000001
3080 -3.5675340300000005 5.0567803200000006 3.4994232 1.886365 -2.118151 -0.473355
3100 -4.27346163 6.479279370000001 5.259759030000001 2.322903 -1.168004 -0.033552
3120 -4.16074473 9.74473407 6.3165609 2.643785 -1.07894 0.591348
3140 0.44951382000000006 9.755809560000001 3.3870104100000007 3.012614 -1.505528 1.189471
3160 4.00102812 7.842486780000001 -1.8595836000000001 3.247631 -1.869563 1.711803
3180 2.9939237100000002 6.53615775 -1.2189121200000002 2.85988 -2.306286 2.569573
3200 -1.52218827 8.60485131 1.91556927 2.367328 -4.1864550000000005 2.985148
3220 -3.97289304 15.78722319 5.20257654 1.189949 -6.267447 1.7372490000000005
3240 -8.01164061 24.74534241 -1.36830861 -1.41621 -1.640881 -1.079216
3260 -8.42148279 17.943784920000002 2.78615772 -1.807287 -1.317945 -1.578017
3280 -0.80996265 11.48576382 3.45257064 -0.08673600000000001 -0.122543 -1.245996
3300 0.3972755700000001 7.03567314 2.37915063 1.447317 4.46357 0.061006
3320 0.55564821 5.282518230000001 3.3112674 2.139519 5.489935 0.665934
3340 0.14055768000000002 3.16337184 2.8999242900000004 0.283789 -0.59885 0.593476
3360 -0.01092834 1.0008162 1.06608213 0.291271 -10.131538 1.26911
3380 -0.06840513000000001 -0.31988447999999997 0.6081807600000001 2.807627 -4.15435 0.705392
3400 -1.40992263 0.0489519 0.21615354000000003 -1.779621 2.370647 -0.955504
3420 -2.89707939 2.0836636200000003 1.64313576 -1.040255 -0.629732 -0.391019
3440 -2.30251491 8.58479967 5.006484449999999 -0.773073 0.305229 -0.268574
3460 0.43559343 16.02373248 10.9872981 0.6207090000000001 0.916993 -0.21903000000000006
3480 -1.7950632300000002 27.372676230000003 20.37233871 2.293492 0.8775799999999999 0.7263310000000001
3500 -7.17143373 20.028802320000004 10.78103304 2.289892 -0.701509 1.614954
3520 -5.062470120000001 6.536461860000001 8.837024580000001 1.602226 1.124408 1.669768
3540 -2.9767071600000006 -2.14787988 1.97319321 0.975374 0.477787 1.14813
3560 4.7244763800000005 -3.1744473300000005 -18.46155672 0.8702799999999999 0.5721 1.363056
3580 11.072919780000001 -0.30282489 -11.77361865 0.611038 -0.344321 1.3923299999999998
3600 19.80441819 5.8028308200000005 -5.31514629 0.388436 -0.923253 1.440655
3620 14.179864499999999 19.73601306 6.6406440600000005 0.209412 -0.786742 1.290747
3640 -11.18818728 41.61586428 16.70825466 0.53158 -0.749912 0.859252
3660 -19.640954160000003 39.7719963 -8.9136603 0.152974 -0.071036 0.315217
3680 -4.6828623600000014 10.715168700000001 -1.62696888 -1.005955 1.415034 -0.280168
3700 2.18425536 4.24487529 -7.44357294 -1.672553 0.14593599999999998 -0.412453
3720 4.6411011900000005 0.73302282 -6.531821730000001 -1.990277 -0.986224 0.071751
3740 8.7488523 3.7335388500000004 1.17640539 -2.772735 -1.7878029999999998 0.073722
3760 2.7424443600000004 13.504916880000001 2.1275241300000003 -2.770557 -3.11593 -0.794093
3780 -3.7214136900000003 20.3632056 -1.82156004 -2.359578 -2.763869 -2.875775
3800 -7.741002330000001 15.52032252 3.4840018800000006 -1.202934 -2.831234 -4.878003
3820 -2.31464007 9.02532753 4.19427531 -1.3730639999999998 -4.241238 -4.037762
3840 -1.88802279 7.77947715 3.3882072300000003 -1.942068 -4.514268 -3.99759
3860 -3.2401645200000004 7.87722399 4.64274927 -1.149512 -2.847673 -3.479306
3880 -4.828364280000001 7.48922868 5.809864590000001 -0.436657 -3.953736 -2.95589
3900 -6.38527014 10.91530251 5.47725654 -0.30087800000000003 -4.599886 -3.191259
3920 -6.56385138 13.39579044 8.00101638 0.101301 -4.586464 -3.167103
3940 -5.166956429999999 13.903085160000002 14.68146942 0.28441500000000003 -4.839857 -3.094996
3960 -1.49868351 10.642721850000001 7.967780100000001 0.419595 -4.686762 -2.869921
3980 -0.55385298 9.54729801 -3.0606807600000003 0.551716 -4.582228 -2.486709
4000 -4.09353642 9.07203294 -7.17263055 0.809368 -4.53999 -2.08438
4020 -8.09276931 14.26922379 -7.141944870000001 1.023124 -4.012015 -1.637047
4040 -12.10682511 29.97816318 -7.74908577 1.233542 -2.872279 -1.259955
4060 -15.200889300000002 18.13134231 -8.14621419 1.593287 -1.80206 -0.943688
4080 -11.41989948 13.20673212 -10.154281950000001 2.022194 -1.363217 -0.504352
4100 -4.219428150000001 19.395919980000002 -7.307351280000001 2.519053 -1.60468 0.041016
4120 1.31606055 19.339630200000002 -5.787115200000001 2.717882 -2.599483 0.625861
4140 2.58048126 12.58209018 -4.153710960000001 1.448361 -4.4020839999999986 0.6994199999999999
4160 1.90868265 9.231003990000001 -3.2045346 0.022478 -2.400192 -0.520196
4180 -0.60833772 8.7255045 -3.10753332 0.009803 -0.6632 -1.189081
4200 -0.11166723 8.43764967 -3.0047049 0.547024 -0.420521 -1.07134
4220 2.00253492 7.22652669 -2.5975506600000005 1.472987 1.47472 -0.571645
4240 3.1003524000000002 5.6775473100000005 -1.8552377700000002 2.074398 1.5562790000000002 -0.177648
4260 2.82641796 5.314400730000001 -0.7116174 -1.110575 -3.188813 1.072028
4280 2.24907003 6.446190240000001 -0.9334607400000001 -0.149456 -5.839349 1.070388
4300 2.3287076100000004 7.147036260000001 -0.8116107300000001 0.22017 -5.507918 -0.612041
4320 1.8618300900000002 7.11844992 -0.85188078 0.633523 -1.698386 -0.464484
4340 0.7532314200000001 7.166499300000001 -0.88391043 2.627097 4.216434 0.10161
4360 -0.01241946 7.83441315 0.3469797 1.6873630000000002 3.40154 0.904734
4380 -1.1049984000000002 9.501936570000002 3.8393691300000006 1.051165 0.302713 1.440508
4400 -4.906942379999999 13.19056524 10.89239616 1.6743400000000002 -1.998517 1.491607
4420 -12.761416980000002 13.480215300000001 10.31430267 1.654241 0.7788390000000001 0.665377
4440 -12.059825400000001 9.18130653 5.35212018 0.657067 -0.032111 0.001426
4460 -8.25533082 4.530925080000001 -3.2733909900000002 -0.431991 -1.2752059999999998 0.125735
4480 -2.04130404 1.66947561 -12.319084080000001 -0.765464 -1.087959 0.208624
4500 3.0725116199999998 4.72507479 -10.086023970000001 -1.255368 -0.221204 -0.07044199999999999
4520 8.179440660000001 27.907664580000002 11.16482967 -0.330844 0.939386 -0.464987
4540 -0.25327458 30.483064260000003 -2.87027847 0.095198 0.941406 -0.5399930000000001
4560 -2.36553435 16.01594334 -3.56588595 -0.791022 1.6564139999999998 -0.6229439999999999
4580 2.3243617800000003 3.8574783900000003 -2.2855926600000007 -1.583975 1.727688 -0.975746
4600 9.83814489 0.67449636 -1.7404313400000002 -2.221323 1.139613 -1.477236
4620 14.468013630000002 0.63378486 1.27534905 -2.725226 -0.387403 -1.986204
4640 2.41238691 11.368858050000002 -4.89766212 -3.816622 -0.326509 -2.414785
4660 -7.19015121 17.93929194 2.27137797 -3.669232 -0.146508 -2.268708
4680 -13.34085444 15.460599240000002 7.5178150200000005 -3.024952 -0.994037 -2.136003
4700 -10.8771318 8.4217869 -0.07125002999999999 -2.318185 -0.580144 -1.825017
4720 -1.53610866 5.04990351 -1.0389869100000002 -1.706997 1.198271 -1.6734759999999995
4740 -1.16203374 3.63818565 2.2279687200000002 -0.083832 1.868984 -0.847944
4760 -1.8217071900000001 4.671335610000001 6.57477972 0.391957 0.312734 -0.491181
4780 -2.0474451 5.51288646 7.63696728 0.900735 -1.085508 0.282216
4800 0.42586191 8.90093673 1.8242577900000003 1.78132 -1.58092 1.13076
4820 -1.4049783900000001 10.91874582 1.9243982700000002 2.452005 -1.237599 1.80478
4840 -2.8791172800000004 12.48748254 4.60637379 3.651228 -0.095954 2.711137
4860 -4.987776780000001 11.765535210000001 10.8683028 4.581032 -0.38261 3.260656
4880 -0.43903674000000004 8.75828952 0.6454587600000001 3.847216 -1.258065 3.04728
4900 -0.14983794 5.52351069 -1.67516541 2.520702 -1.626855 1.320786
4920 2.81849148 4.47853968 -5.3561619 0.718737 -0.648004 -0.809203
4940 2.47854555 2.95335936 -6.14038311 -0.767754 2.043825 -1.6199290000000002
4960 1.8326355300000001 2.48258727 1.26741276 1.459113 -2.563357 0.142732
4980 -5.90312826 4.95873918 6.80141034 1.201452 -4.862955 0.8147220000000001
5000 -8.703049410000002 15.388005240000002 -0.24548544000000003 0.6103810000000001 -2.908806 0.154337
5020 -7.7350182300000005 21.76923366 -3.2358186900000003 1.735182 2.188992 -1.464831
5040 -1.26367515 11.488608720000002 -1.4662026 -0.958609 2.843094 -1.798543
5060 0.12513636 4.98688407 -1.4883535800000003 -1.680475 0.977901 -0.6678109999999999
5080 -0.8559225 2.61491436 0.9767228400000001 -2.559409 0.464735 -0.5130600000000001
5100 0.7369173900000001 2.4277984200000002 2.92581288 -2.839083 1.242961 -0.41453
5120 1.11443562 3.3015358800000003 3.57067323 -2.948163 1.846386 -0.705553
5140 -0.7057804500000001 10.093813110000001 4.01929434 -3.368053 1.056858 -1.366567
5160 -3.3314760000000003 18.07446393 4.01509566 -3.324485 0.627688 -2.236314
5180 -7.144642620000001 12.83865111 9.68306841 -2.823647 -0.181901 -2.67509
5200 -10.447826580000001 8.82594909 13.95069309 -2.530727 -0.525936 -2.674739
5220 1.5947822700000003 2.0246859 -6.84062091 -1.494227 1.092903 -1.881226
5240 6.478524 -2.34757224 -16.2939195 -0.658026 0.691284 -1.272393
5260 3.12565239 0.38065743 -0.25177365 -0.011647 -0.5928720000000001 -0.377472
5280 -5.41468836 26.134301070000003 16.25484627 0.959917 -1.1370360000000002 0.595684
5300 -2.12123592 42.642421920000004 7.059315240000001 2.005235 -1.5955 1.385512
5320 -8.90633223 24.969873690000004 6.02931429 3.141719 -1.527811 2.119754
5340 4.0058154 9.5757372 4.20610617 3.917573 -1.498256 2.580198
5360 -0.64950048 4.2073029900000005 7.7588172900000005 4.03442 -0.976261 2.742715
5380 -2.3346917100000004 7.02922797 4.05326637 3.222089 -0.944223 2.628041
5400 -2.5664137200000003 7.61316822 0.46268865000000003 1.274446 -1.130447 1.6041379999999998
5420 -2.8758211200000003 7.755069870000002 -0.13067901 0.911883 0.989223 0.112992
5440 -1.86137883 7.38639045 -4.83374997 1.029318 1.887961 -0.432132
5460 -0.38096154000000004 5.354062560000001 -5.31514629 0.720366 -1.722493 -0.105992
5480 1.14153084 4.16239281 2.1278282400000004 1.056349 -3.94545 0.066914
5500 -2.8171377 8.363711700000001 -0.7619132700000001 1.860885 -1.438909 0.181485
5520 -5.75508555 11.74398264 -2.4071483700000003 1.38063 4.510084 -1.920003
5540 -5.00169717 9.453592890000001 -0.58348899 -0.76871 0.596094 -2.145782
5560 -1.4889519900000001 5.8109142600000006 0.33231375 -0.948009 -0.806909 -0.917849
5580 -0.06271533 4.5640044 1.83353805 -1.184876 -1.400046 -1.034112
5600 0.44862111000000005 3.15109953 3.1177161 -1.833995 -0.117155 -1.078746
5620 1.3475016 3.88307268 5.61362535 -2.957164 0.32060500000000003 -1.419369
5640 1.8208144800000001 8.01178776 5.95297287 -3.280293 0.5294810000000001 -1.958141
5660 -0.029488860000000002 15.711480180000002 4.888381860000001 -3.016313 0.586267 -2.002304
5680 -5.116807710000001 15.821646480000002 6.37913889 -2.479921 -1.176325 -2.044368
5700 -9.07398513 9.63830538 6.513408360000001 -1.871606 -0.244695 -1.385425
5720 -1.9923521400000002 4.8199767300000005 -4.82147766 -0.8372950000000001 1.890703 -0.29882800000000004
5740 2.3137375500000004 2.0710970100000003 -7.9734699 0.30953200000000003 0.7864180000000001 1.00101
5760 1.830546 7.265295810000001 3.1162151700000003 1.054108 -0.906417 1.714475
5780 -6.86292885 22.55733963 7.02699129 1.838315 -0.369051 2.249102
5800 -15.27094251 33.92784576 5.57470908 2.59438 -0.296448 2.883473
5820 -8.840016630000001 18.281180250000002 -0.87553269 3.128946 -0.8071010000000001 3.31515
5840 -0.01362609 9.12861702 5.00588604 2.810788 -2.385377 3.209196
5860 -2.05596999 7.455246840000001 9.07727148 2.0236080000000003 -2.575909 2.256429
5880 -0.24428862 11.060951580000001 6.24980385 1.816646 0.113348 0.182391
5900 0.15837263999999998 10.66966011 2.83390299 1.957529 1.65993 -0.422152
5920 2.08741104 6.67177119 1.4694987600000002 0.936672 -0.227175 -0.211083
5940 6.2366290200000005 3.47187672 -4.61101392 1.154612 -6.841878 0.233681
5960 6.0435289800000005 2.1803706000000003 -3.82155417 0.922103 -6.576816 0.48275
5980 0.20013381 2.43843246 5.757773490000001 0.123704 3.946832 0.162449
6000 -5.242552290000001 7.867041210000001 -2.7098163000000004 -0.48294 2.072722 -1.102025
6020 -5.89608468 9.880651620000002 -3.2745878100000003 -1.660294 1.352176 -0.510053
6040 -2.6719398900000004 8.164323450000001 -1.94670621 -2.032604 0.908096 -0.488584
6060 -0.46553355 5.552558100000001 -1.73579121 -2.238611 1.128978 -1.200673
6080 -0.36943479 5.694754050000001 -0.45549792000000006 -4.047891 -0.17566700000000002 -1.84189
6100 -0.43544628 8.733293640000001 -0.11211849 -4.157878 1.471604 -1.835156
6120 -1.56619593 13.02187248 4.55113368 -3.363439 0.912528 -2.305317
6140 -6.25698477 14.2752177 11.76388713 -2.510848 0.422916 -2.348941
6160 -13.61732967 9.81090252 8.93536983 -1.815906 0.814599 -1.801932
6180 -8.89061661 3.83337522 1.76841927 -0.41600000000000004 1.587584 -1.050729
6200 1.6724676600000001 -1.02177036 -8.025561000000001 0.4386 0.681642 0.185924
6220 7.83336348 0.9241804800000001 -5.47605972 0.574195 -1.909463 0.4230640000000001
6240 8.538241410000001 19.69739109 0.99019197 1.054586 -1.545669 1.203619
6260 2.64814083 45.304335990000006 21.45847248 2.572889 -0.945001 1.788158
6280 -3.93472233 23.074817130000003 -6.2641754999999995 2.976459 -1.529154 2.332246
6300 -5.242552290000001 8.17270119 -0.13352391000000002 3.693952 -1.332535 2.889277
6320 -7.25271939 7.57544877 7.097191649999999 3.469093 -1.147973 3.016724
6340 -5.97677193 8.07959448 7.0718916599999995 2.246811 -1.38351 1.97445
6360 -1.8407189700000002 13.091621580000002 6.71698548 1.251124 0.5191640000000001 -0.112635
6380 -0.96654006 13.236819390000003 2.6292860100000004 1.045252 3.0659650000000003 -0.664266
6400 4.31402598 7.2129006 -5.68697472 0.460293 1.381819 0.09438
6420 5.04735291 1.90389537 -5.19075549 0.568855 -5.411139 0.7223430000000001
6440 2.7300249 -1.49329782 3.5396932500000005 1.04491 -4.5098980000000015 1.103732
6460 -4.42913652 2.05013304 -1.5627526200000001 1.873164 3.454715 -0.031935000000000005
6480 -6.143375160000001 12.274173900000001 -4.774772250000001 -1.81906 4.4053559999999985 -2.259481
6500 -4.3204613400000005 20.088976860000002 -4.39426197 -2.65423 -1.192105 -2.209004
6520 -4.884497100000001 13.33756809 -0.16375833 -2.875214 0.42763 -0.55047
6540 -2.72194146 7.55149275 -0.6373753200000001 -3.896324 1.314796 0.119582
6560 0.7057804500000001 3.0868832700000004 -0.41449212 -3.4316760000000004 1.489692 -0.064335
6580 3.6176729400000003 2.74229721 1.14467004 -3.498661 0.87676 -0.970938
6600 3.9037325400000005 7.08551775 6.018238800000001 -3.385703 0.443142 -1.854081
6620 -0.24354306000000003 12.57984369 9.29776104 -2.4157900000000003 0.807715 -2.2237880000000003
6640 -4.85485128 11.077412760000001 12.90616353 -1.774649 0.985588 -2.505821
6660 -9.21409155 4.60652094 10.6431633 -0.998686 0.470211 -1.901536
6680 -2.6870669100000004 0.46912401000000004 1.74297213 -0.435517 -0.605693 -0.79916
6700 6.278694300000001 0.60040143 -16.69493268 0.149038 -0.711354 0.07459199999999999
6720 5.154527160000001 11.791129500000002 -6.23767869 1.280701 -2.508515 0.967151
6740 -4.31268201 42.996739500000004 20.625456330000002 2.646157 -3.012698 1.458034
6760 -10.23855966 35.82335358 12.64315743 3.567994 -3.446409 1.493871
6780 -11.04103728 12.26833695 -2.1963805200000004 4.056606 -2.879864 1.116271
6800 2.6270395200000003 10.182426840000002 11.71973232 4.238861 -0.425854 0.522605
6820 3.49777512 7.076384640000001 3.9926503800000006 3.334886 1.01825 0.6095119999999999
6840 1.68130647 7.741904850000001 5.181779340000001 2.1444080000000003 1.067315 1.092515
6860 -1.00815408 8.73612873 -3.0169772100000003 0.720711 -0.026921 1.044449
6880 -4.76190153 7.52785065 -3.2154629399999997 1.618141 1.318845 0.452925
6900 -4.21058934 5.41648359 -3.89115612 1.169233 0.335392 0.36025100000000004
6920 -1.21292802 3.7684134 -3.50375922 0.795334 -3.950985 1.408921
6940 0.38784816000000005 3.32308845 0.24997842000000003 0.8342129999999999 -3.843429 1.650473
6960 -2.4598378800000003 8.559499680000002 -1.8383253300000002 0.969987 1.987647 0.529794
6980 -5.21455455 12.473258040000001 -2.2709267100000003 0.89254 3.049497 -0.410007
7000 -9.04538898 12.61501254 -1.9893600900000001 0.758828 0.920352 0.152604
7020 -2.68900929 9.91208286 2.68226982 1.0708950000000002 0.014303 0.5554600000000001
7040 1.1891289600000001 5.923484010000001 3.69417132 1.501787 -0.862936 1.375715
7060 1.2344805900000002 2.9069580600000005 6.59393865 1.795971 -0.48638 2.056677
7080 1.6816007700000002 3.46859037 7.390128060000001 1.195145 0.636058 1.071482
7100 1.4070777300000001 9.489213000000001 2.00897028 0.853058 2.534634 0.505843
7120 0.60384474 13.949496270000001 -1.20214683 0.142731 0.931592 0.273268
7140 1.82844666 10.66516713 4.11898356 -0.609859 -0.562712 0.05735
7160 -1.9610680500000002 4.8180343500000005 10.6807356 -1.999557 -0.037912 -0.240381
7180 1.50347079 2.02229226 0.22019526000000003 -3.228451 -0.083476 -0.567237
7200 5.10274017 0.9819613800000001 8.33302602 -3.642022 -0.068016 -0.8777940000000001
7220 1.45393029 13.989158100000001 -11.73245589 -3.805883 -0.13942000000000002 -1.526189
7240 -0.99752985 23.75260965 0.12304683000000001 -3.266636 -2.859137 -1.976136
7260 -9.070836120000001 32.508946980000005 13.06767537 -2.024029 -3.11095 -2.151936
7280 -0.34757811 10.67819481 -5.83441902 -1.156665 0.547488 -3.239084
7300 -3.0850880400000005 9.052128450000001 -0.59845905 -0.32340100000000005 1.1807530000000002 -5.945223
7320 -3.4816082400000004 9.22141962 -4.63825629 -0.266848 -2.800263 -5.175947
7340 -3.7208152800000005 7.320977370000001 -3.1204138500000003 -0.287149 -4.669978 -2.991316
7360 -7.892184240000001 9.37261134 -1.5178424400000001 -0.592011 -4.311012 -2.453385
7380 -5.91554772 13.64637708 3.57531336 0.164874 -4.157262 -2.398089
7400 -1.96751322 11.48980554 4.67028594 0.728348 -4.179129 -2.213595
7420 -0.6749476200000001 10.44273519 7.336545840000001 1.141575 -3.2225 -2.042087
7440 -4.2011619300000005 10.72190817 8.63000415 1.871522 -1.95835 -1.52693
7460 -5.8525282800000005 10.45935333 8.400234330000002 2.387696 -1.901747 -0.945489
7480 -2.8818052200000004 10.14889626 7.203914640000001 2.560372 -2.892814 -0.472996
7500 1.1394315000000002 11.15405829 2.18829708 2.712108 -2.240502 0.368987
7520 1.85599314 12.82099311 -4.8499168500000005 3.039974 -1.906803 1.348273
7540 -0.72718587 20.046166020000005 -7.1118576000000004 2.595282 -3.768173 1.816501
7560 -2.69035326 21.818774160000004 -1.54314243 -0.635736 -6.46767 2.773747
7580 -13.456121940000001 22.890251790000004 -3.7622723400000004 -3.890964 -4.95608 0.014424
7600 -16.45138962 19.565064 0.7363189800000001 0.376108 -1.494805 -1.865914
7620 -11.354937660000001 18.21143115 -3.27893364 0.7327170000000001 -2.249633 -1.4896459999999998
7640 -0.66057597 17.60952879 -2.70023193 0.533818 2.075569 -1.097063
7660 3.95956125 11.379187980000001 -0.6780868200000001 0.48863 5.593102 -1.055953
7680 2.84243769 7.097191649999999 -0.31614687 -2.586009 -6.091588 0.993871
7700 2.5363264500000002 6.00057099 -2.1158502300000004 0.188353 -1.4357540000000002 0.5757220000000001
7720 3.3778773000000006 6.383180610000001 -2.50234461 0.561496 -0.465111 -0.057439
7740 3.8610688500000006 6.11298378 -2.25880155 0.957784 -2.332561 -0.12919
7760 2.86399026 4.4439594300000005 -2.8851013800000005 1.5363209999999998 -1.836489 0.7864770000000001
7780 2.28005982 2.3441289300000006 -3.38505822 0.910374 -1.471169 1.0796709999999998
7800 4.764746430000001 0.18831276000000002 -4.35504159 1.289685 -3.160336 0.927456
7820 5.06052774 0.27677934 -3.78667962 1.332782 -1.311762 0.544033
7840 1.35752742 2.11824387 1.4566182300000001 1.674611 -1.268116 0.255809
7860 -0.7319731500000001 14.308444170000001 17.387391150000003 2.304134 -1.462182 0.289297
7880 -12.454403220000001 32.23980963 29.38254903 2.267701 -1.158642 0.868698
7900 -12.548853900000001 17.40101724 8.40217671 2.179039 -1.216679 1.073251
7920 -7.6453548300000005 3.5052601500000002 -1.48401756 1.88363 -0.926001 1.098589
7940 -0.6773412600000002 1.6916364000000002 -15.636933990000001 1.569774 -1.04911 1.254651
7960 6.237080280000001 9.52663815 -10.56592917 1.241327 -1.470002 1.033911
7980 11.88992601 34.08756237 21.03396435 0.80676 -0.794546 0.594175
8000 -6.082749360000001 22.72439412 -5.669012610000001 0.649007 0.42245 0.352232
8020 -5.50270368 4.96218249 -2.92028004 0.520717 0.47348 0.223084
8040 -2.45264715 1.43281917 -11.93422797 0.424572 0.657147 0.19654
8060 -2.30804775 4.80036654 -11.92315248 0.6954779999999999 1.260685 0.346142
8080 -0.85412727 8.63464428 -2.46642039 1.087024 1.713323 0.565146
8100 -0.46104057 20.20273362 4.7681799300000005 1.046861 1.805048 0.572225
8120 2.5908111899999997 14.93429274 -1.30558347 0.182364 0.735528 0.518419
8140 1.81557594 9.35809254 -1.98846738 -0.16250599999999998 -1.528833 0.447341
8160 2.89976733 8.542135980000001 0.5352826500000001 -0.230762 -2.657998 0.499586
8180 2.75920965 8.57611782 1.1150340300000001 -1.102608 -2.268207 0.215259
8200 2.16195723 8.70409908 2.2001279400000002 -1.594503 -0.75242 -0.397938
8220 1.6268217299999999 8.31715344 3.2187591 -2.628196 -0.123274 -0.99135
8240 0.94932351 7.34567895 2.19592926 -3.258736 -0.209373 -1.556461
8260 -0.38515041 8.536446180000002 1.06218756 -3.645296 0.123318 -2.101176
8280 -1.27489779 9.81418887 0.32452461 -3.200445 -0.70786 -2.686662
8300 -0.6036975900000001 9.10915398 -0.04445892 -2.695353 -2.350988 -3.005768
8320 0.25521696000000005 8.63074971 0.18875421000000003 -2.232897 -1.449567 -2.923576
8340 -0.6655202100000001 9.53801775 2.04788655 -1.360479 -1.751113 -3.394591
8360 -1.9725948000000002 9.35689572 -0.32258223 -1.582814 -1.662029 -4.166446
8380 -2.04668973 8.502915600000001 -3.9911494500000004 -1.735467 -1.702956 -4.1888239999999985
8400 -1.5846093 8.98626411 -3.0508020900000004 -1.356307 -2.463989 -3.612634
8420 -1.5179895900000002 9.86972328 3.20513301 -1.227296 -3.472871 -3.175673
8440 0.41313834 16.33912398 3.83921217 -0.995304 -4.0170010000000005 -2.6349720000000003
8460 -1.5563172600000001 14.153073390000001 1.601973 -0.578786 -3.977526 -2.212302
8480 -6.08874327 14.932644660000001 0.9705817800000001 -0.01008 -3.387521 -1.867254
8500 -8.39424042 19.35070569 3.63399678 0.8947129999999999 -3.119935 -1.370963
8520 -6.6663855000000005 16.49315079 4.64603562 1.821467 -3.183745 -0.869821
8540 -4.80321144 13.008099240000002 3.2229479700000003 2.814966 -2.586466 -0.314581
8560 -1.4980851 11.969710740000002 1.0930302 3.618236 -1.558265 0.26762
8580 2.6364669300000005 11.319759 -3.7214136900000003 4.077242 -0.339814 0.724328
8600 2.7735813000000005 12.791798550000001 -8.6446701 4.466868 1.104625 0.937774
8620 0.23067234 16.847615519999998 -5.589227879999999 3.797843 1.197165 1.285496
8640 -6.238277100000001 16.76648682 -6.1290035099999995 1.16766 -0.8482620000000001 1.192833
8660 -9.66300696 14.112499230000001 -3.4913397600000002 0.464957 1.180675 0.042327
8680 -7.001092890000001 11.966414580000002 -2.92177116 0.6258640000000001 3.01673 0.022939
8700 -1.10695059 12.95271198 -3.93876405 0.96449 2.589408 -0.4997140000000001
8720 2.22632064 12.75093009 -2.98389789 1.344701 2.618151 -0.557983
8740 1.91197881 9.52948305 -2.7671459400000002 1.988428 -0.327445 -0.024147
8760 2.26358883 5.126843340000001 -2.4081882300000004 -0.410925 -6.813249000000001 0.824118
8780 3.0425714999999998 1.7298071099999999 -1.6118516699999998 0.7891859999999999 -9.800507 1.437738
8800 3.2356715400000002 0.09939492000000001 -1.85943645 2.058457 -1.621475 0.90949
8820 3.14705781 -0.54561258 -1.5751720800000002 -0.088554 -1.7514919999999998 0.387254
8840 3.33805851 -0.6447132 -0.7020428400000001 0.15426700000000002 1.133917 0.28270300000000004
8860 4.00342176 -0.24908571000000002 -0.37556604 0.441013 0.618957 -0.655737
8880 3.9778274700000003 0.10972485000000001 0.16165899 -0.6128 1.10869 -0.468241
8900 2.9047115700000004 2.40145857 0.34607718 -1.31424 2.951498 -0.8953129999999999
8920 0.34203546 8.511597450000002 0.06856209 -2.5751150000000003 2.12857 -1.532249
8940 -4.49695305 27.43584282 2.9047115700000004 -3.518735 0.284966 -1.610185
8960 -10.48315239 30.67899939 2.3504171400000002 -4.86178 -0.216101 -1.680881
8980 -7.3833984 13.75429689 0.9443890800000001 -4.505895 0.717407 -2.070561
9000 -1.5507746100000002 3.71886309 0.07978473 -3.909492 0.235039 -1.839314
9020 0.5379804 -1.2778898400000003 -3.1042469700000006 -3.124867 1.29022 -1.593767
9040 1.58564916 -3.2022881100000005 -11.62227978 -1.888523 2.09912 -1.6887169999999998
9060 3.7729063800000002 -3.74042547 -7.865540280000001 -1.008539 2.1966810000000003 -1.54169
9080 5.73442569 -5.96569644 16.542553950000002 -0.10382 0.34032 -0.300263
9100 -1.50886629 9.20136798 12.052183410000001 0.6566850000000001 -2.370329 1.316196
9120 -1.0612948500000001 26.93648439 -18.613346850000003 1.213171 -2.741657 1.519248
9140 1.7200755900000002 44.137220670000005 17.75323548 1.964307 -3.069843 1.421298
9160 3.1991489100000003 18.69268032 -4.696782750000001 3.110891 -2.214916 1.881138
9180 -3.2368683600000003 1.84311261 6.23153763 4.137624 -1.0323719999999998 2.034209
9200 -8.406963990000001 11.2500099 5.522912280000001 4.735308 0.102605 1.93438
9220 -9.29192409 18.42369012 9.35135307 4.1172559999999985 1.082381 2.272775
9240 -2.82117942 19.193382720000002 5.81930181 2.139247 0.659438 1.598271
9260 1.8034507800000001 13.612542390000002 2.74648608 0.912403 -1.209964 -0.30506500000000003
9280 1.5182937 9.93469491 2.0381648400000003 -2.036192 -4.760685 -0.373454
9300 4.058210610000001 5.13088506 -6.65007147 1.340554 -3.728673 -0.04461
9320 3.7492544700000003 -1.6913322899999998 -3.77559432 2.917186 -4.540061 0.630808
9340 1.17565983 -5.55899346 2.28230631 1.4845549999999998 0.484752 1.0961299999999998
9360 -3.4720336800000005 -0.5070004200000001 2.39666148 0.874965 3.80367 -1.44834
9380 -7.525604159999999 6.5417004 -0.8006823900000002 0.017266 2.182541 -2.623025
9400 -11.99829708 14.054424030000002 -1.8476055900000001 -1.56693 0.938546 -1.0472549999999998
9420 -10.547515800000001 18.82694979 -3.15947727 -0.449496 -0.275552 0.034601
9440 -0.33126408 9.226658160000001 -1.93681773 0.093476 -1.220925 1.0127549999999998
9460 2.6848204200000003 3.2230951200000004 1.5337150200000003 -0.298926 0.035468 1.510469
9480 3.4983735300000003 0.68841675 4.25520522 -0.954354 1.08768 0.019714
9500 1.5054229799999999 0.16525926000000002 6.88448142 -2.803115 0.6310979999999999 -1.677201
9520 -2.6204472000000005 3.65480379 6.76547631 -3.959248 -0.580026 -2.029828
9540 -6.40353636 17.819541270000002 3.55990185 -4.56964 1.109487 -1.497873
9560 -8.84659914 23.058797400000003 6.40952046 -3.634783 0.26967 -1.68041
9580 -5.5440234 12.31369839 6.295910850000001 -3.14934 1.120494 -2.017804
9600 7.190445510000001 5.88486204 -7.03790982 -1.969677 2.17233 -2.077142
9620 4.846620690000001 -0.33365772000000005 -5.35810428 -0.982125 0.796489 -1.459594
9640 4.689601830000001 8.00714763 1.8624285 -0.295771 0.159743 -0.263985
9660 0.6810788700000001 21.21044625 9.66704868 0.815537 -0.662905 0.433835
9680 -3.4923894300000002 42.435999900000006 12.17837925 1.422573 -1.397752 0.6580020000000001
9700 -13.70115612 15.87433599 -9.90879651 2.041328 -1.638336 1.144401
9720 -2.1457903500000004 5.6832273 2.56866021 3.001567 -1.6392950000000002 1.616854
9740 3.0555991800000006 3.8487965400000004 -3.18163806 4.098246 -1.481796 2.037714
9760 -0.06900354 3.4417894500000004 2.19458529 4.596362999999998 -0.546876 2.768523
9780 -5.26919625 8.44888212 10.33615935 3.711988 0.667602 3.252171
9800 -6.782241600000001 15.031892430000001 8.060141250000001 1.327468 -2.124861 1.153925
9820 -2.55983121 16.51515462 8.52941241 0.19562 0.625107 -0.648914
9840 4.53855726 12.119097420000001 4.3167237300000005 0.596374 1.00924 -0.888025
9860 9.64863531 10.17539307 -3.69177768 0.769655 -3.232472 0.238118
9880 6.229448100000001 8.24231295 -11.16094491 0.6681729999999999 -4.333854 0.8295469999999999
9900 -0.53109378 1.31711022 4.50442827 0.70663 2.668593 0.6990649999999999
9920 -8.699458950000002 1.12910157 3.1364237700000004 0.489117 1.963028 -1.95074
9940 -9.42859701 7.6670545500000005 -5.29508484 -1.7821490000000002 0.334783 -1.720964
9960 -5.579202060000001 11.104507980000001 -2.6177592600000006 -1.88036 -0.666485 -0.328474
9980 0.68812245 11.29266378 -3.0596409 -1.300156 0.605166 0.039281
10000 0.50774598 8.117323740000002 -4.23634059 -1.6830599999999998 0.6442720000000001 1.245784
10020 -0.47555937000000004 6.198458310000001 -1.84267116 -2.3542560000000003 0.352378 0.499055
10040 0.18875421000000003 2.59275357 1.17595413 -3.566193 2.618333 -0.342322
10060 0.9632439 -0.7054861499999999 3.9252851100000004 -4.074536 0.970224 -0.934488
10080 0.73258137 -0.8243343 8.20728144 -3.538412 1.478757 -1.497552
10100 -0.89558433 9.8564013 7.2371509199999995 -2.806781 0.451387 -1.7539080000000002
10120 -2.34771939 22.380710580000002 8.924745600000001 -1.98431 1.2714530000000002 -1.618891
10140 -4.96547865 18.65840418 15.954424830000002 -1.555341 0.271956 -1.92333
10160 0.5965068599999999 9.500592600000001 -3.3253349400000003 -0.559021 -0.150738 -2.308935
10180 2.58497424 0.9650391300000001 -17.54995266 0.919776 0.222796 -0.03659
10200 5.801781149999999 6.33856473 -2.9780609399999998 1.746431 -0.567801 0.8845959999999999
10220 -1.8010571400000002 20.68802451 21.290074020000002 2.274225 -1.6600830000000002 1.05312
10240 -10.074801330000001 40.49289396 4.87087101 2.841278 -1.448204 1.387958
10260 -13.99065903 18.0928773 -3.3232356000000003 3.5994269999999995 -1.172049 1.99965
10280 2.09473911 5.33580615 4.40024607 4.25512 -0.815041 2.460972
10300 4.78719171 4.82147766 2.73915801 4.07696 0.540786 2.150342
10320 0.9886910400000001 8.473279589999999 9.53532 3.329304 0.160132 0.756919
10340 -5.0486968800000005 12.32776593 4.87745352 2.053848 -1.443108 -0.266883
10360 -3.87978633 15.17065488 6.98597568 -0.615609 1.835183 -1.25754
10380 2.22572223 11.253149100000002 1.18972737 1.022479 -0.405206 -0.252985
10400 3.45945726 7.87751829 -1.95553521 1.546611 -4.534856 0.7835979999999999
10420 0.63093996 4.981939830000001 -6.26611788 1.4852040000000002 -3.716733 0.306762
10440 0.38859372000000003 1.61618769 -2.0686935600000007 1.805876 0.742034 -0.117592
10460 -3.03613614 0.13756563000000002 -0.31808925000000005 0.5955739999999999 2.103782 -1.279334
10480 -7.638468210000001 5.153330340000001 0.32227812 -1.667659 1.266244 -0.8582350000000001
10500 -13.3267869 11.538453330000001 -1.8525498300000003 -2.667985 0.281561 -1.23036
10520 -6.05700792 13.76013384 -1.58236281 -3.64039 0.457462 -0.953231
10540 1.89864702 9.417962970000001 -0.72553779 -4.396163 1.734714 -0.295713
10560 4.0459383 6.08724234 0.8027817300000001 -4.28455 1.7042529999999998 -0.234006
10580 3.98127078 5.54746671 3.04526925 -4.134592 0.336955 -1.024895
10600 1.8829314000000001 8.036342190000001 5.73532821 -3.400186 0.412937 -1.747322
10620 -0.72524349 15.22768041 6.262674570000001 -2.60337 0.589128 -2.010105
10640 -2.52809586 16.0918335 6.424343370000001 -1.363699 2.321093 -1.443917
10660 -6.3601271100000005 7.56691407 10.36369602 -0.480779 1.98054 -0.961955
10680 -6.052367790000001 4.085757090000001 7.154374140000001 -0.257311 0.217793 -0.694284
10700 -1.54044468 0.38005902 -5.1861153600000005 1.152752 -1.068249 0.010489
10720 6.08080698 -5.89952799 -12.26159748 2.5884810000000003 -2.841 0.928642
10740 1.79476893 0.12962933999999998 7.03895949 3.114678 -3.754548 1.1567459999999998
10760 -3.72679938 14.530581810000001 1.06802451 3.745881 -3.718896 1.283955
10780 1.3016889 44.45650674 5.539383270000001 4.551483 -3.849767 1.611285
10800 -8.47641879 35.17355880000001 7.5697589700000005 4.91346 -2.522815 1.925102
10820 -6.89346738 11.94546042 10.375369919999999 4.16335 -0.465262 1.384183
10840 1.08599643 7.924370850000002 8.56728882 2.309846 -0.244269 0.474715
10860 1.69207785 7.44581943 7.49057265 0.5468430000000001 -0.716047 0.104082
10880 3.30602886 8.48750409 2.70802107 -0.35953 1.371204 -0.535175
10900 0.20207619000000002 8.28137637 -3.63144618 1.594164 -4.829545 0.112396
10920 -1.27415223 6.362216640000001 -3.8724484500000003 0.8450840000000001 -3.3918440000000003 0.8658950000000001
10940 -2.14099326 3.3178499100000005 -4.756662990000001 0.334875 4.016903 -0.227135
10960 -3.4682862600000006 0.23755896 4.297260690000001 1.044917 6.289156 -1.644754
10980 -4.71624579 5.31469503 -0.27049113 -0.481844 -2.066173 -0.496373
11000 -8.10280494 14.46127416 -4.01884308 -1.387733 1.478048 -0.25621
11020 -5.929016850000001 18.09781173 -3.49447896 -1.0235040000000002 -0.094159 0.457648
11040 -4.195177830000001 14.942680290000002 1.65211191 -1.354942 -1.3864530000000002 0.507195
11060 -3.3756308100000005 6.99509898 0.6122224800000001 -2.405208 -0.8617370000000001 -0.063766
11080 -2.55443571 4.239038340000001 1.17385479 -3.3449690000000003 0.06208300000000001 -0.370616
11100 -1.2407688000000001 2.88195237 1.82755395 -3.67769 1.38674 -0.744243
11120 0.42901092 3.6419232600000004 3.86496342 -3.164441 1.0188700000000002 -1.367233
11140 1.83847248 9.06260553 4.55712759 -2.504339 -1.24722 -2.142725
11160 3.27773682 11.808797310000001 1.8844323300000003 -1.809011 0.7002079999999999 -2.504627
11180 0.94528179 3.6152793000000005 3.62261718 -1.279731 1.180892 -2.757919
11200 -5.20288065 0.29398608000000004 11.587405230000002 -1.350458 -0.652744 -2.622536
11220 1.84356387 5.72724477 6.077962080000001 -2.5855 -2.965803 -1.467041
11240 7.90236702 10.77115437 -7.54056441 0.764628 0.554701 -0.319041
11260 3.27982635 20.1377718 -3.26590596 1.222565 -1.663707 0.740267
11280 -4.842127710000001 25.959614400000003 9.11395107 1.654404 -1.594342 0.8681770000000001
11300 -10.611437760000001 23.8367304 8.40831777 2.493795 -1.508357 1.014935
11320 -9.817033770000002 11.78603811 -8.36759646 3.364396 -0.629043 0.944046
11340 -11.68305273 7.621398810000001 6.44185422 3.698403 0.11011300000000003 0.957182
11360 -4.59200214 5.20063416 5.4866937600000005 3.566596 0.251277 1.46669
11380 -0.54307179 9.64129743 8.123160689999999 2.918502 -0.790177 2.197366
11400 -0.39098736000000006 15.98136309 8.120315790000001 2.486909 -2.161581 2.137357
11420 1.7272565100000001 11.85190245 7.35016212 0.337672 -3.437555 0.483191
11440 4.69603719 8.44469325 0.10523187 -0.987342 -1.177044 -1.560719
11460 3.5103515400000007 5.939650889999999 -8.04397437 -1.107902 0.4300310000000001 -1.615964
11480 -1.58430519 4.33558836 -0.12484206 0.357693 3.908862 -0.666944
11500 -6.10670538 7.04135313 5.93515791 1.208127 4.610525 0.015349000000000003
11520 -9.39146616 15.97447647 -1.24151436 -0.592598 -10.341508 2.59421
11540 -12.13421463 22.162761810000003 -0.92208114 0.938802 -6.95892 3.046021
11560 4.14143865 -7.00797951 -10.99912896 0.336954 2.402247 1.025837
11580 -5.64670467 17.990941590000002 4.6994805 1.254133 2.617728 -0.107826
11600 1.58760135 5.800584330000001 2.41507485 -0.256177 0.225494 -0.224269
11620 2.70352809 3.21845499 1.5489793800000002 0.240525 -1.089408 0.231676
11640 2.31239358 2.00268207 2.75532489 1.084731 -0.134534 -0.063822
11660 0.68632722 1.6242711300000001 2.75652171 1.620495 0.272367 0.545081
11680 -0.28081125 1.5040692000000002 0.9184906800000001 1.245851 0.713946 1.262948
11700 -1.0767063600000002 0.84289482 -0.36090009000000006 1.314464 0.753369 1.467407
11720 -1.61858133 6.028117470000001 1.1115907199999997 1.379109 0.077225 1.601185
11740 -1.45242936 16.241671440000005 8.821152 1.418629 0.351818 1.628883
11760 -7.70178195 26.190885150000003 14.32236456 1.273149 0.4728270000000001 1.596733
11780 -12.98011131 17.2716822 9.78455286 1.141247 0.059001 1.5696370000000002
11800 -9.98827713 6.71473899 9.45044388 1.05662 -0.25613 1.329099
11820 -1.09227483 0.56641959 -11.780946720000001 0.50934 0.193 0.576946
11840 9.406141920000001 1.09482543 -13.39743852 -0.698978 0.422219 -0.01931
11860 26.368720830000004 9.481286520000001 -10.066413780000001 -1.608245 -1.160418 -0.120842
11880 19.9353915 12.07195056 3.5010712800000006 -2.4150270000000003 -0.845873 0.23952
11900 1.67487111 28.569437370000003 -1.7193202200000002 -3.40078 -0.35880300000000004 0.235215
11920 -16.99431426 32.06077713 5.81361201 -3.815471 -0.335116 -0.532559
11940 -19.653079320000003 15.694410780000002 -3.19780494 -3.428678 -0.927139 -1.7329849999999998
11960 -2.51791308 12.15217674 -4.046389560000001 -2.3884540000000003 -1.779765 -3.064176
11980 1.22879079 10.21894947 -0.6195603599999999 -1.659957 -2.769087 -3.774597
12000 5.770349909999999 11.471245020000001 0.9190890899999999 -1.198884 -2.691063 -3.972302
12020 6.8057463600000005 11.059303500000002 -1.09347165 -1.008073 -2.902792 -3.670528
12040 3.05349984 9.763451550000001 -0.47436255000000005 -0.8705799999999999 -3.803529 -3.112938
12060 0.024848730000000003 8.26820154 0.70652601 -0.600961 -5.448311 -2.549198
12080 -1.9220046300000002 8.31281742 1.08599643 -0.595598 -5.5427339999999985 -2.650521
12100 -2.8580061600000004 8.363711700000001 1.14092262 -0.38961 -5.70242 -2.589057
12120 -3.20573142 8.54737452 2.29742352 -0.128067 -6.320367 -2.527686
12140 -3.91839849 10.14380487 4.09652847 0.480562 -5.948559 -2.263265
12160 -4.31926452 11.21019111 6.40174113 0.813049 -5.651913 -1.877831
12180 -4.799022570000001 10.04381154 10.23825555 0.933451 -5.432843 -1.621966
12200 -4.97041308 10.383757470000003 8.87130072 0.906333 -4.615549 -1.6552490000000002
12220 -3.8829255300000005 11.79562248 4.972208310000001 0.714213 -4.009447 -1.744962
12240 -1.85344254 10.896143580000002 -1.52518032 0.520511 -3.186403 -1.7398919999999998
12260 -1.36456119 12.12658245 -3.98277171 0.428747 -2.02484 -1.763386
12280 -3.4091613900000004 16.56754983 -5.1801312600000005 0.283989 -1.464044 -1.753365
12300 -4.56266043 20.7708111 -5.723801460000001 0.08445 -1.6574330000000002 -1.703237
12320 -6.90933015 16.73504577 -6.74002917 -0.267662 -2.287105 -1.374809
12340 -6.9726537 15.01811919 -7.16799042 -0.581814 -2.8484540000000003 -1.115638
12360 -5.4765109800000005 16.46740935 -5.560484580000001 -0.534978 -2.300392 -1.017736
12380 -2.2686802200000002 18.78473736 -4.23289728 0.043296 -1.323402 -0.753235
12400 -1.38641787 16.11847746 -4.962476790000001 0.56847 -0.544309 -0.5038050000000001
12420 -2.18006649 11.726766090000002 -4.13545455 0.656634 -0.688088 -0.32247600000000004
12440 -1.04602068 10.11521853 -3.85044462 0.528284 -0.370909 -0.409237
12460 0.62135559 9.94067901 -5.7946002299999995 0.7924800000000001 -0.538863 -0.727642
12480 -0.21046374 9.12517371 -4.5087741 1.907949 0.196856 -1.064761
12500 -0.56582118 8.39933181 -4.19098896 2.375865 0.8662280000000001 -0.7664529999999999
12520 -0.69156576 7.9896367800000005 -4.38453045 2.371471 0.496386 0.083227
12540 -0.07784234999999999 8.45457192 -3.6904239000000003 -1.546606 -5.030349 2.964232
12560 0.32841918 8.75678859 -2.8388472300000003 0.301423 -7.951156 2.383747
12580 0.07320222000000003 8.50171878 -1.92829284 -0.131931 -2.930851 -0.8805850000000001
12600 0.87762222 9.09119187 -1.70450712 0.257088 -1.292054 -1.051952
12620 2.80875996 10.23736284 -1.51050456 1.274725 1.525327 -0.8006260000000001
12640 3.5152859700000003 10.688819040000002 -0.5277976200000001 1.832502 0.973308 0.364066
12660 3.1380718499999998 9.38294127 2.18560914 2.372905 -0.096582 1.314588
12680 2.23679772 7.85701539 4.6997748 2.13023 -0.134701 0.668804
12700 0.27812331 5.4943259399999995 6.405027480000001 0.6279399999999999 0.613637 0.245018
12720 -0.9668441700000001 3.4576620300000003 5.7697515 0.655378 1.14663 0.132363
12740 -1.5817644000000004 3.70120509 5.212759320000001 0.794247 -0.32560700000000004 0.284771
12760 -4.30474572 5.751043830000001 6.57028674 0.499986 -0.955268 0.560192
12780 -8.4565143 8.80229718 6.449790510000001 0.309684 -0.764089 0.6013470000000001
12800 -10.626702120000001 12.022253100000002 4.1615001 0.315399 -0.429662 0.613777
12820 -12.63447558 11.41016796 6.6066622200000005 0.350457 -0.162762 0.438491
12840 -12.52251405 5.81690817 -5.5103456699999995 0.383471 -0.030522000000000007 0.107403
12860 -4.06315485 2.36537739 -9.93498921 0.171218 0.208774 -0.143282
12880 3.1262508 6.768772470000001 -2.96383644 -0.025241 0.874243 -0.15725699999999998
12900 10.20876669 33.961082039999994 11.022025500000002 -0.170558 1.239428 0.019653
12920 7.7984791200000005 34.66835361 -2.3716656 -0.298397 1.647356 0.14856
12940 -2.15566902 9.837840779999999 -8.53510221 -0.354643 0.972395 0.357336
12960 3.12010974 -1.40617521 -5.48968581 -0.432327 0.971781 0.311929
12980 4.947957990000001 -5.62500495 -2.8774692 -1.011217 0.919847 -0.316958
13000 3.05918964 -1.74282498 -1.87006068 -1.82832 -0.77978 -1.343844
13020 1.2769971300000003 17.98824384 -0.9241804800000001 -2.599657 -2.320296 -1.708317
13040 -5.57171703 26.544447360000003 -0.35625996000000004 -3.68573 -3.190446 -1.877158
13060 -4.028721750000001 13.504769730000001 4.00762044 -4.646011 -1.407583 -1.74194
13080 1.1123362800000003 8.27135055 2.62793223 -3.936013 -0.82084 -1.502724
13100 1.6780103100000001 6.79840848 1.7598943800000002 -2.852198 0.456089 -2.090721
13120 0.00777933 5.512582350000001 2.18186172 -2.460238 2.374531 -2.400226
13140 -2.20520952 5.1203981700000005 1.74132405 -1.565016 2.467004 -2.325725
13160 -3.9062733300000003 5.75208369 2.5765965 -0.7040109999999999 1.682404 -2.399891
13180 -4.060457100000002 7.5739478400000015 3.60764712 0.116366 -0.013614 -1.223352
13200 -2.25026685 10.31983551 3.12864444 0.585194 -0.208337 -0.088581
13220 -0.10269108 10.883115900000002 3.51932769 2.144282 -0.427206 0.811351
13240 0.6911145000000001 9.67018788 3.4829620200000004 3.081012 -0.341115 1.379668
13260 1.2308901300000001 7.8055227 3.5434308600000004 3.4865 -1.293636 1.601638
13280 1.0662292800000002 6.56160489 1.1193700500000001 3.409967 -1.715913 2.306671
13300 -0.45670455000000004 5.839206300000001 -2.41268121 3.005987 -1.852735 3.038962
13320 -4.91487867 4.94107137 0.621954 2.208969 -1.609384 2.8140970000000003
13340 -9.56780091 6.53570649 3.7157238900000005 1.623387 -0.581481 0.948915
13360 -10.797798329999999 11.45598066 5.38639632 0.283498 0.557139 -1.043455
13380 -3.77814492 14.778617850000002 9.361683000000001 0.614907 1.6743419999999998 -1.262625
13400 6.136792649999999 11.64847248 -1.3186111500000002 0.8342350000000001 -1.281877 0.16343
13420 5.96254743 8.54692326 1.9496982600000001 0.802145 -4.109903 0.918858
13440 4.57672797 8.61802614 -6.09382485 1.833105 -3.136099 1.587109
13460 0.72598905 6.33752487 1.37848158 1.926735 2.758603 -1.020911
13480 -4.67088435 8.04187503 4.595445450000001 -0.507421 2.3973880000000003 -3.414244
13500 -5.24958606 14.636559240000002 -1.7139345300000002 -1.114473 -0.174761 -1.947452
13520 -6.52013802 18.67995675 -3.8242519200000005 -0.708879 -2.617978 -1.0997290000000002
13540 -2.9307571200000004 15.316146990000002 -0.30835773000000005 -0.165491 -1.850333 -0.401505
13560 -0.33904341000000005 10.05129657 1.20754233 -0.294363 -0.225183 1.421104
13580 -6.011352179999999 8.58704616 1.8546393600000002 -0.858525 1.104262 0.318396
13600 -1.3409092800000002 5.09226309 2.76699879 -3.141528 2.14018 -1.546902
13620 -0.5590915200000001 1.54747845 2.5017462000000004 -4.127377 0.707292 -2.266593
13640 0.17767872 -0.69664734 2.4872274 -4.004423 1.497002 -2.723945
13660 0.48828294 0.36958194 2.1862075500000007 -3.105789 0.90468 -2.430626
13680 -1.5949294200000002 9.06978645 2.9138446800000004 -2.141713 0.093152 -1.722098
13700 -1.58564916 13.6971144 8.93327049 -2.183812 -1.1030799999999998 -0.905806
13720 -3.5055642600000003 9.98214588 12.500206109999999 0.039884 1.640727 -0.351132
13740 -0.7890084900000001 7.103332710000001 2.0261868300000003 1.180164 -0.057499 1.10004
13760 3.66528087 -0.84305178 -14.83460352 1.356295 -0.0069900000000000006 1.369329
13780 2.5921551600000003 -0.2870994600000001 -5.01577452 1.660203 -1.252305 1.108129
13800 -5.90956362 8.06282919 4.396655610000002 2.8361 -1.789581 1.248422
13820 -8.39963592 39.37636881000002 17.53722909 3.782887 -1.564128 1.855087
13840 -11.32844085 39.78981126000001 -7.67064501 3.986567 -1.439504 2.480192
13860 -9.82646118 12.84448806 8.05115529 3.103273 -0.383325 2.324186
13880 1.94984541 2.26119519 -1.2957048 1.7775459999999998 1.683885 1.200258
13900 5.04854973 -3.3641040600000003 0.9831582000000001 0.546823 2.332903 0.07133300000000001
13920 -0.2456424 -4.20235875 11.21961852 0.518497 -3.119308 0.92629
13940 -1.7479163700000002 13.022470890000001 6.826102110000001 1.004124 -5.6913870000000015 1.163714
13960 -3.3084225000000003 25.921600650000006 11.40882399 0.991867 -2.684548 0.484659
13980 1.99879731 20.90642454 2.1176454600000003 1.190602 4.724224 -0.962342
14000 3.4985206800000004 9.334440630000001 -2.2299111000000003 0.463825 1.81295 -1.694352
14020 1.76961609 6.27315165 -4.57373592 -0.635958 2.715382 -1.310084
14040 -1.2614286599999998 3.76706943 -0.40789980000000003 -0.5405300000000001 1.628817 -0.598726
14060 -5.71856292 3.54897351 0.44097912 -1.253382 0.887922 -0.115647
14080 -11.15270451 12.188552220000002 8.03319318 -2.2477080000000003 1.129896 -0.35791100000000003
14100 -9.31423203 19.31583114 -1.51185834 -3.536463 -0.278844 -1.791184
14120 -0.769104 16.91886555 -2.5176187800000003 -4.027221 0.253997 -2.215106
14140 2.4281025300000003 8.09381898 -2.2658353200000003 -3.723415 0.289848 -2.120095
14160 0.43753581 5.48983296 1.50557013 -2.995079 -0.959128 -2.100588
14180 1.7667711900000003 2.5204538700000003 4.41296964 -2.118703 1.486164 -1.6500150000000002
14200 1.40677362 -0.01856052 6.852903030000001 -1.026297 1.714543 -1.634131
14220 -3.1346285400000005 1.4349185100000001 7.6987899 -0.21002 0.6506109999999999 -0.814149
14240 -7.9848495 7.47770193 6.29336025 0.257184 -0.709259 -0.010113
14260 -10.0155195 3.7961070300000004 5.585637419999999 1.4177110000000002 -0.873287 0.8410299999999999
14280 -0.56507562 2.7318201300000005 -3.9071758500000002 1.862112 -0.950055 2.069483
14300 4.527785880000001 2.186649 -4.721327370000002 2.6539900000000003 -0.410521 2.322151
14320 2.70443061 8.024511330000001 -0.97312257 3.656977 -0.147484 2.805247
14340 5.74490277 36.61520697 9.05990778 3.329847 -0.375898 3.199565
14360 -0.83990277 33.450785460000006 -2.31882894 2.115834 -0.803633 2.26228
14380 -8.38840347 8.17824384 5.44612941 1.735627 0.643127 0.7003020000000001
14400 -7.872574050000001 9.39191742 2.38768533 0.202909 0.461854 -0.05685800000000001
14420 -4.907844900000001 10.86485949 1.55242269 0.715463 -3.293736 -0.111491
14440 -7.65882396 9.346114530000001 8.637489180000001 1.333062 -5.78179 0.044494
14460 -6.80559921 13.684390830000002 5.980215240000001 1.382662 -1.619127 -0.421965
14480 -0.6694049700000001 15.730040700000002 9.397607220000001 0.119267 4.107316 -1.070516
14500 6.00910569 10.33615935 -3.5483751 -0.999351 1.042453 -1.416233
14520 5.03747424 5.61123171 -7.484882850000001 -1.876788 2.177593 -1.609687
14540 2.63691819 3.8767844700000005 1.05994107 -2.567918 0.7381989999999999 -0.959986
14560 -2.36717262 4.643043570000001 3.17968587 -3.606659 1.466619 -0.8015329999999999
14580 -5.70283749 10.20548034 -4.8120404400000005 -4.015097 1.157433 -0.916153
14600 -7.45539399 14.684010210000002 -2.53587519 -4.142452 1.70032 -1.2371370000000002
14620 13.13488368 -9.93169305 -0.99333117 -3.268112 -0.476294 -1.398087
14640 -5.37546798 13.84530426 -1.6217303400000003 -1.207387 -0.785116 -1.346978
14660 0.15043635 2.6072821800000003 -0.24399432 -0.47551 0.124579 -0.903992
14680 1.5200889300000002 1.81302534 2.6056341 0.609408 1.7604830000000002 -0.423152
14700 1.4861070900000002 2.0507314500000002 4.555626660000001 1.471328 0.117203 0.5826939999999999
14720 -1.46216088 7.42306023 5.85043875 1.550271 -1.257157 1.350922
14740 -7.52979303 9.965674889999999 5.25018447 2.170974 -2.633813 1.691375
14760 -9.62917227 6.278694300000001 5.107380300000001 2.936716 -2.952577 2.154331
14780 -3.24929763 6.59992275 1.17760221 3.5982190000000003 -1.406325 2.51162
14800 0.80802027 6.1355958300000015 -5.03343252 3.628918 -0.267566 2.756066
14820 3.66482961 17.92612692 -1.15754076 2.513071 0.5547479999999999 1.879822
14840 -4.6131034500000005 34.192048680000006 14.91498666 1.271012 -0.086644 0.31877300000000003
14860 -5.19914304 20.28956193 3.1596342300000004 0.140062 0.366343 -0.8914559999999999
14880 -6.88448142 18.501375510000003 5.6595852 0.104655 1.746109 -0.653122
14900 -2.86235199 15.0679638 6.55875999 1.024595 -2.569103 1.155583
14920 -2.3156799300000004 9.3762018 8.63045541 0.433601 -4.738949 1.105097
14940 -0.09325386000000001 8.33302602 4.495000860000001 0.602488 1.7370279999999998 0.385474
14960 1.77501159 6.93776934 -0.81730053 1.010598 2.812455 -2.236606
14980 -1.3178557800000001 1.1612881800000001 -6.996904020000001 -0.956295 1.510436 -1.269117
15000 2.9315026800000004 0.34832367 -4.13410077 -1.657944 0.25338 -1.185881
15020 1.9243982700000002 -2.95665552 2.51925705 -2.081826 0.262096 -0.8673190000000001
15040 -3.4986776400000004 1.1223621000000001 -0.44382402 -2.370295 0.452869 -0.107936
15060 -7.61541471 10.013125859999999 -4.94152263 -3.087688 1.060362 -0.356212
15080 -9.48337605 17.624351700000002 -4.712047110000001 -3.873281 1.73702 -0.791991
15100 -3.5592936300000004 15.312262230000002 -2.35221237 -3.726472 1.642329 -1.746903
15120 -1.58789565 7.1817636600000005 -0.29907747 -2.916629 0.204591 -2.011801
15140 1.22804523 5.513484870000001 1.90373841 -2.668219 -0.769042 -2.234213
15160 4.440967379999999 9.262288080000001 4.07946888 -1.844331 1.606219 -1.807417
15180 3.51843498 16.055016570000003 8.06223078 -0.95036 1.862035 -1.2887540000000002
15200 -1.3540841099999998 15.202988640000001 8.00549955 0.315291 0.052671 0.406991
15220 -5.745648330000001 9.71988534 9.19732626 1.110379 -1.7342220000000002 1.4211
15240 -7.97706036 5.403612870000001 15.11661159 2.347014 -2.745499 2.295225
15260 -0.55983708 0.17004654 3.2524368299999997 3.406633 -3.20575 2.986878
15280 8.77864527 -3.5938738800000003 -20.23941321 4.208804 -2.400492 3.113227
15300 4.20999093 1.1825366400000001 -3.65704047 4.581402 -2.3031040000000003 2.678802
15320 -8.395594200000001 25.62535827 17.6622183 4.4972699999999985 -0.125962 1.491834
15340 -11.3487966 42.996739500000004 2.4876786600000003 3.22245 1.755343 0.7263539999999999
15360 -8.979828750000001 14.42639961 0.61132977 1.990282 -0.298727 0.783405
15380 -2.21689323 11.081307330000001 6.04084104 0.419713 -2.121043 -0.077672
15400 -0.24189498000000004 13.265111430000001 7.92362529 -0.245529 -0.053278999999999986 0.216271
15420 0.00913311 11.74412979 6.671476889999999 1.287975 -1.7788529999999998 1.505719
15440 0.12738285000000002 9.0206874 5.73471999 2.077421 -2.861088 1.865133
15460 0.9710330400000001 9.4482072 2.68900929 0.652513 -1.111255 1.606178
15480 2.0871069300000005 7.603583850000001 -0.86489865 1.995288 3.0378700000000003 -0.323241
15500 1.63729881 5.14704213 -5.94353565 1.128802 -0.467004 0.722055
15520 0.8008393500000001 1.9758909600000003 -2.18784582 0.540502 1.075954 1.653868
15540 -2.09788812 -0.01691244 4.060309950000001 0.089176 -0.459683 0.591939
15560 -5.848937820000001 5.6717103600000005 -0.9886910400000001 -0.24392600000000006 -1.044081 0.77089
15580 -10.08677934 11.20839588 -2.32915887 -2.162822 -1.099111 -0.585198
15600 -7.3787582700000005 11.13369273 -0.24428862 -3.107326 -1.121787 -1.021191
15620 -3.64626909 7.345826100000001 -0.23440995 -3.2849190000000004 -0.8117939999999999 -0.600881
15640 -1.830546 5.51587851 1.1728149300000001 -3.630658 0.37182 -0.5909260000000001
15660 1.4694987600000002 6.102663659999999 2.01166803 -3.496781 0.615738 -0.6992619999999999
15680 1.52786826 12.211605720000001 4.611465180000001 -3.381878 -0.201811 -1.210159
15700 0.9369040500000001 15.74695314 5.932617120000001 -2.62883 -0.422415 -2.105127
15720 0.26344755000000003 13.39998912 1.02132891 -0.626657 -0.290444 -5.935841
15740 0.23201631 5.3771160600000005 3.32593335 -1.689096 0.734283 -6.861110000000001
15760 -0.9770171400000001 1.34959113 5.83980471 -1.305063 -4.5899519999999985 -4.802755
15780 -0.9860031 -0.12379239 3.3835671 0.213254 -6.259136 -2.684545
15800 4.5357221700000006 -4.80515382 2.9701246500000003 -0.6119479999999999 -4.290376 -2.268748
15820 8.16566742 4.61025855 -3.87649017 0.229782 -4.224593 -2.665673
15840 3.78712107 18.96960681 -11.715239340000002 1.140318 -2.642842 -2.610065
15860 -6.13065159 42.11881317 16.57443645 1.6602 -1.140306 -2.120181
15880 -5.91165315 15.364196370000002 -10.296938970000003 2.1108580000000003 -1.34985 -0.992996
15900 -8.23033494 13.86566982 2.24518527 2.471893 -1.59527 -0.139855
15920 -15.716571570000001 19.70951625 1.5296733000000002 2.960612 -1.176735 0.264674
15940 -6.926242590000001 8.22958938 4.05626823 2.959207 -0.922282 0.8347690000000001
15960 -6.49064916 10.790166150000001 10.76366934 2.384532 -2.193451 1.140032
15980 -6.574024350000001 12.3837516 15.584391629999999 1.967307 -4.031926 1.45353
16000 2.3454729000000003 12.891193470000001 10.641819329999999 0.22035700000000005 -8.314049 1.298332
16020 8.127643860000001 8.931024 -0.67270113 -1.876354 -5.790369 -0.88697
16040 6.68525013 4.51506231 -3.9251379600000003 -0.16305899999999998 -0.408418 -1.882823
16060 3.6884815200000003 6.7099419000000005 -6.136037280000001 0.658388 0.549621 -1.618735
16080 -1.8538938000000003 13.21616934 -6.30443574 0.385815 3.1536720000000003 -1.5118120000000002
16100 -11.802352140000002 30.15254574 -8.02406007 -1.332534 2.7893060000000003 -0.545925
16120 -22.59146862 21.969514619999998 -3.8112242400000005 -2.430909 -5.303552 1.458621
16140 -23.83987941 16.526828520000002 -7.4209707 -0.394272 -1.985872 -0.673189
16160 -16.54419222 27.204876180000003 -5.508099179999999 0.962499 -0.352156 -0.14771800000000002
16180 0.14699304000000002 26.574387480000002 -7.474258620000001 2.519113 -1.041125 0.832915
16200 10.499466420000001 15.99812838 0.32662395 1.925772 -2.338275 0.991735
16220 8.983115100000001 9.126370529999999 3.3849110700000002 0.4340350000000001 -1.2722129999999998 -0.041272
16240 7.42905414 4.89347325 2.90351475 1.853823 -1.531563 0.713529
16260 5.417533260000001 1.7863813800000001 0.44592336000000005 1.843546 -2.397691 0.471012
16280 4.31163234 0.32093415000000003 -0.6198644700000001 2.375671 -3.152858 0.248166
16300 4.10925204 0.88061427 -1.7923752900000003 2.931679 -2.6814400000000003 0.689416
16320 4.24397277 1.15065414 -0.9485779500000001 3.0075 -1.965571 1.154773
16340 4.52553939 1.95582951 -1.79821224 2.527174 -1.164435 1.292465
16360 2.84408577 0.8074218599999999 -0.6081807600000001 1.955257 -0.8262780000000001 1.405541
16380 -0.6661186200000001 5.335953300000001 3.5878897800000003 1.5099049999999998 -1.11055 1.220129
16400 -7.899070860000001 19.393075080000003 19.03636386 1.201179 -1.591526 0.8233469999999999
16420 -17.48020356 27.3851055 17.85232629 0.994519 -0.779295 0.613627
16440 -13.27454865 11.50238196 6.8993043300000005 1.009235 0.838785 0.619134
16460 -7.31918214 4.30534413 -1.01578626 0.911836 1.091255 0.703588
16480 2.14967511 15.267803310000001 -12.568758390000001 0.528061 0.586028 0.841492
16500 9.8564013 34.50190734 8.43241113 0.633606 0.918638 0.955034
16520 7.3187308799999995 22.113064350000002 1.99445148 0.599173 1.241885 0.8678540000000001
16540 -0.15732297 2.0550772800000003 -7.24597992 0.450588 0.463586 0.626395
16560 -2.6045844300000005 -2.16584199 -14.34556521 -0.497129 -1.657727 0.469738
16580 -5.12414559 -0.81056106 -15.91266366 -1.219214 -2.191583 0.601042
16600 -5.76721071 5.1970437 -2.64754242 -1.768765 -1.5281360000000002 0.333571
16620 -4.466257560000001 25.855579350000003 2.3900789700000002 -2.504958 0.17928 -0.569998
16640 0.17812998000000002 22.68188739 -2.46058344 -3.168739 0.457696 -1.6859419999999998
16660 1.66708197 9.80626239 -1.33177617 -2.858733 -0.8382139999999999 -2.884934
16680 3.7652742000000003 8.266710419999999 -0.27258066000000003 -2.428512 -3.146282 -3.3532610000000003
16700 3.4498728900000004 7.79713515 1.37474397 -2.663544 -4.054484 -3.003363
16720 3.3136610400000004 9.04688991 2.82208194 -2.605013 -4.109882 -2.787102
16740 3.53505312 9.95115609 2.88240363 -2.411157 -2.906193 -2.936841
16760 2.53602234 8.63538984 2.50040223 -1.832595 -2.055425 -3.3408830000000003
16780 1.12924872 7.53713091 1.8365301 -1.44461 -2.438105 -3.881407
16800 0.06122421 7.459288560000001 1.82411064 -2.154352 -3.551504 -3.752479
16820 -0.55489284 8.612493299999999 2.59365609 -2.86975 -4.603632 -3.49014
16840 -1.04766876 10.03663062 2.76460515 -2.27272 -4.103171 -2.888407
16860 -0.5387259600000001 12.352908959999999 4.0459383 -1.649015 -3.467102 -2.38921
16880 -1.1166821100000002 11.925398970000002 2.43752994 -0.772822 -2.835526 -2.050614
16900 -2.59186086 10.166259960000001 -3.2669556300000004 0.121836 -1.35715 -1.172454
16920 -2.5408194300000004 10.650805290000001 -4.30369605 0.925662 0.45647 -0.40218
16940 -3.12190497 9.51061842 4.26269025 1.7591150000000002 1.4689290000000002 0.094795
16960 -2.41642863 13.79576376 9.345212010000001 2.131562 0.7933640000000001 0.349294
16980 -4.09922622 14.823528029999999 2.5563879 2.143773 -0.101087 0.775678
17000 -8.05909158 15.962959530000001 -1.5566115600000001 2.20076 -1.278793 1.402495
17020 -5.04586179 17.9511228 -5.6080925100000005 2.103524 -2.291194 1.84963
17040 -1.67157495 17.123943599999997 -4.14653004 1.475016 -3.559647 1.789181
17060 1.38207204 16.09962264 -1.87799697 1.393043 -1.510435 1.422787
17080 2.68422201 13.345494570000001 -1.4831150400000002 1.735089 1.667143 0.895539
17100 3.63115188 11.1663306 -2.85621093 1.607864 2.461277 0.08178400000000001
17120 0.23636214000000003 10.28960109 -3.1172648400000003 1.320991 1.61687 -0.556866
17140 -2.05192827 12.77443485 -1.70914725 1.216809 0.142362 -0.691368
17160 -3.8880169200000005 16.31516796 -3.77455446 0.8503870000000001 0.132597 -0.595639
17180 -5.48549694 18.202150890000002 -7.47725067 0.084967 0.068001 -0.5613779999999999
17200 -5.38624917 16.490158740000002 -7.644756419999999 0.809191 -1.08076 0.23991
17220 -0.30027429 13.630210200000002 -7.506288270000001 0.75221 -5.697211 0.707967
17240 2.70443061 10.785967470000001 -4.645290060000001 1.214768 -5.652554 0.860692
17260 5.030587620000001 7.1299766700000005 -3.77470161 1.917627 1.32558 -0.424138
17280 5.95926108 1.29181023 -2.16689166 -0.03987 6.469998 -2.237949
17300 4.92326622 -2.8976778000000003 0.60563997 -1.5435290000000002 -1.427825 -1.501258
17320 4.45533903 -3.6625831200000003 1.69642368 -1.992873 -3.838577 -0.305967
17340 3.7809898200000003 -4.195923390000001 0.85576554 -1.707687 0.035154000000000005 0.414247
17360 1.36066662 -2.8108593 0.69036894 -1.683961 2.540407 0.7284649999999999
17380 -1.5138007199999999 0.14669874000000002 2.4117885 -2.1016220000000003 2.4387060000000003 1.214923
17400 -2.05433172 3.0383826300000005 3.0624858 -2.737759 1.333203 0.638261
17420 -1.4923952999999999 6.609507120000001 3.8694564000000002 -3.719608 2.043044 -0.73149
17440 -2.8783619100000006 12.11131809 6.783144120000001 -3.975427 1.119898 -1.952003
17460 -5.8246875000000005 17.58632814 7.36991946 -3.664712 0.784609 -2.821072
17480 -7.18475571 19.3248171 0.71072469 -2.727764 0.09647 -2.8414200000000003
17500 -3.46335183 13.26376746 -2.3733136800000008 -2.661602 0.99057 -2.184078
17520 -1.1731092300000001 6.32748924 -0.9098088300000001 -2.450091 1.565763 -2.619173
17540 -0.91818657 3.8799334800000005 1.0178856 -1.299582 0.156436 -1.495175
17560 -0.13785993 3.74102388 2.5176187800000003 -0.228843 -0.291344 0.062868
17580 0.11765133000000001 1.52353224 2.40938505 1.675182 -1.348027 0.525107
17600 2.8270163700000004 -2.43423378 -0.33215679000000004 2.923419 -1.460278 1.139652
17620 5.743558800000001 -0.13457358 -3.96555516 3.684342 -1.459095 2.047613
17640 -2.77972236 7.990980750000001 -11.688742529999999 4.136907 -0.724366 2.265613
17660 -15.52661073 21.933443250000003 7.230715560000001 4.737707 0.475137 2.010831
17680 -7.479045900000001 45.64547874 26.723627009999998 5.395593 2.221341 2.185173
17700 -4.094134830000001 32.62436163 -12.748242150000001 4.775732 1.237198 2.146853
17720 2.24473401 8.928336060000001 2.5152153299999997 2.808566 -2.178364 1.527534
17740 7.1081199900000005 2.5521892200000003 5.45795046 1.056188 -3.527667 0.284295
17760 4.91906754 1.15799202 8.553358620000001 0.533399 -1.973644 -0.539607
17780 1.9520919 7.42965255 3.6685672200000004 1.416272 -3.412784 0.28025300000000003
17800 -6.439009320000001 14.042298870000002 7.577989560000001 0.747616 -4.046484 0.292418
17820 -4.59229644 16.6238298 4.330644120000001 0.681559 -0.834764 0.63715
17840 -1.7438746500000002 11.22231627 -0.6749476200000001 1.1694790000000002 2.701184 -0.65759
17860 1.2919671900000003 7.3428340500000004 -5.3787641399999995 1.451307 3.241032 -1.106035
17880 -0.20357712 1.88907246 -4.13424792 0.450365 4.595285 -1.375408
17900 -2.01930021 0.31239945 2.6292860100000004 -1.498959 1.437331 -1.430911
17920 -4.32210942 -4.195472130000001 -0.2601612 -2.210312 -1.105691 -0.230871
17940 -4.38648264 8.67850479 0.25042968 -2.713928 -2.23055 -0.877085
17960 -8.711584109999999 7.59071313 1.1343401100000001 -3.598666 -1.360486 -1.374694
17980 -7.531284149999999 11.74277601 2.67688413 -3.878799 0.302725 -1.477059
18000 -1.96885719 9.29581866 2.3403815100000003 -3.842189 0.772596 -1.795735
18020 0.8169964200000002 8.586889200000002 1.67650938 -3.21307 -0.147448 -2.162971
18040 2.0448945000000003 8.084833020000001 2.64814083 -2.770369 0.585912 -2.126636
18060 2.3553515700000003 5.341643100000001 5.623955280000001 -1.900076 1.3536549999999998 -2.0019
18080 2.10432348 4.44350817 4.99017042 -1.18669 1.511066 -1.758905
18100 -0.50459697 11.1666249 -0.27513126000000004 -0.380073 0.580802 -0.791747
18120 -4.41566739 14.444067420000001 2.0558228400000003 0.294535 -1.2543 0.394634
18140 -9.845178660000002 8.907980310000001 11.604621779999999 1.850407 -2.465507 1.970931
18160 -10.55380401 7.437735990000001 12.40410735 2.726907 -1.76151 2.313709
18180 -1.07117352 3.82365351 -9.744439770000001 3.774812 -1.364002 2.430546
18200 4.974906060000001 1.4735404799999998 -9.40838841 4.183432 -0.97742 2.104961
18220 7.6261959 11.139235379999999 4.7642951700000005 3.44281 0.005856 1.941499
18240 7.069350870000001 28.30419459 10.002354480000001 2.413141 0.392019 1.6357780000000002
18260 1.7003182500000003 20.37638043 -5.49881892 1.817452 -0.041685 0.323601
18280 -10.34962848 16.55033328 6.391558350000001 0.858166 0.233643 -0.563667
18300 -17.77044222 16.217725230000003 -3.0650265900000004 0.470809 0.860693 -0.395193
18320 -16.268168250000002 9.119189610000001 10.2232953 0.68708 -2.879251 0.687878
18340 -2.516265 9.35479638 7.08012225 -0.022177 -4.850135 0.800817
18360 1.6640899200000001 10.149945930000001 4.84632639 0.699289 -1.377144 0.660401
18380 1.71828036 12.465929970000001 4.70591586 0.492673 2.476858 -1.513403
18400 2.9415285 10.17209691 -1.1795445900000001 -0.211632 4.313609 -2.021672
18420 2.6776296900000003 5.8525282800000005 -5.06561913 -0.785092 2.092671 -1.033659
18440 2.5765965 3.17295621 -4.176617310000001 -1.265003 0.546204 -0.96239
18460 -0.26764623000000004 1.4314752 4.233495690000001 -1.521232 0.816431 -0.652605
18480 -5.34942243 5.67814572 -0.11451213 -2.327926 0.149955 -0.5826100000000001
18500 -5.94893115 11.283236370000001 -3.0644281800000006 -3.144091 1.26407 -0.899523
18520 -5.29703703 11.5164495 -3.70914138 -3.276043 0.300709 -1.229291
18540 -2.8412408700000005 8.36790057 -1.12596237 -2.871108 -0.56998 -1.7562529999999998
18560 -2.3394888000000007 4.70965347 1.89505656 -2.265057 -1.8013 -2.049544
18580 -0.12379239 2.5098296400000004 2.0710970100000003 -2.231897 -0.032129000000000005 -1.483286
18600 0.34533162 3.79505736 3.9704895900000006 -1.517937 1.665932 -0.7743800000000001
18620 -0.6810788700000001 7.0480926 6.759197909999999 -0.9784 2.511416 -0.091237
18640 -2.4182238600000003 16.67098647 3.77874333 -0.977698 1.3349799999999998 0.001074
18660 -3.31066899 19.33170372 1.7178290999999999 1.743753 -1.770584 1.7065130000000002
18680 -5.81361201 10.837313009999999 8.33946138 2.598841 -2.3433740000000003 2.214216
18700 -3.9603166200000004 4.432285530000001 10.88296875 2.925431 -0.235887 2.636812
18720 3.09571227 -0.48483963 -0.80861868 3.5246150000000003 1.101172 2.88177
18740 6.23169459 -1.8616829400000001 -11.38876254 2.626602 1.652994 3.124755
18760 -0.73916388 5.48129826 6.13873503 2.002005 1.1419549999999998 1.996209
18780 -4.65247098 18.09257319 5.385503610000001 2.4616 1.092594 0.091638
18800 -6.35967585 39.36484206 5.34403674 2.47565 1.673482 -0.796701
18820 -9.708809850000002 21.3261552 0.08921214 0.705654 -6.011931 0.066044
18840 -3.68429265 7.2456856200000015 1.67441985 1.596348 -8.077509 0.89317
18860 -4.34935179 5.82648273 3.94025517 1.982816 -4.2596940000000005 0.8578629999999999
18880 -5.46797628 6.749162280000001 9.062899830000001 1.505163 4.2588040000000005 -0.196838
18900 -4.26807594 10.05892875 5.52051864 0.611051 3.2878550000000004 -1.164307
18920 -0.21780162 11.59833357 5.03613027 -0.085025 0.643962 -0.858133
18940 1.3201022700000002 9.2950731 0.60893613 -1.599948 0.772243 -0.98852
18960 2.33260218 6.57612369 -3.97019529 -2.406102 -0.019905000000000003 -0.926906
18980 3.4512266700000005 4.08096 -3.80732967 -3.273891 -0.401965 -0.269112
19000 2.3396359500000004 2.89124244 5.3293707900000005 -3.605089 0.456688 -0.258639
19020 -2.3192802 8.03065239 0.1414602 -4.011694 1.104769 -0.5368430000000001
19040 -6.26686344 11.089989180000002 -2.16569484 -3.776956 0.898983 -1.225011
19060 -3.65031081 13.01842917 -0.82763046 -3.287625 0.008048999999999999 -1.558009
19080 -5.24269944 11.29311504 2.9618940600000006 -2.505134 1.062176 -1.313545
19100 -3.62261718 5.55180273 2.1225897000000002 -1.474227 2.391151 -0.7536390000000001
19120 -3.6630343800000005 4.97026593 4.74004485 -1.336392 1.537293 -0.4642310000000001
19140 -1.49778099 6.46340679 5.56033743 -0.443012 -0.008454000000000001 -0.431441
19160 -3.7344315600000004 11.757147660000003 3.3151521600000002 -0.018657 -0.425752 -0.073292
19180 -6.22540638 10.82937672 3.25647855 3.099654 -2.488171 1.494713
19200 -7.89054597 7.85581857 8.10264798 3.939976 -2.851849 1.935815
19220 -6.94541133 2.0998305 7.84279089 4.653039 -2.021423 1.972847
19240 4.123770840000001 -2.95515459 -12.05398845 4.557847 -0.082664 2.065837
19260 6.4842138 -1.6268217299999999 -1.47039147 2.85054 -1.094165 1.820199
19280 -5.428461600000001 11.201058 -0.98524773 1.039806 -2.058895 0.891185
19300 -1.14212925 40.92983136 6.60412143 0.510265 0.264909 0.4422640000000001
19320 -1.33073631 32.15912238000001 6.0514652700000005 1.7138970000000002 -3.184129 1.713457
19340 0.30252078000000004 9.623933730000001 1.9579288500000003 1.994241 -5.213417 0.923258
19360 -8.129743200000002 7.55209116 5.52022434 2.0335330000000003 0.7877770000000001 1.03121
19380 -6.77940651 10.277475930000001 11.404487970000002 1.31138 3.814313 -0.493519
19400 0.33574725 10.28795301 6.436468530000001 -0.246295 -0.199862 -0.95325
19420 2.8134000900000005 8.18797536 2.7530784 -0.487949 -2.237443 -0.018701
19440 2.89347912 7.000945740000001 1.6742727000000002 -0.647109 -0.935648 0.378034
19460 1.8857763000000003 6.88567824 -1.4284831500000004 -1.181514 -0.6706770000000001 0.379303
19480 0.11884815000000001 6.299501310000001 -5.357957129999999 -1.71327 -1.160799 -0.732598
19500 -1.10140794 4.28319315 -0.10733121 -2.67201 -0.260273 -1.590753
19520 -3.3685970400000005 5.176383840000001 2.71070901 -3.080045 -0.35477800000000004 -1.579595
19540 -8.552161799999999 11.04179265 -3.12355305 -2.3885240000000003 -0.79935 -1.824159
19560 -12.060119700000001 14.81169717 -3.2879097900000005 -1.820705 -2.675362 -2.5666130000000003
19580 -6.1370869500000005 14.40918306 -4.942866600000001 -1.5625870000000002 -2.734893 -3.087094
19600 -2.3376935700000003 10.23631317 2.21419548 -0.908899 0.159583 -3.683373000000001
19620 0.98510058 5.3989727400000005 3.3424043400000003 -0.14745 -1.895507 -3.767288
19640 -0.9286734600000001 2.9759616 4.30534413 -0.451139 -1.599568 -2.12259
19660 -0.27138384000000004 1.76093424 4.71804102 -0.57162 -1.377003 -1.200773
19680 -1.6774119 1.64103642 5.94534069 0.543375 -1.874672 -0.52364
19700 -6.1153872300000005 2.1683925900000003 8.65410732 1.565022 -1.508098 0.42413
19720 -10.2554721 1.83877659 11.524385790000002 2.452654 -0.6964560000000001 1.0104030000000002
19740 1.4976338400000002 2.9410870500000006 11.59878483 3.364106 0.395519 1.800513
19760 12.064014270000001 3.8627169300000004 -18.42907581 4.076125 1.715418 3.040796
19780 6.384524580000001 14.973513120000002 -9.73365858 3.138523 0.432721 3.61273
19800 -7.81779501 42.463850490000006 20.39164479 1.630942 -1.073816 2.58291
19820 -10.383757470000003 25.94868606 -1.0096550100000001 0.509351 -1.877415 -0.07522100000000001
19840 -21.12930774 17.09774109 -1.7404313400000002 -0.294182 -3.053874 -1.941237
19860 -12.6965925 10.68522858 1.71587691 -1.544314 0.336741 -2.415786
19880 -4.2888829500000005 5.89474071 5.1506424 0.617839 2.372014 -0.978283
19900 -3.35003652 7.29223407 9.04778262 0.523526 -3.1209860000000003 0.276848
19920 -1.34270451 13.054500540000001 5.73696648 0.519511 -12.905395 1.839348
19940 0.52556094 10.578348629999999 5.37053355 2.797615 4.023447 1.859205
19960 3.5518184100000005 6.7976629200000005 -3.7441630800000003 0.198865 4.782743 0.180063
19980 3.31994925 3.91975227 -7.9156889999999995 0.6757479999999999 -0.417025 1.402489
20000 -1.0071044100000002 2.88075555 -4.1573014200000005 0.7169270000000001 -0.5872029999999999 1.566432
20020 -5.996382120000001 5.313802320000001 5.33086191 1.313831 0.23822 1.090981
20040 -11.924947710000001 14.605579259999999 -0.56163231 1.331633 0.523786 0.259662
20060 -12.04201044 24.44806017 -1.3605194699999998 0.105453 0.273956 -0.402334
20080 -1.18238949 21.27825297 -1.36156914 -1.532797 0.098652 -0.6966319999999999
20100 4.36582278 10.934010180000001 0.9066598200000001 -2.207129 -0.764183 -0.122328
20120 3.73009554 6.1989095700000005 1.91751165 -2.853365 0.049995 0.626279
20140 2.04295212 4.03291062 2.3322980700000002 -2.684429 0.101834 0.8356959999999999
20160 2.4971060700000005 2.01256074 2.78061507 -2.423405 -0.068205 0.508725
20180 3.2335722000000002 0.46163898000000003 1.8820386900000001 -2.289729 -0.13662 -0.345899
20200 2.5857198000000006 4.50652761 -0.23620518 -1.856665 -0.648985 -1.792863
20220 -0.53708769 13.31975313 3.42862443 -1.4755049999999998 -0.363398 -3.476221
20240 -5.433405840000001 16.24991184 10.321042140000001 -0.953347 -2.036842 -5.018283
20260 -15.81820317 12.53358954 3.20273937 -0.935612 -2.241899 -2.508643
20280 -17.6101272 1.85434506 8.11881486 -0.643081 -2.104803 -2.414908
20300 -9.41212602 -1.97020116 -2.17961523 -0.017909 -2.227951 -2.530024
20320 9.198670230000001 -1.25349237 -20.391497640000004 0.224289 -2.967862 -2.321218
20340 22.47456285 -0.19145196 -3.3585614100000005 0.601479 -2.948388 -2.190421
20360 15.52856292 15.759676709999999 0.43649595 1.201248 -3.098635 -1.900824
20380 10.24080615 48.293619570000004 17.68318227 1.921993 -2.396319 -1.801618
20400 -8.51654169 39.004687530000005 -8.85843 2.383578 -2.400272 -1.480058
20420 -9.873313740000002 14.76888633 -7.26709104 2.399764 -2.606625 -0.773586
20440 -8.21701296 11.596538340000002 -1.94745177 2.57536 -2.047418 -0.111847
20460 -12.00324132 8.342904690000001 3.60420381 2.78369 -1.565129 0.30987
20480 -10.67744925 17.68842081 5.72304609 2.533245 -1.457588 1.071761
20500 -1.5606532800000001 18.71273196 9.42051357 1.504238 -2.5179080000000003 1.789119
20520 -0.23216346000000002 11.69308836 13.60655829 -0.81175 -7.588736999999999 1.163075
20540 3.8261943 11.06678853 10.18436922 -1.391748 -5.041412 -1.8555580000000005
20560 2.9274609600000003 5.229230310000001 0.9261228600000001 -0.627797 -0.634648 -2.446595
20580 2.15596332 -0.604296 -1.1231174700000002 1.305393 0.888267 -1.618922
20600 0.34233957000000004 -1.4867055 -1.7757571500000002 1.784215 2.553986 -0.610379
20620 -2.59545132 3.0708635400000004 -1.7298071099999999 1.4049049999999998 3.18811 -0.087207
20640 -7.454344320000001 9.84008727 -0.22857300000000003 -0.713938 -2.221089 1.147266
20660 -12.378356100000001 23.54917968 -2.44950795 0.826666 -7.35142 2.19864
20680 -18.926639010000002 29.36353725 -3.90882393 0.380175 -2.435753 0.335857
20700 -14.412930480000002 12.708874620000001 -5.1245968500000005 0.426201 -2.359496 0.140597
20720 -2.86549119 12.95570403 -6.83958105 2.342356 -0.7678510000000001 0.313243
20740 1.4461411500000003 14.328652770000001 -2.70218412 2.564495 0.129922 0.450376
20760 2.97536319 14.403797370000001 0.6529437900000001 1.613796 0.402628 0.7424890000000001
20780 0.63632565 10.81021779 0.69859953 0.898539 0.02001 1.407758
20800 -1.05740028 8.70978888 1.21397769 1.078284 -0.621742 1.366039
20820 0.54307179 7.078778280000001 0.4716648 1.300435 -0.558858 0.8996290000000001
20840 2.1468400200000004 5.449121460000001 -1.4747373 1.163074 -0.99718 0.8757299999999999
20860 3.2992893899999998 4.147726860000001 -2.17482795 0.845132 -1.283507 0.826874
20880 4.31897022 3.0416787900000006 -1.6128915300000002 0.34381 -1.365591 0.477374
20900 3.5823471300000005 2.83105809 -1.18882485 0.195281 -1.228631 0.188809
20920 1.76632974 4.50293715 0.7156591200000001 0.592971 -1.394699 0.081773
20940 -0.33095997000000005 9.03400938 3.2829753600000005 0.803459 -1.275258 0.133297
20960 -3.55735125 16.50572721 11.56973742 0.751602 -0.8207030000000001 0.257334
20980 -9.21677949 24.60703122 17.98674291 0.517702 -0.155193 0.265529
21000 -9.45194481 10.93536396 11.03894775 0.425803 0.083503 0.060551
21020 -7.730819550000001 0.053886329999999996 4.80126906 0.185613 -0.900071 -0.182352
21040 -4.5574218900000005 -2.4340866300000004 -20.63009646 -0.683808 -1.140999 -0.449831
21060 3.4185888 2.5427618100000005 -16.44825042 -1.325168 -0.927041 -0.918193
21080 5.75178939 15.18651765 -8.39064996 -2.479459 -1.548734 -1.089966
21100 4.904097480000001 33.636106170000005 16.999395840000002 -3.242896 -2.246781 -1.420212
21120 0.35521029 16.73160246 0.9824028300000001 -3.302233 -2.176402 -1.918508
21140 0.1707921 3.92139054 -6.170019120000001 -3.11544 -1.465584 -2.415905
21160 2.109709170000001 3.01503483 -3.6702153 -2.892314 -0.424759 -2.35586
21180 2.6222424300000005 5.55135147 -1.9902626100000003 -2.1672860000000003 1.559765 -2.164263
21200 2.6798761800000004 9.28907919 -0.23591088000000002 -1.361305 1.829746 -2.712319
21220 -2.50249176 14.069089980000001 -0.46358136 -1.7288119999999998 -0.007706 -3.495538
21240 -5.34149595 13.846059630000001 2.5646184900000004 -2.333757 -1.489203 -3.3130620000000004
21260 -3.9035853900000004 11.32245675 3.4341572700000005 -1.493673 -1.421372 -2.623619
21280 -2.3620910400000006 8.78822964 2.12692572 -0.616978 -1.359625 -1.776884
21300 -1.91930688 7.05797127 1.3186111500000002 -0.718326 -1.531884 -1.235783
21320 -2.5047382500000004 6.25459113 1.06218756 -2.622031 -4.471034 -1.9685
21340 -2.8599485400000004 6.37464591 -0.7062317100000001 -0.935508 -3.391688 -0.823651
21360 -1.89026928 8.41804929 -3.10185333 0.138681 -1.349546 -0.159672
21380 -0.61432182 9.9864819 -2.50294302 1.226067 0.210363 0.408878
21400 -0.44592336000000005 10.988200620000002 -0.08277678 2.100525 1.384473 1.203966
21420 -1.7163281700000002 12.63926286 1.63206027 2.86552 2.4565360000000003 2.039012
21440 -2.5372191600000003 13.042228230000001 3.5072025300000003 3.180555 1.527879 2.232546
21460 -3.04362117 9.67004073 3.71527263 2.822019 -0.042466 2.574953
21480 -3.44403594 9.48667221 6.116427090000001 1.79699 -0.29120100000000004 2.263669
21500 -3.92169465 11.991861720000001 5.38534665 0.670759 0.908793 0.987353
21520 -2.22093495 16.642390320000004 4.1501205 1.183718 0.882199 0.533771
21540 -3.0828415500000004 19.371669660000002 5.47397019 2.114177 -0.786036 0.263602
21560 -1.66199058 14.28270273 2.18396106 1.917885 -2.284103 -0.292393
21580 1.9984932000000002 11.6288721 -4.20594921 0.599897 -1.378448 -0.257894
21600 2.05596999 12.21729552 -6.69467754 0.7538239999999999 -1.870372 0.614412
21620 0.7357205700000001 14.39286903 -4.58975565 1.349405 -7.074144 0.340025
21640 -3.94833861 16.73160246 -0.10478061 1.825066 -4.527774 -0.16197899999999998
21660 -7.4721592800000005 17.548755840000002 -0.01856052 1.145634 6.168453 -1.384318
21680 -3.4172448300000005 12.773090880000002 -1.20858219 -0.7416020000000001 1.870654 -0.961499
21700 1.0844955 8.70544305 -1.33103061 -0.563654 -0.165138 -0.570951
21720 -0.75518361 8.525821950000001 0.9666872100000001 -0.400742 -0.472295 -0.090856
21740 0.08906499000000001 4.79362707 0.50235048 -0.056384 -0.49047 0.425387
21760 1.87111035 3.87948222 -3.3410505600000007 -0.131376 -0.502157 0.482562
21780 3.7242585900000003 0.86639958 1.01578626 -0.823993 -0.003196 -0.882762
21800 0.0577809 -0.23081949000000002 0.74409831 -2.271772 0.462595 -2.08988
21820 -0.8782206300000001 -0.48723327000000005 2.6758344600000004 -3.314413 -1.917137 -2.274643
21840 0.5980077900000002 -2.65997169 3.2545361700000006 -4.0846230000000014 0.187431 -2.567935
21860 4.69049454 -2.50818156 3.0701179800000005 -3.523468 0.339303 -2.406113
21880 6.51654756 0.12948219000000002 2.90904759 -2.731318 0.061589 -1.842612
21900 3.66602643 4.145774670000001 0.33530580000000004 -2.108805 0.4259350000000001 -1.588767
21920 -3.59642448 11.53187082 4.13904501 -1.218062 0.785608 -1.198446
21940 -11.932138440000001 25.61458689 6.808140000000001 0.066365 0.7305590000000001 -0.268596
21960 -13.50626085 20.738918790000003 3.9493882800000004 0.926102 -0.15881900000000002 0.551466
21980 -7.00498746 5.2337134800000005 0.52870014 1.336317 -0.331326 0.977568
22000 -3.00335112 -0.76775022 -0.15074046 1.832855 -0.732225 1.434476
22020 -3.2452559100000005 -2.00568393 -2.0480435100000003 2.501075 -0.4223 1.671619
22040 -1.77905331 -0.7878116700000001 -7.670949120000001 3.84564 0.103678 1.904663
22060 3.83413059 1.2901719600000003 -7.76420298 4.542561 0.032727 2.259999
22080 6.55007814 10.15547877 8.641825200000001 3.380872 -1.792353 2.533029
22100 -1.73908737 35.09975817 -5.42920716 2.343337 -3.588239 1.793147
22120 -14.628328650000002 46.369378260000005 26.500439700000005 0.954971 -1.593965 0.049305
22140 -6.2758494 14.262788430000002 -8.49738276 -0.176043 0.601759 -0.349173
22160 -0.3065625 6.68869344 -2.74260132 1.6575220000000002 -1.328769 -0.278344
22180 -1.5025780800000001 2.2986203400000003 -2.3138847 1.6778810000000002 -4.934101999999998 0.611974
22200 -1.7130418200000002 -1.91332278 3.85717428 0.369178 2.271716 0.607486
22220 -6.48901089 7.629629400000001 5.97347577 2.470987 5.193825 -1.226397
22240 -9.19612944 20.15364438 6.77101896 -0.656992 1.291016 -2.332831
22260 -5.20857045 20.347333020000004 5.03941662 -2.30493 4.284204 -3.241211
22280 2.4587882100000003 9.40853556 3.56737707 -1.022895 -5.000701 0.161633
22300 7.52065992 7.45359876 -2.21958117 -0.748456 -3.676784 0.245175
22320 6.827897340000001 5.5083934800000005 -4.74124167 -2.21897 -1.27564 -0.613137
22340 1.40751918 1.60376823 1.9835231400000002 -2.228753 0.221606 -0.73797
22360 -6.57746766 0.7481400300000001 4.3007040000000005 -3.246838 1.457647 -2.064851
22380 -9.13639635 4.4336295 -1.32848982 -3.440053 1.691315 -2.522631
22400 -6.54543801 10.925181180000003 -2.92252653 -3.025086 0.786288 -2.464093
22420 0.393381 16.705262610000002 -1.2900150000000001 -2.536139 -0.8439620000000001 -2.260968
22440 3.1060422 12.32896275 -2.02080114 -1.7765509999999998 0.01055 -1.628643
22460 0.49547367000000003 6.665041530000001 0.4128440400000001 -1.273205 0.7607430000000001 -1.0599299999999998
22480 -1.3019930100000001 2.7837640800000005 2.79079785 -0.4142810000000001 0.272654 0.106784
22500 -1.5423968700000001 -0.56373165 4.00716918 0.677387 -0.465435 0.987024
22520 -3.5916273900000006 -0.46163898000000003 6.7458759299999995 1.544968 -1.310052 1.529346
22540 -9.1362492 9.69070059 6.743629439999999 2.269762 -1.218647 2.018196
22560 -10.591974720000001 18.32369679 6.46325964 3.208286 -0.6483140000000001 2.433149
22580 -9.22187088 4.69199547 8.403520680000002 3.92082 0.067162 2.711743
22600 -4.679114940000001 3.65689332 -1.13239773 4.056352 0.571653 2.972689
22620 7.5485007 6.61878738 -10.3713282 3.090242 0.739793 2.788401
22640 14.394664259999999 16.15860036 0.0811287 1.4083709999999998 -0.6477609999999999 1.725164
22660 4.7322557100000004 16.958233080000003 0.44757144 1.667327 -0.536161 0.234524
22680 -12.28660317 31.61260728 9.34671294 1.079999 1.072788 -0.416847
22700 -21.39291225 18.65824722 -5.6567403 0.210091 -0.515175 -0.020305
22720 -21.55157919 10.531496070000001 12.446015670000001 1.149273 -3.083411 0.194645
22740 -3.28926357 7.0452477 3.3382056600000003 0.357581 -2.462695 -0.36502
22760 3.9175057800000004 4.91473152 -4.32165816 0.036942 1.212323 -0.83985
22780 2.02648113 6.741981360000001 7.389686610000001 -0.418399 2.575776 -0.952668
22800 0.5334874200000002 9.214238700000001 7.35570477 -0.27043 0.7576069999999999 -0.08084
22820 -0.9306158400000001 12.70273356 3.1202568900000003 -0.671748 0.999699 0.198057
22840 1.02910824 11.745326610000001 -1.1731092300000001 -1.063207 0.50788 -0.079648
22860 2.79633069 8.98492014 -4.10910489 -1.603838 -0.371685 -1.02981
22880 1.12371588 7.156463670000001 -1.72875744 -2.762751 -0.194443 -1.989918
22900 -4.48302285 7.603740810000001 2.4120828 -3.588414 -0.195832 -2.258466
22920 -8.67071565 9.67453371 -0.09325386000000001 -3.495902 0.296831 -1.932644
22940 -8.62565832 11.47483548 -1.6108020000000003 -3.126878 0.08218099999999999 -2.119935
22960 -2.28350313 12.18915063 -1.31112612 -2.484633 -0.005902 -1.961512
22980 0.75906837 9.385334910000001 -0.46986957000000007 -1.438299 1.620429 -1.451018
23000 0.11061756 7.30930347 0.0025407900000000002 -0.673601 2.073881 -0.694229
23020 0.21435831 5.38759314 1.4293758600000002 0.089607 0.671293 0.678087
23040 0.76760307 3.8941481700000002 2.94587433 0.7260489999999999 -0.622894 1.160618
23060 -0.22992678000000003 4.490507879999999 3.62546208 1.3830209999999998 -1.534226 1.253969
23080 -3.10169637 6.3301869900000005 5.104682550000001 2.171427 -2.222911 1.764559
23100 -6.517450080000001 6.4297290600000006 6.952592250000001 2.976707 -2.2797970000000003 2.238138
23120 -9.7869465 5.94967671 6.724911960000001 4.0445129999999985 -1.629108 2.692348
23140 -10.622954700000001 4.88913723 6.322554810000001 4.527202 -0.735001 3.253254
23160 -4.30265619 5.998324500000001 -3.0144266100000006 3.3311910000000005 0.387831 2.950768
23180 0.61611705 8.90109369 -4.358789010000001 2.209141 0.853519 0.955441
23200 3.8167668900000002 25.13154249 7.70103639 1.750102 0.292098 -0.504101
23220 -3.76781499 26.67916809 -3.1984033500000004 -0.669375 1.975671 -1.977009
23240 -6.35862618 16.54763553 5.625603360000001 -0.044155 0.245502 -0.615919
23260 -5.17279338 10.12854051 0.008681849999999998 1.031089 -5.4848690000000015 0.112507
23280 -4.8277560600000005 10.63672794 1.43611533 0.79502 -2.15077 0.902411
23300 -7.79548707 10.64466423 4.758154110000001 0.913218 5.246146 -0.440451
23320 -7.968682620000001 10.104290190000002 5.69640213 -0.50739 0.34092100000000003 -1.431126
23340 -5.350619250000001 12.120598350000002 5.7031416 -1.730836 -0.260199 -1.62584
23360 -1.3763920500000002 11.177710200000002 4.96263375 -1.556644 -0.130886 -1.082132
23380 3.8965516200000003 8.80738857 -0.5550498 -1.880313 -0.594513 -0.744104
23400 6.2662650300000005 5.955062399999999 -5.429658419999999 -2.272728 -1.154977 -0.6382369999999999
23420 4.3701588000000005 2.62539144 -3.3120129600000006 -2.9869630000000003 -0.360797 -0.689109
23440 -0.9053158500000001 0.40715424 4.78749582 -3.441274 1.837084 -1.148025
23460 -5.062018860000001 4.583614590000001 0.03128409 -3.3706690000000004 2.59296 -1.623859
23480 -8.41699962 12.232863990000002 -3.4387974000000003 -3.202761 1.378217 -2.219334
23500 -9.1852011 17.305516890000003 -2.5188156 -2.607039 0.8356100000000001 -2.373642
23520 -3.28207284 11.94680439 -2.58437583 -1.591805 0.9623 -1.903105
23540 -0.7849667699999999 7.503296220000001 -1.7702145 -0.8062090000000001 0.6793859999999999 -0.833306
23560 -0.33755229 5.007534120000001 0.29278926000000005 0.137793 -1.5632700000000002 0.540281
23580 1.12101813 2.98344663 2.63586852 0.84606 -2.196396 1.611057
23600 0.01152675 2.54800035 6.286179330000001 1.519873 -2.1905490000000003 1.96186
23620 -3.41918721 9.50253498 5.84714259 2.533527 -1.549943 2.58662
23640 -6.364168830000001 14.85914814 4.41177282 3.269846 -0.393002 3.000478
23660 -7.838749170000001 9.484572870000001 4.708162350000001 3.856224 0.10294 2.877888
23680 -8.29874007 3.65509809 5.91599898 3.5398160000000005 -0.169291 2.500013
23700 -3.4178432400000003 3.51169551 8.16611868 3.095065 1.113308 2.085066
23720 9.88079877 4.47314418 -8.08858044 1.980361 0.410507 0.8518610000000001
23740 7.735459680000001 14.570400600000001 -9.78620094 1.815896 -0.360417 0.112491
23760 1.3515433200000002 25.96680513 6.8892785100000005 -0.047347 -0.559236 -0.233555
23780 -11.19132648 34.3116522 10.958711760000002 -0.441835 -0.7904 0.905915
23800 -15.291455220000001 14.175822779999999 -6.480623340000001 2.397176 -1.85836 1.5125
23820 -13.448185650000001 8.694367560000002 6.50666889 0.684036 -0.8564200000000001 1.254627
23840 -1.2892694400000002 8.809330950000001 1.15050699 0.27581999999999995 4.893896 0.022361
23860 2.1026754000000003 8.43645285 4.00057686 0.657217 -0.050641000000000005 0.904098
23880 2.1266314200000007 8.97608133 5.629193820000001 -0.058420000000000014 -1.243877 1.555449
23900 2.29727637 8.84719755 5.18477139 -0.602302 -0.531999 -0.170168
23920 3.31096329 7.199127360000001 0.9572598 -1.024307 1.454382 0.284743
23940 3.65390127 5.198387670000001 -4.906196820000001 -0.47092 0.190226 0.5220319999999999
23960 1.1653299000000001 4.20056352 -4.86084519 -0.241396 -1.496676 0.465976
23980 -4.65831774 3.9754338300000005 0.26569404 -0.788111 -2.040442 0.259892
24000 -10.342143450000002 4.57074387 0.32617269000000004 -1.89493 -2.3184970000000003 -0.6394479999999999
24020 -11.11513221 8.90917713 -0.31973733000000004 -2.488042 -2.107677 -1.164085
24040 -9.91912644 11.15659908 1.04063499 -2.583457 -1.232132 -1.851672
24060 -5.10707619 11.67018201 -1.05021936 -2.070673 -1.4637639999999998 -2.710917
24080 -1.0972190700000002 9.66734298 -1.6833960000000001 -1.466278 -3.024297 -2.72606
24100 1.30064904 9.023983560000001 -1.69986699 -0.8247899999999999 -3.52717 -3.531715
24120 2.85082524 9.76164651 -0.53693073 -0.084618 -3.491685 -5.585054
24140 2.13935499 12.790748879999999 1.7807013900000002 -0.154794 -3.527711 -4.242743
24160 -1.3600682099999999 13.485905100000002 5.76226647 0.151066 -3.49765 -2.7034740000000004
24180 -4.9193716499999995 11.40463512 7.11425124 0.04355 -4.386592 -2.2191810000000003
24200 -6.07721652 3.72096243 8.01463266 0.104777 -3.886919 -2.286692
24220 -4.49095914 -0.30027429 1.95254316 0.700757 -2.63876 -1.652809
24240 -3.51872928 -2.66356215 5.3630485199999995 1.134318 -1.955667 -1.292801
24260 7.434586980000001 1.1021535 9.15107211 1.608042 -1.092789 -0.906038
24280 7.46318313 9.96897105 -12.94089093 2.127118 -1.067342 -0.5274989999999999
24300 2.7390010500000006 20.963754180000002 -5.93994519 2.404852 -2.191901 -0.06264600000000001
24320 -6.9123222 33.7048056 22.03253406 2.430325 -2.274539 0.599935
24340 -4.720581810000001 11.691587430000002 -12.399015960000002 2.475132 -0.6571020000000001 1.272223
24360 -13.67211852 17.58767211 4.79766879 2.249893 -1.009419 1.6610029999999998
24380 -18.24286239 11.328293700000001 -0.42017211000000004 1.240505 -3.111015 1.954679
24400 -11.22665229 2.4822831600000006 3.0211660800000004 -0.42659 -5.306377 2.024896
24420 -4.13335521 5.038072649999999 -1.8347348700000001 -2.356768 -4.079625 -1.247167
24440 -2.447114310000001 5.25018447 1.2445162200000002 0.970179 0.913101 -2.74186
24460 -5.76451296 9.600281820000001 5.80687254 0.739574 -0.342547 -1.822123
24480 -8.765176140000001 12.977266410000002 9.09658737 0.835001 1.942918 -2.016665
24500 -2.00463426 13.06483047 3.07206036 0.96972 3.87447 -0.8549049999999999
24520 2.6090774100000003 12.08257479 -5.342241510000001 -1.649212 -3.422875 1.995783
24540 0.06107706 11.710452060000001 -5.49581706 -0.050634 -2.074494 0.410365
24560 -4.35114702 15.86715507 -6.0674850000000005 1.556918 -2.914031 0.107545
24580 -9.60642288 21.177661230000002 -2.47435668 1.6130870000000002 -2.856206 0.249936
24600 -21.600982350000002 25.74376497 -6.5411019900000005 2.074148 -2.9655560000000003 0.821591
24620 -21.575083950000003 25.087083570000004 -5.57440497 1.884563 -0.49027 1.089491
24640 -5.7052311300000005 25.31295882 -4.60846332 0.323415 -1.067271 1.282288
24660 7.64325549 16.65272025 -3.15169794 0.779391 -2.4727080000000004 0.972149
24680 9.06949215 10.20966921 1.43012142 1.0774780000000002 -1.2836809999999998 0.403345
24700 5.34298707 7.21918881 2.9047115700000004 1.257371 -0.183896 0.408533
24720 3.1183145100000003 5.41408995 0.47331288 1.407657 0.17184000000000002 0.560815
24740 2.34052866 4.57837605 -0.40864536 1.449251 0.010628 0.879642
24760 1.5566115600000001 3.5714187900000005 -1.4009366699999999 1.019636 0.252211 1.044043
24780 0.49502241 2.84408577 -2.8051695 0.438117 0.502339 1.068502
24800 0.9225324 1.1723636700000002 -2.53453122 0.445386 0.223201 1.071047
24820 3.8091249000000005 -0.50160492 -1.48700961 0.674795 -0.372575 0.944158
24840 4.4776371600000004 1.0698295500000001 -1.8541979100000001 0.823039 -0.434786 0.6557850000000001
24860 0.7279314299999999 3.4347556800000003 1.0062117 0.5854590000000001 -0.583262 0.429989
24880 -1.4198013 9.18924282 7.25676111 0.437137 -0.859691 0.156911
24900 -16.31920968 26.91253818 32.29773768 0.5345979999999999 -1.113166 0.057504
24920 -22.404813750000002 19.645594290000002 9.18819315 0.773491 -0.794823 0.160245
24940 -10.89150345 9.17606799 -1.3403108700000002 0.861361 0.47374 0.395311
24960 -0.27527841000000003 4.6328706 -1.81811673 0.635396 1.537406 0.4607350000000001
24980 3.56498343 8.05100814 -11.99470662 0.278966 1.518514 0.69862
25000 11.218274550000002 20.228033610000004 7.569906120000001 0.365315 0.687824 0.833815
25020 3.2474925900000002 28.06214265 7.263794880000001 0.389938 0.0016710000000000002 0.841276
25040 -11.11828122 11.6379954 -8.54288154 -0.003508 -0.638442 0.620362
25060 -6.6641390099999995 5.334609330000001 -6.14771118 -0.56842 -1.089999 0.281573
25080 -3.5848977300000002 4.4453034 -8.805740490000002 -1.217236 -1.622623 -0.22434
25100 0.21300453 6.98851647 -8.02960272 -1.954301 -2.024277 -0.905159
25120 5.1937475399999995 10.57970241 -1.8187151400000001 -2.861057 -2.427404 -1.3371959999999998
25140 6.34231215 13.847256450000001 2.70218412 -3.278289 -2.629628 -1.28644
25160 -0.74021355 11.94979644 2.95814664 -3.112247 -2.949074 -1.996307
25180 -1.13584104 9.27171549 3.6536069700000002 -2.5850720000000003 -1.905183 -2.167014
25200 0.30895614000000005 7.8143517000000005 2.73167298 -1.989217 -1.336176 -2.188151
25220 0.69455781 7.621850070000001 1.3611178800000001 -1.287356 -0.322009 -2.80198
25240 0.9108585 8.18078463 1.1612881800000001 -0.814667 0.028109 -3.653704
25260 0.91954035 8.85064086 -1.21517451 -0.912529 -0.291823 -4.2799559999999985
25280 -0.5379804 9.18115938 -1.56649023 -0.506938 -0.930304 -4.003908
25300 -2.7041265 9.341474400000001 -1.01040057 -0.229341 -2.472911 -3.690208
25320 -4.06913895 10.142608050000002 -0.23770611 -0.291848 -3.4276120000000003 -3.316612
25340 -3.50032572 8.999134830000001 -0.31030011 -0.08089600000000001 -3.530244 -2.875968
25360 -2.6378109000000003 7.1934375600000005 -0.7774817399999999 0.027461000000000003 -3.381325 -2.382951
25380 -1.07012385 6.92743941 -0.11720988 0.4571770000000001 -3.305361 -1.773297
25400 0.13352391000000002 9.179658450000002 0.59740938 0.8566159999999999 -3.304031 -1.387017
25420 0.00538569 10.777736879999999 -0.80651934 0.917421 -3.736812000000001 -1.104027
25440 -0.02994012 9.39985371 -1.6486686 1.087855 -1.474224 -0.439165
25460 0.20656917 8.94300201 0.20073222000000002 1.405483 -0.5898800000000001 0.04262
25480 -0.79903431 11.161690470000002 2.4706092600000003 1.510784 -0.385649 0.559045
25500 -3.08643201 13.374836279999998 1.0927260900000004 1.513364 -0.535704 0.785718
25520 -5.02685001 13.41106461 -0.0170694 1.402716 -1.375876 1.064828
25540 -6.6376422 12.50035326 1.6066131300000002 1.403336 -2.30411 1.424944
25560 -7.77348324 12.20067738 4.1137450200000005 1.6609029999999998 -2.458124 1.887344
25580 -8.9711469 12.669350130000002 4.65306939 1.6228790000000002 -0.626794 2.688035
25600 -10.253078460000001 15.541580790000001 3.48325632 1.087157 1.450015 1.941354
25620 -5.069808000000001 15.757430220000002 -0.6316855199999999 1.53451 2.40575 0.444539
25640 1.93712184 14.93324307 -4.4400648600000014 1.941493 1.559379 -0.038643
25660 5.85402921 15.87853467 -7.1551197 1.647068 -0.749451 -0.221475
25680 4.04174943 13.758338610000001 -7.8463813500000015 1.165044 -1.510016 -0.08072599999999999
25700 -2.00942154 10.897036289999999 -3.43790469 0.718857 -1.290429 -0.527436
25720 -6.11822232 12.62249757 -1.3424102100000002 -0.059414 0.333439 -0.216623
25740 -6.78239856 14.15471166 -1.6842985200000002 1.144034 -2.5424130000000003 0.239849
25760 -5.58683424 14.475792960000001 -2.77972236 0.8047979999999999 -6.173507 0.159879
25780 -4.65157827 14.92127487 -4.374651780000001 0.660377 0.9001610000000001 -0.040338
25800 -2.61835767 13.5579105 -3.6380385000000004 -1.556131 4.546633 -0.790089
25820 -1.17610128 11.36242269 -1.5275739600000002 -0.761985 -2.426491 -0.722195
25840 0.3972755700000001 10.246338990000002 -1.5343134299999999 -0.250002 -0.8670180000000001 -0.078615
25860 2.89976733 7.978561290000001 -2.3944248 0.675769 -0.549959 0.548082
25880 1.1855385 6.800360670000001 0.44816985000000004 1.278919 1.392649 1.469545
25900 3.9221459100000007 3.4031772900000004 -0.34533162 1.493375 -0.457604 1.517211
25920 6.28228476 0.28336185 -0.5072947200000001 0.597492 0.758369 0.041658
25940 3.6781515900000006 -0.7771874400000001 2.2191397200000003 -0.700181 0.5973569999999999 -1.722289
25960 5.39148771 -2.94886638 1.9151180100000003 -1.978642 -0.7781 -1.367329
25980 4.1817087 -2.7946924200000005 2.04534576 -2.572416 -1.132838 -1.118922
26000 -0.26674371 -1.21966749 2.6363197800000004 -3.202403 0.070346 -1.227413
26020 -3.4655885100000003 0.9458802000000001 3.31455375 -3.119642 0.793991 -1.113463
26040 -4.32510147 3.37173624 4.39411482 -3.294366 -0.09493 -1.108203
26060 -4.92370767 9.57559005 5.8824684 -3.003521 -0.722302 -1.6448200000000002
26080 -9.26947881 22.299130620000003 3.59911242 -2.149301 0.318846 -1.945699
26100 -10.006092090000001 27.077189219999998 -4.386924090000002 -1.470375 1.519574 -1.775852
26120 -1.6763622299999998 16.06384557 -0.39532338 -0.6297590000000001 1.88602 -0.90519
26140 2.0231947800000003 4.75621173 1.49628987 -0.122056 1.522769 -0.28267800000000004
26160 0.57749508 4.40024607 2.62434177 0.724532 -0.002305 0.214435
26180 -0.23995260000000002 5.1064777800000005 3.4079645700000003 2.073288 -0.122125 0.769871
26200 -0.5762982600000002 4.39081866 8.29485531 3.045211 -0.405181 1.447866
26220 -3.4269763500000003 5.86959768 -3.54507894 3.802735 -1.025802 2.013701
26240 1.1511054 5.32337688 -9.111704580000001 4.33988 -0.997295 2.4105220000000003
26260 4.43153016 12.89957121 -1.70390871 3.85707 -0.286648 2.535494
26280 -11.02187835 41.97361536 20.5223238 2.390588 0.329366 1.605791
26300 -16.885187820000002 28.97584605 -4.537958850000001 1.3992440000000002 -1.897167 0.362582
26320 2.68092585 6.03574965 -7.413338520000001 1.061296 -2.992516 -0.081687
26340 2.94482466 0.5522049 -5.9417404199999995 0.155891 3.393881 -0.911249
26360 3.5612458200000003 -0.95890788 -3.8719971900000005 0.375873 4.899596 -0.157477
26380 3.01607469 4.981488570000001 0.88017282 0.485224 -1.7365849999999998 0.690345
26400 -6.5428972199999995 12.9100581 1.5331166100000002 -0.051461 -1.826003 0.606594
26420 -13.44220155 21.70322217 5.67858717 0.563022 2.640494 -0.140456
26440 -10.52880813 17.000749620000004 7.58054016 0.224919 2.162701 -1.838542
26460 -3.8408602500000004 8.81920962 6.32884302 -0.726352 1.228865 -1.915561
26480 3.36020949 8.09666388 5.3570644199999995 -0.799916 0.207231 -1.045233
26500 6.05117097 6.73359381 4.6647531 -0.327367 -1.02639 -0.116339
26520 3.8740965300000005 3.67126497 -1.06773021 0.110767 -1.6611049999999998 0.52099
26540 0.67030749 2.1490767 -3.32698302 -0.370057 -1.441623 0.662628
26560 -0.52331445 2.2290183900000002 -1.88503074 -0.918146 0.011231 0.384542
26580 -0.16106058000000004 0.7851139200000001 1.2240035100000002 -2.638831 1.623285 -1.391041
26600 -2.32406748 3.69716337 2.6315325 -3.069775 -0.32674000000000003 -1.93955
26620 -4.19802273 13.200895170000003 0.09789399 -4.115469999999998 1.372436 -2.113538
26640 -5.40975393 18.883082610000002 -2.17932093 -3.813192 1.196849 -1.889012
26660 -4.9886793 12.926970540000001 -1.3320802800000002 -2.990085 -0.517011 -1.579827
26680 -3.70135224 9.07667307 2.4538439700000003 -2.389965 -0.271518 -1.687045
26700 -2.90321064 7.471560870000001 2.27826459 -1.53233 0.448871 -1.164958
26720 -3.4190400600000004 7.379052570000001 3.3590126700000003 -1.020773 0.590058 -0.42022
26740 -4.65262794 8.260422210000002 5.10528096 -0.584829 1.101482 -0.288575
26760 -6.18424362 10.934461440000002 5.2735322700000005 0.143122 0.472634 -0.036994
26780 -3.5628939 12.234953520000001 2.15267697 1.0243 -1.254592 0.633672
26800 0.5333402700000001 9.42814575 2.22242607 2.142769 -2.049953 1.427647
26820 0.6060912300000001 3.57980634 5.65344414 3.303214 -1.58107 1.978877
26840 -2.5616264400000004 4.41776673 13.34669139 4.210314 -0.430909 2.607581
26860 2.8213363800000004 0.51807591 6.23169459 4.021968 1.058337 3.039123
26880 14.600635020000002 1.8357845400000001 -11.0766672 3.009345 2.240688 2.345805
26900 4.6419939 9.92181438 -7.42037229 1.953558 3.086742 2.139725
26920 -7.97421546 18.2403216 11.036554109999999 1.7057220000000002 1.270473 1.815582
26940 -14.30814987 26.699376690000005 -0.39292974 2.52511 -0.363118 0.172995
26960 -18.90343836 18.75285486 -0.04730382 1.858019 1.128673 -0.414689
26980 -16.6209849 12.614571089999998 2.6056341 0.351236 1.30867 -0.165866
27000 -2.28424869 8.14067154 -0.33545295 -1.325023 -0.44372 0.490173
27020 1.5672456000000001 5.29044471 -2.37106719 -0.491713 -3.561193 0.685859
27040 0.87792633 7.72019532 3.78517869 0.820152 -2.778441 0.138544
27060 -3.27563748 12.382103520000001 6.6244771799999995 -0.003753 2.025681 -0.942657
27080 -7.853120820000001 16.09976979 7.960746330000001 0.517706 2.579941 0.389143
27100 -3.24360783 12.434488920000001 8.643473279999998 0.119441 -0.227297 0.260703
27120 3.1069349100000005 10.874434050000001 0.81056106 0.283464 -0.603085 -1.008853
27140 4.436170290000001 7.388038530000001 -2.31089265 -0.921813 0.623433 -0.327704
27160 2.39531751 5.590277550000001 -3.2196518100000002 -1.086221 -0.371829 -0.111797
27180 -0.9587607300000001 3.4281731700000004 -0.5610339 -1.009089 -1.673012 -0.058316
27200 -4.68391203 2.4069914100000003 2.33035569 -1.7274459999999998 -0.992324 -0.494699
27220 -6.59019123 6.93986868 -0.8509782600000001 -2.11915 0.477515 -0.893493
27240 -4.597534980000001 12.20995764 -1.64612781 -2.796064 0.8545729999999999 -1.359108
27260 -0.69336099 13.577814990000002 -0.27408159 -3.032424 1.322454 -1.476726
27280 -2.75576634 12.352467509999999 0.48858705 -2.921585 0.952735 -1.821582
27300 -6.93867186 7.38234873 3.6901296 -2.444268 0.239844 -1.913475
27320 -5.29254405 4.963526460000001 5.62904667 -1.907435 0.285893 -1.906579
27340 -3.5304129900000003 4.05311922 4.98134142 -1.492469 1.061901 -1.58955
27360 -1.0220744700000002 4.7165400900000005 3.7702086300000004 -0.8518819999999999 0.15793 -0.925892
27380 0.5477119200000001 6.095777040000001 1.65211191 -0.150572 0.037315 -0.40916
27400 0.41208867000000005 13.62571722 -1.9543383900000002 0.7832520000000001 0.035724 0.243639
27420 -0.22768029 20.27937915 3.7988047800000007 1.766218 -1.071 0.964427
27440 -1.336122 16.89132888 9.52574544 2.581513 -1.139006 1.811968
27460 -3.6013589100000005 6.384377430000001 9.150620850000001 3.2985480000000003 -0.58004 2.59713
27480 -5.2837150500000005 1.0662292800000002 1.44824049 3.904634 -0.259408 3.140405
27500 -4.561914870000001 -1.2807347400000002 -6.81397695 3.889264 -0.6055189999999999 3.127923
27520 1.03793724 -1.35303444 1.0927260900000004 2.153895 -0.944127 2.198632
27540 0.81280755 8.26192314 -0.6822855 1.4431040000000002 -0.372146 0.437846
27560 -7.61720994 13.17245598 4.47134895 1.14677 1.061551 -0.32877199999999995
27580 -0.10208286000000001 23.63480136 -3.0066472800000006 -0.718078 1.772164 -0.594809
27600 -0.05074713 13.23607383 -3.5979156 1.085066 -3.602816 0.670221
27620 -10.71681678 27.467126910000005 12.677433570000002 0.607386 -3.929596 0.752761
27640 -16.37699058 10.668168990000002 -4.75606458 0.7727649999999999 2.429409 -0.015875
27660 -7.0796808 7.97196897 0.75263301 -0.635868 3.391946 -1.604712
27680 -2.5746443100000005 6.039938520000001 3.69162072 -0.956816 0.088882 -1.149795
27700 -1.18807929 5.00828949 3.230433 -2.264193 0.805808 -0.81481
27720 -2.38005315 9.787397760000001 5.73667218 -2.6981040000000003 -0.621876 -0.651505
27740 -0.9774684000000001 9.71404839 6.165074880000001 -3.617489 0.196927 -1.087333
27760 1.99804194 9.807155100000001 4.607266500000001 -3.817727 0.106569 -1.493472
27780 4.80171051 9.32949639 -1.3964436900000001 -3.783539 -0.14708800000000002 -1.758896
27800 4.03321473 6.330932550000001 -3.2217511500000002 -3.4619760000000004 -0.834916 -1.590194
27820 0.06706116000000001 6.887032020000001 -0.0013439700000000003 -2.605554 -0.956981 -1.643876
27840 -4.30309764 9.0667944 1.43970579 -1.501924 0.91173 -1.057449
27860 -8.23662315 13.169611080000001 -0.08083440000000001 -0.802763 1.435762 -0.843865
27880 -11.424539610000002 14.80765545 -0.8698428900000001 0.011876 0.587335 -0.634125
27900 -6.658900470000001 11.54923452 -0.0375723 0.5266310000000001 -1.274856 0.006379999999999999
27920 -2.5565350500000004 7.45405002 -1.4160538800000002 1.42965 -2.564576 1.004582
27940 -0.98719992 6.31566819 -0.8539703100000001 2.574935 -4.033421 1.566735
27960 -0.37077876000000004 5.315891850000001 0.17035065000000002 3.607075 -3.724661 1.779716
27980 1.6072115399999998 3.95283159 2.4532455600000005 4.725877 -3.072328 2.045205
28000 2.7457405200000005 2.3858901 3.93546789 5.337584 -1.85026 1.998773
28020 0.29697813 5.494021830000001 4.405484610000001 4.193818 0.591596 1.597754
28040 -4.62627828 12.785216040000002 3.92887557 1.775253 0.097253 1.311233
28060 -7.281305730000001 7.84982466 6.84451548 0.495915 -0.619801 0.8534950000000001
28080 -7.95655746 2.1245320800000003 7.515568530000001 0.911223 0.020376 0.241348
28100 -1.5079637700000004 3.18522852 2.79154341 0.545038 -1.763148 0.88735
28120 5.91540057 3.6507620700000003 -9.74683341 0.554547 -2.705951 1.153543
28140 4.066294050000001 14.8712733 -3.17174958 0.08076 0.311366 0.385793
28160 -7.58652426 34.818044400000005 8.251436250000001 0.7315159999999999 4.858235 -2.905611
28180 -11.707607160000002 25.291553400000005 9.1883403 0.495817 2.454189 -2.239743
28200 -10.239305220000002 11.374842150000001 -2.34697383 -0.459828 0.290816 -0.664814
28220 -5.72260464 11.12247009 4.0664412 -0.33451 -0.435314 -0.072281
28240 -7.068899610000001 8.321195160000002 8.377632089999999 -1.780226 -0.304216 -0.168006
28260 -2.40490188 10.622356289999999 6.22285578 -2.321973 -1.811608 -1.022299
28280 -0.6259957199999999 12.263098410000001 1.26652005 -2.686871 -3.109763 -1.60857
28300 1.94790303 7.9851438 -4.619538810000001 -3.018204 -1.844022 -1.636007
28320 4.19262723 3.5063098200000002 -5.93156745 -2.784981 -1.150581 -1.558355
28340 4.05536571 0.12139875000000001 1.3620204000000002 -2.215262 -1.85897 -1.790613
28360 -1.8021068100000002 2.18860119 4.18439664 -1.757927 -0.503558 -2.015618
28380 -5.96838438 9.76883724 -2.1326155200000003 -0.852924 -0.511863 -2.321207
28400 -7.531441110000001 12.05682354 -2.8388472300000003 -1.114744 -0.193366 -2.621478
28420 -7.04390373 15.11796537 -0.66566736 -0.667277 -0.699971 -1.7951720000000002
28440 -3.2495919300000002 13.330681470000002 2.0520852300000003 0.447621 -1.284946 -1.6616529999999998
28460 -3.7778408100000003 7.219787220000001 2.6882637300000005 1.165215 -1.025639 -1.06411
28480 -2.1335180400000002 4.60293048 4.1715259200000006 2.33905 -0.428631 0.200622
28500 -0.49576797 3.8466972000000004 5.497622100000001 3.625646 -0.408433 0.959475
28520 1.15425441 3.7958029200000003 4.946761169999999 4.743546 0.605744 1.313156
28540 2.8303125300000005 5.66033076 1.83877659 4.837653 1.023759 1.923232
28560 1.30184586 10.3129587 0.64395783 2.23749 -1.087941 2.924723
28580 -2.08830375 10.436299830000001 7.981553340000001 -0.06767999999999999 -7.152916 3.414185
28600 -0.44666892 6.173756730000001 8.57252736 0.6913229999999999 -1.690339 0.934212
28620 4.993466580000001 2.0700473400000003 2.8430361000000004 0.008301000000000001 6.703939 -0.84495
28640 8.082743490000002 8.07645528 -3.81780675 0.13112 6.882092 -0.216206
28660 -0.26270199 16.54538904 -4.01135805 -0.919015 -1.548971 1.874568
28680 -15.300735480000002 25.48450629 4.02932016 -0.003825 -7.925173 1.480002
28700 -13.913415089999999 12.187953810000002 -3.0597880500000008 1.997056 -3.068153 -0.891176
28720 -12.82114026 10.82728719 5.17893444 -0.715222 6.57631 -2.131707
28740 -10.226885760000002 15.388897950000002 2.04235371 -1.269265 0.366289 -0.189865
28760 -8.75214846 11.68814412 4.9118866200000015 -0.7102069999999999 -2.595897 1.367826
28780 -6.03529839 10.2813705 10.867998690000002 -0.101948 -1.107835 1.405419
28800 -1.67186925 9.27156834 5.7321792 0.865698 0.665095 1.288129
28820 1.5669414900000003 8.11417473 1.9140683400000003 1.861636 1.565867 1.602648
28840 5.412441870000001 6.8038039800000005 -6.11328789 2.759965 -0.17133199999999998 1.290682
28860 4.80531078 5.21859627 -5.3890940700000005 1.751653 1.678414 1.258836
28880 0.47211606000000006 6.00731046 6.5370602700000005 0.8481209999999999 0.439988 1.652559
28900 -9.17277183 12.03003243 4.58032824 0.245504 -1.377573 1.692339
28920 -12.41083701 20.21186673 -2.56416723 -1.060208 -1.97862 1.284474
28940 -8.84166471 19.90800198 -4.7316573 -1.718406 -1.316979 0.498158
28960 -2.22617349 11.695030740000002 -1.61589339 -2.279498 -0.191891 0.412681
28980 -0.6914088 8.83073637 -0.46598481 -2.154175 -0.17183199999999998 0.08345
29000 -1.00770282 6.981178590000001 2.24218341 -1.850987 -0.544175 -0.570912
29020 0.9310671 5.43400425 3.72859461 -2.015915 -1.6352 -2.24457
29040 2.19099483 3.1478033700000005 5.75642952 -1.23472 -1.791361 -4.359333
29060 -0.7027884 2.87522271 2.9425781700000004 -0.703769 -1.930069 -3.699559
29080 -3.2241447900000004 -0.7544282400000001 1.37264463 0.008354 -2.239453 -3.4047
29100 -3.53324808 6.509513790000001 6.71084442 -0.17337 -2.4353130000000003 -3.285009
29120 -1.8974502000000002 15.65399358 14.41652094 -0.377049 -4.052412 -2.308005
29140 -8.12225817 12.50574876 9.783954450000001 0.050843 -5.032597 -2.113616
29160 -5.9662948500000015 4.960387260000001 -6.04338183 -0.097166 -3.856561 -1.7123689999999998
29180 6.214026780000001 0.21180771 -10.03123512 0.235946 -3.216982 -1.837981
29200 15.710724810000002 6.81637059 -6.555620790000001 0.780216 -3.62817 -2.04516
29220 10.952276400000002 11.890818720000002 -9.20450718 1.208211 -3.946525 -1.924258
