time Ax Ay Az Gx Gy Gz
20 4.3424651700000005 8.82744021 4.870723860000002 -0.290781 -2.240434 0.025409
40 8.30981556 10.242002970000001 1.79746668 0.601066 0.923988 -0.35270300000000004
60 13.42767294 12.625793730000002 0.5126804100000001 1.09901 3.151137 -0.432196
80 17.23111785 31.08062079 -21.774020940000003 1.090566 2.119435 -0.296337
100 11.224562760000001 16.974252810000003 3.9679488000000003 0.6859 1.23824 -0.159165
120 7.07548212 1.9251438300000001 8.459359200000002 0.891949 0.6937909999999999 0.217917
140 2.7413946900000004 5.6776944600000006 -0.37048446 1.2537280000000002 0.647113 0.388215
160 0.8803199700000001 8.68583286 2.70771696 1.110744 1.013419 0.283129
180 0.8408052900000001 8.76532329 0.9650391300000001 1.085824 0.223996 0.052163
200 1.4775822 9.52244928 -2.79228897 1.001303 -0.602008 0.228888
220 1.82246256 8.818159950000002 -4.540205340000002 1.241799 -1.92274 0.234396
240 2.41163154 7.521405479999999 -4.36387059 1.894892 -2.853871 0.220923
260 3.4904372400000003 5.353169850000001 -0.8544215700000001 2.276582 -3.21924 0.151419
280 4.11628581 5.39567658 -2.9216240100000004 1.940649 -4.4333160000000005 0.091876
300 3.12684921 5.260661550000001 -1.8886212 1.730607 -4.2764989999999985 0.218394
320 3.28522185 5.421280680000001 -1.18133982 1.323955 -4.371788 0.157992
340 4.47703875 5.9374044 -0.07933347 0.699298 -1.3972950000000002 0.637994
360 6.43257396 5.504803020000001 -0.88121268 0.704281 -0.728568 0.43421
380 9.10646604 6.04637388 -4.08336345 -0.214628 -0.19856 0.5563670000000001
400 9.6392079 6.761591550000001 -4.63526424 -0.486247 0.785888 0.49232
420 7.379356680000001 7.133714280000001 -2.96383644 -0.8994209999999999 1.023452 0.316077
440 6.53825709 6.901393860000001 -3.1145769000000003 -0.956964 0.582335 -0.143095
460 5.36589342 8.710387290000002 -3.3952410000000004 -1.179306 0.744731 -0.6009869999999999
480 6.014197080000001 12.80826954 -4.03965009 -1.519396 0.913554 -0.965706
500 6.66593424 16.67218329 -4.25040813 -1.7936470000000002 1.037529 -0.8289120000000001
520 6.72791382 17.225428049999998 -1.8029995200000002 -2.0268650000000004 1.303021 -0.420684
540 8.01044379 15.295496940000001 -0.062116920000000006 -2.371881 1.444014 0.049948
560 -0.8559225 18.09452538 -7.03596744 -2.784242 0.541533 0.455217
580 0.35999757000000004 10.38165813 -5.12414559 -2.55063 -0.15288 0.482308
600 2.4671659500000005 7.8900947100000005 -2.9204271900000003 -1.619227 -1.092646 0.256077
620 1.7336918700000001 6.436311570000001 0.43365105000000004 -0.7712720000000001 -0.145674 0.068507
640 -0.30282489 5.94189738 -0.05837931 -0.224266 2.339115 0.251809
660 -1.10740185 4.07063988 -1.10800026 -0.31640100000000004 2.957441 0.481109
680 -0.41523768 3.26770119 -1.3681516500000002 -0.254292 0.87566 0.485279
700 0.6285463200000001 3.85253415 -0.24729048000000003 1.281123 0.901025 0.004589
720 1.25124588 4.48901676 0.5319963 1.99136 1.574765 -0.199616
740 2.03472153 5.17982715 -0.06675705 -0.13617 1.604297 -0.146149
760 2.2975706700000007 5.85402921 -1.29091752 -1.321048 1.061649 -0.078954
780 2.22318144 7.85281671 -3.3178499100000005 1.990432 -3.887613 0.24428
800 1.92394701 8.44828371 -3.4419464100000003 3.406769 4.063817 -0.236716
820 1.63505232 9.139241250000001 -4.37570145 0.960831 2.4443080000000004 0.889135
840 1.01623752 8.64796626 -2.6641605600000005 -1.496742 -0.366796 0.316891
860 1.6368475500000002 9.04509468 -1.6248695400000002 -1.6893349999999998 -1.5429469999999998 -0.026914
880 1.5476354099999998 11.91477474 -4.64559417 -1.883684 -1.849167 -0.535285
900 -0.53244756 13.790525220000003 -5.78412315 -0.32260500000000003 -0.266613 -0.17923699999999998
920 3.18267792 9.471555 4.32330624 0.089024 1.965171 -0.277498
940 5.007691080000001 8.117323740000002 4.34516292 0.186708 1.488131 -0.412936
960 7.844586120000001 8.27479386 0.69724575 0.132393 0.8075680000000001 -0.40283
980 11.186235090000002 11.450742120000001 0.00104967 -0.108792 0.791478 -0.16627999999999998
1000 24.74833446 39.355708949999986 -29.92098069 -0.002079 0.851715 0.128149
1020 6.154754759999999 6.66593424 17.62599978 0.21006100000000005 1.117028 0.19552
1040 2.9240176500000006 2.12348241 1.20768948 0.60269 1.052017 0.128912
1060 0.24339591000000002 5.83815663 0.60250077 0.5066579999999999 0.349113 -0.098389
1080 1.7724609900000001 11.65326957 -1.1255111100000001 0.283299 -0.549854 -0.202415
1100 3.3691954500000003 12.988940310000002 -3.53684835 0.170802 -0.970995 -0.28171
1120 4.2209192700000004 9.14029092 -2.5765965 0.515426 -1.585109 -0.18558
1140 2.79214182 7.23610125 -3.7565923500000005 1.217189 -2.010781 0.161698
1160 3.1690616400000002 5.54567148 -2.9157870600000004 1.939023 -3.110223 0.35402
1180 4.1556631500000005 6.49753578 -2.15507061 2.099329 -4.743718 0.321981
1200 3.5055642600000003 6.131995560000001 -2.13531327 1.721266 -6.41965 -0.085505
1220 3.2945021100000003 5.22084276 -2.33110125 1.58723 -4.696528 -0.11215
1240 3.7600356600000002 5.815103130000001 -1.4760812700000003 1.46613 -4.026363 -0.033738
1260 5.47636383 6.61938579 -1.31935671 1.215197 -1.836535 0.543884
1280 6.13873503 6.56354727 -2.10702123 0.779354 -1.506712 0.758335
1300 7.01740692 5.9282712900000005 -1.39450131 0.082388 -0.783393 0.83052
1320 9.6133095 6.144876090000001 -2.8836004500000003 -0.430779 0.051908 0.711565
1340 9.65702286 6.67925622 -3.6296509500000003 -1.143311 0.083272 0.944761
1360 7.366329 6.818774040000001 -4.19233293 -1.7675740000000002 -0.383424 0.979455
1380 6.174364949999999 7.727680350000001 -3.0635256600000003 -2.130317 -0.222172 0.6626569999999999
1400 5.23715679 11.168429940000001 -4.64469165 -2.297434 0.287706 0.372416
1420 5.77469574 15.269892839999999 -2.8681889400000005 -2.176196 0.556217 0.25221
1440 5.00873094 15.73109037 1.41964434 -1.944489 -0.442385 0.161105
1460 6.54918543 12.84644025 1.1139843600000001 -1.420487 -0.608518 -0.039053
1480 6.030059850000001 14.380292610000001 -0.5415708599999999 -0.966685 0.050918 -0.17346
1500 -0.3150972 16.72442154 -9.61450632 -0.8280780000000001 0.624034 -0.292867
1520 1.59538068 7.93843839 -4.36567563 -0.775428 0.58811 -0.412094
1540 2.42166717 5.64356547 -3.64911399 -0.872445 0.360611 -0.179608
1560 2.9603931300000004 7.6583727 -3.3421002300000002 -0.7139909999999999 -0.8396290000000001 0.399877
1580 2.63586852 8.21851389 -3.0770046 -0.034231 -1.251183 0.432926
1600 1.82964348 6.715190250000001 -2.91908322 0.22332 1.817544 0.558979
1620 0.74679606 6.01958277 -2.46163311 -0.136033 2.295241 0.756683
1640 -0.40940073 5.75298621 -0.9843550200000001 0.165266 0.063323 0.803308
1660 -0.20537235 6.153557940000001 0.38051028000000003 0.146583 0.159233 0.544545
1680 -0.20627487000000003 6.838080120000001 1.25409078 -0.11413 0.205194 0.199766
1700 -0.24189498000000004 6.32016117 0.48139632000000004 -0.663656 0.526177 0.059852
1720 0.76925115 6.06344328 -0.6047472600000001 0.098496 0.471892 -0.078965
1740 1.35363285 6.66489438 -1.16861625 1.097766 -0.570335 -0.315272
1760 1.77336351 8.41535154 -2.02169385 0.632429 -0.8594790000000001 -0.330971
1780 2.00088684 11.66614029 -6.40114272 -1.186303 1.167129 -0.997887
1800 2.14294545 11.64892374 -10.99643121 -2.1329290000000003 1.875392 -0.940246
1820 2.18724741 9.28593999 -8.772661170000001 0.306494 -2.595985 -0.288294
1840 2.85082524 8.30937411 -5.259160620000001 -0.750189 -1.853209 0.556883
1860 3.8037392100000003 8.845402320000002 -5.3390925000000005 -1.784718 -0.080093 1.062268
1880 4.37151258 7.71256314 -6.3860157 -2.498854 0.078961 1.066689
1900 3.28491774 5.60120589 -5.51288646 -2.582681 0.029793 0.914479
1920 2.41133724 5.10573222 -6.18229143 -2.706599 0.928206 0.6592939999999999
1940 2.60293635 9.07727148 -4.73210856 -2.5541560000000003 -0.427959 0.278605
1960 1.64253735 9.916428690000002 5.3787641399999995 -1.546825 -0.314688 0.116717
1980 1.9270960200000002 7.4184201000000005 8.02151928 -0.918045 1.631553 -0.156986
2000 5.60688588 16.37250741 6.7559017500000005 -1.187937 0.793482 -0.5306069999999999
2020 11.963873790000001 24.836653890000004 4.62522861 -1.313425 -0.5377970000000001 -0.7669229999999999
2040 17.42885802 22.80508137 -26.03999754 -1.4743700000000002 -0.929561 -0.957688
2060 10.66037985 10.04440995 7.44177771 -1.423118 -0.625412 -1.13825
2080 7.504797150000001 8.8698096 6.8575431600000005 -0.81043 -0.318635 -1.131158
2100 6.60381732 11.62423197 3.31919388 -0.348515 -0.435822 -0.997459
2120 4.86503406 11.951150220000002 1.71288486 -0.545099 -0.983489 -0.532385
2140 2.4926130900000003 8.92953288 3.16875753 -0.625276 -1.404354 -0.442675
2160 0.29144529 6.73524189 -0.48978387 -0.043661 -1.561028 -0.394615
2180 -2.49516369 6.24516372 -2.77283574 0.710028 -1.445458 -0.378816
2200 -1.9734973199999999 4.465364850000001 2.87941158 1.331749 -2.096652 0.224565
2220 -1.34315577 4.564161360000002 0.2459367 1.494938 -3.834311 0.397779
2240 0.61118262 6.16687992 -2.2192868700000004 1.621742 -4.879761 -0.140516
2260 2.32961013 6.44694561 -1.8024011100000001 2.549309 -4.51676 -0.347078
2280 4.10955615 7.160063940000001 -2.1146534100000003 3.097249 -1.622873 -0.4388260000000001
2300 5.79833784 7.38728316 -1.73325042 3.597862 0.044019 -0.00804
2320 7.15377573 8.60350734 -0.56313324 3.641271 -0.16109500000000002 0.099348
2340 7.82752653 11.19686913 -1.57756572 2.219608 -2.516524 -0.239781
2360 8.557851600000001 15.191010630000001 -1.39359879 1.396583 -4.451544 0.060325
2380 8.5174344 14.988777480000001 -1.57113036 1.705501 -3.670976 1.1927290000000002
2400 7.67140038 11.909536200000002 -2.58377742 0.736475 -3.702449 2.176243
2420 8.908725870000001 12.44436759 0.26689086 0.030375 -3.246787 2.590538
2440 10.654690050000001 13.496087880000001 0.52181352 -0.698375 -3.969714 2.590647
2460 10.42522434 12.62026089 -1.0330028100000002 -1.023854 -4.536072 2.514324
2480 3.42068814 8.778498120000002 -1.0912349700000001 -1.078677 -4.08788 2.102101
2500 1.81512468 7.79818482 3.0304463400000006 -1.338648 -3.4844510000000004 1.674359
2520 2.4180669 7.37606052 4.83808599 -1.593197 -2.7759240000000003 1.333047
2540 5.183868870000001 14.317430130000002 3.2449518000000004 -1.7129919999999998 -1.954045 1.033123
2560 6.762641220000001 16.6326588 -0.14804271000000002 -1.711902 -1.2913370000000002 0.739589
2580 6.6961784699999995 15.01647111 2.4062458500000004 -1.699016 -0.710205 0.589383
2600 9.47125089 10.436152680000001 1.25394363 -1.5960299999999998 -0.495844 0.440277
2620 9.89816247 6.78254571 -1.46634975 -1.510834 -0.780628 0.189136
2640 8.84360709 6.67821636 -1.6022673 -1.28225 -1.017675 0.130148
2660 5.30526762 7.09569072 0.32363190000000003 -0.966798 -1.382787 0.319758
2680 2.92851063 6.8316447600000005 0.74650176 -0.288749 -0.6006560000000001 0.7422350000000001
2700 2.6958959100000004 6.2180685 2.6289819000000003 0.419639 -0.52653 1.303632
2720 3.36948975 4.51415979 2.63242521 0.006289 -1.317642 1.564541
2740 2.66251248 3.92573637 1.4691946500000002 -0.556873 -1.041918 1.565595
2760 0.73766295 5.85507888 1.22474907 -1.253324 0.061589 1.666139
2780 -0.03398184 7.6088322 1.08210186 -2.160274 0.959488 1.153384
2800 -0.4543011 8.93013129 0.36479466 -1.215875 -1.400943 -0.783295
2820 -0.6483036600000001 9.345212010000001 -0.08891784 0.413784 -2.280623 -2.253477
2840 -0.6032463299999998 9.094635180000001 -1.5197848200000001 0.439128 2.093843 -1.854049
2860 0.029783160000000003 8.880580980000001 -2.9952676800000004 0.138335 0.758848 -1.542519
2880 1.66019535 8.560843649999999 -6.12825795 -0.691257 -0.810142 -0.5987899999999999
2900 4.78046205 9.77437008 -10.22748417 -0.8195959999999999 -1.2086940000000002 -0.452829
2920 11.71748583 12.187061100000001 -10.899429930000002 -1.526837 -1.233402 0.210969
2940 10.765758870000003 12.015513630000001 -8.03753901 -2.519311 -0.440808 1.06294
2960 6.61099824 7.029983340000001 -7.329512070000001 -2.055567 0.23503 1.346255
2980 5.031637290000001 1.9008935100000002 -3.2974941600000003 -1.783534 0.925511 1.3312469999999998
3000 1.82964348 1.3621675500000001 1.70450712 -1.38676 0.709605 0.901666
3020 0.20821725000000002 6.826102110000001 5.83456617 -1.436099 -0.20800700000000005 0.514732
3040 -0.8422964100000001 17.18636463 -5.13596664 -1.69572 -0.519369 0.282582
3060 3.08179188 28.048673520000005 -7.7335173 -1.755813 -0.566262 0.073919
3080 2.24966844 13.54143951 6.5647440900000005 -1.387443 -0.6044149999999999 -0.028145
3100 2.681073 4.15640871 5.32277847 -1.08316 -0.318914 -0.027453
3120 3.13747344 4.65382476 4.22421543 -1.156335 0.072074 0.02815
3140 7.471864979999999 7.879019220000001 5.290748820000001 -1.246328 0.220484 0.02199
3160 9.293876280000001 11.160042390000003 3.13103808 -1.358509 -0.11868 -0.045657
3180 8.2888614 11.30269941 2.2760181 -1.321326 -0.7563949999999999 -0.173835
3200 4.0022249400000005 9.89412075 0.8083145700000001 -0.773312 -0.699318 -0.270493
3220 0.83167218 8.987608080000001 -1.21232961 -0.117825 -0.488069 -0.386894
3240 0.7204562099999999 9.60388209 -1.61589339 0.170696 -0.465209 -0.226811
3260 1.62801855 9.51421869 -0.94707702 -0.109699 -0.504269 -0.072759
3280 2.3763057300000003 8.280032400000001 -0.06675705 -0.423141 -0.839101 0.016279
3300 3.02401098 7.72454115 -0.7226928900000001 -0.408266 -1.396017 -0.052338
3320 3.73069395 7.058716830000001 -0.8795744100000001 0.6559999999999999 -1.835051 -0.140481
3340 4.925659860000001 7.21544139 0.01362609 1.3725969999999998 -1.442426 -0.379533
3360 4.928347800000001 8.37807354 0.8803199700000001 2.306487 -2.836729 -0.425703
3380 4.5334756800000005 9.09807849 0.6328823400000001 2.647643 -2.87527 -0.407247
3400 4.53481965 9.612259830000001 -1.46754657 3.326942 -2.7611950000000003 -0.219982
3420 4.5713422800000005 9.85550859 -2.9073995100000003 2.9769240000000003 -3.079085 0.19245
3440 4.589451540000001 9.64564326 -2.3460713100000006 3.089016 -3.2873690000000004 -0.031895
3460 4.92071562 8.956029690000001 -1.3019930100000001 3.10397 -2.218568 -0.39315
3480 5.14300041 8.93192652 0.29443734 2.9 -2.069383 0.037863
3500 5.45840172 9.5122665 1.12281336 2.339684 -1.160567 0.754903
3520 4.8838986900000005 11.10136878 1.04138055 1.562919 -1.694146 1.662423
3540 4.617743580000001 12.84493932 -0.49607208 1.139976 -2.841387 2.279439
3560 5.560935840000001 12.553199730000001 -3.74176944 0.780944 -3.370078 1.870616
3580 6.22181592 11.343410910000001 -3.5125980300000004 0.198731 -2.640478 1.338981
3600 5.38265871 9.64743849 -4.62732795 -0.065831 -1.763691 1.019816
3620 7.331748750000001 7.621997220000001 -3.59911242 -0.4574470000000001 -1.026491 0.819583
3640 7.92871668 10.49168709 -1.6703781300000002 -0.845815 -0.315785 0.582019
3660 5.720505300000001 12.579088320000002 3.38864868 -1.216669 0.23197 0.32021700000000003
3680 4.501740330000001 12.77414055 5.2693433999999995 -1.578912 0.813716 0.075523
3700 4.5553225500000005 15.07470327 2.49021945 -1.667862 1.210157 -0.15313800000000002
3720 6.380482860000001 16.00726149 -0.8000839800000001 -1.568455 1.434802 -0.207211
3740 7.34447232 13.775849460000002 -1.09033245 -1.518624 1.416313 -0.155564
3760 6.768174060000001 11.78843175 -1.518588 -1.842411 1.600309 -0.33325
3780 4.0607514 9.06469506 -1.6233784199999999 -2.078546 1.859373 -0.711246
3800 3.47023845 6.2565433200000005 -1.51050456 -1.827619 1.583995 -0.7945979999999999
3820 2.2068576 2.69783829 -0.54995841 -1.273176 1.169255 -0.6555979999999999
3840 0.9737209800000001 0.69604893 -0.10373094000000001 -1.442123 0.553715 0.241318
3860 0.7117743599999999 1.8227568600000001 -0.11630736000000001 -2.127905 -0.02883 0.794886
3880 0.35671122 2.68781247 0.32213097 -1.795627 -0.202503 0.515419
3900 -0.88001586 2.87926443 -0.10164141000000002 -0.8945290000000001 0.271115 0.374759
3920 -0.50160492 3.7284474600000004 0.08442486000000002 0.069561 0.763653 0.243062
3940 0.45101475 3.9243924000000003 -0.46493514 1.285622 1.7634849999999995 0.103929
3960 1.40662647 3.90103479 -1.2644207100000002 1.945998 1.298678 -0.11519
3980 2.0594133 3.7913197500000004 -3.27563748 0.304429 0.699314 0.14544
4000 2.4378340500000006 4.19352975 -4.2685272 -1.641047 1.277035 -0.117785
4020 2.25430857 4.832396190000001 -2.90500587 0.303789 -3.667336 0.433042
4040 2.12677857 5.53294791 -1.4792204699999998 1.720423 1.32016 -0.230024
4060 2.35879488 6.9382206 -1.1758069800000002 1.718486 1.862515 0.271331
4080 2.8388472300000003 10.25083197 -2.31777927 -0.284619 0.165767 0.350313
4100 2.4281025300000003 14.68505988 -2.92296798 -1.324764 -0.664179 0.210583
4120 2.10941487 14.07209184 -3.84341085 -1.022665 -0.721309 0.116626
4140 0.20597076000000003 13.782284820000001 -4.5984375 -0.748206 -0.02421 0.042875
4160 -0.08157996 13.1534442 -5.56198551 -0.34979 0.7999569999999999 0.053147
4180 1.11787893 9.71120349 -3.43490283 0.101754 0.421004 -0.14297
4200 4.17542049 7.78111542 3.8357688600000004 0.596605 0.799802 -0.195547
4220 5.322935429999999 6.88717917 4.2309549 0.961372 1.931045 -0.225427
4240 8.44498755 10.80423369 2.1911419800000003 0.883659 2.1627650000000003 -0.030782
4260 11.961176040000002 16.55587593 1.3690541699999998 0.58631 1.304148 0.227819
4280 14.58267291 34.29249327 -21.607564860000004 0.403636 0.121037 0.283607
4300 5.38146189 8.300241 8.35382322 0.7036479999999999 -0.6147600000000001 0.212938
4320 3.84625575 5.08672044 5.538932010000001 0.753188 -0.367523 -0.11925
4340 2.7141523199999997 7.228017810000001 -0.59396607 1.237693 -0.8683799999999999 0.303519
4360 2.09250243 7.434891090000001 0.37168128 1.763902 -3.269852 0.465164
4380 2.25910566 7.3717245 -0.46912401000000004 2.1974400000000003 -4.499115 0.339445
4400 2.25026685 6.15385224 -1.7486619300000001 2.204992 -5.409079 0.121678
4420 1.1051553600000001 5.7697515 -0.72419382 2.040152 -5.441771 0.447444
4440 0.98285409 7.624390860000001 -6.0755684400000005 1.712818 -4.419035 0.713039
4460 4.24786734 7.968231360000002 -3.78443313 1.5467540000000002 -1.503798 0.696393
4480 4.3439661 6.30563256 -1.86212439 1.090306 -0.020375 0.95195
4500 3.5586952199999997 5.53324221 -0.42541065000000006 0.4717770000000001 0.354314 1.027266
4520 3.9161520000000003 5.293740870000001 0.06795387 -0.470872 0.774882 1.099191
4540 5.9112117 5.63338269 -0.5547456900000001 -0.8718520000000001 0.991701 1.038429
4560 9.74248758 6.971751179999999 -3.6766506600000004 -1.491602 0.322556 0.8149029999999999
4580 12.260400660000002 7.3766589300000005 -4.31552691 -1.677302 0.385419 0.174729
4600 9.27575721 8.28213174 -3.8923529400000003 -2.04324 1.200782 -0.679177
4620 5.90731713 9.310043160000001 -6.035896800000001 -2.191873 1.468045 -1.052299
4640 4.2861852 10.706035589999999 -3.6721674900000005 -1.982734 0.8924979999999999 -1.159059
4660 4.01075964 13.827793410000002 -3.83891787 -1.6769459999999998 0.433996 -1.049513
4680 5.385650760000001 15.775843590000001 0.9592021800000001 -1.44599 0.397791 -0.720978
4700 6.177357000000001 14.01326127 -0.93570723 -1.494823 0.356065 -0.101697
4720 4.42061163 10.83686175 1.4150042100000002 -1.680006 0.25039 0.643833
4740 -3.20049288 16.08494688 -8.555909220000002 -1.780629 0.478446 0.709067
4760 3.5248703400000005 9.560315880000001 -6.1252659000000005 -1.7868389999999998 0.806271 0.51846
4780 3.5578025100000006 6.71548455 -4.17092751 -1.616395 0.720568 0.490919
4800 2.7979787700000003 5.270236110000001 -1.08255312 -1.416932 0.570343 0.589713
4820 1.34270451 4.42180845 -2.38034745 -0.886676 0.566282 0.346662
4840 -0.48364281 2.6208984600000003 -3.27608874 0.450511 2.034944 0.075315
4860 -0.56282913 2.5740459 -2.88465012 1.422917 1.360589 -0.225745
4880 0.28156662 4.12737111 -2.04654258 0.589368 0.049061 -0.524716
4900 1.3554280800000003 5.89788972 -1.8037450800000001 -1.67111 -0.357601 -0.764311
4920 2.3920213500000003 7.647748470000001 -2.23754328 0.65291 -1.42009 0.252071
4940 4.56610374 8.70948477 -2.8427418000000007 2.287897 0.146445 0.28819
4960 4.91846913 7.706422080000001 -2.17961523 2.473838 2.73584 0.199645
4980 3.48535566 6.318660240000001 -2.062111050000001 1.178751 0.516606 0.322697
5000 2.0381648400000003 7.05722571 -2.3322980700000002 0.061002 -1.029733 0.116045
5020 1.3052891699999998 8.96141538 -2.8252211400000005 -0.92702 0.053073 -0.213778
5040 0.51373008 10.74690405 -3.3662034000000003 -0.992891 1.149019 -0.3673300000000001
5060 -0.61896195 10.68508143 -3.48370758 -1.095792 1.42364 -0.223123
5080 -1.40407587 10.742862330000001 -3.27982635 -1.290871 0.868822 -0.101997
5100 -0.13262139 7.972871490000001 2.56506975 -0.313186 -1.355697 0.437521
5120 1.36171629 6.908731740000001 4.38782661 0.814897 0.901696 0.240614
5140 2.8478233800000003 9.146579130000001 1.3720462199999999 1.263778 2.901863 -0.308948
5160 10.739870280000002 14.35888719 -3.0585912299999998 1.3004 1.517982 -0.584657
5180 18.12041397 18.97064667 -9.13699476 1.039006 -0.310475 -0.513637
5200 17.34263793 30.385758870000004 -13.5582048 0.662096 -1.613704 -0.088379
5220 1.98382725 10.51383807 7.343873909999999 1.219226 -1.257998 -0.014441
5240 3.14046549 6.90169797 1.4173978500000002 2.166148 0.022728 0.429572
5260 3.21845499 6.233038560000001 0.87582699 2.485418 -1.985638 0.499537
5280 1.84775274 5.0328341100000005 0.76176612 2.682007 -3.3170839999999995 0.29217600000000005
5300 1.8974502000000002 5.106929040000001 1.5877485 2.426529 -3.73127 0.461838
5320 1.6527103200000002 5.80582287 1.0139910300000001 2.169595 -3.260296 0.653856
5340 1.9751454 6.66025425 -0.36704115 1.651066 -2.686852 0.755254
5360 4.21209027 7.68860712 -6.43451634 1.258008 -1.072749 1.043133
5380 6.596930700000001 9.07682022 -5.97273021 0.8298139999999999 -0.459721 1.024401
5400 4.91473152 7.035221880000001 -3.7377277200000005 -0.201772 -0.014786 1.206769
5420 1.53355806 5.7429603899999995 -4.21254153 -0.61835 0.144203 1.235702
5440 1.6872905700000003 4.93628409 -0.96728562 -1.114036 0.34777800000000003 1.105928
5460 4.34501577 5.78127825 -0.69754986 -1.556552 0.749203 0.736991
5480 9.2922282 6.7877842500000005 -2.36388627 -1.9483 1.293074 0.133217
5500 12.0194082 5.5561485600000005 -3.1154696100000003 -2.311109 1.895318 -0.441588
5520 8.283328560000001 10.23301701 -5.735622510000001 -2.496931 1.827678 -0.9470000000000001
5540 3.3922489500000004 14.375809440000001 -6.6563596800000004 -2.518282 0.926106 -1.373282
5560 2.81444976 16.538806530000002 -3.34688751 -2.24705 0.693021 -1.660577
5580 4.695281820000001 17.855916750000002 -2.7774758700000004 -1.55594 0.267398 -1.316578
5600 6.996747060000001 16.40139786 -3.74146533 -1.51065 -0.6426430000000001 0.047956
5620 5.39732466 13.389207930000001 -2.44022769 -2.550998 -0.5349510000000001 0.657983
5640 1.68923295 12.30485958 -6.39409914 -1.710675 0.565529 0.183879
5660 3.0053033100000004 8.808428430000001 -5.576200200000001 -0.515628 2.553189 0.2495
5680 2.84903001 6.69991608 -2.53662075 -0.1954 2.114462 0.728726
5700 2.24578368 6.011048070000001 -1.6938730800000001 -0.733271 1.060926 0.656884
5720 1.01324547 4.398607800000001 -2.3685264 -0.333599 -0.611474 0.024091
5740 0.07289811 2.55682935 -2.17677033 0.938562 0.459805 -0.18204
5760 -0.37227969 2.35669554 -1.06802451 1.519657 0.7362920000000001 -0.297977
5780 0.02694807 3.0135339000000005 0.6524925300000001 -0.28183800000000003 0.7886 -0.361902
5800 0.53573391 3.7332347400000003 1.2234051000000001 -1.347536 1.816795 -0.554397
5820 1.3253408100000001 5.536989630000001 1.0207305 0.126063 -2.041519 0.535471
5840 2.57958855 6.62237784 -0.38096154000000004 1.288329 -0.362454 -0.252251
5860 4.07138544 9.986187600000001 -3.02730714 1.916145 1.951098 0.058954
5880 4.4501004900000005 12.81245841 -4.35190239 0.937536 1.058142 0.171835
5900 2.53707201 8.08154667 -6.346353870000001 -0.974047 -0.013465 0.215404
5920 1.42548129 7.44297453 -3.30019191 -1.333736 0.14669400000000002 0.168889
5940 2.6411070600000004 7.634279340000001 -1.3247424000000003 -1.493013 0.7248899999999999 0.102942
5960 1.2958519500000003 8.91845739 -2.63272932 -1.592904 -0.573484 0.140228
5980 -1.73069982 12.363543 -6.12945477 -0.384124 -1.6117290000000002 0.05813400000000001
6000 -3.08313585 11.33293383 -3.0482613 0.61833 1.194548 -0.362544
6020 2.7366074100000004 6.99346071 3.78353061 1.333544 2.312403 -0.278864
6040 4.52209608 6.62956857 2.84618511 1.584751 1.932345 -0.291577
6060 8.74076886 8.79151599 3.2997406500000004 1.415209 1.7644259999999998 -0.243408
6080 13.715527770000001 15.79934835 -0.0026977500000000005 1.364399 0.7555390000000001 0.084406
6100 18.18418878 27.52267113 -14.49600156 1.57058 0.282184 0.264846
6120 7.31813247 20.93426532 -4.1156874000000006 2.070032 0.178835 0.36888
6140 5.347774350000001 6.223758300000001 9.381891600000001 1.904583 -0.58521 0.572734
6160 3.44553687 6.03156078 0.8033801400000001 2.54501 -2.772811 0.697515
6180 1.7348886900000002 7.076688750000001 1.6603425000000003 2.877085 -3.397482 0.248777
6200 1.21831371 7.46123094 2.44501497 2.453607 -4.548709 0.265454
6220 2.11809672 8.94165804 -0.99213435 2.216001 -4.293918 0.689688
6240 2.74469085 8.04696642 -4.5493384500000005 1.744998 -3.2863860000000003 0.619946
6260 3.02221575 7.45165638 -4.472104320000001 1.188993 -1.093433 0.947605
6280 2.17602477 5.96524518 -1.8794880900000002 0.927105 -0.502317 0.936473
6300 2.6047315799999997 5.238353610000001 -3.88307268 0.058264 -0.264218 1.020898
6320 2.85022683 4.70202129 -1.2840309 -0.8499459999999999 0.376016 1.008392
6340 2.67030162 4.506076350000002 1.15364619 -1.307541 0.566444 0.936586
6360 3.6250108200000004 4.394409120000001 0.39892365 -1.913807 0.277591 0.704121
6380 6.334679970000001 5.2867071 0.22048956 -2.281079 0.4491270000000001 0.217432
6400 11.47963257 5.9879945700000015 -5.11995672 -2.470268 1.403612 -0.416432
6420 10.206078750000001 6.7079995199999995 -5.466926610000001 -2.411987 1.609624 -0.8361
6440 6.48930519 10.285412220000001 -3.89684592 -2.006948 1.252443 -1.108415
6460 3.5408900700000006 12.029434020000002 -4.20954948 -1.665173 0.653399 -1.314631
6480 4.252654620000001 14.837291460000001 -3.52876491 -1.469437 -0.063424 -0.713073
6500 7.5538962 17.987341320000002 -3.1853756700000004 -1.823849 -0.554028 0.269981
6520 9.31633137 16.558720830000002 -2.5246525500000003 -2.531225 0.033968 0.6253449999999999
6540 2.8011277800000003 13.74996087 -1.3831217100000002 -2.254354 0.214817 0.447586
6560 -1.66378581 13.28622255 -8.562197430000001 -1.0563280000000002 0.253969 0.274307
6580 4.27601223 7.95880395 -6.48930519 -0.327552 1.232511 0.286689
6600 4.10236542 5.554500480000001 -4.06734372 -0.388081 1.973337 0.490416
6620 3.1931550000000004 4.159547910000001 -2.5465092300000003 -0.643019 1.182023 0.39885
6640 2.6879596200000004 3.6498595500000004 -2.2282630200000004 0.742734 0.930937 0.183456
6660 1.08195471 3.4112607300000004 -1.86212439 2.194938 1.941832 -0.262758
6680 -0.51568227 4.161794400000001 -0.7726944600000001 1.835263 1.080802 -0.145594
6700 -0.74200878 4.93075125 -0.5471135100000001 -0.47472 1.355828 -0.320179
6720 0.67000338 5.53115268 0.50504823 -1.460342 1.575858 -0.144679
6740 2.62285065 6.6919797899999995 -0.39488193 1.936037 -2.199897 0.743801
6760 4.03890453 9.521105310000001 -2.46491946 2.580868 3.1204810000000003 -0.444238
6780 4.43707281 11.109000960000001 -2.6343675900000005 0.792354 1.140376 0.511479
6800 2.92851063 7.45988697 -1.76692815 -1.255576 -0.890337 0.496571
6820 1.19391624 6.47493354 -2.62479303 -2.128051 -0.7662479999999999 0.32474400000000003
6840 0.29997999 7.59310677 -3.16935594 -2.296791 -0.39373 0.020781
6860 0.19578798 8.51054778 -1.6712708400000003 -0.532431 -0.640949 -0.15779
6880 0.38245266 10.2176055 -2.1198919500000004 0.248436 0.726308 -0.428621
6900 -1.09707192 12.525349140000001 -6.001914960000001 0.564331 2.175035 -0.4239979999999999
6920 -1.5329596500000002 9.82946304 -2.45864106 0.931471 2.283159 -0.342523
6940 2.62314495 6.4637109 4.00057686 0.839242 2.182476 0.139798
6960 3.4296642900000003 5.5528524 2.93509314 0.8031510000000001 2.481968 0.399808
6980 8.45097165 8.8148736 1.09647351 0.938918 2.281319 0.376444
7000 11.325144690000002 11.775266730000002 2.10506904 0.975519 0.987713 0.434974
7020 25.06836609 38.725965810000005 -41.854914359999995 0.91533 0.158039 0.177107
7040 7.353909540000001 18.12894867 17.18082198 0.8969600000000001 0.474809 -0.168463
7060 3.1838747400000003 2.4698637 5.399276850000001 1.047304 0.141381 0.232529
7080 4.12273098 4.724623530000001 1.8886212 1.158269 -1.478277 0.512049
7100 3.3337126800000005 9.70551369 2.72373669 1.798832 -3.118606 0.440645
7120 2.6485920899999997 13.238320320000001 -1.8546393600000002 2.511353 -3.884928 0.187026
7140 1.70151507 10.38210939 -3.3133569300000003 2.338489 -5.116803 -0.091408
7160 -1.36022517 8.54797293 -1.8453591 1.902728 -5.835804 0.004745
7180 -1.2921143400000001 6.17556177 -1.45601982 2.006307 -3.587627 0.335873
7200 4.34590848 6.64767783 -1.6657380000000002 1.837136 -2.925838 0.419301
7220 5.31110457 5.49566991 -2.24263467 1.095559 -1.131961 0.8070649999999999
7240 4.48272855 4.0359026700000005 -1.28597328 0.933669 -0.8183739999999999 0.582274
7260 4.46356962 4.34755656 -0.28785483 0.058217999999999985 -0.013128 0.567649
7280 5.54447466 5.2855102800000004 -0.17633475 -0.632373 0.39938 0.571911
7300 7.910597610000001 5.05349397 -1.5549634799999998 -1.1854129999999998 0.5239189999999999 0.543319
7320 10.666668060000001 5.03642457 -2.19503655 -1.7971689999999998 0.552077 0.425778
7340 9.873166590000002 5.98605219 -3.3196451400000004 -2.221616 0.716775 -0.16598800000000002
7360 8.752452569999999 6.37898193 -2.53453122 -2.442724 1.290767 -0.724811
7380 6.51265299 7.55299368 -5.8844107800000005 -2.472373 1.265496 -1.039043
7400 4.554881100000001 9.61720407 -2.85037398 -2.245117 0.914802 -0.915229
7420 3.78817074 10.7180136 -4.20295716 -2.321553 0.358924 -0.365985
7440 5.617372770000001 13.46016366 -2.89003581 -2.797102 0.443914 0.369794
7460 6.48691155 16.388223030000002 0.91758816 -3.103928 -0.110051 0.906745
7480 7.57559592 17.717605560000003 -2.75487363 -2.8900650000000003 -1.616332 0.716821
7500 4.173625260000001 13.743672660000001 -0.89888049 -2.31358 -2.992632 0.208796
7520 -2.08545885 13.301486910000001 -5.41798452 -1.016103 -0.356313 0.20914
7540 2.4340866300000004 6.11463186 -6.88253904 0.074382 3.338096 0.320981
7560 3.5610986700000002 5.03388378 -3.4908885 1.082209 1.716878 0.213662
7580 1.9826304300000002 4.19697306 -2.0657015100000002 2.480096 1.3302969999999998 -0.226868
7600 1.69343163 3.88038474 -2.41567326 1.667375 1.364219 -0.013602
7620 1.0942270200000002 4.712949629999999 -2.78181189 -0.8117949999999999 1.54379 -0.146518
7640 -0.12319398000000001 4.58017128 -2.19353562 -2.385197 1.160097 -0.5981920000000001
7660 0.26629245 4.97804526 -1.03165884 2.290402 -0.4697850000000001 -0.653175
7680 1.4668010100000002 5.764365810000001 0.13202298 2.544975 4.136218 0.252826
7700 3.2030434800000003 7.39552356 -1.1349385200000002 0.006355 1.258178 1.036744
7720 4.41237123 8.793311220000001 -1.5304188600000002 -1.264442 -0.448381 0.537604
7740 2.8839045600000004 7.52724243 -0.8008393500000001 -1.976624 -0.375545 0.256935
7760 1.89400689 7.15736619 -1.6714278 -2.115635 1.640534 -0.032902999999999995
7780 0.8972324100000001 11.0157471 -5.5859317200000005 -2.12832 0.706267 -0.282827
7800 -1.0352493 12.16250667 -6.9928623 -0.117857 -0.129805 -0.735594
7820 -2.223927 9.2808486 -2.58871185 0.093598 2.061762 -0.7262430000000001
7840 -0.8897473800000001 8.983870470000001 -4.87101816 0.005698 0.563261 -0.469631
7860 1.18853055 8.41564584 -0.11316816 -0.056303 -0.399369 0.021483
7880 2.6399102400000003 6.92609544 6.6692304 0.442004 0.371047 0.066705
7900 4.5494856000000015 8.757239850000001 3.65719743 1.126128 0.982887 -0.086329
7920 8.478969390000001 14.15486862 2.0348686800000007 1.275458 1.463924 0.167266
7940 17.09924202 31.32191736 -24.669746550000003 1.219264 1.342635 0.443699
7960 15.661929870000002 20.17369602 16.11114939 0.85598 0.8267040000000001 0.044444
7980 5.07774429 3.83083443 7.978404330000001 0.690029 0.31971 -0.097071
8000 4.72432923 5.91884388 1.6845928200000002 0.528112 -0.435565 0.041635000000000005
8020 3.3260805 10.25816985 2.7443965500000003 0.852425 -1.423007 0.009914
8040 3.36305439 12.568611240000001 2.29996431 1.36896 -2.634608 0.190263
8060 2.51702037 10.85257737 2.83181346 2.082534 -3.443169 0.374677
8080 -0.13591755 7.086714570000001 -11.76343587 2.396611 -3.803463 0.160483
8100 2.1775257 6.84226899 0.10612458 1.907807 -4.853996 0.094322
8120 4.81459104 5.5522539900000005 -1.11592674 1.559573 -4.262408 0.305844
8140 5.29089597 5.877229860000001 -3.48071553 1.480778 -3.818715 0.239563
8160 4.526137800000001 5.007239820000001 -2.8678848300000004 1.215325 -2.191749 0.396926
8180 4.611465180000001 4.1257230300000005 -2.97491193 0.989101 -0.864122 0.785682
8200 3.63818565 4.86309168 -2.1168999000000004 0.214681 -0.605496 1.24889
8220 4.42061163 5.29419213 -0.53364438 -0.777605 -0.01253 1.1418549999999998
8240 5.998628610000001 5.44477563 -0.70293555 -1.306092 -0.046154 0.951268
8260 7.95730302 5.87752416 -0.25956279 -1.5892 -0.06058300000000001 0.543384
8280 9.59070726 5.853725100000001 -2.2628432700000003 -1.89763 0.394073 0.066357
8300 8.96411313 6.703212240000001 -2.49067071 -2.277124 0.723198 -0.391778
8320 7.03192572 7.30450638 -3.1263979500000003 -2.272047 0.633718 -0.662957
8340 5.83052445 7.244488800000001 -3.47906745 -2.314128 0.165757 -0.550488
8360 4.740192 9.02278674 -4.322707830000001 -2.83171 0.656552 -0.028098
8380 5.24554434 13.98946221 -3.00410649 -3.186557 0.368947 0.540222
8400 5.473371780000001 14.862738600000002 -1.4000341500000002 -2.499167 -1.622622 0.619146
8420 5.48998011 16.47549279 -1.7642304000000002 -1.206753 -3.782673 0.7484460000000001
8440 7.504797150000001 15.211670490000001 0.45535077 -1.510161 -3.854244 0.528501
8460 6.17975064 10.61352729 0.5935148100000001 0.573295 0.703585 -0.08983200000000001
8480 1.05306426 15.545328210000001 -8.14980465 2.229048 2.425068 -0.724611
8500 3.54493179 9.546101190000002 -7.40899269 1.618588 1.878689 -0.75488
8520 3.11981544 4.814286930000001 -3.67141212 1.6404990000000002 0.859827 -1.191393
8540 2.3944248 4.12916634 -0.8394515100000001 1.477316 -0.217839 -0.616448
8560 2.16794133 3.6621318600000006 0.54831033 -0.93662 1.327888 -0.125748
8580 0.63438327 3.1651670700000003 0.7429014899999999 -2.164094 1.097286 -0.001567
8600 -0.36434340000000004 3.73997421 0.5957612999999999 0.324004 -2.015502 -0.280369
8620 -0.2484873 5.2810173 -0.16585766999999998 -0.376777 -0.699835 0.047403
8640 0.94902921 7.08282 -1.42712937 -1.395974 0.538101 0.642243
8660 2.2369448700000003 9.064253610000002 -0.44248005 -2.343832 0.314988 0.516267
8680 2.14234704 9.64997928 1.15005573 -2.7791490000000003 -0.856558 0.296811
8700 1.19616273 9.4541913 -1.7651329199999999 -2.562913 -1.184295 0.28378600000000004
8720 2.42166717 9.83185668 -4.58796042 -2.217134 -0.084623 0.173697
8740 1.81587024 13.28382891 -19.15836102 -1.696391 0.7291350000000001 0.017127
8760 -3.5363970900000004 15.28381323 -7.365436290000001 -1.195669 0.923777 -0.340684
8780 -2.12139288 9.76434426 -5.085072360000001 -0.991126 0.856908 -0.5784520000000001
8800 -0.20702043 8.430468750000001 -7.65224145 -1.087199 0.5591619999999999 -0.627879
8820 5.763914550000001 9.067392810000001 4.19218578 -1.450744 -0.26967 -0.5674
8840 7.33564332 5.982756030000001 12.69465012 -1.846963 -1.309172 -0.808117
8860 9.10840842 11.87301357 5.49626832 -1.529058 -0.8818729999999999 -0.8481049999999999
8880 11.46226887 15.74785566 3.5154429300000003 -1.0497299999999998 -0.820675 -0.850176
8900 15.250135500000003 26.41736862 -23.58405423 0.022371 -0.775702 -0.772242
8920 10.160423009999999 13.32244107 7.50659238 -0.067651 -0.724711 -0.39265
8940 5.35391541 9.605373210000002 5.29029756 -0.031067 -1.335373 -0.359565
8960 6.29395866 12.90915558 2.5042968 0.498999 -2.192215 -0.462655
8980 4.071532590000001 13.78199052 0.8033801400000001 1.460818 -2.772873 -0.210569
9000 2.5797357 10.17778671 1.16172963 1.837962 -3.758399 0.8295030000000001
9020 2.5361793000000006 6.89346738 2.09444481 1.490178 -5.101136 0.188929
9040 0.68961357 5.19898608 -0.33186249000000007 2.094853 -4.632811 -0.235804
9060 0.17274429 4.5523305 -0.8984292300000001 2.9323 -3.108582 -0.117608
9080 0.54292464 4.064498820000001 0.8646043500000001 3.20475 -0.839501 0.167671
9100 1.7449243200000002 4.45637889 1.65885138 3.079173 -0.153701 0.069775
9120 2.56102803 5.56871517 -0.32527017 2.674975 -0.981539 -0.082607
9140 4.33887471 6.26910993 -3.5735181300000005 1.398259 -4.079655000000002 0.298074
9160 4.60771776 7.618259610000001 -0.66715848 1.302922 -5.328657 1.037149
9180 4.448599560000001 10.70543718 -3.00186 0.878128 -4.346126 1.584126
9200 5.5556973 11.6320113 -2.24263467 0.452823 -3.2782150000000003 2.092533
9220 7.66556343 12.85108038 -2.18784582 -0.091276 -4.080118 2.2350380000000003
9240 7.718400090000001 12.8958336 -2.25760473 -0.472689 -4.78451 2.360395
9260 7.67064501 12.17613276 -2.84618511 -0.481234 -4.305352 1.889704
9280 10.770251850000001 11.31886629 -2.1007330200000003 -0.955177 -3.315722 1.504838
9300 12.11835186 11.70221166 1.22474907 -1.191394 -2.198816 1.053104
9320 12.904368300000002 12.701683890000002 0.13921371000000002 -1.363371 -1.127445 0.74395
9340 5.9040209699999995 11.554325910000003 0.6740451000000001 -1.4115799999999998 -0.233574 0.493572
9360 2.1920445 8.51504076 2.7184981500000003 -1.393235 -0.046825 0.396253
9380 4.06105551 11.58410907 4.74184008 -1.4187610000000002 -0.243902 0.418759
9400 7.41767454 17.05044708 0.73916388 -1.553816 -0.181503 0.382485
9420 7.03536903 15.741263340000001 0.6679138500000001 -1.687289 -0.334985 0.252494
9440 6.29620515 13.059140670000001 1.12819905 -1.414569 -0.772147 0.382078
9460 5.8013397 9.225912600000001 1.3099292999999999 -0.790776 -1.187125 0.5204949999999999
9480 8.62536402 6.53855139 -1.4569223400000002 0.174558 -1.090705 1.1445459999999998
9500 9.58891203 7.57693989 0.37032750000000003 0.512787 -1.211532 1.496372
9520 6.11463186 8.510106330000001 0.6598304100000001 0.017696 -0.658358 1.58514
9540 2.9532122100000002 7.9716746700000005 1.7163281700000002 -0.978467 1.797221 1.3539139999999998
9560 2.62823634 6.09262803 3.55974489 0.018464 -1.674661 -0.802096
9580 1.85209857 3.02221575 2.83870008 1.315275 -0.971646 -1.642107
9600 -0.15971661 2.63062998 1.8883269 0.142638 1.201194 -1.344366
9620 -0.74859129 4.19996511 0.9629496000000001 -0.5697220000000001 -0.366301 -0.609192
9640 -0.71835687 5.96299869 0.40325967 -0.920358 -0.05739 -1.099146
9660 -1.1662226100000002 7.471266570000001 -0.99872667 -1.577711 -0.08315299999999999 -1.810868
9680 -1.2802834800000003 8.30113371 -2.63796786 -1.972965 -1.4249969999999998 0.292488
9700 -0.22887711000000002 8.48705283 -3.36260313 -1.981074 -1.782663 1.031031
9720 1.1642802300000001 7.395817860000001 -3.35692314 -2.247173 0.199057 1.450717
9740 2.1999709800000002 7.0880585400000005 -7.149135600000001 -2.396001 0.361324 1.493267
9760 4.52838429 10.158470819999998 -9.946967220000001 -2.289245 -0.747408 1.079895
9780 9.9605835 15.06107718 -11.749515480000001 -2.2294240000000003 -0.644849 0.6892119999999999
9800 10.293495660000001 12.895235190000001 -9.580975740000001 -2.2309810000000003 -0.472555 0.4945640000000001
9820 4.69768527 6.1869315600000006 -6.80949378 -1.943326 -0.452914 0.12908
9840 2.6655045300000006 1.44104976 -4.35429603 -1.666549 -0.602011 -0.120896
9860 1.31935671 7.31753406 5.273983530000001 -1.571202 -0.8851700000000001 -0.254463
9880 2.3234690700000002 27.070302599999998 -9.21064824 -1.375753 -0.588691 -0.240659
9900 7.76644947 18.40273596 4.24442403 -1.286025 0.15241 -0.235641
9920 2.1125540700000003 1.50002748 8.797058640000001 -1.484833 0.37017 -0.174284
9940 1.87904664 1.09287324 4.80890124 -1.51144 0.050007 -0.272336
9960 4.91128821 6.03664236 5.96584359 -1.331487 -0.8344209999999999 -0.366086
9980 6.705605879999999 11.34895356 3.7095828300000004 -1.068957 -0.866034 -0.413349
10000 11.153754180000002 20.3401521 -2.08591011 -0.6115729999999999 -0.648382 -0.361295
10020 9.94561344 10.76711265 0.44053767000000005 -0.229984 -0.4517270000000001 -0.32042600000000004
10040 3.27324384 7.691304870000001 2.38978467 -0.25716100000000003 -0.734201 -0.252956
10060 0.07289811 8.60769621 -1.2780468 -0.264434 -1.317227 -0.166802
10080 0.40820391000000006 9.82766781 -0.6867686700000001 0.181958 -1.484859 -0.191243
10100 0.15792137999999997 8.370892620000001 0.14849397 0.8100689999999999 -1.7927560000000002 -0.195007
10120 -0.41897529 7.652839860000001 -0.6147730800000001 1.375448 -2.929513 -0.125507
10140 0.44427528000000005 7.619005169999999 -1.4456898900000001 1.625653 -3.699631 0.170988
10160 2.9979654300000003 8.025413850000001 -1.1951130600000002 1.491011 -3.853092 0.302704
10180 4.67582859 8.255634930000001 -1.08210186 2.138835 -3.5911699999999995 0.041974
10200 5.31933516 8.16566742 -0.55624662 2.741806 -2.78813 0.096432
10220 5.373672750000001 8.48031336 0.5652227700000001 3.243493 -1.187346 -0.256765
10240 5.31768708 7.947120240000001 0.8108651700000001 3.35061 0.788333 -0.513853
10260 4.91787072 8.51279427 0.48034665000000004 3.323517 0.480579 -0.251934
10280 4.657415220000001 9.317675340000001 -0.83660661 2.543663 -1.918541 0.186869
10300 5.929468110000001 10.507402710000001 -0.7246450799999999 2.069668 -3.863012 0.682773
10320 5.83546869 10.87024518 -1.47667968 1.7334740000000002 -3.865028 0.945346
10340 6.3559284300000005 11.25778923 0.08023599000000001 1.217511 -3.266586 1.452653
10360 6.61953294 10.61457696 0.56732211 0.944255 -2.942367 1.32962
10380 6.503372730000001 10.217752650000001 -0.7328756700000001 0.759313 -2.489443 0.91221
10400 6.96621834 10.49153013 -1.43820486 0.6372909999999999 -1.894586 0.64354
10420 7.892488350000001 10.567577250000001 -1.30244427 0.4855640000000001 -1.4436639999999998 0.431462
10440 8.57506815 10.32882147 -0.09894366 0.220487 -0.665899 0.366657
10460 7.6948953300000005 10.47746259 2.2023744300000003 -0.368444 -0.043501 0.27522
10480 3.92872842 9.167386140000001 2.4189694200000003 -0.847076 0.086899 0.314438
10500 0.06780672000000001 9.647732790000001 1.98277758 -1.246802 0.06113 0.445207
10520 0.97043463 13.631407020000001 1.78534152 -1.559662 0.506326 0.472361
10540 3.1609782 17.77912407 0.8156524500000002 -1.583479 1.196377 0.288645
10560 5.01008472 18.44239779 1.0090467900000002 -1.546293 1.899119 0.075428
10580 4.798571310000001 15.34489029 1.72785492 -1.479064 1.876509 -0.188993
10600 2.77657335 11.67018201 0.45206442 -1.271462 1.3862709999999998 -0.582156
10620 2.36388627 9.01230966 -0.47855142 -1.400866 0.964273 -0.698956
10640 5.0126255099999995 8.040383910000001 -1.6338555000000001 -1.716875 0.496547 -0.407871
10660 6.8693642100000005 7.25451462 -1.28044044 -2.060096 -0.06365599999999999 0.388411
10680 5.511238379999999 6.38751663 -0.8514295199999999 -2.059542 -0.325966 0.716696
10700 1.4379105600000002 4.98762963 0.10912644 -1.714152 -0.5056649999999999 0.600766
10720 -0.8753757300000001 4.3327434600000005 0.59920461 -1.471524 -0.058586 0.474769
10740 -0.7909508700000001 4.0257297 -0.23291883000000002 -1.080122 -0.030477 0.29907399999999995
10760 -0.0170694 3.2636594700000003 -1.49538735 -0.057374 0.267676 -0.023176
10780 0.38275677 2.97386226 -2.40999327 2.040159 1.974019 -0.451887
10800 0.5545985400000001 3.4450856100000005 -2.39681844 2.309158 1.902343 -0.07710700000000001
10820 1.54568322 3.52441908 -2.7288280800000004 -2.054524 3.018178 -0.146405
10840 1.95014952 3.63788154 -2.80980963 0.909785 -2.499805 0.177269
10860 1.65526092 3.48849486 -3.0286511099999998 0.8348620000000001 -0.476454 -0.121745
10880 1.47637557 3.39000246 -2.32301781 0.363956 0.34168000000000004 0.5511699999999999
10900 1.73249505 3.8377210500000003 -1.6938730800000001 -0.815021 0.795473 0.777363
10920 0.8101196099999999 4.988228040000001 -1.62262305 -1.161384 0.698447 0.832752
10940 0.32347494000000004 6.39754245 -2.25416142 -0.818653 0.44497 0.521413
10960 0.7243409700000001 8.455768740000002 -2.65652838 -0.394222 0.7358359999999999 0.14265
10980 2.06405343 11.80220499 -2.78091918 0.091326 0.106354 -0.035818
11000 2.17004067 12.37761054 -2.31897609 0.208035 0.4275890000000001 -0.283242
11020 0.1155618 10.03768029 -3.5464229100000004 0.523111 0.722713 -0.300647
11040 -0.3902418 10.87982955 -4.100118930000001 0.599688 0.925837 -0.281145
11060 -0.22512969000000002 12.05428275 -5.97842001 0.489087 0.921342 -0.127019
11080 0.0076321800000000006 12.693159000000001 -7.533687600000001 0.533569 1.022752 0.04835
11100 3.7625764500000005 11.123215649999999 0.66057597 0.499526 0.58498 0.063628
11120 7.05198717 9.92465928 8.111182680000002 0.8479540000000001 0.043541 0.097734
11140 9.04269123 15.83287893 1.22474907 1.173947 -0.414138 -0.015837999999999998
11160 13.210332390000001 19.1025225 -0.93884643 1.710321 -1.185034 0.22711
11180 8.016732000000001 19.70487612 -7.6091264999999995 2.206176 -2.6896560000000003 0.442941
11200 7.169785650000001 6.92804763 5.354062560000001 2.729451 -3.914881 0.29541
11220 5.35032495 7.8317154 2.17961523 2.733486 -4.536741 -0.039186
11240 3.41530245 9.85400766 0.8689403700000001 2.222316 -5.001488 0.474858
11260 2.43169299 9.52903179 -2.0281292100000003 1.704103 -4.118167 0.339783
11280 1.51006311 8.78598315 -0.786762 1.369326 -1.612864 0.419692
11300 1.7384889600000002 6.588700110000001 -2.36687832 1.091981 -0.121694 0.713878
11320 3.94264881 6.27225894 -4.900811129999999 0.604457 -0.110304 0.951876
11340 4.139790570000001 6.01644357 -4.410576 -0.467717 0.483163 1.054722
11360 3.3033311100000002 5.88964932 -3.57621588 -1.06779 1.0457610000000002 1.009217
11380 3.33985374 5.1681532500000005 -2.5312350600000006 -1.7922619999999998 0.963348 0.934828
11400 3.5064569700000003 5.05858536 -2.57569398 -2.249119 0.968757 0.511818
11420 3.66633054 5.54132565 -0.73617183 -2.670679 1.304938 -0.075875
11440 3.97737621 5.531751090000001 -0.61462593 -2.902036 1.7542509999999998 -0.615382
11460 6.754400820000001 6.80694318 -3.7829322000000003 -2.7652330000000003 1.472825 -0.951624
11480 8.868161520000001 6.9888205800000005 -4.56071805 -2.447099 1.030631 -1.200935
11500 8.8151679 7.7345669699999995 -3.8767844700000005 -2.200437 0.250779 -0.598941
11520 5.89952799 10.631038140000003 -6.258034439999999 -2.42022 -0.774532 0.5181979999999999
11540 3.8079280800000004 14.25950208 -4.0302226800000005 -2.710354 -0.458353 0.8212780000000001
11560 3.6847341 15.228131670000002 -2.83719915 -1.834134 -0.250203 0.489573
11580 6.44589594 16.76917476 -3.9053806200000003 -0.703835 1.194963 0.412295
11600 7.34343246 15.69665727 -1.1201254200000001 -0.099218 2.288169 0.628762
11620 2.63407329 12.594813750000002 -1.92095496 0.090788 1.586601 0.61817
11640 -2.2384458 11.703408480000002 -6.1745121 0.57055 0.554618 0.135734
11660 0.9931840200000001 6.2484598799999995 -4.830905070000001 1.319601 0.08642899999999999 -0.113739
11680 1.76632974 3.68922708 -3.32593335 -0.391108 0.660198 -0.391342
11700 1.49478894 3.1168233900000004 -2.39457195 -1.397057 1.116527 -0.682033
11720 1.6658851500000003 3.0600823500000005 -2.2552110900000004 0.210341 -1.276317 0.113132
11740 1.1811926700000002 3.02999508 -2.6634150000000005 1.142732 -0.360272 -0.138971
11760 0.44742429 3.64776021 -1.92994092 0.8831629999999999 0.567447 0.385729
11780 0.28889469 4.187839950000001 -0.39488193 -0.363047 0.289691 0.5963649999999999
11800 0.73302282 4.73076459 -0.95950629 -0.879818 -0.12573399999999998 0.5035569999999999
11820 1.9374259500000002 6.68764377 -2.28230631 -1.019779 0.676257 0.399003
11840 4.09128993 11.275898490000001 -3.3923961 -1.061328 1.646728 0.167801
11860 4.36761801 13.608951930000002 -3.2222024100000004 -1.171138 0.833609 -0.190846
11880 2.79783162 9.54400185 -3.459751560000001 -0.279239 -1.2460790000000002 -0.363549
11900 0.05149269000000001 9.01964754 -5.86809675 0.248589 -0.471946 -0.474086
11920 -0.2633004 8.439454710000001 -2.88046125 1.163986 1.402095 -0.257517
11940 -0.19714176 7.89098742 -1.6001679600000003 1.470332 2.445817 -0.194758
11960 -1.8356373900000003 9.81269775 -2.7280727099999997 1.387561 1.883437 -0.14440899999999998
11980 -0.30206952000000004 8.68778505 1.82110878 1.122454 0.116073 0.102763
12000 2.8428889500000003 8.915612490000001 3.4765168500000003 0.982166 -0.5838439999999999 0.231935
12020 8.068224690000001 13.695623280000001 0.43544628 0.999943 -0.233253 0.187813
12040 12.71949885 16.687153350000003 1.24091595 1.580155 -0.081688 0.143602
12060 18.044072550000003 25.44334353 -14.18794794 2.016432 -1.561442 0.585448
12080 10.173146580000001 15.705191970000001 -2.18590344 2.458518 -3.510817 0.44896
12100 4.8717735300000005 6.483321090000001 6.380178750000001 2.4444790000000003 -4.20789 0.024603
12120 3.78667962 7.4759067 1.9687100400000002 2.114898 -4.9076629999999986 0.015719999999999998
12140 2.54366433 8.299044180000001 0.6686594100000001 2.146467 -4.44154 0.105074
12160 1.4199484500000001 8.01358299 0.6861702600000001 1.552764 -1.857591 0.189483
12180 1.0021699800000001 7.9273629 0.49067658000000003 1.335261 -0.882817 0.898151
12200 0.9448305300000001 7.823484810000001 -2.15686584 0.763235 -0.557597 0.7837109999999999
12220 1.4572166400000002 7.361237610000001 -5.07160323 -0.013766999999999998 -0.022767 0.90899
12240 2.39531751 7.301965590000001 -4.31373168 -0.473397 0.673638 0.8461350000000001
12260 4.2090982200000004 5.46588675 -2.57674365 -1.122459 0.813361 0.8328760000000001
12280 3.1838747400000003 4.02752493 -2.40999327 -1.637958 0.793652 0.614588
12300 2.71744848 3.87020196 -0.5252568299999999 -2.076396 1.314677 0.169682
12320 3.2061826800000004 5.337150120000001 0.00837774 -2.535203 2.068998 -0.25750500000000004
12340 4.396508460000001 4.788692640000001 0.26869590000000004 -2.636083 2.081334 -0.590443
12360 8.89450137 6.00521112 -3.2657588100000003 -2.148184 1.602592 -0.904751
12380 11.619738990000002 6.693333570000001 -3.6516547800000003 -1.6704759999999998 0.699177 -1.036989
12400 8.55935253 7.45869015 -4.51236456 -1.310874 0.020654 -0.298671
12420 6.67716669 11.08580031 -4.46461929 -2.079915 -0.208324 0.6191939999999999
12440 4.27720905 15.069160620000002 -3.6181242 -2.5368060000000003 -0.4987470000000001 0.383503
12460 4.24516959 17.579294370000003 -3.29629734 -1.587105 -0.005671 0.129927
12480 5.41813167 18.87335109 -3.0088937700000002 -0.490306 1.966332 0.200222
12500 7.621398810000001 16.72815915 -0.9714843000000001 -0.17018699999999998 2.474439 0.462453
12520 -0.7536826799999999 16.72112538 -4.62089259 -0.233668 1.913129 0.4947760000000001
12540 0.46897686000000005 9.67468086 -5.00200128 1.000421 1.159615 0.049299
12560 2.66834943 6.46056189 -2.96937909 1.901191 0.150204 -0.315925
12580 2.43977643 5.961056310000001 -2.5361793000000006 -0.4900560000000001 1.224912 -0.601061
12600 1.8182736900000003 4.92326622 -2.45908251 -0.088915 -1.6440259999999998 -0.378801
12620 1.49449464 2.87941158 -3.30976647 0.2653 0.6859649999999999 0.054385
12640 1.1473677899999999 2.3104413900000003 -2.99466927 -0.338235 -0.200117 0.520254
12660 0.61761798 3.0620345400000004 -1.22969331 1.046333 0.15950699999999998 0.229294
12680 0.23395869 4.26432852 0.80847153 0.746217 1.638648 0.354558
12700 0.5063922000000001 4.898113380000001 1.40782329 0.408059 0.557124 0.448653
12720 1.4030360100000001 6.229448100000001 -0.04984461 -0.093287 0.191948 0.297136
12740 2.72313828 8.742122640000002 -2.25999837 -0.396306 0.863099 0.020695
12760 3.3084225000000003 11.881989720000002 -3.2495919300000002 -0.371742 1.082555 -0.002916
12780 2.38139712 10.26804852 -4.35324636 0.112475 0.715972 0.141942
12800 0.6974027100000001 8.354872890000001 -5.542826580000001 0.527238 0.6696310000000001 -0.083701
12820 0.52420716 8.076602430000001 -2.5824334500000004 0.737085 1.427741 -0.439993
12840 1.2463114499999999 8.36056269 -1.9717020900000002 1.0133299999999998 1.78193 -0.542135
12860 0.06496182 10.0095354 -3.9712449600000004 1.26045 1.025718 -0.257429
12880 -0.7683486300000001 9.676181790000001 -1.2237092100000002 0.973022 -0.565475 -0.090755
12900 2.92252653 8.127947970000001 4.322864790000001 0.977662 -1.108066 -0.0035020000000000003
12920 4.04563419 9.665253450000002 2.7831656700000007 1.598396 -1.236546 0.152686
12940 11.231890830000001 16.27430931 -0.57031416 2.156587 -2.425969 0.345048
12960 17.55009981 18.548532180000002 -1.07237034 2.540804 -2.475035 0.028397
12980 11.028764970000003 12.318338520000001 0.84933018 2.323359 -3.211172 -0.041613
13000 7.22682099 15.83512542 -9.2489661 1.79228 -2.939517 0.415801
13020 5.27592591 13.24266615 2.30655663 1.459251 -2.982004 0.40712
13040 3.7797929999999997 8.56444392 2.65742109 0.982219 -1.877459 0.590379
13060 1.90045206 6.336622350000001 -1.36590516 0.866001 -0.590647 0.435163
13080 1.6208278200000001 5.449268610000001 -1.18958022 0.034245 0.401034 0.380012
13100 2.3126878800000004 6.02242767 -1.5545220300000002 -0.5940300000000001 1.099016 0.33520500000000003
13120 2.34097992 5.66975817 -2.0660056200000003 -1.002227 0.813604 0.668141
13140 3.07370844 5.691163590000001 -2.75652171 -1.530794 0.411851 0.363725
13160 4.60621683 5.9721318000000005 -5.23117269 -1.919107 1.07263 -0.175013
13180 4.10536728 5.867498340000001 -2.94991605 -2.187266 1.221444 -0.659913
13200 3.8799334800000005 5.508844740000001 -1.20080286 -2.123827 0.8505299999999999 -0.665404
13220 5.15273193 5.464984230000001 -2.6116182 -2.15232 0.632559 -0.477316
13240 6.32270196 5.83815663 -2.8316663100000006 -2.035172 0.546025 -0.51698
13260 8.02825875 5.423370210000001 -2.122884 -2.270713 0.390247 -0.25137
13280 6.692431050000001 6.0833477700000005 -2.397564 -2.671912 0.071719 0.630724
13300 5.342094360000001 9.30868938 -4.76384391 -2.740475 -0.6375609999999999 1.17381
13320 5.31065331 13.201650540000001 -5.305718880000001 -1.750466 -2.128038 0.887806
13340 5.904766530000001 16.04633472 -2.33304363 -0.775605 -0.578171 0.603142
13360 5.44477563 19.356699600000002 -3.00559761 -0.654147 2.711917 0.369038
13380 5.48414316 17.349073290000003 -2.4120828 -0.429328 2.804024 0.051092
13400 2.43334107 14.038561259999998 -3.3410505600000007 1.324989 2.754636 -0.307264
13420 0.88450884 9.88170129 -7.10092926 2.272882 1.332818 -0.410984
13440 3.5331009300000003 7.62170292 -4.21433676 0.131889 -1.145425 -0.582997
13460 2.69350227 7.940841840000001 -2.0360655000000003 -1.311884 -2.453631 -0.651225
13480 1.71408168 7.60238703 -1.31232294 0.09967 0.997072 0.186357
13500 1.5028723800000001 5.14196055 -1.2602318400000003 -0.187993 0.10571400000000003 0.632007
13520 -0.57151098 3.6824876100000004 -1.4030360100000001 0.483602 0.380442 0.078734
13540 -0.96444072 2.99466927 -1.12101813 0.407228 1.732166 -0.093379
13560 1.2819315599999999 4.06255644 -0.26180928000000003 0.10192 0.415955 0.05359
13580 3.3118658100000005 5.760618389999999 -0.6620769 -0.5541550000000001 0.44046 -0.17748699999999998
13600 4.89437577 6.058499040000001 -1.61693325 -0.668377 0.591462 -0.011836
13620 4.45967505 6.241867560000001 -1.20828789 -0.25393000000000004 0.475032 0.240104
13640 3.35302857 7.35331113 -0.7117743599999999 0.440644 1.397405 0.209591
13660 2.4801936300000005 8.403824790000002 -3.9932487900000004 1.365891 1.817542 0.102283
13680 0.8795744100000001 9.10137465 -5.896840050000001 2.235721 2.534897 0.04121
13700 -0.30386475 8.42762385 -1.4871567600000002 2.482946 2.538021 0.111299
13720 -0.95651424 9.982293030000001 -0.23336028 2.370784 0.450261 0.429385
13740 -2.94183261 10.156979699999999 -2.7958892399999997 2.909564 -1.496509 0.622582
13760 -2.26044963 6.414160590000001 6.332129370000001 3.66472 -4.050043 0.25191
13780 0.46089342000000005 5.981706360000001 2.29548114 3.318049 -3.861308 -0.291274
13800 6.323751629999999 15.66402921 -7.613766630000001 2.856028 -3.296472 0.048743
13820 19.14144858 23.364310230000005 -2.4206175 2.646314 -1.4827290000000002 0.33551
13840 17.42407074 14.005030679999999 0.8442486 2.163819 -2.728264 0.810163
13860 9.683666820000001 21.277948860000002 -9.61136712 1.623721 -0.692481 1.001403
13880 3.4196384699999998 14.46352065 0.35221824000000007 0.613862 0.085773 1.193109
13900 3.0776030100000002 9.480835260000001 4.1330511 -0.727489 0.7052430000000001 1.154104
13920 3.5592936300000004 6.4117669500000005 -1.2162241800000002 -1.546303 1.108364 0.953451
13940 2.7395994600000004 6.36790644 0.5869323000000001 -1.673572 1.111495 0.547702
13960 1.6929803700000001 7.28684838 -0.22423698 -1.918841 1.483365 -0.060169000000000014
13980 1.518588 6.787931400000001 -2.38214268 -2.1797470000000003 1.935083 -0.908602
14000 0.91504737 4.92461019 -1.5232281300000001 -2.660832 1.621599 -1.48306
14020 1.03075632 3.4042171500000005 -2.6776296900000003 -3.44037 0.436629 -2.042462
14040 1.94850144 2.61970164 -2.87955873 -3.685376 -0.403231 -2.256741
14060 2.95156413 3.9977319600000003 -3.68563662 -3.628047 -0.688439 -1.047816
14080 2.09489607 5.049746550000001 -2.17452384 -2.199981 -2.39618 0.934148
14100 3.38460696 5.339700720000001 -0.6483036600000001 -1.244922 -1.894613 0.6838029999999999
14120 4.265231040000001 5.86376073 -1.94850144 -0.420966 1.6829040000000002 0.15620499999999998
14140 5.50974726 9.247023720000001 -5.3075141100000005 0.5384899999999999 2.265426 0.435625
14160 7.68681189 15.341594129999999 -3.9818691900000003 1.91767 0.410953 0.7948069999999999
14180 9.2723139 20.089271160000003 -0.6673154400000001 1.424441 0.86934 0.6102449999999999
14200 10.527307200000001 20.414394180000002 -7.91074476 -0.046366 1.908658 0.119008
14220 8.88732045 15.517183320000001 -4.0679421300000005 1.7352919999999998 -3.276161 -0.062729
14240 0.11989782 10.03318731 -11.08774269 1.402439 0.092061 -0.26165
14260 3.0250606500000004 6.33781917 -8.82729306 -0.336521 -0.228193 0.34725
14280 3.5075066400000003 7.078778280000001 -2.7913962600000004 -0.932318 0.463841 0.429796
14300 3.39643782 5.26095585 0.6134291099999999 -1.416305 0.921875 0.325416
14320 0.86549706 2.5741930500000003 0.21943989 -1.670609 1.051748 0.302108
14340 -1.0547025300000001 0.97013052 -0.265851 -1.299992 0.302082 0.175335
14360 -0.07753824000000002 -0.71625753 -1.4890991400000002 -1.255534 -0.045334 -0.095238
14380 0.71072469 0.42870681 -1.4533318800000001 -0.628656 0.559604 -0.337325
14400 1.12910157 3.60240858 0.31584275999999994 -0.256144 0.770443 -0.638369
14420 1.6082514 6.342910560000001 1.02461526 -0.228336 0.681393 -0.504532
14440 3.10664061 15.05119851 -1.9173645000000001 -0.268359 0.552771 -0.272843
14460 1.04393115 9.21273777 -10.686425400000001 -0.030129000000000006 0.610687 -0.04479
14480 -0.28051695 5.33131317 -5.947577370000001 0.276122 0.970413 0.306197
14500 0.32347494000000004 5.954316840000001 -2.1314187 0.684843 1.373219 0.4516770000000001
14520 -1.13104395 8.375238450000001 -1.45362618 1.009238 1.245778 0.072751
14540 1.8413173800000002 8.72011881 5.565723120000001 1.133048 0.18907 -0.045739
14560 4.91712516 14.591501910000002 5.28161571 0.761211 -0.74763 0.090665
14580 19.593954450000002 35.55735543 -24.979899510000003 0.457408 -1.259542 0.23234
14600 13.32813087 22.488188940000004 5.716757879999999 0.696709 -1.950475 0.183623
14620 7.26633567 8.61773184 2.9975141700000005 1.21438 -2.494974 0.303304
14640 5.1534873 9.418267080000001 3.71976561 1.977137 -3.24112 0.288224
14660 5.369189580000001 13.446537569999998 1.63624914 2.206529 -3.173051 0.116687
14680 3.8022480900000004 12.115202850000001 1.34105643 1.862692 -4.629398 -0.088947
14700 3.9573245700000004 9.568556280000001 -0.62884062 1.436084 -4.70619 0.037426
14720 3.5693292600000004 8.672962140000001 -2.7394523100000003 1.37004 -3.426843 0.106896
14740 1.83413646 8.97098994 -3.79072134 0.856498 -1.291521 0.424244
14760 1.6548096600000002 8.16102729 -2.7913962600000004 0.552111 -0.675589 0.6371100000000001
14780 2.8128016800000006 6.07841334 -1.4901488100000002 0.110073 -0.434685 0.715966
14800 3.8366713800000003 4.39845084 -1.96002819 -0.451987 0.103025 0.733784
14820 4.00925871 3.4471849500000005 -2.06959608 -1.066171 -0.065247 0.7233
14840 3.66348564 4.16614023 -1.6976205000000002 -1.484997 -0.39972 0.281764
14860 3.96780165 5.005444590000001 -2.75636475 -1.617068 -0.299545 -0.145507
14880 5.05184589 5.86675278 -2.87043543 -1.767139 0.106273 -0.53484
14900 5.8823212499999995 5.736220919999999 -2.0181033900000003 -1.829892 -0.347227 -0.55713
14920 6.07526433 6.007457610000001 -1.4693418 -1.868785 -0.790697 -0.17868299999999998
14940 7.347170070000001 5.82662988 -1.6802568 -2.033012 -0.6658149999999999 0.16825
14960 8.72220834 5.822745120000001 -1.90868265 -2.2387490000000003 -0.029623000000000007 0.29098
14980 7.1000365500000004 6.750663210000001 -3.54103722 -2.313243 0.471379 0.274862
15000 5.01427359 7.94622753 -2.52389718 -2.092156 -0.8462870000000001 0.32937
15020 3.9721376700000004 10.179434790000002 -4.03546122 -1.7075810000000002 -2.278881 0.212115
15040 4.928651909999999 13.967752680000002 -2.5219548000000005 -0.679389 -0.566768 0.332471
15060 6.056105400000001 14.69643948 -1.63325709 0.424321 2.14698 0.318543
15080 6.199360830000001 15.847397729999999 -1.21127994 0.923197 0.773424 -0.009498
15100 7.36828119 13.9541364 0.9842078700000001 0.8922899999999999 0.035429 -0.042951
15120 3.37428684 15.12904086 -0.52960266 0.909888 1.000807 -0.38376
15140 1.5762217500000002 16.48566576 -11.605514490000001 1.4706629999999998 0.47659 -0.57786
15160 4.58631234 9.66030921 -5.56782246 1.714478 0.71285 -0.465365
15180 3.24420624 7.42396275 -0.81115947 0.202333 1.355332 0.0157
15200 1.3974933600000001 5.5959673500000005 -0.0085347 -2.212407 2.771636 -0.160011
15220 0.8002311300000001 5.344635149999999 -1.4874608700000003 2.135688 -2.746255 -0.791275
15240 0.12185001000000001 5.80493016 -2.08231965 1.436944 0.867315 -0.756989
15260 0.30880899 6.3914112 -2.4361859700000004 -1.019941 -0.338831 0.369324
15280 1.6551039600000002 6.486764399999999 -1.2509515800000002 -2.175584 0.637505 0.435844
15300 2.5144697700000003 6.4156615200000005 -0.8958884400000001 -3.064118 0.650305 0.402916
15320 2.4766031700000006 6.20744427 -0.9241804800000001 -2.909869 -1.112196 0.403047
15340 2.07513873 6.4891580399999995 -0.74904255 -2.000051 -1.148459 0.424404
15360 1.4100697800000002 7.731869220000001 -1.2386694600000003 -1.872229 0.811729 0.29353
15380 0.019011780000000002 9.39476232 -5.236107120000001 -1.374925 0.93415 0.150501
15400 -0.96563754 10.03184334 -4.97550447 -1.035574 0.8289549999999999 -0.21019
15420 -0.58633389 8.836122060000001 -4.09069152 -1.190615 0.549084 -0.416013
15440 0.05673123 9.333842220000001 -3.2609715300000004 -1.522995 -0.413342 -0.5399470000000001
15460 -1.30005063 9.88199559 -6.183488250000001 -1.958934 -0.900359 -0.648122
15480 -0.8640059400000001 8.00625492 -4.623286230000001 -2.205283 -1.3925610000000002 -0.689804
15500 0.8015849100000001 7.59685419 -3.8811303 -1.782939 -1.393095 -0.655875
15520 2.38574295 7.446417840000001 -0.46433673000000003 -0.844413 -0.586483 -0.719787
15540 7.345227690000001 6.089037570000001 8.852593050000001 -0.311159 -0.591688 -0.679736
15560 9.436974750000001 10.88416557 5.215300110000001 -0.515853 -0.931208 -0.578182
15580 12.57714594 18.03569481 1.56873672 -0.837133 -1.689575 -0.593341
15600 14.90810004 39.05663148 -14.582820060000001 -0.605334 -1.880998 -0.609636
15620 7.035221880000001 6.81892119 12.256957350000002 -0.133467 -1.532345 -0.56299
15640 4.82342004 4.87670796 2.5147738800000004 0.146377 -1.833078 -0.4581
15660 4.8419805600000005 10.037229029999999 3.306470310000001 0.450749 -2.80095 -0.305183
15680 7.12727892 15.141313170000002 1.37862873 0.84955 -3.816411 -0.321392
15700 4.90949298 11.1287583 -1.77530589 1.433268 -4.369826 -0.426633
15720 2.6973870300000002 9.41587344 0.46463103000000006 1.898025 -4.557369 -0.283209
15740 1.8691581600000002 6.865028189999999 -0.8026345800000001 1.9713650000000005 -3.918303 -0.055984000000000006
15760 0.21075804 4.9470652799999995 -2.29427451 2.018432 -1.997641 0.176892
15780 1.13538978 4.9491548100000005 -0.25806186000000003 2.17908 -0.709075 0.14218
15800 2.63332773 5.736220919999999 1.19391624 2.267468 -1.36395 -0.0016420000000000002
15820 4.3743574800000005 6.4475440200000005 1.34270451 1.83615 -2.888845 -0.03902
15840 5.175039870000001 7.63682013 0.16675038 1.135438 -5.5203190000000015 0.362177
15860 5.566321530000001 8.258175720000002 -2.85771186 1.422932 -4.717691 1.058569
15880 5.98514967 8.85678192 -2.86534404 1.042872 -3.591194 1.5287620000000002
15900 6.0532605 10.45545876 -1.40078952 0.6044689999999999 -3.759136 1.815403
15920 5.64311421 10.98834777 -1.0762649100000001 0.402729 -4.354698 1.47613
15940 6.02152515 11.817322200000001 -0.11271690000000001 0.002857 -4.0976370000000015 1.208089
15960 5.82767955 12.27432105 -0.13921371000000002 -0.199755 -3.4552660000000004 1.115051
15980 6.180349050000001 10.910662380000002 -0.5321434500000001 -0.378063 -2.440996 0.971501
16000 7.727081940000001 10.37746926 -0.80802027 -0.569141 -1.402248 0.8449209999999999
16020 9.122632920000001 10.77175278 -0.004640130000000001 -0.741629 -0.636791 0.581021
16040 10.167152670000002 11.575574370000002 0.44666892 -0.8569129999999999 -0.373533 0.381189
16060 8.19022185 11.165133780000001 -0.08891784 -1.081661 -0.482771 0.188548
16080 4.74961941 10.236764430000001 -0.2228832 -1.477596 -0.576993 0.118605
16100 3.5292063600000003 7.16305599 -0.025594290000000002 -2.098386 -0.464368 0.197446
16120 6.0496700400000005 8.83372842 1.90523934 -2.032913 -0.645459 0.40537
16140 6.621632280000001 11.27380896 4.481826030000001 -0.992875 -0.918507 0.653335
16160 6.41610297 13.83842745 2.9286577800000004 0.442462 -0.885806 1.087403
16180 5.376066389999999 12.525947550000001 0.92267955 0.453654 -0.645592 1.212155
16200 4.7948337 12.92367438 1.1066464800000002 0.070698 -0.708932 1.133718
16220 3.85792965 12.247235640000001 1.08928278 -0.124047 0.284958 1.305204
16240 5.673947040000001 9.41138046 0.0779895 -0.939471 2.108266 1.05789
16260 6.20744427 8.57597067 0.5793001200000001 0.822666 -1.560107 -1.1085459999999998
16280 6.05835189 7.76914722 1.48236948 1.274416 0.956245 -1.542314
16300 4.16418804 7.1597598300000005 2.03501583 -0.001083 0.666489 -1.235726
16320 2.0261868300000003 6.0755684400000005 1.29091752 -0.972328 0.434092 -1.151414
16340 0.36867942 4.96427202 1.58535486 -1.028455 0.324098 -1.83319
16360 -0.03726819 6.28917138 0.3586536 -1.851569 -1.438791 -0.6242489999999999
16380 -0.19175607 6.586002360000001 -0.31285071000000003 -2.2545 -1.617637 1.024637
16400 -0.54202212 6.10430193 -0.6255444600000001 -2.205521 -0.8372139999999999 1.354059
16420 -0.40416219000000003 6.38362206 -1.43476155 -2.221 0.182605 1.545993
16440 -0.33231375 6.62297625 -2.4695694 -2.457822 0.178038 1.295449
16460 -0.20447964000000002 6.430631580000001 -3.4257795300000002 -2.444935 -0.961122 0.8472770000000001
16480 0.93630564 6.61639374 -4.13993772 -2.251023 -1.150996 0.477134
16500 2.1609075600000005 8.09157249 -6.305485409999999 -1.845134 -0.569822 0.242079
16520 3.09480975 11.30389623 -9.49415724 -1.53954 0.061562 0.058602
16540 6.248008620000001 15.084277830000001 -10.736721270000002 -1.3961709999999998 0.21198000000000006 -0.118983
16560 6.421792770000001 12.9595986 -10.368041850000001 -1.338564 -0.368376 -0.22359
16580 2.85142365 7.45180353 -6.49783989 -1.511441 -0.81863 -0.42932
16600 1.12056687 3.7895245200000005 -4.80635064 -1.593535 -0.641215 -0.50276
16620 1.8365301 4.69438911 2.03396616 -1.314492 -0.730677 -0.483604
16640 1.5220313100000002 19.1309715 -0.38964339 -0.865382 -1.332483 -0.358987
16660 7.75162656 26.13475233 -3.5313057000000003 -0.092562 -1.25418 -0.364371
16680 2.44845828 5.34597912 7.86749247 0.365849 -1.214707 -0.243715
16700 1.8468600300000002 -0.05643693 2.30295636 0.862844 -1.704432 -0.217184
16720 5.26949055 2.74918383 3.9158577000000006 1.784988 -2.756217 -0.394197
16740 7.25526018 9.01276092 5.047657020000001 2.79998 -3.2970040000000003 -0.302025
16760 12.04215759 18.72710361 2.03367186 3.291028 -2.479582 -0.017632
16780 9.85431177 11.75221323 -3.0870304200000005 3.088606 -2.967201 0.620376
16800 4.48886961 8.56264869 0.71835687 2.810798 -3.527771 0.38735
16820 2.30071968 9.0178425 1.7322007500000003 3.307931 -0.990905 -0.15401700000000002
16840 0.42002496 8.920851030000001 -0.36164565000000004 3.198285 -0.5535 -0.485424
16860 -0.37302525000000003 8.84360709 -0.26958861 2.4585470000000003 -1.505415 0.310727
16880 0.24863445 8.518631220000001 0.10432935000000002 1.859073 -2.45832 1.232841
16900 2.2697298900000002 7.65119178 -0.12214431 1.315473 -3.027201 1.975391
16920 2.72822967 7.61466915 0.5652227700000001 1.037733 -3.899209 2.368743
16940 3.1025988900000003 8.11028016 -0.40595742000000007 0.574743 -3.642082 2.138716
16960 3.82963761 8.58045384 -1.6509150900000003 0.086749 -2.767154 1.679124
16980 5.032981260000001 8.611737930000002 -1.70809758 -0.279687 -2.206657 1.157758
17000 5.77513719 8.58734046 -1.05455538 -0.8081659999999999 -1.7662220000000002 0.964427
17020 5.90356971 9.40719159 -2.60547714 -1.232974 -1.040685 0.778933
17040 5.73203205 10.644212970000002 -2.9271666600000006 -1.300164 -0.311956 0.551066
17060 5.630390640000001 11.41002081 -2.11615434 -1.270731 0.203931 0.452334
17080 5.137918830000001 11.95488783 -2.99302119 -1.37532 0.461979 0.480115
17100 4.436170290000001 10.877278950000001 -2.7701379900000003 -1.6719529999999998 0.6559689999999999 0.443612
17120 3.7969997400000004 9.313633620000001 -2.9018666700000004 -1.954922 0.918584 0.283202
17140 6.11238537 7.96224726 -1.5338621700000001 -2.068182 0.953621 -0.121422
17160 8.16192981 12.712465080000001 0.94004325 -1.805349 1.372877 -0.499342
17180 8.22659733 15.702494220000002 4.07946888 -1.524304 1.582165 -0.8661840000000001
17200 2.63871342 18.32249997 2.1044706300000002 -1.140061 1.400606 -1.083321
17220 7.03790982 16.42280328 1.5302717100000003 -0.666714 1.285339 -0.640828
17240 8.54632485 15.08652432 1.2428681400000001 -0.941986 1.232498 0.023887
17260 4.90739364 13.43725731 -0.35655426000000007 -1.471314 0.977765 0.515103
17280 3.52577286 11.25345321 -1.9639129500000003 -1.395154 0.5993069999999999 0.520393
17300 3.7959598800000003 9.65357955 -1.82605302 -0.929009 0.213638 0.392752
17320 4.689003420000001 7.2811585800000005 -0.12678444 -0.53991 0.8206950000000001 0.359441
17340 4.1556631500000005 3.91391532 -0.35475903000000003 -0.198064 1.886835 0.37969
17360 2.31703371 1.91691324 0.43738866000000004 0.170594 1.576478 0.416846
17380 1.6991214300000002 1.89925524 0.59501574 1.112351 0.755119 0.141398
17400 0.30821058 3.20483871 1.02626334 1.707958 -0.33485 -0.060279999999999986
17420 -0.45295713 4.4598222000000005 1.05605631 -0.7189770000000001 0.648415 -0.091311
17440 -0.03622833 5.3570644199999995 -0.6102801 -0.908775 2.071323 -0.117961
17460 0.61058421 5.62844826 -2.05029 0.391602 0.963875 0.242918
17480 1.3672589400000001 5.80657824 -3.42293463 -0.588381 -1.479775 0.53617
17500 2.16180027 6.033051899999999 -3.4030203300000004 0.8816 -0.015372 0.149319
17520 2.4772015800000005 5.97766464 -2.6791306200000005 0.487176 1.511356 0.177723
17540 1.84027752 6.6443816700000005 -1.7172306900000003 -0.252827 0.351032 0.346025
17560 1.6233784199999999 6.6225249900000005 -0.90756234 -0.847764 -0.591584 0.024747
17580 1.4485347899999998 6.969357540000001 -0.40954788000000003 -1.108885 0.057507 -0.099686
17600 1.6325017199999998 7.97511798 -0.8931906900000001 -0.702433 1.021253 0.162564
17620 2.1623986800000004 9.69115185 -2.46058344 0.057492 0.976551 0.29291100000000003
17640 1.25693568 10.479856230000001 -2.5700041800000006 0.707134 1.185133 0.049354
17660 1.17041148 8.96665392 -1.68654501 1.306902 1.533121 -0.114613
17680 1.60810425 10.331519220000002 -1.82530746 1.5290290000000002 0.441313 -0.065729
17700 1.0672789500000002 11.041341390000001 -3.3183011700000002 1.445791 -0.713195 0.209702
17720 1.3109691599999997 10.09680516 -3.6901296 1.50703 -0.937743 0.366378
17740 1.67951124 8.948838960000002 -2.86279344 1.978102 -1.719329 0.4091260000000001
17760 1.16098407 7.39297296 -3.9880102500000003 2.686342 -3.24383 0.350865
17780 1.9339826400000002 5.918539770000001 1.6190325900000002 3.029862 -3.895216000000001 0.178911
17800 1.8726014700000002 4.8327003 4.90245921 2.3621540000000003 -4.564039 0.182582
17820 5.767505010000001 9.20990268 0.29114118 2.33385 -4.198399 0.676502
17840 10.521774359999998 17.87014125 2.84707782 1.907137 -3.059076 0.3783
17860 15.719563620000002 17.97581457 -4.486466160000001 1.51894 -2.9344080000000003 0.7065779999999999
17880 10.607994450000001 22.17563253 -5.662871550000001 0.841885 -0.448011 0.48395
17900 7.8926355 16.670083950000002 -2.5595271 0.371789 0.194717 0.799241
17920 1.8528441300000003 7.3010630700000005 5.95536651 -0.427227 0.8720379999999999 0.741517
17940 2.6063796600000004 6.7702734 1.2460073400000002 -1.14993 1.319577 0.804262
17960 3.0734043300000002 6.977735280000001 -0.8671451400000001 -1.47568 1.246017 0.56814
17980 2.3962200300000003 7.36199298 0.49696479000000005 -1.80035 1.423706 0.104173
18000 2.2083585300000004 7.42860288 1.03374837 -2.185867 1.677859 -0.514142
18020 2.97296955 6.16373091 -2.8737217800000003 -2.429898 1.656571 -0.83949
18040 2.99721987 4.46132313 -3.7782920700000004 -2.41647 1.3176709999999998 -1.081448
18060 3.9179570400000006 3.93441822 -2.32182099 -2.054636 1.09905 -1.335014
18080 5.72304609 5.28326379 -2.9819457000000003 -1.979432 1.1249360000000002 -0.947826
18100 7.010226 6.36925041 -3.47996016 -1.930791 0.497979 -0.048308
18120 7.289987580000001 6.214026780000001 -2.52015957 -2.343658 -0.110103 0.527496
18140 6.5090625300000005 5.83427187 -1.04438241 -2.191102 0.28914 0.454342
18160 4.379439060000001 7.979159699999999 -3.9158577000000006 -1.463378 0.818052 0.488658
18180 3.96166059 11.31362775 -4.45309254 -0.8197059999999999 0.8882680000000001 0.486655
18200 3.5530152299999997 13.46704047 -3.1043941200000003 -0.283748 0.74351 0.25878
18220 4.249515420000001 15.37347663 -0.9436337100000001 1.108212 1.146541 0.028704
18240 6.577771770000001 17.56956285 -3.61752579 2.242452 0.973073 0.067828
18260 6.597980370000001 15.0474609 -4.9614369300000005 0.372561 1.807148 0.099631
18280 3.76047711 10.471478490000003 -2.6406558 -1.651974 2.447427 -0.554127
18300 -2.68212267 10.182721140000002 -6.1710687900000005 1.941784 -1.650712 -0.467158
18320 0.41942655 7.982151750000001 -5.054092379999999 2.275806 -0.047151 -0.30451
18340 0.6950090700000001 5.949382409999999 -2.7443965500000003 0.130143 0.7623939999999999 0.771188
18360 0.37272114 4.472104320000001 -1.3522888800000001 -1.11332 0.8775290000000001 0.762355
18380 -0.006141059999999999 3.2337291600000007 -1.69896447 -2.124528 0.744351 0.578138
18400 -0.06885639 3.3477900300000005 -2.7086194800000003 -2.015225 -1.254828 0.131742
18420 -0.23456691000000002 4.0112109 -2.6402143500000004 -1.055474 -0.461232 -0.158469
18440 0.9891423 5.66661897 -2.70202716 -0.562027 0.753967 -0.249515
18460 1.9489428900000003 6.79227723 -2.8195411500000005 -0.12655999999999998 0.491605 -0.5505800000000001
18480 3.2067810900000002 8.280326700000002 -3.62187162 -0.045725 0.262035 -0.486696
18500 4.14113454 10.4547132 -3.42652509 0.106019 0.612919 -0.188052
18520 4.416717060000001 10.702141020000001 -2.5104280500000002 0.300164 0.99418 0.202717
18540 3.52501749 8.23631904 -1.5268284 0.772834 0.864301 0.30446100000000004
18560 1.11787893 7.13955123 -1.98576963 0.988468 0.316292 -0.034093
18580 -0.57390462 7.7856084 -4.46072472 1.137544 -0.332429 0.094898
18600 -2.2501197 8.53599492 -6.31970991 1.08919 -0.358032 0.145867
18620 -1.27040481 8.58853728 -3.39538815 1.305656 -0.993037 0.249674
18640 3.8907048600000005 7.175034000000001 4.731363 1.76408 -1.678952 0.354168
18660 4.57044957 9.9141822 4.03785486 2.42945 -2.035857 0.319749
18680 8.67191247 16.980541019999997 2.2080544200000003 2.832914 -2.9853080000000003 0.042841
18700 15.94708695 25.882821720000003 -16.50902337 2.49792 -4.330956 0.11807
18720 14.69464425 23.108494860000004 -3.11891292 2.321733 -4.265649 0.455382
18740 8.31775185 5.114718180000001 10.651698000000001 2.073843 -3.293785 0.321013
18760 5.773793220000001 2.9497689000000005 3.27594159 1.440298 -1.4692690000000002 0.6785140000000001
18780 3.25363365 7.53548283 2.9054571300000003 1.011733 -1.049565 0.787146
18800 3.0481141500000004 12.88251162 -3.5586952199999997 0.020875 -0.225091 0.5932970000000001
18820 2.95754823 12.162957930000001 -1.59508638 -0.441661 0.212919 0.682441
18840 1.71003996 9.16394283 -1.8256017600000003 -0.781842 0.8357700000000001 0.7946340000000001
18860 0.75846996 7.361688870000001 -2.83750326 -1.151984 0.886875 0.5900890000000001
18880 2.4532455600000005 6.416858340000001 -2.56371597 -1.4798950000000002 1.254349 0.0874
18900 4.167935460000001 5.68922121 -2.5655112 -1.966426 1.4657639999999998 -0.411924
18920 3.9315733200000005 4.92925032 -1.50227397 -2.210757 1.164215 -0.7134149999999999
18940 3.5777070000000006 4.02946731 -2.8777635000000004 -2.113792 0.917616 -0.933543
18960 3.9959367300000004 4.82970825 -2.65098573 -1.887339 0.718665 -1.1934209999999998
18980 4.2234698700000015 4.87551114 -0.87193242 -1.815816 0.466153 -0.978954
19000 4.0818625200000005 5.87498337 -0.99138879 -1.813225 0.282373 -0.31106100000000003
19020 5.39029089 6.8969106899999995 -2.3195745 -2.080645 0.045451 0.5601119999999999
19040 6.10386048 6.17255991 -1.4314752 -2.232501 -0.206751 0.624536
19060 6.20010639 6.48196731 -3.1976479800000006 -1.545032 0.265153 0.298652
19080 5.464091520000001 8.73568728 -2.4251104800000003 -0.63641 1.5470620000000002 0.480681
19100 4.826716200000001 12.433449060000001 -5.80342923 -0.330549 2.351735 0.650566
19120 4.5693999 15.60340341 -3.3849110700000002 0.320817 1.758155 0.408049
19140 4.9713156000000005 17.92103553 -1.89625338 1.7555889999999998 1.185362 -0.117443
19160 6.86262474 16.767683639999998 -2.7559233 1.422626 0.489682 -0.08148899999999999
19180 3.74640957 16.52832945 -5.2320654 -1.511407 0.8114 -0.468796
19200 1.1319464700000001 11.70026928 -8.092622160000001 -0.972741 -2.704041 -0.395367
19220 3.6046550700000006 7.713161550000001 -5.284009350000001 0.559087 1.281252 -0.149424
19240 2.64949461 8.44049457 -2.72029338 0.304293 0.718399 0.433835
19260 0.9768699900000001 6.91621677 -2.22347574 0.845046 0.209329 0.198983
19280 -0.08756406 4.90739364 -2.6313755400000005 0.67777 1.904831 0.181755
19300 -0.45535077 3.4717295700000004 -2.92805937 0.255984 1.020359 0.088075
19320 -0.29683098 3.3748852500000006 -2.47854555 -0.171595 0.628538 -0.123781
19340 0.6354329400000001 3.9531258900000004 -1.16636976 -0.441816 0.692762 -0.232573
19360 1.27460349 4.874765580000001 0.13172868000000001 -0.545127 0.5713729999999999 -0.156227
19380 1.9546326900000002 5.337150120000001 -0.06182262000000001 0.033595 0.352602 0.237996
19400 2.25057096 5.869891979999999 -1.98337599 0.763609 0.767166 0.361137
19420 4.16837691 8.29874007 -2.67418638 1.027259 2.199018 0.102634
19440 4.05311922 10.187959679999999 -4.06315485 1.50305 2.596048 0.036014
19460 1.7425306800000002 9.6713847 -5.72469417 1.640016 0.64679 0.13454100000000002
19480 0.56163231 9.45089514 -4.21058934 1.784454 -0.871942 0.187702
19500 0.28201788000000005 8.60066244 -2.45159748 1.784345 -1.411872 0.146732
19520 -0.24878160000000002 8.598415950000001 -3.68623503 2.051212 -2.008626 0.231614
19540 -1.3600682099999999 9.32815242 -3.1653142200000004 2.4933810000000003 -2.918471 0.405716
19560 0.79154928 6.6861428400000005 5.500761300000001 2.337524 -3.792903 0.5008199999999999
19580 2.45159748 7.3259118 4.585713930000001 2.25655 -3.56664 0.464713
19600 6.67446894 14.672336310000002 0.02439747 2.013306 -4.105622 0.397475
19620 13.418392680000002 23.41416465 -8.94659247 1.213704 -1.912241 0.563199
19640 13.50506403 16.63475814 1.75150683 0.841676 -1.615708 0.78882
19660 8.47567323 13.36630158 -1.52592588 0.069223 -0.973699 0.481363
19680 6.9091830000000005 15.334707510000001 -4.569547050000001 -0.372392 0.393821 0.404955
19700 2.7644481900000004 10.35501417 1.7607870900000002 -0.524142 1.249918 0.366478
19720 2.6981424 7.6148163 -0.45819567 -1.096666 0.975446 0.237849
19740 1.6018160399999999 5.86525185 0.05209110000000001 -1.6665759999999998 0.285698 0.0617
19760 1.4591688299999999 5.03867106 0.7481400300000001 -1.926759 0.5665020000000001 -0.404085
19780 2.232756 5.75793045 -0.26405577 -2.06035 0.797733 -0.8368770000000001
19800 2.9707230600000005 5.94129897 -1.75031001 -1.898168 0.596654 -1.0416530000000002
19820 3.8974443300000003 6.27929271 -3.71886309 -1.754043 0.511466 -0.909146
19840 3.85433919 5.65868268 -4.68436329 -2.070261 0.905823 -0.420478
19860 3.42233622 5.335953300000001 -3.1021476299999997 -2.377517 0.8901389999999999 0.0378
19880 3.3534798300000004 5.845641659999999 -1.58355963 -2.832824 0.479762 0.7594
19900 4.917723570000001 5.81839929 -1.9597240800000002 -2.533075 -0.52979 0.949726
19920 7.29957195 4.5435015000000005 -2.8714752900000002 -1.581773 -1.597386 0.439651
19940 9.1561635 5.204224620000001 -1.8598779 -1.1078059999999998 0.173273 0.252686
19960 8.212372830000001 8.63928441 -4.18379823 -0.649321 2.582004 0.352147
19980 6.763681080000001 12.57984369 -5.83172127 0.157675 2.530887 0.44758
20000 5.432356169999999 15.845602500000002 -3.0497622300000002 1.110844 2.07938 0.377904
20020 5.09121342 17.5321377 -3.80209113 1.70455 1.190046 0.087293
20040 6.96816072 17.290998090000002 -3.8404089900000002 0.8217639999999999 0.430159 0.139785
20060 0.7240466700000001 16.077314700000002 -5.83995186 -1.648834 1.054919 -0.508524
20080 0.4770603 8.46564741 -8.09486865 0.530883 -2.166862 -0.17084000000000002
20100 2.9491704899999998 6.81906834 -3.4810098300000005 0.25139 1.025389 0.166016
20120 1.48491027 7.6254405300000005 -1.25963343 0.12671500000000002 -0.07482 0.218898
20140 1.46216088 7.58083446 -3.2159142000000003 0.298335 0.825868 0.203988
20160 0.94947066 5.91645024 -4.62627828 -0.07219 1.089894 0.299338
20180 0.9623511900000001 4.93613694 -3.2233992300000005 -0.64504 0.793912 0.222008
20200 0.34547877 4.36163391 -2.36897766 -1.020664 0.862941 0.068677
20220 0.70757568 3.8017968300000002 -1.29510639 -1.180608 0.7861239999999999 -0.02955
20240 2.01496419 3.70673793 -0.7056333 -1.049448 0.415426 -0.1478
20260 2.8678848300000004 4.27331448 -0.42870681 -0.31461300000000003 0.541984 -0.199445
20280 3.3118658100000005 5.736073770000001 -0.31658832000000003 0.24841 0.7232109999999999 -0.187199
20300 2.9503673100000007 7.463330280000001 -1.8027052200000002 0.7620600000000001 0.837501 -0.17628
20320 1.9067304600000001 8.87055516 -3.00320397 1.3330229999999998 1.11366 0.0645
20340 1.03329711 10.54122759 -6.05431017 2.068673 2.050269 0.167783
20360 -0.016461180000000002 11.04179265 -6.08889042 2.303026 1.593009 0.028999999999999998
20380 -1.09691496 9.22141962 -3.2349259800000003 1.915979 0.045199 0.08916900000000001
20400 -0.04850064 9.7724277 -2.8428889500000003 1.689393 -0.8282069999999999 0.255348
20420 0.12857967 10.074654180000001 -1.4173978500000002 1.502861 -1.029839 0.4903810000000001
20440 1.6257720600000003 8.61159078 2.79169056 1.879539 -2.3841650000000003 0.7863720000000001
20460 2.66206122 9.30315654 3.4458311700000004 2.57266 -3.407139 0.795729
20480 5.7899601 12.15532575 1.2976471800000002 2.373899 -4.724065 0.496926
20500 12.66575967 17.82118935 0.49098069000000005 2.467797 -4.508996 0.710951
20520 14.940885060000001 19.486927350000002 -4.56176772 2.218302 -4.098552 0.848619
20540 9.07922367 15.73049196 -0.44951382000000006 1.335057 -2.6232330000000004 1.103342
20560 7.718851350000001 14.58312417 -2.61970164 1.1552 -0.929719 0.7954720000000001
20580 5.009780610000001 11.466909000000001 2.7590625 0.8394729999999999 -0.25727 0.737925
20600 4.14637308 8.84659914 0.82748331 -0.01379 0.784309 1.009437
20620 2.61461025 6.84945972 0.6969514500000001 -0.8746659999999999 0.611264 0.80816
20640 1.69252911 6.026165280000001 1.43027838 -1.460067 0.608279 0.730368
20660 0.32482872 6.29620515 -0.3671883 -1.991485 0.6628609999999999 0.329207
20680 0.67599729 6.01508979 -1.89326133 -2.50328 0.873607 -0.247204
20700 1.34854146 5.544916110000001 -2.2960795500000004 -2.86732 0.864898 -0.683434
20720 1.7392345200000001 5.363794080000001 -2.79154341 -2.727406 0.77107 -1.049805
20740 1.96586514 4.92670953 -3.41739198 -2.213123 0.824385 -1.241766
20760 3.6471618 5.53324221 -4.4250948 -1.751298 0.6731659999999999 -1.12191
20780 4.249211310000001 5.2474867199999995 -2.3822996400000003 -1.516798 -0.16538 -0.483605
20800 3.89998512 4.78764297 -0.16765290000000002 -1.836851 -0.442864 0.187495
20820 4.98059586 4.82566653 1.24316244 -1.802144 0.507853 0.300818
20840 10.090212840000001 5.8207929300000005 -3.9218418000000006 -0.992643 0.712651 0.331848
20860 12.917837430000002 6.74452215 -2.9240176500000006 -0.661272 0.478864 0.433807
20880 9.05332527 9.87227388 -3.32743428 -0.8043640000000001 0.5109670000000001 0.255441
20900 5.62500495 12.63133638 -5.81555439 -0.64053 0.4334810000000001 0.044109
20920 5.37696891 18.531462780000002 -3.9489370200000002 -0.305813 0.311108 -0.013217
20940 6.525533520000001 19.9609956 -2.39935923 0.104288 0.385387 -0.029676
20960 7.53517872 15.92433756 -1.5067669500000003 0.690649 1.144334 -0.122692
20980 3.12774192 13.110034950000001 -1.5018227100000001 1.34114 2.015737 0.110402
21000 -1.3329828000000001 10.61352729 -2.25506394 0.097749 1.860598 0.290991
21020 0.54517113 8.057149200000001 -4.86099234 0.669992 0.512138 0.28283
21040 2.3079006 6.2942627700000005 -2.7264344400000002 1.063013 -1.099984 -0.233652
21060 2.91428613 4.676427 -3.1207081500000005 1.727375 1.165721 -0.508584
21080 1.6976205000000002 3.14271198 -2.23590501 -0.525225 0.517081 0.34925
21100 1.13584104 3.02341257 -2.7304761600000003 -1.218493 0.080638 0.337489
21120 0.7969447800000001 3.1368750300000006 -2.6894605500000006 -1.410097 0.6130369999999999 0.297013
21140 0.79050942 4.24411992 -2.2360521600000003 -1.220614 1.454002 0.283372
21160 1.61948385 6.90019704 -2.5144697700000003 -1.039265 1.413987 0.010157
21180 2.5403681700000003 8.22255561 -3.60061335 -0.940377 0.767414 -0.08766900000000001
21200 3.45496428 10.08932013 -4.451591610000001 -0.7995800000000001 0.883388 -0.440415
21220 4.17511638 11.387565720000003 -3.49298784 -0.293657 0.799067 -0.5713689999999999
21240 3.19615686 9.09434088 -1.6887915 -0.223791 1.202359 -0.520123
21260 1.3512392100000001 7.844733270000001 -1.7937192600000003 -0.297269 0.59734 -0.204736
21280 0.26525259 8.65635381 -2.56866021 0.064618 -0.118408 -0.01542
21300 -0.30625839 9.57124422 -2.8544157 0.6842090000000001 -0.03497 -0.106271
21320 -0.70293555 10.7296875 -2.63900772 1.110648 0.4955640000000001 -0.216135
21340 -0.66536325 9.82930608 -2.67239115 1.089419 1.009151 0.037295
21360 0.20956122 9.24432597 -2.80950552 0.8509389999999999 0.467521 0.095075
21380 2.1143493000000007 7.80327621 -2.45549205 0.7135319999999999 -0.291155 -0.00212
21400 4.48677027 6.5738772 0.09595161 0.273525 -0.492679 -0.106417
21420 5.526502740000001 7.58338506 3.7094356800000003 0.205824 -0.939343 0.030415
21440 7.28086428 9.771230880000001 -1.5208344900000001 0.53823 -1.499842 0.049479
21460 7.94532501 14.188693500000001 -2.9568026700000005 1.259148 -2.794261 0.250589
21480 14.457389400000002 32.86206774 -16.95478977 2.305715 -3.636649 0.613629
21500 8.09441739 11.753410050000001 10.50590178 2.765085 -4.50835 0.558134
21520 5.6220129000000005 3.0925730700000003 1.8631740600000002 2.313257 -5.853235 0.277896
21540 6.3539860500000005 10.28046798 2.73167298 1.83536 -5.617032 0.497513
21560 5.4747157500000005 13.02187248 -0.94094577 1.883936 -4.292047 0.510041
21580 3.5082522000000003 11.95624161 1.29091752 2.133159 -1.587874 0.700597
21600 2.2552110900000004 9.69039648 0.72284985 1.6733919999999998 -0.8964610000000001 1.618375
21620 2.1644980200000004 7.433537310000001 -2.48213601 0.7290949999999999 -1.044777 1.964482
21640 1.60870266 7.170393870000001 -1.6563105900000004 -0.481905 -0.576142 1.970378
21660 2.66834943 7.22277927 -1.63086345 -1.054635 -0.578338 1.68437
21680 4.33633392 6.11343504 -1.45213506 -1.637226 -0.651817 1.384497
21700 4.83719328 5.868999270000001 -3.09885147 -1.935536 -0.15323299999999998 0.8359129999999999
21720 4.68630567 5.27862366 -3.97258893 -2.075021 0.250354 0.46268
21740 5.015617560000001 5.863005360000001 -4.53152349 -2.301731 0.545301 0.160548
21760 4.73660154 6.31492263 -3.0412275300000005 -2.474325 0.4515770000000001 -0.227233
21780 4.613858820000001 5.37262308 -0.6890151600000001 -2.6778470000000003 0.22757800000000006 -0.510379
21800 5.47096833 5.27278671 -0.69410655 -2.388828 0.387533 -0.801258
21820 6.4930428000000004 5.27727969 -0.08756406 -1.841701 0.44042 -1.180995
21840 7.824230370000001 5.771095470000001 -0.31314501 -1.419471 0.423761 -1.376714
21860 8.34604389 6.73853805 -0.85547124 -0.783519 -0.113741 -0.978477
21880 8.67191247 7.753873050000001 -3.36006234 -1.7180650000000002 -0.191715 -0.117509
21900 6.47074467 6.51909816 -3.26171709 -1.865415 -1.111607 0.415683
21920 5.66212599 6.915471210000001 -4.366568340000001 -0.927241 -0.552413 0.4204520000000001
21940 5.958358560000001 11.61868932 -5.0407703999999995 0.233341 1.964192 0.374059
21960 5.511238379999999 14.429244509999998 -3.2060355300000003 1.072508 3.057387 0.39027
21980 4.57703208 13.145959170000001 0.9770171400000001 1.085801 1.13399 0.256095
22000 5.52800367 13.750853580000001 1.23672708 0.184831 0.376246 0.321275
22020 8.15040306 14.155162920000002 0.83540979 0.503394 0.182817 0.464754
22040 7.46362458 18.916466040000003 -4.7921359500000005 1.852401 0.195301 -0.09627
22060 3.4009308000000007 15.399973440000002 -11.30868351 0.83821 0.114209 -0.515584
22080 2.7294264900000003 7.02983619 -7.165145520000001 -1.905034 2.753363 -0.917346
22100 2.7101106 4.98643281 -3.2135205600000005 1.603635 -1.745932 -0.338006
22120 3.44149515 5.124744 -1.89565497 0.26252 -2.557952 -0.437132
22140 2.4050490300000003 5.4664851599999995 -2.61640548 -1.186608 -0.854842 0.617717
22160 1.01234295 4.81982958 -3.30138873 -2.339331 0.200701 0.588016
22180 0.68078457 4.939580250000001 -0.87103971 -3.0946700000000003 0.06753200000000001 0.446178
22200 0.28111536000000004 4.96098567 1.06309008 -3.064037 -0.958402 0.438093
22220 -0.28111536000000004 5.01592167 1.90299285 -2.355107 -1.419601 0.340018
22240 -0.35207109 6.0177875400000005 2.8006765200000006 -2.177571 0.153934 0.15550799999999998
22260 -0.023799060000000004 6.816076290000001 1.50826788 -1.92252 0.611242 0.124657
22280 0.38888802 6.586002360000001 0.17887554 -1.378669 0.235646 -0.19153
22300 1.5322140900000003 7.4528532 -1.89191736 -1.368881 0.426541 -0.518582
22320 2.0357712 11.452684500000002 -4.084403310000001 -1.7853689999999998 -0.7135739999999999 -0.622579
22340 1.8702078300000002 12.835511910000001 -5.68831869 -2.329105 -1.903373 -0.712447
22360 0.7866148500000001 9.99980388 -6.42254814 -2.3288990000000003 -1.81937 -0.6740970000000001
22380 1.6443325800000002 10.157126850000001 -5.65837857 -0.8328 -0.662916 -0.530533
22400 3.0964578300000003 9.57109707 -4.93838343 -0.227699 0.657556 -0.67114
22420 3.33671454 9.707917140000001 -7.287741090000001 0.160129 -0.025091 -0.523346
22440 3.3702451200000003 8.796303270000001 -9.286087140000001 -0.463411 -0.901427 -0.346049
22460 3.49298784 10.14710103 -6.704860320000001 -0.908584 -1.942661 -0.377735
22480 6.433770780000001 8.13917061 -1.2593293200000002 -0.152427 -2.521433 -0.418713
22500 2.45609046 5.86031742 15.09446061 0.447408 -2.449028 -0.397524
22520 3.5202302100000002 11.003170680000002 6.2783901900000005 0.696828 -3.268652 0.025079
22540 11.194024230000002 23.27210604 -2.87522271 0.757608 -3.419445 0.119701
22560 14.605579259999999 26.13250584 -12.27537072 1.493926 -4.148425 -0.169051
22580 7.53713091 6.2989029 11.05945065 1.902637 -3.918571 -0.195333
22600 6.683150790000001 7.20197226 6.444699120000001 2.209085 -3.131304 0.064308
22620 7.42081374 13.33920636 4.03470585 2.371483 -1.399806 0.08352000000000001
22640 5.23970739 12.891791880000001 2.18650185 2.406388 0.117336 0.005976
22660 2.96937909 10.36549125 -1.7152785000000002 2.288068 -0.388041 -0.048682
22680 3.37443399 8.53883982 0.06256818 1.2897299999999998 -3.208368 0.153057
22700 1.6992685800000003 6.04024263 0.68033331 1.282376 -4.172148 0.351862
22720 -0.28470582000000005 5.825884320000001 -1.66454118 1.256313 -3.436238 0.95535
22740 -0.0028449 5.726342250000001 0.3505701600000001 0.861766 -2.914797 1.432626
22760 1.29809844 5.03986788 2.01256074 0.402567 -3.143721 1.536534
22780 3.0551479200000005 6.123764970000001 -0.5944173300000001 0.182576 -3.671417 1.291051
22800 4.34726226 7.904613510000001 -3.6763563599999998 -0.06551 -3.705122 1.144083
22820 5.4893817 8.35666812 -4.10102145 -0.493746 -3.174891 1.05175
22840 6.918159149999999 9.980350650000002 -2.34652257 -0.5120239999999999 -2.099749 0.7319140000000001
22860 6.16373091 11.002719420000002 -1.6181398800000002 -0.683483 -1.240961 0.570451
22880 7.1175474 11.56480299 0.08667135 -0.788875 -0.5393939999999999 0.507927
22900 8.505907650000001 12.39018696 -0.09640287000000002 -0.965644 -0.172653 0.32355700000000004
22920 6.0119505900000005 11.03639715 -0.6336279 -1.173872 -0.058676 0.23970300000000005
22940 7.068752460000001 10.73088432 -0.9982754100000001 -1.514359 -0.141447 0.188293
22960 11.427384510000001 11.514654270000001 0.62211096 -1.87708 -0.408493 0.151918
22980 12.349769760000001 12.10787478 1.9856224800000002 -1.932763 -0.798713 0.282352
23000 5.83382061 11.50597242 1.7336918700000001 -1.471619 -0.978124 0.526153
23020 0.03562992 8.57133054 -0.21285737999999998 -0.331468 -1.189077 0.8762190000000001
23040 -0.34054434000000006 8.68867776 1.32818571 0.5315439999999999 -0.782725 1.072938
23060 3.22354638 10.41698394 2.3050557 0.313868 -0.681311 0.942033
23080 5.30825967 13.17111201 2.83959279 -0.057137 -0.226949 0.858742
23100 6.611753610000001 14.100972480000001 1.7670753 -0.788575 1.244827 0.802609
23120 5.92213023 12.854965140000001 0.64859796 -1.094909 0.835785 -0.534284
23140 4.19113611 11.766427920000002 0.57105972 0.908884 -0.277425 -1.205728
23160 3.1702584600000003 9.370963260000002 1.0382413499999998 0.779267 1.42895 -1.044314
23180 4.41925785 8.374787190000001 -1.20185253 -0.058924 0.995396 -0.8541280000000001
23200 5.482200780000001 8.128997640000001 -0.7051820400000001 -0.769396 0.090149 -0.8301569999999999
23220 4.96771533 7.870484520000001 -0.37137717000000003 -0.894957 -0.298617 -1.534494
23240 4.11224409 6.981335550000001 0.7084782000000001 -1.082874 -1.1705370000000002 -0.708954
23260 2.91997593 5.38430679 1.03195314 -2.550167 -1.87551 1.033584
23280 1.8528441300000003 4.401747 0.17453952 -2.353275 -1.572225 1.208691
23300 1.0865948400000003 4.22002656 0.32302368 -2.007316 -0.095846 1.198534
23320 -0.21255327 5.579045100000001 -0.89768367 -1.784457 0.12056 0.966941
23340 0.75982374 6.105057300000001 -1.1193700500000001 -1.654832 -0.377979 0.5860609999999999
23360 0.6991979400000001 7.281756990000001 -2.3782579200000002 -1.6677970000000002 -0.580731 0.41852
23380 1.34390133 7.07324544 -4.020638310000001 -1.722852 -0.615175 0.288924
23400 1.17610128 7.280707320000001 -4.09279086 -1.688665 -0.690583 0.202734
23420 1.8989511300000002 7.309146510000001 -3.4012251000000004 -1.645374 -0.945777 0.047403
23440 2.5614694800000004 8.1499518 -4.77132894 -1.391576 -1.117588 -0.096951
23460 3.4124575500000005 10.94015124 -6.63689664 -1.248113 -0.647834 -0.212987
23480 4.886135370000002 14.87172456 -9.35090181 -1.381431 0.057908 -0.229777
23500 5.574561930000001 13.5206325 -9.345212010000001 -1.273676 0.277052 -0.247465
23520 1.05799869 8.42792796 -6.603218910000001 -1.166411 -0.279507 -0.219297
23540 -0.1764819 2.98629153 -2.8139985000000003 -1.370112 -1.100683 -0.34678600000000004
23560 1.18807929 2.61491436 1.7498587500000002 -1.215841 -1.463294 -0.376222
23580 0.5996558700000001 11.70371259 -0.76715181 -0.615269 -1.589594 -0.480824
23600 8.33137794 24.39132894 -8.408916180000002 0.06428099999999999 -0.949365 -0.536718
23620 11.24760645 20.6321958 4.02393447 0.262465 -0.671347 -0.437414
23640 1.4150042100000002 4.98403917 6.53256729 0.214688 -1.467352 -0.335246
23660 0.714168 0.30326634 1.2813331500000003 0.486348 -2.244977 -0.310988
23680 5.168447550000001 2.76684183 4.28828454 1.164518 -2.822509 -0.327944
23700 7.000788780000001 8.967556440000001 5.842051199999999 1.706504 -3.444636 0.002447
23720 10.56473235 15.586785270000002 3.19704957 1.701654 -3.805771 0.008217
23740 9.2054097 10.972632149999999 0.47346984000000003 1.630624 -4.4859589999999985 -0.060841999999999986
23760 3.1148712000000005 9.64624167 -1.1126403900000001 2.525058 -2.973314 -0.291541
23780 0.20118348 10.07539974 -1.08629073 3.317994 -1.375455 -0.166273
23800 0.5334874200000002 9.437278860000001 -0.82912158 2.965643 -0.876134 -0.319993
23820 2.05192827 8.275245120000001 0.32811507000000006 2.733676 -0.509795 -0.090279
23840 2.6363197800000004 8.01358299 0.25117524 2.303201 -0.965728 0.28117600000000004
23860 2.6258427 7.5428109 -0.18052362000000002 1.675505 -2.911848 0.789896
23880 2.71894941 8.317899 -0.49906413000000005 1.463897 -3.704525 1.2669290000000002
23900 2.63931183 9.11589345 -0.39068325000000004 0.987793 -3.4123980000000005 1.618947
23920 3.2747447700000003 9.4425174 0.18875421000000003 0.574852 -2.746091 1.5831620000000002
23940 4.922216550000001 8.68149684 -0.33664977 0.307368 -2.201983 1.344519
23960 6.016737870000001 8.09561421 0.13381821000000002 0.150877 -2.027239 1.204333
23980 6.011352179999999 7.93680012 0.14190165000000002 0.193946 -1.458667 0.972101
24000 5.84145279 8.181383040000002 -0.93884643 0.00798 -0.760608 0.791515
24020 5.291798490000001 9.34087599 -0.8384018400000001 -0.281996 -0.430714 0.5957180000000001
24040 4.297564800000001 10.976369759999999 -1.8495577800000003 -0.624645 -0.398914 0.6659229999999999
24060 4.133502360000001 11.51719506 -2.0658584700000002 -0.829606 -0.192582 0.659954
24080 5.73368013 11.361520170000002 -0.49995684000000007 -0.982203 0.058207 0.6799310000000001
24100 6.21028917 10.289748240000002 0.19205037000000003 -1.19262 0.473358 0.672589
24120 6.2843841000000005 9.8532621 -0.83122092 -1.38029 1.060509 0.523111
24140 6.971005620000001 9.87556023 -1.47278511 -1.498782 1.616499 0.380565
24160 7.32023181 10.03588506 -1.3218975000000002 -1.688996 1.619851 -0.025624
24180 7.09255152 9.965674889999999 0.6045903 -1.611068 1.687307 -0.4449770000000001
24200 5.60554191 10.48150431 0.48483963 -1.473457 1.421562 -0.707526
24220 1.99969002 8.995838670000001 1.8332339400000002 -1.168044 1.441865 -0.98743
24240 1.56349818 10.919040120000002 4.237684560000001 -0.799636 1.409051 -1.092705
24260 4.5346725 15.87672963 -0.25686504 -1.227934 1.467735 -0.21342
24280 6.83867853 16.14662235 -0.032186610000000004 -1.691634 0.678002 0.810914
24300 5.47096833 14.04260298 1.00590759 -1.406774 0.473191 0.367718
24320 3.1630677300000003 11.145670740000002 0.0953532 -0.723582 0.823305 0.398747
24340 3.25393776 9.17860878 -0.9618999300000001 0.469313 0.875497 0.4315810000000001
24360 5.350619250000001 7.808809050000001 -2.1874043700000003 1.402388 1.625681 0.098511
24380 6.72266547 7.401360510000001 -1.9435572 1.271838 1.311948 0.346897
24400 4.3815384 6.2924675400000005 -1.8805377600000002 -0.7239720000000001 1.399708 0.110654
24420 1.83143871 5.57141292 -1.2323910599999999 -0.292072 -0.959482 0.170105
24440 -0.37137717000000003 5.158421730000001 -0.5806440900000001 -0.335622 -0.502085 0.109394
24460 -0.6188148 4.703070960000001 -1.56230136 0.970935 0.433603 -0.051458
24480 0.62958618 5.026251600000001 -1.8935654400000002 0.54413 0.8412959999999999 0.128773
24500 1.63624914 5.557492530000001 -2.3596974 -0.825564 -0.152697 0.273235
24520 2.18126331 5.961203460000001 -2.1637524600000004 -1.306994 -0.92971 0.264459
24540 2.2296168 5.3182953 -2.17632888 -0.880192 0.091221 0.328088
24560 2.0430992700000004 5.038523909999999 -2.44067895 -0.544324 1.35712 0.215581
24580 1.8250033500000002 5.485192830000001 -2.5631175600000002 -0.098185 0.370385 -0.098369
24600 1.43012142 5.53593996 -1.85479632 0.563912 0.417451 -0.187808
24620 1.08404424 4.76174457 -1.41815322 1.064832 1.23497 -0.202448
24640 0.13352391000000002 4.5792785700000005 -1.1410795800000002 1.180283 1.987865 0.027061
24660 -0.2806641000000001 3.78936756 -0.9033734700000001 0.973358 1.4743700000000002 0.214281
24680 0.2945844900000001 3.6595910700000003 -0.6837766200000001 0.589479 -0.071359 0.284083
24700 1.1229605100000002 5.66736453 -1.42428447 0.417465 -0.626728 0.256888
24720 2.11240692 9.51885882 -3.0252078000000004 0.393438 -0.599772 -0.069122
24740 2.83001823 18.10050948 -4.71983625 0.461013 -1.226411 -0.063574
24760 2.96099154 14.53866525 -4.834201230000001 0.819101 -2.2546150000000003 -0.054415
24780 2.5991987400000003 11.29206537 -4.53048363 1.640955 -2.813747 0.263963
24800 0.54471987 10.40875335 -5.736220919999999 2.098079 -3.763946 0.393356
24820 1.6717220999999998 8.199943560000001 -2.85831027 1.955607 -4.3016760000000005 0.458212
24840 4.5580203 6.66054855 5.25497175 1.763167 -3.934367 0.677519
24860 3.9721376700000004 5.34059343 5.4010720800000005 1.514529 -3.141416 0.530556
24880 7.25795793 10.874434050000001 0.35521029 1.271706 -0.92898 0.510001
24900 12.150979920000001 15.251783580000001 -10.54048203 0.917342 -0.048645 0.712565
24920 10.28046798 26.182801710000003 -7.7884533000000005 0.060476 0.996832 1.078049
24940 12.68013132 19.685118780000003 -1.8062956799999998 -0.378479 0.865317 1.047378
24960 2.0269323900000003 4.99885227 6.33512142 -0.692758 0.754347 0.832749
24980 3.4260738300000004 4.862189160000001 1.3404580200000002 -1.031433 0.688042 0.392497
25000 5.23416474 7.884552060000001 0.13472073 -1.052568 1.105787 -0.4264439999999999
25020 4.7999152800000005 9.37665306 0.01886463 -1.146011 1.102044 -1.007136
25040 1.7269622100000002 8.831334779999999 0.21525102000000002 -1.281124 0.965985 -1.230096
25060 -0.83660661 7.32396942 -3.83038317 -1.575791 0.541471 -1.373684
25080 -1.0374957900000001 5.65554348 -3.2772855600000006 -1.77758 0.5451159999999999 -1.576992
25100 2.23005825 5.175638280000001 -2.5815309300000004 -2.159708 0.667234 -1.415311
25120 3.97468827 4.65382476 -1.27924362 -2.468024 -0.220992 -0.403652
25140 5.2314669899999995 4.93628409 -1.2177153 -2.427849 -0.561496 0.529622
25160 5.66497089 5.23266381 -0.55280331 -1.805334 -0.116621 0.625268
25180 7.433988570000001 5.55375492 -1.82411064 -1.16588 1.037453 0.508614
25200 9.1883403 5.63129316 -2.6420095800000003 -0.831001 1.924864 0.475633
25220 7.58233539 6.915618360000001 -3.2534865 0.5973970000000001 0.467787 0.248196
25240 6.983876340000001 7.9080568200000005 -3.2479438500000004 1.753741 1.251515 0.123878
25260 7.06770279 8.633594610000001 -4.244718330000001 0.928886 1.252233 0.392648
25280 6.0475707 13.539644280000001 -5.94743022 -2.0339240000000003 2.460639 -0.064362
25300 4.80007224 17.07080283 -2.97041895 1.304137 -3.50268 0.214424
25320 4.0257297 16.40259468 -0.19474812000000002 2.33093 1.005373 -0.359953
25340 3.7613796300000004 14.873372640000003 -0.6153714899999999 1.748786 1.097182 0.361186
25360 4.56176772 12.115359810000001 1.75300776 -0.213594 0.850195 0.424707
25380 0.45415395000000003 15.369886170000001 -8.19306675 -1.028451 0.8288409999999999 0.344267
25400 3.19704957 11.05376085 -6.711442830000001 -1.662872 0.804747 -0.006237
25420 3.0816447300000003 8.81920962 -3.71587104 -1.761551 0.534065 -0.161472
25440 1.8359316900000002 6.17540481 -0.00359046 -1.282214 -0.827833 0.07435800000000001
25460 0.22378572 3.6106391700000002 -0.09774684000000002 -0.048184 -0.247092 0.028822000000000007
25480 -0.97013052 2.88000999 -0.9867486599999999 0.822011 1.706955 -0.541239
25500 -1.06847577 2.6794249200000007 -1.8772416 1.078665 1.566656 -0.576654
25520 -0.55938582 3.57546051 -1.2627726300000002 1.0651700000000002 1.341261 -0.409817
25540 0.48349566000000005 4.22990523 -1.1425707 0.79502 0.619889 -0.130905
25560 1.37518542 4.8478175100000005 -0.90846486 0.463311 -0.08602 0.330222
25580 1.97034831 5.341790250000001 -1.4468867100000002 0.609291 0.34715100000000004 0.5689
25600 4.43527758 7.13401839 -1.8808418700000002 0.545538 0.517146 0.203974
25620 5.682628889999999 11.13894108 -2.86549119 0.714065 -0.408235 0.238383
25640 3.5124410700000004 9.68186178 -4.060457100000002 0.742471 -1.369633 0.077444
25660 1.13314329 9.19717911 -5.957014590000001 1.158404 -1.919535 0.038325
25680 -0.60234381 8.83477809 -5.5440234 1.823331 -2.562136 0.054475
25700 -0.32063004 8.90423289 -5.78457441 2.2377990000000003 -3.434715 0.257178
25720 1.15859043 7.7284259099999995 3.0635256600000003 1.938756 -4.2960080000000005 0.653571
25740 4.816239120000001 6.90439572 5.967187560000001 1.69956 -3.4766 0.807879
25760 6.3307854 13.643080920000001 2.11735116 1.57227 -3.297252 0.822783
25780 11.857592250000001 21.87086526 -6.286179330000001 1.194438 -1.596051 0.894876
25800 19.645594290000002 36.792591390000005 -15.27692661 0.929365 -0.552188 0.61929
25820 7.69744593 9.02668131 11.118428370000002 0.28958 0.007044 0.384437
25840 4.80590919 5.17384305 2.4569929800000003 -0.345385 0.137482 0.549682
25860 3.2516912700000002 6.258632850000001 3.0249135000000003 -0.795043 0.582942 0.629292
25880 1.9818750600000001 9.39686166 1.1335945500000002 -1.269885 0.688391 0.51154
25900 1.61768862 9.65327544 0.89393625 -1.575066 0.721018 0.076737
25920 2.20821138 8.85408417 -1.46455452 -1.671454 1.089818 -0.425405
25940 4.97430765 10.04935419 -6.29875575 -1.599593 1.209691 -0.628019
25960 2.80007811 8.25023943 -3.9580701300000003 -1.52475 1.159708 -0.713958
25980 0.046705409999999996 5.58353808 -2.8373463000000005 -1.699126 1.287103 -0.719612
26000 1.37264463 4.297564800000001 -1.8143791200000001 -1.865901 1.160058 -0.771889
26020 3.49179102 3.54163563 -0.30462012 -2.079879 0.516563 -0.569597
26040 4.18829121 3.40466841 1.05081777 -2.042066 -0.097984 -0.099596
26060 5.45824476 3.23237538 0.48933261000000006 -1.697603 -0.198824 0.30993200000000004
26080 8.00325306 5.801035590000001 -1.61125326 -1.206073 0.5955739999999999 0.224753
26100 8.92534401 6.817871520000001 -3.2308842600000003 -1.196204 1.6743830000000002 0.29501
26120 7.508083500000001 7.733066040000001 -4.12512462 -1.245824 1.920115 0.4246720000000001
26140 6.815772180000001 7.1200980000000005 -3.2856633000000004 0.149336 0.8936639999999999 0.428255
26160 6.45457779 7.22263212 -2.3397831 1.627131 1.741281 0.298622
26180 6.46864533 9.18729063 -4.16253996 1.926313 1.78733 0.245106
26200 7.325470350000001 13.4944398 -4.495000860000001 -0.036837 0.15124 0.039073
26220 7.31199141 16.82097156 -4.79347992 -1.494591 0.454836 -0.293033
26240 4.46641452 18.92828709 -2.60578125 0.5445909999999999 0.17371 0.309093
26260 3.2043874500000005 15.04506726 0.08547453 1.188559 0.456279 0.216021
26280 1.22010894 12.759464790000001 -0.9574069500000001 0.680686 1.148399 0.200904
26300 -0.18471249 11.411070480000001 -5.576651460000001 -0.223145 0.357016 0.156081
26320 2.9183278500000003 7.43474394 -4.204458090000001 -1.155856 0.194515 0.04402
26340 3.4566123600000003 7.9752651299999995 -3.12594669 -1.572292 0.58482 0.03527
26360 1.8838339200000003 6.303837330000001 -1.7811428400000002 -1.274928 0.630096 -0.08982899999999999
26380 0.47256732 4.95604143 -1.8778498200000002 -0.674399 0.29580100000000004 -0.393923
26400 -0.50235048 4.8121974 -2.26239201 -0.095549 0.537184 -0.520512
26420 -1.06354134 4.9713156000000005 -2.01720087 0.5217510000000001 1.20902 -0.700795
26440 -0.29114118 5.22503163 -2.2103009100000004 0.592188 0.974532 -0.463925
26460 1.5489793800000002 4.876109550000001 -1.9393683300000002 0.4909560000000001 1.519288 0.055962
26480 2.9497689000000005 4.735100610000001 -2.5216605000000003 0.542062 2.131107 0.456118
26500 3.85073892 5.328615419999999 -2.92492017 0.893085 1.2168139999999998 0.489652
26520 3.01967496 7.40241018 -1.8422199000000001 1.05196 0.451524 0.457559
26540 2.1314187 9.095832000000001 -1.38027681 0.941195 0.799762 0.048278
26560 2.2459308300000003 9.30749256 -2.02334193 1.199944 0.749606 0.112107
26580 1.96481547 9.80820477 -2.95156413 0.99167 -0.238187 0.36295
26600 2.4171741900000003 10.048451670000002 -4.03785486 1.127721 -1.55941 0.581374
26620 1.7338488300000001 11.37828546 -4.94062992 1.7659650000000002 -2.398104 0.641386
26640 -0.045802890000000006 10.670415479999999 -4.438416780000001 2.411859 -3.811508 0.5601149999999999
26660 2.2731732 7.922575620000001 3.6286012800000003 2.518216 -5.12526 0.26878
26680 3.669921 7.26304932 4.90126239 2.33276 -5.531661 0.295779
26700 6.4574226900000005 10.7846235 1.47832776 2.098085 -4.1690260000000015 0.462241
26720 10.84120758 14.393918700000002 -1.05725313 1.895856 -2.812478 0.524252
26740 15.634236240000002 23.58106218 -5.91659739 1.374806 -0.757911 0.530798
26760 10.88102637 19.77672456 -2.7804679200000004 1.275477 -0.566682 0.7467090000000001
26780 3.2400075600000005 9.20376162 4.5991830600000005 0.06952 -0.125912 0.790063
26800 3.93052365 7.5658644 2.65263381 -0.781204 0.421703 0.712916
26820 4.18604472 7.44342579 1.27744839 -1.031551 0.917005 0.410362
26840 3.3750324000000003 8.987608080000001 0.79035246 -1.44991 1.011484 0.056941999999999986
26860 2.47435668 10.138272030000001 -1.4756300100000002 -1.926476 0.8606520000000001 -0.17158800000000002
26880 0.3094074 9.29716263 -2.38379076 -2.113289 1.274561 -0.687238
26900 -0.64022022 7.35854967 -3.1699543500000003 -2.275645 1.841096 -1.030929
26920 3.6055477799999998 6.7618858500000005 -3.11921703 -2.198324 1.54961 -1.197726
26940 5.341790250000001 6.38541729 -2.73107457 -1.962087 1.12289 -1.250009
26960 4.77806841 4.74138882 -1.3319331300000001 -1.753065 0.6175930000000001 -0.5439430000000001
26980 4.6030776300000005 4.54904415 -1.57547619 -1.945966 0.04839 0.507638
27000 5.073251310000001 5.682785850000001 -0.55608966 -2.455651 0.604151 0.760807
27020 6.3957472200000005 5.310810270000001 -0.9907903800000001 -1.966926 -0.652197 0.434682
27040 7.84967751 4.48018776 -0.0375723 -0.422929 -1.054079 0.230201
27060 8.04307185 5.16336597 0.29189655000000003 0.277247 3.040559 0.22664
27080 7.73246763 7.01845659 -1.2543948900000002 1.014557 3.06153 0.469977
27100 7.4205194400000005 7.35255576 -3.7432703700000003 1.651413 1.301821 0.15300899999999998
27120 7.356303179999999 7.2834050700000015 -3.3962906700000004 0.07257999999999999 0.422898 -0.058787
27140 6.313568850000001 8.64827037 -2.7732870000000003 -1.7913150000000002 -0.334369 -0.343233
27160 4.64723244 11.356438590000002 -4.18035492 -1.031369 -1.91261 -0.327356
27180 5.403760020000001 14.49510885 -3.63399678 1.636211 0.939944 0.087137
27200 5.9692869 17.25491691 -0.10178856 2.138573 1.929674 0.16201600000000002
27220 5.0130767700000005 15.577210710000001 -0.49442400000000003 1.108335 1.3472879999999998 0.44185
27240 1.9842785100000002 13.15494513 0.17124336 -0.466235 0.225595 0.4643350000000001
27260 -3.3217444800000004 16.651219320000003 -7.779320190000001 -1.571756 -0.34572 0.173198
27280 3.1515507900000004 8.4075624 -8.8148736 -2.192602 0.6755899999999999 -0.015113
27300 3.75614109 5.03029332 -5.001402870000001 -2.413826 0.993042 -0.08970399999999999
27320 2.6647589700000003 5.32592748 -1.5621542100000003 -0.576209 -2.044943 -0.129591
27340 1.44673956 4.77402669 -1.7013581100000001 0.1976 1.471207 -0.71835
27360 0.2282787 3.4708368600000004 -2.13500916 0.96821 1.6788919999999998 -0.576501
27380 -1.1802999600000001 4.079017620000001 -2.08336932 0.817388 1.370642 -0.083641
27400 -1.4810157 4.12213257 -1.3789328400000003 0.684615 1.308186 0.19859
27420 0.7548795 4.55981553 -1.0000706400000001 0.938797 1.705413 0.54062
27440 2.8428889500000003 6.08439744 -1.07102637 1.310441 1.558141 0.550882
27460 3.92453955 9.04763547 -1.5777226800000002 1.33877 0.808657 0.14291099999999998
27480 4.27541382 9.90190989 -2.4566888700000002 1.226249 -0.145972 0.009821
27500 3.78831789 8.170454700000002 -1.1768566500000002 1.3189959999999998 -0.874833 0.248548
27520 1.9725948000000002 8.07795621 -4.11943482 1.793822 -1.471214 0.5923229999999999
27540 -0.2459367 8.717273910000001 -9.023238 2.342829 -2.822566 0.528455
27560 -1.00351395 6.786734580000001 -3.87349812 2.62547 -4.791021 0.24025900000000006
27580 0.74664891 6.49648611 1.9291855500000001 2.200761 -5.7813360000000005 -0.022085
27600 1.21726404 6.3860157 6.00910569 2.4921330000000004 -4.685606 0.101392
27620 0.7689470400000001 7.40824713 4.50009225 2.231856 -3.498897 0.328789
27640 2.65263381 11.48291892 0.8385588 1.658872 -1.130738 0.812066
27660 8.422091009999999 18.730399770000002 0.02694807 1.497473 -0.206747 0.852484
27680 22.815254340000003 28.67287401 -17.314640190000002 0.437613 0.279081 0.956621
27700 14.99192649 24.08027346 -8.97039153 -0.483284 0.813361 0.811704
27720 3.3136610400000004 7.150028310000001 8.55485955 -0.8700950000000001 0.932895 0.8248719999999999
27740 5.18341761 6.0950216699999995 3.5354945700000004 -1.544165 0.809158 0.651543
27760 4.0342644000000005 3.7969997400000004 1.4383618200000001 -2.079366 0.916174 0.194741
27780 2.20341429 8.123602140000001 2.40086016 -2.330775 1.530098 -0.466894
27800 1.77785649 11.34969912 1.9715549400000003 -2.646105 1.855953 -0.961965
27820 3.81811086 11.65581036 -8.454866220000001 -2.676269 1.3932 -1.362166
27840 0.6108785100000002 8.559499680000002 -4.69228977 -2.523149 1.050568 -1.591393
27860 -0.43035489 5.77873746 -0.6506973 -2.362934 0.423666 -1.068178
27880 3.303027 5.5401288300000004 -1.7594431200000002 -2.124143 -1.2862559999999998 0.35962
27900 5.15048544 4.7900366100000005 -2.2125474 -3.167033 -0.944656 0.818711
27920 4.1576055300000005 3.2850648900000006 -0.006141059999999999 -2.622836 -0.5351279999999999 0.498316
27940 4.43482632 4.271372100000001 -0.5051953800000001 -0.5000859999999999 0.7911600000000001 0.251866
27960 5.779483020000001 6.09547293 -1.55571885 0.303902 2.846396 0.274077
27980 7.585621740000001 6.33123666 -3.1699543500000003 0.730754 1.665818 0.4996930000000001
28000 7.64265708 5.84250246 -2.4343907400000004 0.6052770000000001 0.593326 0.282274
28020 8.42882067 6.42583449 -3.1124775600000003 1.166919 0.521649 -0.128182
28040 7.77034404 7.402557330000001 -2.56955292 0.22232800000000005 0.690937 -0.351846
28060 6.03574965 9.715696470000001 -4.09428198 0.178136 -0.888383 -0.168533
28080 4.995408960000001 12.57489945 -5.50630395 0.900719 2.145503 -0.523091
28100 5.36514786 15.286658130000001 -1.2284964900000002 -0.181478 -0.577386 0.158637
28120 6.49829115 17.40221406 -1.3647083400000002 0.011817 0.150694 0.133417
28140 7.554190500000001 15.958319400000002 -0.7981416 -0.12953199999999998 0.7924100000000001 0.416823
28160 2.40834519 14.18390622 -3.1903199100000004 -0.900415 0.6057020000000001 0.357198
28180 -2.29412736 11.88394191 -9.23310333 -1.586643 0.359616 0.155099
28200 3.92004657 6.06119679 -5.3132039099999995 -1.447416 0.46772 -0.092963
28220 3.40646364 5.34597912 -2.69694558 -1.0980370000000002 0.699209 -0.21046
28240 3.0726587700000003 4.2629845500000005 -2.34817065 -0.70023 0.794143 -0.319966
28260 2.86399026 3.4416423000000003 -2.8607039100000002 -0.370938 0.643062 -0.385839
28280 1.61558928 3.1380718499999998 -2.8337558400000002 -0.006943 0.069349 -0.286421
28300 -0.16466085 3.2745878100000003 -1.8432695700000001 0.478386 -0.024629 -0.116268
28320 -0.12738285000000002 3.67111782 -0.4972689 0.875974 1.106384 0.148911
28340 0.7595196300000001 5.264252010000001 0.6017454 1.425268 2.206286 0.33720900000000004
28360 1.6426844999999999 6.254748090000001 -0.7288339500000001 1.690292 1.188688 0.172653
28380 3.38476392 8.343346140000001 -1.89131895 1.2622520000000002 -0.268246 0.186485
28400 5.75373177 12.47161977 -2.25775188 0.376589 -0.852878 0.104136
28420 3.8429595900000004 9.596838510000001 -2.85231636 0.057273 -0.881868 -0.09461
28440 0.80532252 10.182426840000002 -7.005585870000001 0.3264 -1.872994 0.043136
28460 -0.37736127 9.78574968 -4.55008401 0.97009 -2.32445 0.22874
28480 -0.13172868000000001 8.3409525 -2.5207579800000004 1.866435 -3.241461 0.469049
28500 0.18082773000000002 8.873400060000002 -2.17228716 2.274807 -4.134015 0.344858
28520 -0.50669631 8.386608240000001 0.20043792 1.977343 -5.625092 -0.0067540000000000005
28540 1.91781576 7.565570100000001 3.4682862600000006 1.45361 -5.488429 0.103713
28560 4.2490641600000005 12.58807428 0.28905165000000005 1.659213 -3.5782510000000003 0.423168
28580 11.205246870000002 18.344650950000002 -7.03627155 1.372289 -1.202587 0.6467189999999999
28600 14.0466447 18.42757488 3.7125748800000005 1.056618 -1.157657 1.139043
28620 13.606852589999999 15.832721970000003 -5.247937980000001 0.086789 -0.398145 1.1879110000000002
28640 9.91852803 13.266013950000001 -0.05673123 -0.261268 0.116991 0.805601
28660 5.978714310000001 9.92989782 3.04062912 -0.734492 0.105155 0.446593
28680 4.86008982 10.02360294 1.3259392199999998 -1.223936 -0.089309 -0.047959
28700 3.1385231100000004 8.91889884 0.49307022000000006 -1.583785 -0.16706600000000002 -0.5364140000000001
28720 1.69881732 8.51190156 0.7731457200000001 -1.855921 -0.323221 -0.676984
28740 0.89229798 7.18714935 -0.20986533 -2.082455 -0.609003 -0.409008
28760 1.46096406 6.05461428 -1.1843416800000002 -2.399226 -0.5853189999999999 0.069449
28780 2.26838592 5.78861613 -2.20357125 -2.786925 0.046734 0.3191
28800 3.3440426100000002 6.508464120000001 -4.00896441 -2.892399 0.731252 0.25766500000000003
28820 4.147874010000001 5.65837857 -3.74102388 -2.691052 -0.706717 0.311121
28840 4.18006062 4.279151430000001 -2.70771696 -2.36406 -3.179385 0.334733
28860 3.8943051300000002 3.7374236100000005 -1.14347322 -1.770098 -3.522183 0.297661
28880 4.4559374400000005 4.3724052900000006 -1.04707035 0.194625 1.523844 0.238688
28900 5.4548112600000005 5.651197649999999 0.19429686000000002 1.709932 3.0723700000000003 -0.17893199999999998
28920 8.25683175 6.33901599 -1.19930193 2.142684 1.52623 -0.447393
28940 11.62901925 6.581362230000001 -2.6470911600000004 2.43333 2.073945 -0.473838
28960 10.232869860000001 6.956928270000001 -1.8010571400000002 3.004163 0.481045 -0.889757
28980 8.51728725 6.99495183 -3.03075045 -0.302708 0.8250549999999999 -0.668674
29000 6.2644698000000005 8.37493434 -4.70007891 -2.590562 3.168686 -1.088241
29020 4.8518592300000005 13.087138410000001 -5.153330340000001 1.029151 -3.016088 -0.551899
29040 5.570363250000001 14.907354480000002 -2.2402410300000004 0.053804 -0.540671 -0.16877899999999998
29060 4.17377241 14.575639140000002 0.42990363000000004 -1.502565 1.350009 0.958788
29080 5.33669886 14.40200214 0.7471001700000001 -2.106049 0.807301 0.803581
29100 7.9556549400000005 13.083842250000002 1.04512797 -2.572487 -0.844933 0.141211
29120 1.28776851 16.35962688 -10.21117014 -2.882169 -1.354236 0.168542
29140 3.5310114 9.57843495 -5.738163300000001 -2.691426 -1.362531 0.212614
29160 3.01114026 5.16291471 -1.64567655 -2.376731 -0.944778 0.165139
29180 2.7674402400000004 4.4101247400000005 -0.94633146 -2.015578 -0.071607 0.207135
29200 1.7019565200000002 4.37749668 -1.4994290700000001 -1.502934 0.7510560000000001 -0.038166000000000005
29220 0.26225073 5.13596664 -1.3835729700000001 -1.228718 0.967415 -0.30251500000000003
29240 -0.15418377 5.40196479 -1.32803856 -1.311827 0.876553 -0.418347
29260 0.28441152000000003 5.448964500000001 -1.07701047 -1.611231 0.050796 -0.383061
29280 0.7845155100000001 6.125413050000001 -1.0309034700000002 -2.207811 -2.640099 -0.662586
29300 1.04946399 6.2346866400000005 -1.55601315 -2.165727 -2.08206 -0.923653
29320 1.9148139000000002 7.0822215900000005 -0.43200297000000004 -1.35407 -1.677891 -0.935593
29340 2.01241359 9.14777595 -0.86804766 0.051562 -1.009832 -0.85506
29360 1.3696525800000003 11.130102270000002 -4.90095828 0.092862 -0.302779 -0.5523020000000001
29380 -0.02664396 13.05614862 -8.983115100000001 -0.389502 -1.60454 -0.402316
29400 -2.00373174 13.880188620000002 -9.75671208 -0.068217 -2.719138 -0.600537
29420 -1.89820557 12.32133057 -6.06973149 0.635948 -2.489098 -0.131237
29440 -1.5040692000000002 9.10226736 -5.8158585 0.8191510000000001 -3.348872 0.266386
29460 -0.65683836 10.63388304 -10.423870560000001 1.321475 -4.147373 -0.016433
29480 4.41731547 6.665492790000001 9.20900016 2.097139 -4.31566 -0.428474
29500 7.243135020000001 4.72402512 14.87861118 2.3692580000000003 -3.5837230000000004 -0.421102
29520 12.45215673 16.044980940000002 5.1739902 2.583659 -3.034907 0.141577
29540 18.95103648 32.742012960000004 -23.78253996 2.851676 -0.8223010000000001 0.16838699999999998
29560 10.33960266 18.38791305 13.502376090000002 2.713181 0.717113 -0.000127
29580 7.29837513 4.33707948 7.38429111 2.404501 -1.317321 -0.059497
29600 5.0126255099999995 9.42948972 3.0596409 0.948974 -4.72297 0.392968
29620 3.4923894300000002 16.05561498 -0.9391505400000001 1.01734 -4.922164 1.128637
29640 4.280946660000001 13.56014718 1.07760888 1.025208 -3.540735 1.7123080000000002
29660 4.154015070000001 10.34020107 0.15956946 0.457311 -3.270607 2.050894
29680 3.11637213 7.399859580000001 -1.10260476 -0.050649 -4.0960980000000005 2.200091
29700 1.6712708400000003 4.83509394 -2.1125540700000003 -0.21090100000000006 -4.177543 1.927748
