time Ax Ay Az Gx Gy Gz
20 2.63900772 8.389305990000002 -2.69694558 1.459163 -4.586073000000002 1.678222
40 0.83436012 9.02907495 -0.7987400100000002 0.966888 -4.133204 1.2746879999999998
60 -0.96744258 10.28510811 2.3688207 0.7013020000000001 -3.317914 0.884024
80 -2.54111373 11.82286485 3.63788154 0.350601 -3.035475 0.620566
100 -3.5311585500000002 13.06961775 2.4966548100000003 -0.07959400000000001 -2.74582 0.485799
120 -2.34532575 13.05031167 0.59845905 -0.39475 -2.477949 0.371091
140 0.9636951600000001 11.739783959999999 2.18590344 -0.754456 -2.116323 0.292271
160 5.316794370000001 14.948664390000001 3.4172448300000005 -1.152411 -1.715165 0.217407
180 6.41026602 16.70870592 -5.5321925400000005 -1.541806 -1.382981 0.067915
200 5.302128420000001 13.50027675 -9.32246262 -1.895396 -0.999459 -0.163646
220 1.75344921 10.29438837 -3.06696897 -1.96568 -0.650246 -0.319477
240 -0.33664977 8.562040470000001 0.25820901 -1.340993 -0.879925 -0.433392
260 -1.33253154 7.103175750000001 2.3017595400000004 0.12687 -1.7154009999999995 -0.033235
280 -2.2296168 5.99488119 0.36867942 1.76567 -1.854181 1.015633
300 -1.8528441300000003 6.78868677 -0.4379870700000001 1.6980529999999998 -1.345976 1.8552
320 -1.6844456700000001 6.92564418 0.27587682 0.607896 -0.508278 2.169115
340 -1.21053438 6.14083437 0.22797459 -1.201233 -0.422903 0.504898
360 -0.9849534300000001 6.055958250000001 -0.50131062 -1.278882 0.289262 -1.6960259999999998
380 -0.57031416 6.396345629999999 -1.36097073 2.569316 3.130969 -1.19102
400 -0.16121754000000002 7.037017110000001 -1.81782243 1.071306 -2.847891 -0.027324
420 -0.23261472000000002 8.158937759999999 -2.94512877 -1.460283 -4.718311 -0.280823
440 0.19878984000000002 10.6368849 -5.322631320000001 -2.480797 -3.145752 -0.248306
460 1.99370592 13.48770033 -10.102338000000001 -0.928667 -0.368658 -0.508079
480 3.91107042 14.090799509999998 -7.59714849 0.4962430000000001 1.246767 0.269992
500 4.99047453 10.97143533 -4.94496594 -1.011773 -0.456849 0.571426
520 4.63196808 6.705605879999999 -1.5314685300000002 -1.623459 -1.853747 0.915048
540 3.1641174000000003 7.02938493 4.8720678300000015 -1.663456 -1.645274 0.763882
560 0.02889045 17.75248011 6.07212513 -1.411401 -1.6555669999999998 0.455871
580 -4.37120847 17.718949530000003 9.16484535 -1.04601 -1.399722 0.360887
600 -9.52020279 12.796585830000001 2.12378652 -0.969441 -1.241275 0.098437
620 -7.00378083 8.989109010000002 -21.94705953 -1.059367 -1.135246 0.034647000000000004
640 -0.64890207 4.63331205 3.68833437 -0.793896 -0.770504 -0.0334
660 2.6801802900000005 5.685925050000001 9.73275606 -0.564063 -0.430426 -0.030094
680 3.37682763 9.57064581 7.079975100000001 -0.47309 -0.136696 -0.037312
700 4.07482875 14.20141707 -1.1156324400000002 -0.45719 -0.056317 -0.1719
720 4.3107396300000005 12.70916892 -11.15045802 -0.5845670000000001 -0.031952 -0.29353
740 1.51305516 9.11259729 -3.83831946 -0.720518 -0.141171 -0.301818
760 -1.00201302 7.59341088 1.1843416800000002 -0.8107770000000001 -0.271932 -0.29053
780 -3.0765533400000002 6.811730460000001 1.46589849 -0.976879 -0.391904 -0.247739
800 -3.01278834 8.11866771 0.45999090000000004 -0.990791 -0.391894 -0.238223
820 -2.94362784 8.70259815 -2.2270662000000003 -0.833836 -0.160078 -0.270538
840 -1.4801229900000001 8.46474489 -0.6303415499999999 -0.668863 -0.051828999999999986 -0.311185
860 -0.26195643 8.95048704 1.13029839 -0.547365 -0.13936700000000002 -0.370045
880 -0.08786817 8.74736118 0.99408654 -0.463215 -0.457971 -0.421392
900 -0.9113097600000001 9.22097817 0.40340682000000005 -0.346819 -0.6067130000000001 -0.355227
920 -1.21232961 10.01971818 0.512082 -0.067941 -0.433302 -0.273384
940 -0.7566747300000001 9.75087513 0.8226862200000001 0.413343 -0.234339 -0.097225
960 0.053592030000000006 9.07009056 1.4792204699999998 0.8604350000000001 -0.050157 0.075509
980 0.9488722500000001 9.223823070000002 1.64911986 1.3079 -0.504042 0.239449
1000 2.03262219 9.760008240000001 1.46201373 1.756766 -0.437959 0.373891
1020 2.83435425 10.23571476 1.83803103 2.180874 -0.48233 0.446345
1040 2.7641538900000002 10.244700719999999 1.84805685 2.236281 -0.6564810000000001 0.526004
1060 1.69611957 10.589875379999999 1.6842985200000002 2.306337 -0.403574 0.622309
1080 0.7021899899999999 11.12172453 0.6538365 2.456905 0.290655 0.574401
1100 1.4373121500000001 10.873541340000001 0.1414602 2.317616 0.319147 0.49648
1120 2.59440165 10.90527669 0.7927559100000001 2.048684 -0.135892 0.770785
1140 3.18327633 11.600275950000002 0.32452461 1.96591 -0.317483 0.965925
1160 2.4159773700000002 12.8497266 0.9168426000000001 1.972007 -0.4492310000000001 1.140256
1180 0.85456872 13.25059263 -0.5833418400000001 2.111553 -0.854885 1.4974690000000002
1200 -0.48199473000000004 13.939313490000002 -0.30266793 1.867094 -1.170124 1.688445
1220 -2.0254412700000004 14.05457118 0.86116104 1.6634220000000002 -1.454625 1.616884
1240 -1.7865383400000001 12.1583178 0.38245266 1.52524 -1.838722 1.3536290000000002
1260 -1.4105210400000001 9.24102981 1.03689738 1.392904 -1.929655 1.032354
1280 -1.41186501 10.21461345 2.56447134 0.993168 -1.938676 0.704834
1300 -2.3454729000000003 13.135786200000002 2.38962771 0.311663 -1.6848580000000002 0.426284
1320 -4.03530426 14.78999745 0.28470582000000005 -0.399748 -1.387464 0.198743
1340 -4.65726807 13.00016295 -0.005542650000000001 -1.017002 -1.002093 -0.000479
1360 -3.1148712000000005 10.2990285 0.91639134 -1.475345 -0.4878810000000001 -0.056682
1380 -2.5474019400000003 9.139241250000001 1.5175481400000002 -1.568384 -0.115559 -0.11122
1400 -1.96302024 9.06634314 0.26405577 -1.520351 0.198133 -0.277929
1420 -1.58430519 9.787544910000001 -1.0102534200000002 -1.398584 0.7195239999999999 -0.501005
1440 -1.46859624 9.70926111 -0.7593724800000001 -1.017671 0.933397 -0.768879
1460 -0.9147432600000001 8.70904332 -1.11083535 -0.405083 0.663118 -0.842233
1480 -0.50100651 7.588623600000001 -0.44293130999999997 -0.256745 0.072095 -0.490063
1500 -0.9650391300000001 6.52104054 -1.01429514 -0.723644 -0.6468649999999999 -0.111048
1520 -1.34839431 5.3349036299999995 -1.0060547400000002 -0.914283 -0.986378 -0.289269
1540 -0.45505647 3.65809014 -1.1578448700000001 -0.706246 -0.733744 -0.5103300000000001
1560 0.64995174 1.2760946100000001 -1.72516698 -0.502146 -1.349219 -0.484615
1580 0.2832147 0.67524192 -1.8179695800000002 -0.367833 -1.6857990000000005 -0.080526
1600 0.22108797000000002 1.19945889 -2.3504171400000002 -0.291139 -1.270261 0.364926
1620 0.44307846000000006 2.6035347600000005 -2.70951219 -0.63132 -0.492503 0.632882
1640 1.08629073 4.65636555 -1.59508638 -1.0462129999999998 0.45386 0.360647
1660 1.58684598 7.164105660000001 -1.32205446 -0.566566 0.7860060000000001 0.798338
1680 1.25050032 9.67468086 -1.67951124 -0.321218 -0.218043 0.991482
1700 -0.88646103 10.88865855 -2.6997904800000003 0.16433399999999998 -0.05644800000000001 0.652836
1720 -2.5174618200000003 10.32837021 -4.48138458 1.36121 3.237437 0.667657
1740 -1.5798122100000003 9.40389543 -5.11202043 1.168959 3.054363 0.529816
1760 -1.05500664 9.20122083 -3.3477900300000005 -0.428723 -0.172258 0.026068
1780 -1.30813407 10.41848487 -3.4172448300000005 0.298695 -1.352975 0.558227
1800 -2.00956869 12.42880893 -2.6491905000000004 0.352239 -1.230125 0.159997
1820 -1.90718172 11.68290558 -2.0580693300000004 0.262316 0.5853729999999999 -0.095058
1840 -1.94580369 10.182721140000002 -1.3070844000000001 -1.055806 0.548955 -0.500529
1860 -3.14196642 15.217056180000002 0.40385808000000006 -1.073828 0.100535 -0.50008
1880 -4.62089259 14.29691742 2.9017195200000003 -0.464234 -0.142807 -0.115223
1900 -1.9249966800000002 6.34425453 3.8444507100000003 -0.079377 -0.37453 -0.042803
1920 -0.45116190000000006 4.924757340000001 4.35429603 0.546509 -0.120387 0.061656
1940 -0.18800865000000003 5.638925340000001 3.58818408 1.521241 -0.155855 0.360134
1960 1.14496434 12.48373512 -1.17745506 2.656118 -1.212028 0.562763
1980 1.99296036 26.258544720000003 -20.40092505 3.477849 -1.951749 0.488266
2000 1.7154354600000004 12.076433730000002 2.1023811 4.426775 -3.327135 -0.038523
2020 2.50669044 7.67439243 3.2989852800000006 3.018847 -4.865978 -0.003656
2040 2.35894203 7.043599620000001 1.6262135100000001 1.437402 -2.79067 -0.002407
2060 -0.53169219 10.523412630000001 -5.64550785 1.536383 -1.2740209999999998 -0.810167
2080 0.8764254 14.272068690000001 -2.96682849 1.030266 0.520654 -0.825616
2100 3.6217146600000003 14.392123470000001 -0.48409407000000004 0.26200500000000004 1.924599 0.127551
2120 4.31373168 11.42558928 -2.12917221 -0.834881 1.455744 1.110731
2140 3.01967496 9.29940912 -1.6548096600000002 -1.533953 0.317797 0.975915
2160 0.9918400500000001 9.210196980000001 -0.7159632300000001 -1.485232 -0.261998 0.472798
2180 0.057329639999999994 9.07353387 -2.8586045700000002 -2.202035 -0.068615 0.15348599999999998
2200 -0.51358293 8.1471069 -5.35646601 -3.514157 0.40036 -0.370095
2220 -2.00103399 7.763310270000001 -4.828207320000001 -3.832562 0.5947720000000001 -1.025252
2240 -2.25506394 6.7954164299999995 -3.1368750300000006 -3.696571 0.069763 -1.185999
2260 0.46373832000000004 3.59342262 4.81518945 -1.838582 -1.339046 -0.803747
2280 1.90957536 1.20245094 4.757104440000001 0.142848 -0.742975 -0.004459
2300 1.94386131 -0.41344245 3.68429265 0.959855 -0.040776 0.04094
2320 -1.20424617 2.47330701 1.1811926700000002 0.076725 0.20537800000000006 -0.011478
2340 -1.8004587300000001 8.11447884 -1.36366848 -0.795053 0.928602 0.50173
2360 -0.98464932 13.11961932 -4.93059429 -0.8431069999999999 1.020085 0.84204
2380 -0.9060614100000001 13.59458028 -4.35399192 -0.8830600000000001 0.922185 0.850432
2400 -1.3665035700000001 10.797798329999999 -2.5658153100000005 -1.249799 0.136544 0.236786
2420 -1.28522772 9.5296302 -1.08853722 -1.213152 0.032770999999999995 0.049168
2440 -0.83990277 10.47311676 -3.9341141100000003 -0.054633 0.2314 0.520614
2460 -0.44457939 12.700791180000001 -7.77543543 0.717973 1.901534 0.970387
2480 -0.09190989000000001 16.2130851 -17.06107131 1.11154 3.841781 0.8008029999999999
2500 1.2698064 8.960964120000002 -10.247987070000002 0.266758 1.5095379999999998 0.556473
2520 -0.31060422000000004 7.72798446 -3.6657223200000004 0.148747 0.144072 -0.193562
2540 -1.4575207500000003 9.25090848 -3.67605225 -0.005784 -0.788489 -0.214811
2560 -2.62269369 10.393037730000001 -2.10821805 0.920843 -1.18758 0.216257
2580 -2.2372489800000004 7.7350182300000005 1.3398596100000002 0.953441 0.839541 0.212819
2600 -0.6087791700000001 4.70561175 3.2855161500000003 0.054829 0.79773 -0.007049
2620 -1.5965775000000002 4.29741765 2.33110125 -0.108354 -0.27060500000000004 0.100003
2640 -3.74521275 9.23654664 1.6015217400000001 0.834475 -0.8201280000000001 0.574106
2660 -6.28543377 13.226342310000001 2.37001752 2.175623 -1.805498 1.006684
2680 -1.8040491900000002 9.41587344 2.0995362 3.889304 -1.888564 1.112764
2700 4.47658749 9.979742430000002 2.6262841500000005 5.525044 -2.727797 0.709727
2720 5.04809847 14.048881380000001 -1.3620204000000002 3.5283050000000005 -4.253151 0.014072
2740 1.17774936 17.208515610000003 -11.25973161 2.373264 -3.754683 -0.295873
2760 -0.34862778 23.164931790000004 -4.364478810000001 3.547356 -1.3768129999999998 -1.355736
2780 1.15215507 10.006092090000001 0.9455859000000001 2.5563130000000003 0.276031 -0.913987
2800 3.8306872800000002 6.01090092 1.0565075700000002 0.070246 1.044149 -0.105533
2820 5.440881060000001 7.521405479999999 -3.0049992 -1.367504 0.520508 0.222653
2840 3.4849044 14.40140373 -6.796466100000001 -2.025392 0.157197 0.007016
2860 3.7124277300000004 14.03227305 -2.58557265 -2.535965 0.345171 0.327948
2880 4.70412063 10.54631898 -1.7148370499999999 -3.3566010000000004 0.709537 0.495869
2900 3.2241447900000004 8.06567409 -0.68707278 -3.9543 0.35607 0.43019
2920 1.08538821 7.972871490000001 -1.79417052 -4.032793 0.193138 -0.313632
2940 -1.63998675 9.860590170000002 -5.260661550000001 -3.978545 0.729969 -1.4078
2960 -3.6110904300000004 7.845037379999999 -0.67000338 -2.981461 0.984766 -1.521871
2980 -3.3223428900000003 4.3722581400000005 4.46730723 -1.292038 0.309806 -0.16431400000000002
3000 -4.28977566 2.20252158 5.37816573 -0.296627 -0.8374889999999999 0.8343510000000001
3020 -2.7113074200000002 5.65210017 -2.1951837000000003 -0.21158 -0.7404430000000001 1.000395
3040 0.9202859100000002 11.311675560000001 -2.07633555 -0.777569 0.181557 1.090332
3060 2.38978467 9.07233705 -5.02669305 -1.298628 0.895443 0.70549
3080 1.3834258200000003 5.888756610000001 -3.7157238900000005 -0.797932 -0.261329 -0.28938600000000003
3100 -1.6627459500000001 4.71189996 -2.42615034 0.012287 -0.333767 -0.458822
3120 -2.03456457 4.898417490000001 -3.4625964600000003 0.942892 1.407103 0.279316
3140 -1.3359748500000002 5.853725100000001 -6.9091830000000005 0.793234 3.391736 0.668833
3160 1.1843416800000002 8.51579613 -7.0841639700000005 0.416756 3.245683 0.490134
3180 2.5616264400000004 12.63028671 -6.20010639 1.188291 2.093686 0.728804
3200 0.22423698 16.0627959 -3.8068882200000003 1.266933 0.63045 0.281507
3220 -3.8100274200000004 16.55571897 -1.8959590800000001 -1.176768 -0.003332 -0.01142
3240 -3.84894369 15.087721140000001 -3.10828869 0.5157149999999999 0.364946 0.994445
3260 -2.1489295500000005 7.22038563 -3.00619602 1.154753 0.6384529999999999 1.040218
3280 -1.37922714 2.69754399 -1.19975319 0.28397100000000003 -0.619065 0.05512
3300 -0.8502327000000002 1.12041972 0.9153416700000001 0.267421 -0.852916 -0.057928
3320 -2.7039793500000004 8.2427544 0.48813579 0.730711 -1.286855 0.165918
3340 -4.39785243 15.1052418 1.7187218100000001 1.823332 -1.455835 0.450436
3360 -2.5972465500000004 12.80122596 2.4478598700000003 3.138405 -1.970884 0.506216
3380 3.75374745 9.04404501 1.1596401 3.743909 -2.899461 0.162326
3400 3.9187026 13.277393550000001 -0.81416133 4.119229 -3.703927 -0.1171
3420 1.6239768300000001 10.814857920000001 -3.8115283500000006 3.603063 -2.958621 -0.371624
3440 2.21045787 12.19393791 -8.163273779999999 3.13786 -1.0472629999999998 -0.830249
3460 0.96459768 15.86206368 -1.8503033400000002 2.122156 -0.094487 -0.587533
3480 2.7331641 11.109452220000001 4.248318600000001 1.203279 -0.356694 -0.5530229999999999
3500 8.10564003 12.10742352 -2.80666062 0.220441 -0.790187 0.013235
3520 5.86211265 13.44339837 -8.84659914 -0.695524 -0.538291 0.151792
3540 1.3186111500000002 11.556268290000002 -0.63453042 -1.809732 0.53514 -0.122285
3560 1.0186311599999998 8.59721913 -0.11720988 -2.455679 1.3089309999999998 -0.195087
3580 1.67367429 7.5676596300000005 -1.89026928 -2.665939 1.07097 -0.178091
3600 1.61259723 8.524772279999999 -5.0247506699999995 -3.02434 0.478446 -0.076218
3620 1.0565075700000002 9.94517199 -5.81990022 -3.3443910000000003 -0.275754 -0.600915
3640 -0.08427771 8.75783826 -2.83750326 -3.816896 -0.6602060000000001 -1.018193
3660 -0.28441152000000003 6.330481290000001 0.8156524500000002 -3.491985 -0.496364 -0.980882
3680 -0.57959442 5.51587851 3.90597903 -2.689865 -0.303976 -0.50444
3700 -3.35003652 5.36199885 -0.6162642 -1.224026 -0.11251400000000003 0.426361
3720 -2.40310665 11.689488090000001 -4.599487170000001 0.078512 0.833285 0.936311
3740 -0.265851 12.626244990000002 -5.2120137600000005 -0.242101 1.319742 1.307326
3760 0.17513793000000002 8.13034161 -2.8791172800000004 -1.276413 0.876208 0.967384
3780 -0.80307603 4.45173876 -2.38962771 -1.562661 0.229594 0.149024
3800 -2.14743843 4.768788150000001 -2.4962133600000005 -1.71904 0.556895 -0.578879
3820 -1.7760612600000003 6.09143121 -4.30086096 -0.577815 0.321651 -0.016199
3840 -1.3966006500000003 7.225025760000001 -5.550753060000001 1.552625 0.8837799999999999 0.351544
3860 -1.09033245 7.792946280000001 -5.58743265 0.464892 1.377012 0.492865
3880 -0.08547453 8.94704373 -7.453147500000001 -0.147279 1.96278 0.790145
3900 0.39517623 10.333461600000001 -6.890769629999999 1.110731 2.581025 0.6688850000000001
3920 0.67165146 14.53432923 -6.12287226 0.980145 0.044269 0.599653
3940 0.03532581 16.15006566 -3.4997175000000005 1.026328 -1.210349 0.22450100000000006
3960 -1.2891222900000001 13.069323449999999 -1.7003182500000003 -0.633922 -0.608888 -0.095515
3980 -1.9904097600000001 7.66884978 -3.0276014399999998 -0.24695300000000006 1.163568 -0.389912
4000 -2.0678008500000002 5.026251600000001 -5.27862366 -0.903319 0.095635 -0.222213
4020 -2.2230244800000003 3.97768032 -2.1495279600000003 -0.6778810000000001 -0.7223470000000001 0.077375
4040 -2.69350227 6.5250822600000005 2.25341586 -0.006286 -0.547135 -0.098687
4060 -5.3352077399999995 12.338537310000001 5.507500770000001 0.398962 -0.7438100000000001 -0.017625
4080 -3.6438754500000003 7.7766322500000005 3.4230817800000004 0.974809 -0.65799 0.132634
4100 2.27931426 7.72483545 -1.65450555 1.791047 -0.794341 0.2229
4120 5.484741570000001 11.829447360000001 -2.9782080900000003 2.874213 -1.358802 0.315579
4140 3.68025093 15.69576456 1.27310256 3.820683 -1.803123 0.31955500000000003
4160 3.4302627 20.0307447 -5.4341514 3.858635 -2.696809 0.0004980000000000001
4180 2.85920298 11.260182870000001 -6.1355958300000015 2.854111 -4.434293 -0.189094
4200 0.8420021099999999 8.40547287 -0.0836793 2.228967 -3.950815 -0.6726439999999999
4220 0.49531671000000005 8.5604022 4.65816078 1.794727 -1.903735 -0.999835
4240 2.65278096 13.18862286 -1.64732463 0.769922 -0.390381 -0.5442560000000001
4260 4.61190663 13.79277171 -5.25542301 -0.473922 0.462765 0.035621
4280 4.92446304 11.918963610000002 0.08023599000000001 -1.62946 0.173119 0.476574
4300 3.3588655200000006 10.73403333 -2.93090427 -1.719616 -0.249217 0.410255
4320 1.7588447100000002 9.950253570000001 -4.00193064 -1.857327 -0.352791 0.323968
4340 1.5877485 8.83522935 -2.19922542 -2.870767 -0.446682 0.439855
4360 0.76984956 7.181165250000001 -2.28948723 -3.913008 -0.281801 0.337292
4380 -0.15402681000000001 6.853795740000001 -3.6372831300000006 -4.095 0.817884 0.148741
4400 -0.9711801900000001 7.266041370000001 -5.8568741100000015 -3.203216 0.41562 -0.4598100000000001
4420 -0.45235872000000005 7.253769060000001 -5.25527586 -2.117185 -0.154455 -0.29767
4440 0.99707859 5.457803310000001 -0.93031173 -0.8780969999999999 0.024336 0.269437
4460 2.20056939 4.71474486 3.7709541900000003 0.045797 -0.530405 0.200757
4480 0.5468094 2.5972465500000004 3.5251646400000003 0.265115 -0.387281 0.448865
4500 -2.41447644 5.6037466799999995 0.04491018000000001 -0.159971 0.08570900000000001 0.5489069999999999
4520 -3.1338829800000005 10.197848160000001 -0.7707520800000001 -0.900502 0.870877 0.643141
4540 -1.23493185 10.84704453 -2.29532418 -1.725254 1.10584 0.40848
4560 -1.4898545100000002 11.12636466 -1.6902826200000003 -0.759595 0.903972 -0.29488400000000003
4580 -1.9968451200000001 11.005260210000001 -3.4560139500000004 0.100148 0.492567 -0.189007
4600 -0.7051820400000001 10.54601487 -4.67822223 -0.68143 0.570172 0.261565
4620 0.7881157799999999 9.83814489 -5.52590433 -1.496427 1.1619540000000002 0.828749
4640 1.47084273 12.36458286 -6.63584697 -1.076455 1.400894 0.917902
4660 -1.9067304600000001 15.663725100000002 -10.65992859 0.5885819999999999 3.148694 0.619645
4680 -4.35145113 14.403797370000001 -5.93350983 0.191205 0.171099 -0.594952
4700 -4.934037600000001 12.01431681 -2.1633012000000003 0.913086 -0.6271939999999999 -0.5878180000000001
4720 -3.87708858 10.41054858 -2.0001412800000002 1.136261 0.316281 -0.159111
4740 -2.8288214100000006 6.621033870000001 0.09729558 0.08164400000000001 0.291666 -0.547801
4760 -1.3341796200000002 3.7046484 0.01272357 -0.962116 -0.507977 -0.802963
4780 -1.14017706 0.32646699000000007 1.28448216 -1.053248 0.309647 -0.5974119999999999
4800 -1.03689738 -2.05926615 2.9651804100000003 -1.531358 -0.169128 -0.333083
4820 -2.34052866 3.68997264 3.6893742300000003 -0.987502 -0.169125 -0.272668
4840 -4.03306758 13.8881151 -0.6319896300000001 0.053323 0.143875 -0.327756
4860 0.51956703 17.07394203 -2.9238705 1.094083 0.307431 -0.040822
4880 4.05297207 10.448719290000001 4.084109010000001 2.249114 0.18327 0.17036700000000002
4900 4.294867050000001 8.80963506 4.29965433 2.573926 -1.213901 0.569669
4920 4.335137100000001 12.00907827 -0.15701886 3.40138 -1.625445 0.7383460000000001
4940 -2.4944083200000002 24.44237037 -16.80674706 3.5095300000000003 -2.063337 0.926601
4960 -2.5457538600000005 21.031266600000002 -0.36419625 2.916611 -2.52755 1.1121299999999998
4980 2.9304530100000004 5.88995343 3.9793284 2.565139 -2.525684 1.216494
5000 4.59484704 5.2115625 -2.41537896 2.642375 -1.975978 1.6756650000000002
5020 3.60974646 5.893249590000001 0.16091343000000002 2.522835 -2.396389 2.218025
5040 2.36477898 9.688002840000001 1.17669969 2.074766 -3.5550040000000003 2.238813
5060 3.86585613 11.680207829999999 -2.15596332 1.771813 -3.728027 1.814971
5080 5.84609292 11.01199968 -0.7434999 1.1445040000000002 -2.85423 1.492208
5100 6.35833188 10.98356049 0.045802890000000006 0.6002770000000001 -3.075361 1.053923
5120 5.06815992 10.1279421 -0.6911145000000001 -0.158874 -3.5314980000000005 0.962679
5140 3.41499834 9.12906828 -2.72343258 -0.955434 -3.2971800000000004 0.8649479999999999
5160 1.9752925500000003 8.668920420000001 -4.641699600000001 -1.520846 -2.382202 0.579952
5180 0.36135135 11.25479718 0.015568470000000001 -2.168761 -1.535157 0.305148
5200 -1.4826637800000002 13.636488600000002 -0.8214894 -2.656953 -0.950794 0.313808
5220 -3.01578039 14.60019357 -2.41103313 -2.471416 -0.615408 0.19717
5240 -2.05417476 16.241828400000003 -0.38979054 -1.608193 -0.326859 -0.24902800000000005
5260 -0.91954035 18.23687829 -0.30761217 -0.40377 -0.7320760000000001 -0.390715
5280 -0.21840003000000002 18.82500741 -2.44217007 0.614342 -1.5019049999999998 -0.033308
5300 2.1920445 15.32618262 -3.1922622900000004 0.8558790000000001 -2.380117 0.661712
5320 3.0798495000000004 12.32297865 -1.2088863 0.130103 -2.453078 0.88854
5340 0.67719411 11.13085764 0.34398765000000003 0.317887 -1.969168 0.6574270000000001
5360 -2.3972697000000003 11.352995280000002 -1.5057172800000003 1.292662 -0.445903 0.365319
5380 -3.43640376 10.40980302 -2.5273404900000003 0.102255 0.438534 0.001221
5400 -2.1095620200000003 6.7042619100000005 -1.23747264 -1.061143 0.655181 -0.154598
5420 -1.2617229600000002 4.11269535 -0.33170553 -1.6504869999999998 0.453357 0.211149
5440 -0.06002739000000001 3.9978889200000003 -1.2509515800000002 0.719851 1.476244 -0.8322129999999999
5460 0.51552531 4.466257560000001 -3.00799125 0.98838 0.005449 -0.088175
5480 1.77096987 4.71085029 -4.59260055 0.616536 -1.348965 0.34573000000000004
5500 3.0112874100000004 5.56767531 -5.05289556 -0.332637 -3.455983 -0.18697
5520 2.4974101800000006 9.286538400000001 -5.41214757 -1.447935 -3.210557 0.143551
5540 0.6686594100000001 11.288474910000001 -4.78929105 -1.725977 -1.720117 0.354412
5560 -0.5619266099999999 9.5817213 -7.31034333 -1.326862 -1.679927 0.613521
5580 2.2088097900000006 6.61623678 -7.35226146 -1.477976 -1.893273 0.550782
5600 3.41649927 4.25325303 -2.6470911600000004 -1.526836 -1.584376 0.335333
5620 3.32698302 3.86256978 2.2806582300000002 -1.362048 -1.447753 0.125869
5640 2.3812499700000003 11.73080781 6.165378990000001 -1.085884 -1.653629 -0.043922
5660 -0.8087658299999999 15.94543887 7.998171480000001 -1.049249 -1.493331 -0.201968
5680 -4.6448388000000005 11.53187082 4.92925032 -1.129185 -1.2501209999999998 -0.214589
5700 -5.980813650000001 14.12433009 5.2837150500000005 -1.267698 -1.033141 -0.276723
5720 -5.82169545 21.018837330000004 4.06255644 -1.298203 -0.853447 -0.432058
5740 -0.34398765000000003 12.10996431 -3.4030203300000004 -1.314359 -0.8301850000000001 -0.374517
5760 3.89505069 11.4498396 -7.39612197 -1.328569 -0.8760620000000001 -0.344647
5780 4.618646100000001 7.82961606 -3.49208532 -1.278956 -0.772839 -0.360456
5800 4.750816230000001 11.87809515 1.13104395 -1.121433 -0.587094 -0.327548
5820 2.10432348 15.25732623 1.0841913900000002 -0.953887 -0.526098 -0.275181
5840 0.45953963999999997 13.697418509999999 -1.33073631 -0.658654 -0.563461 -0.245297
5860 -0.24653511000000003 10.201281660000001 -1.03719168 -0.297314 -0.595784 -0.201071
5880 -1.6705252800000003 8.96650677 -0.50250744 0.032512 -0.7367319999999999 -0.137698
5900 -2.61835767 8.9540775 -0.1240965 0.372583 -0.786958 -0.126712
5920 -2.34502164 8.67191247 -0.11360961 0.829832 -0.6649149999999999 -0.140766
5940 -1.44405162 8.10654255 0.6318326700000001 1.637558 -0.688859 -0.181027
5960 -0.5812425 7.37606052 0.7355734200000001 2.456109 -0.641613 -0.184984
5980 -0.08846658 6.973252110000001 0.97641873 3.242895 -0.303327 0.049746
6000 -0.04250673 7.43204619 1.2295461600000002 3.3797650000000004 -0.014934 0.271454
6020 0.24354306000000003 7.82408322 1.3319331300000001 3.25337 -0.341624 0.293423
6040 0.70323966 8.08498998 1.26755991 2.948284 -1.100937 0.234581
6060 1.1141315100000002 7.88994756 0.9204330600000001 1.879749 -1.922877 0.248467
6080 1.4980851 8.179440660000001 0.210915 1.399436 -2.135504 0.557305
6100 2.04788655 8.63045541 -0.4326013800000001 1.942248 -1.279465 0.995834
6120 1.9396626300000002 9.88963758 -0.5252568299999999 1.975503 -0.5144350000000001 1.724681
6140 1.4994290700000001 10.8685971 -0.48753738 1.614038 -1.6910040000000002 2.1637720000000003
6160 1.20379491 10.78222986 -0.8434932300000001 1.47459 -3.291592 2.154167
6180 1.3760879400000001 10.59242598 -1.5293691900000002 0.726651 -2.979443 1.997923
6200 1.2567885300000001 11.04239106 -2.1623986800000004 1.215766 -3.141878 1.968433
6220 0.4858893000000001 13.57571565 0.46792719 1.196418 -2.90237 1.7639599999999998
6240 -0.022602240000000003 16.03285578 4.76518788 0.935583 -2.56379 1.502126
6260 -0.7656606900000001 13.611796830000001 3.13912152 0.5481 -2.354886 1.27803
6280 -0.45415395000000003 11.78858871 -2.23141203 -0.106602 -1.912295 0.921445
6300 0.17917965 12.33494685 -3.7053939600000003 -0.764092 -1.416275 0.526316
6320 0.7146094500000001 14.407093530000001 -1.00740852 -1.129209 -1.356024 0.16156099999999998
6340 -0.04955031 14.371610760000001 1.96406991 -1.501431 -1.357915 -0.108092
6360 0.78541803 13.208380200000002 3.2904603900000002 -1.950568 -1.187744 -0.183018
6380 2.8681889400000005 12.027040379999999 1.4266879200000002 -2.22422 -0.699531 -0.29130900000000004
6400 3.69836019 11.59713675 -2.4683627699999997 -1.899087 -0.048818 -0.530222
6420 1.3424102100000002 10.727146710000001 -6.07481307 -0.507897 -0.212937 -0.919809
6440 -0.8403540300000001 10.075851 -3.7020978 1.150743 -0.025926 -0.6403399999999999
6460 -2.40968916 8.202190049999999 2.2945786200000002 1.306132 1.364689 -0.35048
6480 -2.2369448700000003 6.549626879999999 1.25918217 0.221618 1.162234 -0.196494
6500 -0.32063004 8.06253489 -0.06406911000000001 -0.349558 -0.5114270000000001 0.592145
6520 0.08876088000000001 8.356520970000002 -0.6683553 -0.5220560000000001 -1.539372 0.198084
6540 -0.54336609 7.722441810000001 -0.56627244 -0.419434 -1.76587 -0.790083
6560 -0.8214894 7.5098787300000005 0.47795301 -0.886476 -1.218882 -0.7769550000000001
6580 -1.25573886 7.23984867 0.8903457900000001 -1.095115 -1.54303 -0.254568
6600 -1.7863813800000001 6.874906860000001 -0.57899601 -0.808404 -1.313931 0.279116
6620 -1.0659349800000002 7.079523840000001 -1.2337350300000003 -1.270866 -0.7569140000000001 0.709938
6640 0.32122845000000005 7.474857030000001 -1.8413173800000002 -1.470221 -0.638313 0.793851
6660 1.65136635 8.06133807 -2.29967001 -1.306006 -0.982725 0.467496
6680 1.74282498 7.909999200000001 -3.9341141100000003 -1.087987 -1.382086 -0.016511
6700 0.6912616500000001 8.46923787 -8.16207696 -0.8927299999999999 -1.413627 -0.28964
6720 1.60271856 11.12725737 -3.22564572 -0.900016 -1.093235 -0.485586
6740 1.5320669400000002 17.02125252 2.6319739500000003 -1.134573 -0.601252 -0.504946
6760 -1.6835529600000003 18.21367764 0.8032329899999999 -1.196576 -0.112242 -0.4632770000000001
6780 -3.7163223000000003 7.941440250000001 -1.06069644 -1.107567 0.079899 -0.372102
6800 -2.93943897 5.01456789 -5.306915699999999 -0.962567 -0.019255 -0.210729
6820 0.5004081 6.930588419999999 -4.72821399 -0.561174 -0.065947 -0.071133
6840 2.8315093499999997 9.72168057 0.91938339 -0.058363 -0.21479 -0.048202
6860 4.4120769300000005 12.18092004 3.67440417 0.420097 -0.143754 0.153738
6880 4.0043242800000005 13.84111539 4.04728227 1.025219 0.116388 0.37448
6900 2.07213687 12.71261223 1.2639694500000003 2.081187 0.090215 0.409664
6920 -0.021258270000000003 10.12194819 -0.48888135 3.399002 0.560092 0.8423510000000001
6940 -1.5181465500000002 8.99045298 -1.16203374 3.970897 1.516012 1.319411
6960 -2.80980963 8.66428029 0.14699304000000002 4.1241400000000015 0.362149 0.963037
6980 -3.10065651 8.028700200000001 1.09527669 3.91864 -3.244889 0.346655
7000 -2.04295212 8.282730149999999 0.7969447800000001 2.86689 -5.296518 -0.096033
7020 -0.6409657799999999 8.55740034 -0.55938582 2.965914 -2.764669 -0.369914
7040 0.28216503000000004 8.92458864 -1.7817412500000003 2.439898 -0.102644 0.642084
7060 0.6894664200000001 9.44864865 -2.70262557 1.682564 -0.808922 1.563848
7080 1.2445162200000002 9.95669874 -2.6005427100000005 1.140008 -0.8321729999999999 1.189415
7100 2.42435511 10.56248586 -1.55840679 0.7854399999999999 -0.635196 0.989064
7120 3.52082862 10.872040410000002 -0.48962690999999997 0.235009 -0.883498 0.956696
7140 2.7258360300000004 10.35247338 0.59710527 -0.399424 -0.965849 0.788932
7160 2.16824544 9.767493270000001 -0.51193485 -0.878122 -0.8578959999999999 0.5814189999999999
7180 0.6379737300000001 11.88528588 -1.47533571 -1.201744 -0.288718 0.515404
7200 -1.0976703300000001 12.90556512 1.54553607 -1.805037 0.015207 0.691331
7220 -1.20754233 12.03048369 1.4004854100000002 -2.496728 0.36509 0.640117
7240 -2.5825806 13.38141879 -5.97512385 -2.915325 0.7945260000000001 0.437954
7260 -4.687355340000001 13.174849620000002 -5.775294150000001 -2.945961 1.126672 -0.012407
7280 -3.71856879 13.573626120000002 -0.33695388000000004 -2.583751 1.629322 -0.8180970000000001
7300 -2.7542752200000002 13.58589843 4.80246588 -1.84481 1.395933 -1.434342
7320 -1.2452617800000003 12.755570220000001 2.5333344 -0.7982279999999999 0.206827 -0.945876
7340 1.93547376 11.374695000000001 -4.541706270000001 -0.318094 -0.987568 -0.242375
7360 2.86354881 10.50470496 -3.0006631800000005 -0.212592 -1.039921 -0.028994
7380 0.17558919000000003 7.16664645 -0.40191570000000004 0.0029230000000000003 0.15995299999999998 0.223074
7400 -1.71139374 4.25580363 -1.73100393 -0.112602 1.224898 0.405705
7420 -1.2910646700000001 4.04742942 -2.2837974300000004 -0.5730689999999999 1.328736 0.411969
7440 -0.5724135 4.1008743 -1.3642668900000001 -0.894602 0.941169 0.11005
7460 -0.17423541000000003 3.0505077900000006 0.35521029 -0.6703640000000001 0.576855 0.17938099999999998
7480 -0.13113027000000002 2.16360531 0.20611791 -0.873891 -0.539751 0.670772
7500 -0.02185668 2.1927900600000005 0.030391380000000003 -0.937581 -0.850959 0.7625930000000001
7520 -0.17842428 2.4358818600000003 0.15926535 0.141906 1.294565 0.345436
7540 0.018413370000000002 2.21553945 -0.9454387500000001 0.8022060000000001 2.8503580000000004 0.98151
7560 1.1918169 3.3703922700000004 -1.12656078 0.559757 2.213735 1.35451
7580 0.7637085 7.21409742 -2.85171795 0.230026 0.249439 0.823818
7600 -0.83960847 10.4347989 -5.06546217 0.439575 -0.507065 0.682041
7620 -2.98808676 13.651909920000001 -7.737559020000001 0.174902 -1.013381 0.190527
7640 -0.42721569 15.039524609999999 -7.1699426100000005 -0.194817 -0.071202 -0.406126
7660 0.95097159 11.57243517 -2.1263273100000006 -0.28444400000000003 0.5504140000000001 -0.734424
7680 -0.87702381 9.97720164 0.30072555 -0.8959590000000001 -0.038282 -0.571299
7700 -2.3474152800000003 10.801084679999999 0.9949792500000001 -0.903316 0.350387 0.272047
7720 -4.65083271 10.83716586 0.37781253 -0.157313 0.358737 0.467391
7740 -5.32068894 15.37901928 1.0265674500000002 0.801492 -0.291988 0.129886
7760 -5.214260250000001 10.810070640000001 2.31613119 1.481024 -1.076049 0.077954
7780 -0.23007393000000004 3.7419165899999998 0.8792703000000001 2.244995 -1.83257 0.25838
7800 2.09009898 5.567224050000001 0.11346246 3.111378 -1.961776 0.117182
7820 2.77986951 14.801072940000001 -0.7628157900000001 4.200141 -2.056433 -0.331222
7840 5.622454350000001 15.764620950000003 -1.9923521400000002 4.0356830000000015 -2.137808 -0.617482
7860 3.03180012 22.43534247 -9.85999176 3.3969120000000004 -3.307081 -0.430302
7880 1.8024011100000001 12.75677685 -3.2744406600000002 2.948225 -2.795086 -0.739604
7900 0.65055015 5.87123595 4.30579539 2.484396 -0.676344 -0.581052
7920 -0.25432425000000003 5.92961526 2.5257022200000003 1.603316 0.414177 -0.004287
7940 -0.7981416 8.03439 0.7906565700000001 0.301573 -0.344913 0.21192
7960 0.90022446 12.088715850000002 -3.7365309000000004 -0.4516600000000001 -0.744208 0.286219
7980 3.51977895 13.380378930000001 -1.3265376300000002 -1.068957 -0.087258 0.369727
8000 6.8853839400000005 12.24139869 0.16241436 -2.02595 0.628738 0.367466
8020 7.807160970000001 11.84247504 -1.9109291400000001 -3.008037 0.969792 0.112342
8040 2.8889959500000004 10.6024518 -4.73674869 -3.572125 1.181876 -0.220882
8060 -0.99423369 9.99666468 -4.040542800000001 -4.368534 0.475545 -0.582326
8080 -1.2814803000000001 8.349487200000002 -1.75300776 -4.360341 -0.532415 -0.803168
8100 -1.54688004 5.817653730000001 -2.9548504799999997 -2.968577 -0.662806 -0.5710890000000001
8120 -1.8465559200000001 5.767357860000001 -3.0916705500000004 -1.70102 -0.096305 -0.016031
8140 -0.8773279200000001 5.2172523 0.5921708400000001 -0.750777 0.605209 -0.181208
8160 0.7218001799999999 5.104829700000001 0.21450546 -0.228192 1.6629490000000002 0.450269
8180 2.30595822 6.0493659300000004 2.5911153000000002 0.187 1.892116 1.121583
8200 1.61065485 6.66489438 2.07588429 -0.017616 1.01071 1.138375
8220 -0.09116433 10.18781253 -3.35033082 -0.470107 0.472224 0.862439
8240 -0.4251163500000001 12.466371420000002 -5.742057870000001 -0.6739930000000001 -0.15846300000000002 0.251868
8260 -0.95216841 8.976983850000002 -3.6763563599999998 -1.318191 -0.529518 -0.16983099999999998
8280 -1.82844666 7.458543 -0.7282355400000001 -0.18602 0.5932970000000001 0.442321
8300 -1.8979014600000002 7.835158710000001 -0.36913068000000004 0.673431 3.834204 0.944099
8320 -2.8460281500000004 8.64767196 -3.1537874700000006 0.387107 3.917492 0.8768309999999999
8340 -3.0964578300000003 10.802134350000001 -5.589679139999999 0.217593 -0.424986 0.062953
8360 -1.7000141400000002 11.087448390000002 -9.147030390000001 -0.236823 -0.763702 0.179854
8380 -0.49816161000000003 9.64997928 -9.94381821 0.7552909999999999 -1.260052 0.899924
8400 1.29615606 7.37606052 -6.502627169999999 0.945467 -0.655808 1.209194
8420 1.9922049900000003 8.41624425 -4.2529587300000005 1.450057 -0.177296 0.987779
8440 0.8482903200000002 12.036320640000001 -1.8407189700000002 1.072205 -0.8776799999999999 -0.15696
8460 -2.7104147100000002 10.825334999999999 -0.6372281700000001 0.989787 -0.347566 -0.519274
8480 -2.93315076 6.33901599 -1.9483444800000003 1.62679 0.102272 -0.079567
8500 -1.72710936 2.6309242800000003 -4.007022030000001 2.513689 -0.544121 0.159261
8520 -2.22945984 2.8720737 -3.4416423000000003 3.3683970000000003 -0.777101 0.138824
8540 -0.6620769 8.653057650000001 0.02994012 4.4337800000000005 -0.798387 -0.256427
8560 -1.1060480700000002 12.989391570000002 2.1275241300000003 2.91182 -3.158673 -0.360173
8580 -1.02461526 13.233680190000001 6.46550613 2.209832 -1.58786 -0.6993060000000001
8600 3.05185176 18.76632399 7.1576703 1.6888490000000005 -0.370147 -1.071974
8620 4.96488024 14.168789010000001 -2.41882227 0.464504 -0.005821 -0.810733
8640 0.07469334000000001 15.71193144 -15.14685582 -0.64486 0.30484 -0.54862
8660 1.6058577600000001 19.782267210000004 0.7592253299999999 -1.76323 0.559723 -0.714855
8680 3.80732967 10.34094663 2.8821093300000005 -2.8087720000000003 0.716037 -0.8035439999999999
8700 6.085898370000001 5.1063306299999995 -1.14287481 -3.678003 0.440592 -0.43218
8720 2.96892783 3.8248503300000003 -6.80454954 -4.2864309999999985 0.395752 -0.412871
8740 0.021552570000000004 12.34317744 -8.63225064 -4.538395 0.549143 -0.458625
8760 0.8930435400000001 12.824730720000002 1.9050921900000002 -3.852965 0.100951 -0.060157
8780 3.0772989000000006 8.929228770000002 -1.3407621299999999 -2.525423 -0.14081 0.106454
8800 2.90096415 6.14816244 0.38933928 -0.883041 0.274989 0.195373
8820 1.5399934199999998 4.876109550000001 0.47062494000000005 0.559366 1.447453 0.910041
8840 -0.46478799 6.461611560000001 -3.6799468200000005 0.77878 1.860156 1.407768
8860 -3.3286311 8.70230385 -4.71189996 -0.559702 1.124964 1.2743790000000002
8880 -1.6735173300000001 8.211176009999999 2.7593666100000003 -0.797525 0.905919 0.315871
8900 -0.84244356 7.86749247 -0.18666468 -0.366715 -0.664665 -0.497365
8920 -0.7144623 9.796079610000001 -2.8491771600000004 0.5279550000000001 0.191865 -0.485804
8940 -0.16286562000000002 8.83522935 -1.5989711400000002 1.3930209999999998 1.756645 0.654822
8960 0.16286562000000002 8.18962344 -1.4479363800000002 0.966229 3.231284 0.950121
8980 -1.27040481 6.99659991 -3.35451969 -0.8291540000000001 1.207799 0.7735310000000001
9000 -2.26059678 7.302868110000001 -5.94893115 0.492329 1.0585639999999998 0.717791
9020 -1.10679363 8.93042559 -5.54417055 -0.788779 -0.868001 0.6333310000000001
9040 -0.36673704 10.758725100000001 -5.43788901 0.910125 -1.791813 0.813024
9060 0.58648104 12.06191493 -6.936425370000001 0.543845 -0.559671 0.693519
9080 2.2748212800000003 12.397073579999999 -6.5966363999999995 1.113133 0.199224 0.36217
9100 0.76760307 12.94658073 -2.7849609000000006 1.432228 -0.538027 -0.160222
9120 -3.1524435000000004 10.46144286 0.26405577 1.97805 -1.156527 -0.206891
9140 -3.19585275 6.134987610000001 -1.95314157 2.564873 -1.686478 0.21022
9160 -1.24990191 3.2623155 -7.80940746 3.254627 -1.654436 0.124198
9180 0.9749178000000001 2.70921789 -1.29345831 3.657204 -2.009888 -0.311573
9200 -0.66820815 7.33983219 1.93562091 3.313964 -2.336171 -0.469513
9220 -4.04369181 13.959973350000002 3.800894310000001 2.732483 -2.3968830000000003 -0.7661899999999999
9240 -3.58848819 14.8479255 4.2311020500000005 1.818351 -1.257748 -0.8616290000000001
9260 5.5145345400000005 11.682307170000001 1.95852726 0.953846 -0.216749 -0.701291
9280 6.77206863 13.40148024 -7.38818568 0.038879 -0.5311680000000001 -0.400699
9300 3.85328952 10.53778428 -4.57672797 -1.0687870000000002 -0.409761 -0.231267
9320 3.4908885 21.286032300000002 -6.295459590000001 -1.861828 -0.269491 -0.256214
9340 4.02677937 14.49106713 -0.09325386000000001 -2.584653 -0.038396 -0.145123
9360 5.9222871900000005 8.55665478 -1.48969755 -3.233156 0.314134 0.169294
9380 2.20671045 5.567224050000001 -1.7896775400000002 -4.075426 0.4555 0.179253
9400 -0.90995598 10.68149097 -6.05505573 -4.544163 0.7799649999999999 -0.368162
9420 0.38125584000000007 12.37686498 -1.80090018 -4.270122 0.878288 -0.950692
9440 2.0389104000000002 8.47163151 -1.2070910700000002 -3.060812 0.034787 -0.716837
9460 2.0430992700000004 5.49956448 -0.5086386900000001 -1.297769 -0.921699 0.118166
9480 1.1066464800000002 5.50045719 -1.69073388 0.339156 -0.607629 0.6098979999999999
9500 0.00913311 7.35211431 -2.0839677300000004 0.4609140000000001 0.069939 1.023282
9520 -0.83825469 8.596473569999999 -1.1404811700000002 -0.437912 0.728934 0.839902
9540 -0.63467757 9.35614035 -0.25701219000000003 -0.946819 1.190631 0.108297
9560 -0.7954438500000001 9.998754210000001 -0.6179122800000001 -0.280635 0.425228 0.197252
9580 -0.77044797 10.393037730000001 -4.223018610000001 1.019149 0.159144 0.343405
9600 -0.72973647 9.25286067 -4.32241353 1.534676 1.989031 0.227156
9620 -1.42698222 8.852445900000001 -1.83862944 0.4752020000000001 2.880396 0.414098
9640 -1.72022274 7.116497730000001 -3.27698145 -0.166348 1.764559 0.5605979999999999
9660 -1.93726899 5.9362075800000005 -4.182003 0.744595 -0.2609 1.194466
9680 -1.88697312 5.2617112200000005 -5.0088879 0.177235 -1.057665 0.34015100000000004
9700 -0.51822306 6.14756403 -5.5670769 -0.5921609999999999 -0.417917 0.06262899999999999
9720 0.57884886 8.12211102 -5.12998254 0.235927 0.287794 0.019439
9740 0.35910486 11.53531413 -5.5899734400000005 -0.08508500000000001 -0.431077 -0.016065
9760 -1.19406339 14.383588770000001 -5.165759610000001 0.307418 -0.5714229999999999 0.108634
9780 -1.28852388 13.742318880000001 -2.17796715 0.973794 -0.8425540000000001 -0.06475700000000001
9800 -0.777933 8.59393278 -1.3591755 1.397286 -0.982011 -0.188739
9820 -1.9134699300000002 4.99571307 -3.4590060000000005 1.799314 -1.185058 -0.109827
9840 -1.48491027 5.86525185 -2.8689345 2.606224 -1.4357209999999998 -0.195736
9860 -2.29711941 9.75805605 2.78481375 3.111624 -1.6446439999999998 -0.33508000000000004
9880 -4.38648264 9.373504050000001 4.0835106 3.339713 -2.053905 -0.217595
9900 -1.26996336 8.675512740000002 2.0399600700000002 3.079464 -2.840936 -0.310271
9920 0.72988362 11.20734621 -2.14967511 2.778797 -2.248004 -0.475501
9940 2.3912757900000003 19.04638968 -4.79422548 1.636693 -1.392964 -0.4568
9960 6.36326631 24.23879325 -3.9742370100000004 0.511447 -0.443742 -0.296029
9980 6.034101570000001 10.457401140000002 0.60309918 -0.418958 -0.359944 -0.199018
10000 3.6422273700000005 9.46242189 -1.81811673 -1.1263299999999998 -0.582225 0.056972
10020 0.6661186200000001 9.81987867 2.8584574200000006 -2.193063 -0.33010700000000004 0.27032
10040 1.19166975 10.27313991 -4.072582260000001 -2.578872 -0.072813 0.197861
10060 2.73077046 10.6921152 -5.16141378 -2.988391 -0.269541 0.199525
10080 4.22466669 10.94808753 -2.89827621 -3.72105 -0.12679200000000002 0.035059
10100 4.68989613 10.77369516 -5.42741193 -4.174601 -0.269623 -0.083294
10120 2.52599652 9.907893990000002 -3.74176944 -3.590933 -0.487915 -0.07893700000000001
10140 0.64007307 7.52470164 -1.83279249 -2.476014 -0.535269 -0.125568
10160 -0.1995354 6.51161313 -0.34922619 -1.525675 -0.261036 -0.264559
10180 -0.28006569000000003 5.23940328 0.40311252 -0.268967 0.587461 0.375519
10200 0.11496339000000001 4.383039330000002 -1.0309034700000002 0.621919 0.109395 0.607749
10220 -0.00074556 6.57806607 -2.0480435100000003 0.25601 -0.560702 0.402022
10240 -0.25042968 7.71600645 0.21345579 -0.464632 0.186812 0.305231
10260 -0.77599062 7.56856215 -0.6538365 -0.788216 1.674635 0.677079
10280 -1.00784997 8.45471907 -2.4610347 -1.2245629999999998 1.30459 -0.176868
10300 -0.7044364800000001 9.49924863 -4.2131399400000005 -1.018146 -0.003129 0.0666
10320 -1.1560496400000002 9.07607466 -3.39119928 -0.5212180000000001 0.119285 0.723666
10340 -1.24136721 9.52259643 -2.3363397900000002 -0.536611 1.618536 0.901098
10360 -1.77829794 9.65776842 -2.9746176300000005 -0.5673090000000001 2.3495630000000003 0.865764
10380 -2.1171942 9.632017170000001 -5.31215424 0.439615 1.919457 0.725934
10400 -2.13859962 10.169850420000001 -4.98567744 0.236105 0.020797 0.188561
10420 -1.8651262499999999 10.49348232 -6.374793060000001 -0.5449510000000001 -0.506124 -0.562906
10440 -0.33605136 8.661592350000001 -6.55217748 -0.95471 -0.6247689999999999 -0.906379
10460 -0.17798283 8.528519700000002 -4.47479226 -0.934636 -0.542038 -0.301731
10480 -1.59748002 13.6102959 -2.69214849 -0.063422 0.198094 0.066601
10500 -5.144501340000001 15.440096340000002 -1.07191908 0.068063 0.313408 -0.113158
10520 -5.0269971600000005 11.33413065 -5.322180060000001 0.295168 -0.021614 -0.17844000000000002
10540 -2.03651676 6.3297357299999994 -7.61122584 -0.044522000000000006 -0.8936879999999999 -0.246993
10560 0.04146687000000001 3.6531557100000005 -0.47376414 0.248149 -1.198688 -0.151623
10580 0.36224406000000003 0.77329287 4.15685997 1.500065 -1.095359 0.095203
10600 1.2651662700000001 5.07040641 5.190608340000001 2.737678 -0.935181 0.257466
10620 -3.06696897 11.060794620000001 3.14974575 3.065238 -2.501575 0.349356
10640 -1.50197967 10.48554603 0.5043026700000002 3.249486 -3.325733 -0.167457
10660 3.28910661 11.26512711 0.12364524000000002 3.942447 -2.612859 -0.286376
10680 4.66968753 14.28524352 0.42855966000000006 3.086757 -2.040169 0.295504
10700 2.7288280800000004 13.738130009999999 -1.9323345600000001 2.546029 -0.7070029999999999 0.637191
10720 0.28860039000000004 9.648036900000001 -4.96173123 2.258788 -1.032471 1.557477
10740 -1.4542245900000002 9.82661814 -0.86864607 2.281271 -2.419182 2.532561
10760 -1.0936286100000001 15.23007405 0.8306225100000001 2.117404 -3.204102 2.361507
10780 2.63257236 14.288088420000001 0.35116857000000007 1.615512 -2.4044830000000004 1.832479
10800 6.897960360000001 10.61083935 1.30079619 0.350522 -1.389196 1.577719
10820 8.048467350000001 8.0340957 -1.39719906 -0.326373 -1.576356 1.017756
10840 5.07459528 8.54288154 -3.66348564 -0.779576 -2.214258 0.562481
10860 3.11233041 11.074420710000002 -4.72177863 -1.478632 -2.220645 0.368531
10880 3.8206516500000003 9.90834525 0.0028449 -1.94047 -1.549872 0.057866
10900 4.62254067 7.405696530000001 1.90464093 -2.408984 -0.928019 -0.0017510000000000002
10920 4.92176529 7.849530360000001 -0.39637305000000006 -3.006557 -0.529449 -0.055574
10940 2.55204207 8.64242361 -6.0656897700000005 -3.032898 0.045565 -0.506216
10960 -0.2282787 10.54137474 -2.6749417500000003 -1.700954 -0.123207 -1.012647
10980 -3.66108219 11.247165 4.3767511200000015 0.94488 -1.621952 0.130456
11000 -5.536538370000001 12.62249757 0.68647437 1.32784 -1.891 1.544597
11020 -3.67171623 14.87726721 0.5041555199999999 1.23262 -1.4592969999999998 1.56047
11040 -2.0558228400000003 17.83496259 -0.97163145 1.527112 -1.391545 1.145834
11060 0.32527017 18.30678435 -4.35070557 0.382351 -0.4809479999999999 0.860001
11080 3.4810098300000005 15.43216005 -4.969520370000001 -1.543935 -0.25058 -0.465526
11100 3.23253234 12.477898170000001 -1.6188854400000001 -0.138766 0.708298 -1.182262
11120 0.31359627000000007 9.13789728 -1.21412484 1.427335 0.27171100000000004 0.077988
11140 -2.52644778 10.529553690000002 -3.1507954200000006 0.402308 -2.055499 0.063128
11160 -3.92663889 10.967844870000002 -4.0806657 -0.403997 -3.176801 -0.411085
11180 -3.25573299 8.18303112 -3.2222024100000004 -1.805279 -3.587086 -0.489781
11200 -0.54531828 6.34006566 -1.8666173700000002 -1.887689 -2.525294 -0.080452
11220 0.6297431400000001 5.350619250000001 -2.1435438600000003 -0.702425 -1.556732 0.432923
11240 0.41942655 5.507647919999999 -3.9255892200000004 -0.816862 -1.246771 0.8066720000000001
11260 1.48027014 7.250168790000001 -4.385580120000001 -1.2955709999999998 -1.29787 0.6805479999999999
11280 2.6533793700000006 8.99404344 -6.22794717 -1.489781 -1.728947 0.492805
11300 3.25901934 13.126800240000003 -8.47418211 -1.370798 -1.912416 0.184087
11320 3.9255892200000004 13.44698883 -7.85745684 -1.218434 -1.674616 -0.008501
11340 4.21029504 9.19313739 -5.32322973 -1.350363 -1.52434 -0.178395
11360 3.5971700400000004 7.98634062 -1.59972651 -1.306265 -1.234631 -0.205163
11380 2.0300814000000003 6.993156600000001 2.1664404000000004 -1.15935 -0.940682 -0.31560900000000003
11400 1.0942270200000002 8.94734784 9.643995180000001 -1.232017 -0.619269 -0.443647
11420 -3.62111625 14.678477370000001 7.205415570000001 -1.197103 -0.705593 -0.464657
11440 -7.45195068 12.04050951 3.87723573 -1.15058 -0.940503 -0.367891
11460 -3.12730047 10.15743096 -2.9244689100000003 -1.099949 -0.846875 -0.382612
11480 0.83241774 10.3160979 -6.170470379999999 -0.878876 -0.570628 -0.393172
11500 2.7581599800000003 9.497149290000001 -4.299360030000001 -0.581713 -0.448076 -0.395527
11520 4.538861370000001 10.296634860000001 0.6541406099999999 -0.214326 -0.5815319999999999 -0.373561
11540 5.50614699 13.70550195 4.63391046 0.150123 -0.589544 -0.284479
11560 3.13283331 14.66845155 1.4507812800000002 0.5334770000000001 -0.443092 -0.211487
11580 0.05883057 11.741284890000001 -1.2928599000000003 1.046714 -0.443756 -0.223924
11600 -1.85179446 9.38832696 -2.73915801 1.680409 -0.670814 -0.202115
11620 -2.14938081 8.836122060000001 -1.9327760100000002 2.275949 -0.8974040000000001 0.002092
11640 -2.02004577 9.28728396 -0.03398184 2.503613 -0.928374 0.356236
11660 -1.64911986 9.06949215 0.5258552400000001 2.472552 -0.579413 0.495509
11680 -0.6301943999999999 8.09112123 0.14235291 2.40292 -0.20606 0.695369
11700 0.06780672000000001 7.465429620000001 0.7815234600000001 2.361653 -0.489743 0.810813
11720 0.28755072000000004 7.11785151 1.31950386 1.916976 -0.873042 0.613781
11740 0.14309847 7.130418120000001 1.47577716 1.518924 -1.277788 0.943737
11760 -0.16031502 7.803119250000001 0.9560629800000001 1.540333 -0.995572 1.211648
11780 0.27767205 8.74810674 0.38350233000000006 1.527942 -1.097753 1.7329849999999998
11800 1.3654637100000002 9.27995589 -0.13831119 1.440189 -1.56208 2.0416830000000004
11820 1.9567320300000002 9.63516618 -1.20978882 1.413651 -3.038022 2.198281
11840 2.26628658 10.53225144 -2.3155327800000003 1.180431 -3.869281 2.22015
11860 2.4768974700000004 10.99628406 -1.53955197 1.020661 -3.957616 2.071733
11880 2.34322641 10.474323390000002 0.20462679 0.954606 -3.703943 1.82846
11900 1.4141115 10.280624940000001 -0.89678115 0.7327100000000001 -3.296059 1.517671
11920 0.49322718000000004 10.81306269 -3.2597747100000003 0.273617 -2.763632 1.169815
11940 -0.6071409 13.364810460000001 -1.2495978 -0.153068 -2.423955 0.777566
11960 -0.7114702500000001 15.6435165 4.337982 -0.458031 -1.976391 0.472556
11980 0.2980278 12.486285720000001 2.81249757 -0.7791600000000001 -1.615918 0.116269
12000 1.7229204900000001 9.54205947 -0.5322906000000001 -1.164713 -1.269381 -0.162469
12020 2.17662318 9.624384990000001 -0.6616256400000001 -1.545636 -0.8195110000000001 -0.179593
12040 2.32825635 12.4276023 -0.8150540400000001 -1.707324 -0.638152 -0.10511199999999997
12060 1.2298404600000001 15.234567030000001 0.0953532 -1.296801 -0.644135 -0.296653
12080 -0.37018035000000005 14.35484547 1.34360703 -0.177041 -1.335757 -0.403313
12100 0.12753 12.9911868 1.82110878 0.618664 -0.907818 0.313133
12120 1.2084350400000001 10.840756319999999 0.6259957199999999 0.512775 0.488156 0.8212139999999999
12140 1.14646527 10.37851893 -0.99572481 0.452738 1.706218 -0.03748
12160 0.33889626 10.02735036 -2.5140185100000005 -0.23944 1.87731 -0.398252
12180 0.37841094 10.0994931 -0.8210381400000001 0.097561 -0.267696 1.057496
12200 0.83167218 9.671835960000001 0.5902186500000001 0.354525 -2.469765 0.072939
12220 0.74335275 8.52192738 1.03689738 -0.924551 -1.825972 -0.507251
12240 0.24160068 7.317386910000001 0.09550035000000001 -2.1179360000000003 0.16179000000000002 -0.527748
12260 -0.6674625900000001 6.611449500000001 -0.6918600600000001 -2.1074610000000003 1.923036 -0.6228670000000001
12280 -1.4443459200000002 6.12601146 -0.91938339 -1.404591 2.420141 -0.072733
12300 -1.6563105900000004 5.81794803 -0.38290392 -1.202747 0.486391 0.087115
12320 -2.0562741 6.308477460000001 -0.88361613 -1.278524 -1.169895 0.098323
12340 -1.60166889 6.6621966299999995 -1.6407421200000003 -1.119739 -1.208805 0.10055
12360 -0.18456534000000002 6.824012580000001 -2.30326047 -0.873244 -1.126972 -0.064476
12380 0.77239035 8.367449310000001 -3.5860945500000003 -0.817067 -1.148825 -0.242449
12400 1.5593093100000002 10.60948557 -5.36230296 -0.7772720000000001 -1.163531 -0.328678
12420 2.3084990100000002 10.801987200000001 -9.839783160000001 -0.759071 -0.968422 -0.385416
12440 4.14622593 10.024054200000002 -6.1709216399999995 -0.866563 -0.716464 -0.430287
12460 4.95439335 7.33774266 1.7583934500000002 -1.004358 -0.521019 -0.435773
12480 1.88816994 13.3324767 5.06292138 -1.063633 -0.353815 -0.373376
12500 -3.9134640600000004 25.411755330000002 2.8548669600000003 -0.955302 -0.306885 -0.215651
12520 -8.67161817 10.762021260000001 -5.214260250000001 -0.670814 -0.259398 -0.083402
12540 -4.05670968 8.55890127 -10.262211569999998 -0.337241 -0.21950100000000006 0.039586
12560 -1.68324885 6.76128744 -2.15656173 0.032817 -0.134982 0.160635
12580 0.3468325500000001 6.13529172 6.27779178 0.457907 0.086771 0.280825
12600 1.9473046200000002 9.37470087 7.21230219 1.346858 0.4128020000000001 0.56115
12620 2.7222357600000002 11.452684500000002 4.08800358 2.328287 0.827442 1.245795
12640 3.7393758000000004 15.059880360000001 -3.2597747100000003 3.178603 1.029377 1.690514
12660 2.98569312 12.237200009999999 -6.1391862900000005 4.321072 0.4481810000000001 1.388387
12680 0.78407406 9.02443482 -1.4156026200000003 4.973145 -0.673041 0.695761
12700 -0.19114785 8.004449880000001 0.30926025 3.982088 -3.415483 0.06317
12720 -0.38993769 7.66375839 0.5619266099999999 2.393003 -6.141285 0.049154
12740 -0.28725642 7.81030998 0.21225897000000002 2.44447 -2.93736 0.110569
12760 0.02425032 8.53584777 -0.1707921 2.243239 -0.395845 1.141014
12780 0.39233133000000003 9.107064450000001 -0.8063721899999999 1.63267 -1.648514 1.379773
12800 0.54606384 9.09748008 -0.8544215700000001 0.965304 -1.493287 0.703
12820 0.59905746 9.06126156 -1.10559681 0.455348 -1.037609 0.6774899999999999
12840 1.1425707 9.039404880000001 -1.6747141500000002 -0.035974 -1.080959 0.7552989999999999
12860 2.1751222500000003 9.39266298 -1.25633727 -0.681088 -0.968168 0.547686
12880 2.56177359 10.710077309999999 -0.45071064 -1.275923 -0.399308 0.529983
12900 2.41103313 11.074420710000002 -0.32198382000000003 -1.540777 -0.021234 0.252047
12920 1.8941638500000002 10.699001820000001 -0.32901759 -1.7531139999999998 0.174595 0.215062
12940 0.92582856 12.36398445 1.43072964 -1.927662 0.260458 0.206255
12960 -0.55400013 13.91820237 4.50083781 -2.052807 0.393015 -0.06718500000000001
12980 -0.46627911 9.54191232 1.7907272100000002 -2.453638 0.8696940000000001 -0.377176
13000 -0.31629402 10.018511550000001 -4.3742005200000005 -2.884743 1.337524 -0.845463
13020 -0.8014377600000001 12.65109372 -7.121137860000001 -2.360286 1.100709 -1.218579
13040 -3.4640973900000005 14.36308587 -7.66451376 -1.100452 -0.017319 -1.106865
13060 -4.37615271 14.471604090000001 -2.11180851 -0.226648 -1.620408 -0.571005
13080 0.034727400000000005 11.960881740000001 4.80785157 -0.434913 -1.697009 0.116641
13100 2.27616525 10.4347989 4.4945496 -0.538033 -0.644133 0.376286
13120 4.05087273 10.54003077 -3.8098802700000003 -0.403878 0.28416 0.416626
13140 4.82267448 11.398199759999999 -5.1819264899999995 -0.5461520000000001 0.415773 0.394099
13160 1.10709774 8.34649515 -0.79469829 -0.776889 0.006878 0.285121
13180 -1.82844666 4.26657501 -1.3859666099999999 -0.491806 -0.097891 0.131286
13200 -1.9893600900000001 2.98793961 -2.41193565 -0.205607 0.425385 0.359078
13220 -1.1681748 3.4669422900000004 -1.35797868 -0.357077 0.280797 0.684013
13240 -0.6694049700000001 3.4069149 -0.48753738 0.091874 -0.34237 0.822543
13260 -0.17184176999999998 3.1060422 -0.69245847 0.185277 1.085392 0.934598
13280 -0.25581537 3.19061421 -1.00949805 0.813174 3.4104690000000004 0.761884
13300 -0.22872015 3.58669296 -1.15320474 0.5430619999999999 2.579629 0.444868
13320 -0.10642868999999999 4.109850450000001 -1.2862773900000002 0.5774279999999999 0.084587 0.988826
13340 -0.18277011 5.266498500000001 -1.58879817 0.58972 -0.437816 0.816529
13360 -0.34383069000000005 7.639665030000001 -2.7343609200000003 -0.29641 0.010962 0.445501
13380 -1.5762217500000002 9.70926111 -4.344868620000001 0.029965 0.641558 -0.091412
13400 -1.62307431 10.97158248 -5.86959768 -0.343477 -0.045655 -0.538588
13420 -1.16263215 13.58035578 -5.4518094 -0.51359 -0.393172 -0.066109
13440 0.7086253500000002 11.348502300000002 -4.071081330000001 -0.13030799999999998 -0.019729 0.251215
13460 0.64770525 9.30060594 -2.23440408 0.0005269999999999999 0.246622 0.130011
13480 -0.34847082000000007 8.56024524 -0.9051687 0.052230999999999986 -0.156081 0.092432
13500 -1.7377335900000002 8.4972258 -1.38746754 0.253022 -0.16401300000000002 0.037229000000000005
13520 -2.82088512 9.337579830000001 -2.105226 0.5173949999999999 0.075615 0.088975
13540 -2.52315162 14.58013212 -1.2087391500000002 1.196073 -0.256373 0.205236
13560 -0.9587607300000001 12.88505241 1.70869599 1.476337 -0.8314239999999999 0.179089
13580 0.3305087100000001 8.152796700000001 4.09353642 1.779985 -0.7641020000000001 -0.136139
13600 0.008985960000000001 7.91523774 3.8257430400000003 2.2719 -0.994917 -0.383439
13620 -0.34083863999999997 9.40284576 0.8057737800000001 2.851377 -1.8060080000000005 -0.515084
13640 0.6481565100000001 18.75300201 -5.7782862 3.759677 -1.836302 -0.386924
13660 2.65457619 25.325231130000002 -9.54655245 3.716936 -2.13838 -0.198828
13680 2.45115603 8.15085432 0.33978897 2.541576 -2.573865 0.233627
13700 2.29008564 5.76630819 2.6014354200000005 1.491038 -2.602798 0.121641
13720 -0.6698562300000002 6.4494864 3.7323420300000003 1.17253 -1.020278 -0.547046
13740 -1.4917968900000003 9.452690370000001 -0.9695321100000001 0.705174 -0.406835 -0.635486
13760 0.39592179 11.20255893 -3.1963040100000004 -0.26702 -0.030217 -0.20372
13780 3.3386569200000005 9.838890450000001 0.3505701600000001 -1.499177 0.399505 -0.038758
13800 5.769153090000001 9.0983826 0.39952206 -2.27435 0.549021 0.005843
13820 5.1542328600000005 10.54392534 -2.92341924 -2.50508 0.644 0.163274
13840 3.11921703 9.872715330000002 -3.5218782900000005 -2.552506 0.508987 0.13534200000000002
13860 1.68250329 9.45538812 -2.0678008500000002 -2.766579 0.455842 -0.241031
13880 1.720674 10.31430267 -1.6845928200000002 -3.2905519999999995 0.448838 -0.6986760000000001
13900 0.84499416 9.333842220000001 -3.95537238 -4.134937 0.936958 -0.821636
13920 -0.13726152 7.657774290000001 -4.213738350000002 -3.71066 1.620477 -0.293983
13940 -0.11795544000000001 7.751479410000001 -0.71641449 -1.329019 0.903357 0.351686
13960 0.42332112000000005 7.791749460000001 0.028144890000000002 0.926753 0.496182 0.58695
13980 1.17146115 7.515127080000001 -2.10746268 0.7317739999999999 0.600118 0.87067
14000 0.8300241 7.81165395 -1.82215845 -0.9285 0.450912 0.994929
14020 0.38694564000000004 12.712465080000001 -3.98036826 -1.973468 0.960833 0.655827
14040 0.5477119200000001 14.612917140000002 -5.84983053 -1.800728 0.5140899999999999 -0.725741
14060 1.24376085 12.5895654 -4.57268625 -0.472427 0.416131 -0.823159
14080 1.18403757 10.12030011 1.1837432700000001 0.5057560000000001 -0.1564 0.311381
14100 -0.8433460799999999 6.753204 -0.031588200000000004 0.512621 0.613 0.503791
14120 -1.75150683 5.1524376300000005 -1.22175702 -0.020336 1.412942 0.719097
14140 -3.02341257 5.6889171 -3.31605468 0.706856 2.680683 1.13809
14160 -3.4212865500000005 6.33153096 -3.9152592900000003 0.8474440000000001 2.039243 0.786313
14180 -3.0747581100000003 5.307661260000001 -3.4965783000000004 0.686542 0.124677 0.7256859999999999
14200 -2.51941401 5.07234879 -3.8692994400000003 0.595272 -0.544912 0.421463
14220 -1.2495978 6.2785471500000005 -3.87978633 -0.120213 0.200085 -0.115396
14240 -0.11346246 8.08917885 -4.197718620000002 -0.194662 1.150666 -0.405554
14260 0.8494871400000001 11.113641090000002 -4.2688215 -0.5391640000000001 -0.090996 -0.485418
14280 0.48828294 14.053825620000001 -3.90478221 -0.308212 -0.13972 0.308879
14300 -0.03398184 16.088547150000004 -5.267842470000001 0.140316 0.060701 0.415372
14320 -0.25806186000000003 13.612689540000002 -7.93919376 0.471031 0.111415 0.233883
14340 -0.5294457 8.53883982 -7.499558610000001 0.8477049999999999 0.087882 0.198089
14360 -0.2956341600000001 5.775294150000001 -3.77575128 1.141874 -0.119126 0.29548
14380 -0.6460571700000001 3.3552750600000003 2.85771186 1.743098 -0.290252 0.477224
14400 -0.49247181000000007 5.73368013 5.61287979 2.415064 -0.8346959999999999 0.449501
14420 -5.50031004 12.862155870000002 5.573659409999999 2.877476 -1.461675 0.198229
14440 -7.38160317 11.24910738 -0.17678601 3.637032 -1.928985 -0.013784
14460 2.7647523000000005 10.36309761 -5.04690165 3.99927 -2.774924 -0.033671
14480 6.98103144 9.70955541 0.96280245 3.216923 -2.029163 -0.171482
14500 2.8813539599999998 11.112287310000001 2.0880094500000004 1.901524 -1.043536 -0.158433
14520 0.9710330400000001 18.45212931 -5.1190542 1.372136 -0.694204 -0.478772
14540 2.86953291 15.89125824 -6.542593110000001 0.796148 -0.329332 -0.38285
14560 0.21285737999999998 7.85431764 1.2775955399999999 -0.284059 0.208487 -0.209486
14580 -0.8268849 6.283187280000001 1.8250033500000002 -1.280332 0.669201 -0.273652
14600 -0.29847906 8.90334018 0.8373619800000001 -2.090559 0.289862 -0.079067
14620 1.13120091 13.69247427 -6.92534988 -2.652006 -0.123058 0.039317000000000005
14640 3.2964444900000003 13.03668558 -1.44209943 -3.11519 -0.405826 0.025762
14660 5.61901104 10.381216680000001 0.04056435 -3.536085 -0.114351 -0.039508
14680 5.12025102 7.691304870000001 -3.3882072300000003 -3.699566 0.953773 -0.34325700000000003
14700 2.5093783800000002 7.940233620000001 -3.4530219000000004 -3.730322 1.68347 -0.8443350000000001
14720 0.9499219200000001 8.350536870000001 -2.3297572800000004 -3.222265 1.29145 -1.284664
14740 1.18748088 8.10609129 -0.09520605 -2.007977 -0.031414 -0.259677
14760 1.57547619 6.52118769 -1.47533571 -0.092772 -0.917811 0.49832
14780 0.1591182 6.73614441 -3.9360663 0.136382 0.268017 0.7878890000000001
14800 -0.6036975900000001 7.848627840000001 -1.77635556 -0.437994 1.084079 0.737966
14820 -1.57083606 9.26064 -1.7735106600000001 -0.68824 1.7364990000000002 0.570875
14840 -0.39592179 11.426933250000001 -1.5530210999999998 -0.488466 1.7263849999999998 0.263568
14860 0.7536826799999999 11.96431524 -3.13897437 -0.5333399999999999 0.265074 0.240558
14880 0.97656588 11.01754233 -2.70532332 -0.373183 -0.431063 0.22975
14900 0.06526593 10.260857790000001 -2.64245103 1.652057 0.101991 0.234667
14920 -0.32242527000000004 10.101445290000001 -2.35789236 0.739692 0.909026 0.603274
14940 -0.41913225000000004 9.96552774 -3.14705781 0.227202 1.877772 0.944557
14960 -1.9323345600000001 8.622371970000001 -4.692888180000001 1.000982 1.840436 1.085674
14980 -2.12977062 8.50441653 -4.601880810000001 -0.266923 -0.145344 0.613618
15000 -1.6886345399999998 7.57320228 -4.3902202500000005 -0.196542 -0.06402999999999999 0.464454
15020 -0.9410929200000001 5.34358548 -4.5195552900000004 0.254317 -0.527411 0.336806
15040 -0.4016115900000001 3.75823062 -3.40901424 0.125855 -1.045014 0.15176900000000002
15060 0.21465261000000002 4.74767703 -3.3733843200000004 -0.128945 -0.763968 0.152834
15080 0.25252902000000005 8.195009129999999 -4.45338684 -0.048821 -0.379223 0.038601
15100 -1.16172963 14.1277734 -5.497622100000001 0.203941 -0.364376 -0.163683
15120 -2.37974904 17.13621591 -5.72514543 0.6276510000000001 -0.105872 -0.174941
15140 1.27295541 12.94926867 -5.92991937 0.9785 -0.199538 -0.232191
15160 1.11728052 7.404803820000001 -5.207373629999999 1.274886 -0.287756 -0.272737
15180 0.95456205 4.948262100000001 -2.17258146 1.991489 -0.461266 -0.127572
15200 -0.31449879 4.551889050000001 4.00477554 2.551641 -1.247886 0.031173000000000006
15220 -1.7227635300000004 8.13468744 3.9492411300000003 3.270156 -2.10584 -0.22335500000000005
15240 -5.04990351 12.918887100000001 1.3991414400000002 3.821765 -2.419557 -0.30349
15260 -3.09870432 10.696156920000002 0.6385721400000001 3.723575 -2.860407 -0.26195
15280 -0.21824307 9.81164808 -1.53011475 2.667132 -2.514452 -0.346684
15300 4.2767577900000004 12.61711188 -1.81302534 1.755581 -0.733346 -0.612776
15320 5.952217500000001 12.84134886 0.6147730800000001 1.128888 0.005518 -0.4931180000000001
15340 2.62644111 13.1272515 -2.6179064100000002 0.047009 -0.07968 -0.094641
15360 1.46769372 13.683341160000001 -3.5341506000000003 -1.363105 0.06767100000000001 -0.023495
15380 1.5003315900000003 10.758577950000001 2.5005493800000003 -2.275831 -0.069799 -0.284999
15400 1.66708197 9.80550702 -0.63228393 -2.526596 -0.4157 -0.146371
15420 1.5658918200000003 9.895170420000001 -2.5282430099999997 -2.692458 -0.450578 -0.071641
15440 1.9685530800000002 10.80677448 -1.75794219 -3.149521 -0.169492 -0.171333
15460 2.9960230500000007 9.78859458 -1.80614853 -3.464311 0.605755 -0.096545
15480 2.93913486 8.896600710000001 -3.0397266000000003 -3.520477 1.705052 -0.031048000000000006
15500 1.7013581100000001 9.02967336 -2.6207513100000006 -2.917598 1.996608 -0.470523
15520 0.1619631 10.82728719 -3.61018791 -1.5872389999999998 1.29636 -0.201823
15540 0.81056106 10.399777200000003 -2.01525849 -0.262038 0.361071 0.507249
15560 2.39307102 6.9407711999999995 -2.0648088000000007 -0.22530100000000006 0.066724 0.824076
15580 1.95822315 6.06254076 -1.7354870999999998 -0.960468 -0.023211 0.5092720000000001
15600 1.73878326 6.78029922 -1.00320984 -1.258081 1.409567 0.505357
15620 0.36254817 8.05834602 -1.55571885 -1.224486 1.79272 0.296798
15640 -1.1225190600000001 9.35464923 -2.33753661 -0.755894 0.758097 -0.314968
15660 -0.92059002 8.79166314 -0.39084021 0.029043 -0.284972 0.376582
15680 0.3441348 8.24380407 0.59157243 0.6842600000000001 0.031185 0.6649010000000001
15700 0.45146601000000003 9.123525630000001 -4.05252081 -0.188838 1.535602 0.826722
15720 -0.68272695 10.77055596 -3.51304929 0.988305 3.292342 0.8465799999999999
15740 -1.4846159700000001 10.68149097 -3.10873995 0.301871 0.911254 0.69208
15760 -2.01975147 8.465500259999999 -4.868173260000001 -0.670547 -0.462547 0.368718
15780 -2.1157030800000003 6.4197032400000005 -5.36094918 -0.101956 0.612859 0.273036
15800 -1.4880592800000003 6.44275674 -4.687051230000001 0.383195 0.467795 0.4315020000000001
15820 -1.0722231899999999 6.26013378 -4.62089259 -0.08757999999999999 -1.000823 0.207906
15840 -0.9861502500000001 5.85013464 -4.535869320000001 0.205956 -0.508568 0.195438
15860 -0.39697146000000005 6.59767626 -4.4560845900000015 0.282529 -0.085927 0.197568
15880 -0.57959442 12.378807360000001 -4.9334391900000005 0.318927 -0.174007 0.081499
15900 -2.16195723 18.77156253 -5.170546890000001 0.5108739999999999 -0.049667 -0.010255
15920 -1.2307429799999998 15.82599231 -5.73517125 0.871466 0.150547 -0.042176
15940 -0.96159582 9.39895119 -5.96868849 1.325295 -0.085995 0.10978
15960 -0.07260381 6.03814329 -5.30347239 2.141421 -0.328437 0.35721
15980 -0.07424208000000002 4.2312492 0.86565402 2.987084 -0.607356 0.6433479999999999
16000 0.09460764 3.7320379200000002 3.30019191 3.848438 -1.267508 0.616028
16020 -1.6060147200000001 10.56592917 3.91480803 3.749182 -1.906762 0.458057
16040 -5.27427783 10.126294020000001 1.55032335 3.451499 -2.601547 0.240019
16060 -0.10164141000000002 8.75289402 -0.29114118 2.70792 -2.476069 -0.124259
16080 3.20483871 10.26310428 0.29189655000000003 1.7491330000000005 -1.3483120000000002 -0.265929
16100 2.85351318 13.185032399999999 1.6691813100000001 1.259909 -0.111723 -0.32541
16120 3.01757562 13.29100983 -5.49626832 0.483262 0.035314 -0.192154
16140 0.32572143000000003 11.26991439 -0.50399856 -0.553747 0.0177 -0.216467
16160 -0.42107463000000006 14.46457032 4.3245030600000005 -2.087514 -0.056065 -0.153378
16180 2.70742266 12.58687746 1.64358702 -3.3877900000000003 -0.718143 0.309473
16200 3.80268954 11.733201450000001 -4.28409567 -4.40372 -1.378592 0.651464
16220 2.86279344 10.27882971 -0.19714176 -4.5941 -0.919484 0.024636
16240 2.5315391700000003 9.42589926 -1.02626334 -3.332739 0.5346270000000001 -0.005804999999999999
16260 2.07902349 8.62087104 -1.9696027500000002 -2.384197 1.87515 0.13583599999999998
16280 2.14773273 7.5776952600000005 -2.1517744500000004 -1.7684220000000002 2.186793 -0.542856
16300 2.4656748299999998 8.78388381 -3.4965783000000004 -1.488314 1.587092 -0.797573
16320 2.58932007 9.81777933 -3.0258062100000003 -1.03693 -0.365443 -0.153121
16340 1.8452119500000002 8.40980889 -0.16286562000000002 -0.952227 -1.38126 -0.074316
16360 0.20357712 7.36154172 -0.14759145 -0.721241 -0.886202 0.065532
16380 -0.29474145 8.42013882 -3.98157489 -0.327471 -0.147238 0.074813
16400 0.30416886 7.44058089 -4.00716918 -0.137211 0.542913 0.213058
16420 0.39068325000000004 6.82640622 -3.8754405000000003 0.518474 -0.228777 0.01887
16440 0.48394692000000006 8.84226312 -3.60764712 1.106894 0.476094 0.126762
16460 1.25229555 8.128997640000001 -1.68130647 0.30780100000000005 0.028385000000000007 0.625955
16480 1.64522529 9.30060594 -0.1733427 -0.291191 0.947488 0.935719
16500 -0.08232552 11.07277263 -0.79170624 0.088942 1.76193 0.7300949999999999
16520 -0.6271925400000001 11.47768038 -0.96744258 -0.07903099999999999 1.93694 0.533213
16540 -0.11840670000000002 10.00908414 -3.0409234200000004 -0.447493 1.178524 0.571136
16560 -1.87290558 7.0133652 -7.01456202 -0.08871 0.044838 0.318721
16580 -1.3409092800000002 4.98179268 -10.068513120000002 -0.052235 -0.845073 -0.143492
16600 0.37362366 5.7532903200000005 -8.57925702 0.085064 -0.717681 -0.418297
16620 1.3548296699999998 6.7539593700000005 -3.94564086 -0.6350319999999999 -0.952688 -0.431572
16640 1.1455725600000002 6.159394890000001 -2.3951703600000003 -0.530831 -0.8800479999999999 -0.039968
16660 0.26405577 10.057731930000001 -1.37249748 -0.323927 -0.638922 0.219678
16680 -2.8759682700000004 14.437023840000002 -1.3687500600000002 -0.110822 0.051542 0.259806
16700 -4.47239862 12.78730557 -4.4340807600000005 -0.010269 0.371635 0.045386
16720 0.28365615 9.99172044 -8.956176840000001 -0.000118 0.058142 -0.153899
16740 1.43910738 7.569906120000001 -5.41229472 0.11073800000000003 -0.238244 -0.190133
16760 1.68654501 6.99420627 -2.18680596 0.297298 -0.511591 -0.192752
16780 1.08014967 9.759252870000001 2.28888882 0.6207560000000001 -0.8646879999999999 -0.350274
16800 -1.83353805 12.329708310000001 5.938297110000001 0.776872 -1.820337 -0.195203
16820 -1.6805511 10.95885891 3.6266589000000002 0.922886 -2.373652 -0.478689
16840 -0.6730052400000001 10.67848911 -2.9084491800000003 1.9665 -2.153337 -0.5347069999999999
16860 1.66363866 12.13392033 -2.19429099 2.6542950000000003 -1.679646 0.022829
16880 2.12498334 11.895164549999999 0.5626819800000001 2.417055 -1.707382 1.036018
16900 4.13919216 13.829745599999999 -0.63483453 2.401329 -2.398309 1.472628
16920 5.091360570000001 15.42437091 -1.7341431300000003 1.770718 -2.241284 1.645347
16940 4.233495690000001 13.96026765 -2.26329453 1.235466 -1.668641 1.429367
16960 1.3681516500000002 10.743313590000001 -1.10245761 1.25785 -1.315641 1.311566
16980 0.27437589 9.95969079 -2.3147872200000004 0.920625 -0.69514 1.476127
17000 0.17662905 7.366329 -3.5563015800000004 0.003218 -1.149877 1.7042419999999998
17020 0.97027767 7.8501287699999995 0.5793001200000001 -1.227368 -1.355034 1.5954959999999998
17040 2.2140483300000002 7.403754149999999 0.97941078 -1.396023 -2.017435 1.42532
17060 4.372709400000001 6.0493659300000004 -0.16540641000000003 -0.939782 -2.448963 1.319033
17080 5.435044110000001 6.22959525 -2.25835029 -0.406584 -1.83938 0.796411
17100 3.65090922 8.25728301 -1.93248171 -1.157855 -1.894554 0.061638
17120 1.84700718 7.775729730000001 -1.6208278200000001 -1.755468 -2.045511 -0.296993
17140 2.1157030800000003 7.66375839 -0.39682431 -1.933204 -2.044723 -0.87187
17160 3.3685970400000005 8.83956537 -1.6392411900000001 -1.7160939999999998 -2.247873 -1.6712599999999995
17180 4.39186833 11.473785809999999 -3.2971900500000006 -1.42218 -2.572036 -2.112104
17200 4.76159742 7.717203270000001 -4.15251414 -1.089812 -2.798651 -0.07773300000000001
17220 5.17174371 8.26431678 -0.95142285 -1.025527 -2.569455 0.092269
17240 4.7171385 10.82937672 3.3934457700000005 -0.099926 -1.528535 0.052535000000000005
17260 2.2668849900000003 15.1923546 -0.05988024 0.293245 -0.8344469999999999 0.628027
17280 0.9780668100000001 16.28404083 -4.133502360000001 0.424896 -0.764281 1.081783
17300 -0.75547791 14.62923117 -2.90770362 0.7255020000000001 -0.8780209999999999 1.026345
17320 -2.16824544 12.686115420000002 -0.27258066000000003 0.808455 -0.13957 0.635009
17340 -1.15364619 12.00608622 -0.39742272 -0.31853200000000004 0.7535569999999999 0.17413399999999998
17360 0.8098155 12.80497338 -1.4233917600000001 -1.993347 1.376511 -0.4461810000000001
17380 2.61520866 14.31323145 -2.4568458300000002 0.111969 1.012494 0.31461
17400 2.1315658500000003 11.829153060000001 -6.29096661 1.6118 -0.60465 0.8922479999999999
17420 0.31194819 10.217752650000001 -4.81354137 0.486766 -2.240768 1.031765
17440 -0.8358610499999999 10.51323966 -3.3082655400000003 -0.804732 -3.277629 0.108606
17460 -1.92829284 9.88155414 -1.16172963 -0.344192 -3.093871 0.375438
17480 1.15200792 5.03044047 3.24645273 0.472034 -2.021859 1.444783
17500 2.32107543 7.317985320000001 -1.61424531 -0.018637 -1.7691259999999998 2.868176
17520 1.1298471300000001 7.797439260000001 -2.55443571 -0.973876 -0.210413 2.843483
17540 1.2777426900000002 10.38151098 -1.9378674 -2.129842 1.038722 1.824338
17560 3.0696667200000003 10.96304778 -2.1615059700000003 -2.916393 1.993027 0.688511
17580 1.9669050000000001 8.97818067 -3.3346152 -2.146346 0.385706 1.040985
17600 -7.74294471 6.242917230000001 -3.94085358 -1.196516 -0.840008 1.178445
17620 0.3094074 8.28871425 -6.31387296 -0.843255 -1.035291 0.956836
17640 3.02401098 7.454344320000001 -3.20962599 -0.271698 -0.612186 1.212387
17660 3.1590260100000003 8.61233634 -3.4117021800000007 -0.362357 -0.320914 1.976227
17680 3.2198087699999998 10.101445290000001 -3.31710435 -1.06272 -1.941596 1.883681
17700 2.47315986 7.241486940000001 -3.20543712 -1.494269 -0.928071 1.347394
17720 4.21897689 8.24740434 0.31194819 -1.479317 -0.146476 1.413794
17740 1.4630535900000003 10.56069063 0.9714843000000001 -3.342765 -0.52435 1.888372
17760 0.5577377400000001 16.751369610000005 -0.09100737 -2.416122 -0.517608 1.530572
17780 -5.09450958 15.739919370000003 1.3697997299999998 -1.251395 -3.765066000000001 1.444593
17800 -3.4435846800000003 12.96873171 -4.9861287 -0.940752 -2.226607 0.327431
17820 -2.1788696700000005 9.01036728 -9.680664960000001 -0.617554 -1.341337 0.041202
17840 0.90561996 11.704311 -2.6945421300000003 -1.292257 -2.1004150000000004 1.041591
17860 0.92956617 14.026877550000002 0.14100894 -1.656324 -1.834675 0.171311
17880 5.0088879 11.710000800000001 0.13426947 -1.383559 -3.225311 0.04788
17900 4.65861204 13.19685345 4.36492026 -0.988392 -4.44709 -0.317399
