time Ax Ay Az Gx Gy Gz
20 14.77352646 36.54335853 -50.3918118 -0.8893129999999999 1.715969 1.615287
40 7.128927000000001 23.12616267 -7.7369606100000015 -3.67223 3.044637 -0.298744
60 1.2867286500000001 -7.52889051 21.280950720000003 0.079839 -3.098755 -1.166243
80 -5.9894955 0.39861954000000005 9.96462522 0.131509 -2.808871 -0.977178
100 -17.43514623 35.27893782 11.61763965 1.415198 2.330775 -0.149062
120 -22.8362085 8.471778660000002 6.8374817100000005 2.210439 3.462264 0.185124
140 -7.990833600000001 2.81265453 11.12935671 1.893663 -1.142314 0.307384
160 -0.57450303 18.03689163 18.55241694 2.436289 -4.498268 -0.344687
180 7.2913413600000005 40.92938991 22.855818690000003 4.265018 -4.842054 -0.938222
200 15.354916110000001 56.00034576 -16.76573145 5.128131 -1.259651 -1.38971
220 -11.899951830000001 31.518755010000003 -54.929917800000005 5.000635 0.345503 0.10499
240 -7.063062660000001 17.4481641 -3.9350166300000002 4.804403 0.6873779999999999 1.624329
260 -7.26080283 -0.33755229 -1.5359517 5.860583 0.642514 2.070803
280 4.60502001 -7.311393 -13.468541400000001 4.858889 3.353202 1.185459
300 9.4396725 1.8688638600000003 -15.920590140000002 3.302945 3.501139 0.704383
320 6.695580060000001 4.81279581 -3.2729397300000005 3.019635 -0.6319020000000001 1.690465
340 2.9523096900000003 2.1607604100000004 -1.85659155 4.296083 -5.837977 1.135621
360 -2.4460646400000003 0.36583452 -5.830975710000001 2.765765 -3.724943 0.7163
380 -1.6507679400000002 5.04586179 -6.25743603 0.796355 -3.383203 0.080401
400 0.7937957700000001 6.956928270000001 -6.9527394 -0.758329 -2.013585 -0.886136
420 2.33289648 10.57715181 0.29653668000000005 -2.273843 0.677199 -1.41078
440 3.2398604100000004 20.59477065 -1.66214754 -3.136434 3.646137 -0.933501
460 7.15826871 34.89797628 -1.51080867 -4.408416000000001 4.395372 0.347066
480 -0.35776089000000005 36.68376906 1.57337685 -5.7255910000000005 2.520263 0.745125
500 -11.07801117 43.194175560000005 1.15904169 -1.182103 6.299208 2.029316
520 -14.71305762 23.72386635 -2.7674402400000004 -0.845928 -2.562219 0.258021
540 -0.75578202 16.20650259 2.87072973 0.277663 3.786378 -0.071279
560 15.426018990000003 13.4224344 5.980509540000001 3.254736 7.706481 1.6354879999999998
580 -7.259900310000001 -1.64807019 6.6925782 -1.633386 -0.274713 1.381904
600 -7.78051701 -4.33214505 9.230101470000001 -4.073965 2.331535 -3.035285
620 -5.22698382 -10.38301191 13.402078650000002 -1.70548 1.2631709999999998 -2.186295
640 -3.62815983 -13.963259700000002 16.14736791 -2.562736 -5.986537 -2.913657
660 -4.60816902 -11.271258360000001 17.68842081 -3.321117 -7.411936999999999 -2.242011
680 -3.8673570600000002 -6.33587679 8.669371680000001 -3.446489 -6.582393 -1.525037
700 -1.35692901 4.12900938 0.96340086 -11.178261 -1.027362 0.209519
720 10.69345917 21.75935499 -30.97433925 -5.320392 7.838584 1.608536
740 8.51279427 35.72261469 -28.839025980000006 0.8462200000000001 -0.107166 1.288983
760 7.16949135 6.542141850000001 4.968617850000001 -4.320411 5.2393269999999985 -0.591299
780 2.8104080400000004 -11.8950174 19.254008520000003 -1.950103 -2.473049 -1.102175
800 -8.127800820000001 10.969492950000001 -9.0147033 0.199009 -3.526088 -1.761999
820 -15.10000326 24.97735872 17.07274521 1.263424 3.2628060000000003 -1.060373
840 -15.73587765 8.14231962 9.41227317 2.278059 2.733482 -0.638138
860 -7.91822979 4.3060995 10.4809059 2.298478 -1.458424 -0.112399
880 -3.5628939 15.018717600000002 18.83398356 2.653906 -5.080262 -0.44497
900 0.16256151000000002 33.419501370000006 17.907115140000002 4.7347790000000005 -3.569452 -0.446258
920 7.233256350000001 56.947726890000006 -6.98058018 5.265025 -1.554026 -0.088351
940 -5.41454121 34.696792800000004 -46.00937088 4.7421419999999985 0.288316 1.3082120000000002
960 -5.32877238 19.415078910000002 -15.48425115 5.314731 0.182273 1.755659
980 -5.4386443799999995 5.8013397 7.359295230000001 7.262372999999998 -0.6592899999999999 2.46255
1000 -6.90619095 -9.59175693 -10.067463450000002 5.642081 2.090314 0.375358
1020 8.64767196 -0.36254817 -18.14721489 4.3329010000000014 3.646576 1.003016
1040 10.930723830000002 4.2073029900000005 -10.19469915 2.7057 0.6647310000000001 1.382167
1060 5.88770694 1.6673860800000002 -5.10783156 6.460851 -8.162979 0.467923
1080 1.45572552 -0.55175364 -5.417533260000001 3.890137 -5.424526 1.18994
1100 1.5343134299999999 3.8796293700000004 -3.0617304300000003 1.265374 -3.942634 1.044725
1120 3.5540550900000003 6.02796051 -7.28579871 -0.989232 -0.7582399999999999 -0.000597
1140 3.7718567100000007 6.8572390500000004 -0.82777761 -3.340757 2.349295 -0.922584
1160 2.114055 15.073506450000002 -0.49247181000000007 -4.4288110000000005 4.785019 -0.904463
1180 4.98119427 34.42451625 -4.2487600500000005 -4.959038 4.769165 -0.210598
1200 1.56844242 46.49257224 -5.69700054 -5.7433 3.555701 0.496915
1220 -11.54204379 52.8010497 -2.8801571400000006 -0.6460640000000001 5.260859 2.555683
1240 -15.238765710000001 28.11348819 3.07925109 -0.842282 -1.299677 0.4732770000000001
1260 -4.59678942 17.66716254 4.507724430000001 0.190283 5.954377 -0.302198
1280 12.135117150000001 18.827695350000003 9.73815156 2.431009 7.0559020000000015 1.474608
1300 10.7094789 16.477288020000003 8.139621870000001 -1.833928 2.807953 -0.778051
1320 -12.61965267 -2.43977643 10.3713282 -2.9486790000000003 2.688335 -2.130575
1340 -9.832307940000002 -12.34797453 14.074328520000002 -4.197806 -2.717148 -2.842741
1360 -4.37794794 -21.144434760000003 19.889892720000002 -2.140723 -4.460283 -2.941507
1380 -3.9303765000000004 -16.52698548 19.086355620000003 -2.083003 -6.3641260000000015 -3.208924
1400 -5.43370014 -7.05767697 11.02158405 -7.002793 -9.982933 -1.061615
1420 -2.1414445200000003 3.9758850900000002 2.11525182 -10.27699 7.299872 0.765961
1440 4.60637379 15.793060140000001 -12.94717914 -0.118134 2.755034 2.704655
1460 13.943502359999998 40.40397612 -32.91265791 -3.779358 4.694259 0.98026
1480 9.83006145 12.43285065 -1.70570394 -2.635964 0.464172 -0.572346
1500 2.6900589600000004 -1.89925524 20.408714190000005 0.101283 -5.767021 -1.2470629999999998
1520 -8.91680931 20.65001076 -7.040313270000001 0.908606 -3.645676 -0.7111
1540 -12.071793600000001 16.908839730000004 11.54593836 2.526529 2.323623 0.408844
1560 -14.768287920000002 1.2284964900000002 12.06416142 2.545246 1.845781 0.27606
1580 -11.38876254 5.0006475 17.24039811 3.245912 -1.668468 -0.088421
1600 -6.540199470000001 17.04925026 15.521519340000001 4.5740370000000015 -5.440483 -0.737676
1620 -5.50449891 38.37778929 16.94730474 5.296144 -3.435025 -1.780991
1640 13.53320892 60.392812500000005 -25.502164290000003 5.244883 0.082089 -1.097921
1660 -3.2377708800000002 32.12214849 -46.20217662 5.236978 0.21617600000000006 0.805423
1680 -2.9464727400000004 18.732499110000003 -4.5144639 6.148834 2.546999 1.080134
1700 -4.044290220000001 2.3571468 0.82763046 4.529369 4.939153 -0.5963970000000001
1720 1.56918798 -7.78875741 -12.188552220000002 3.475835 2.742405 0.884956
1740 10.883115900000002 -2.20671045 -16.26952203 3.289644 -2.064682 1.186781
1760 11.28907332 2.4322914 -13.56119685 6.04907 -7.393783999999999 0.276054
1780 0.5084915400000001 2.38050441 -2.78061507 3.418706 -5.156785 0.7109449999999999
1800 -4.16568897 2.37541302 -2.5717994100000006 1.003483 -3.699639 0.445448
1820 -7.15033242 5.65014798 -6.793022790000001 -1.0560379999999998 -0.331338 -0.14048
1840 -2.6159640299999998 9.25690239 -2.30356458 -3.18642 3.072993 -0.352003
1860 1.70764632 16.943567129999998 -0.67030749 -4.324455 5.509144 -0.13127
1880 4.5931989600000005 32.033387610000005 -3.51199962 -4.84386 5.101879 0.13481600000000002
1900 2.7243351000000002 32.38635141 -2.0549301300000002 -5.173717 3.0085740000000003 0.6960109999999999
1920 -9.32380659 45.331882470000004 1.00949805 0.864293 2.230511 2.221876
1940 -13.76328285 32.68453617 0.8752285799999999 -0.326151 -1.159512 0.6711189999999999
1960 -3.1304396700000003 19.304304390000002 2.75756157 0.409467 6.022268 0.377566
1980 10.633588740000002 18.14930442 7.081171919999999 1.627946 7.149039 1.257371
2000 17.265099690000003 16.24826376 5.2097672699999995 -1.585748 3.205231 -1.241503
2020 -7.605830340000001 -1.60286571 10.683139050000001 -4.0715949999999985 0.235769 -1.6150520000000002
2040 -5.84728974 -9.476489429999999 11.857288140000001 -4.360007 -0.8807809999999999 -2.660357
2060 -3.7320379200000002 -15.616725390000001 15.846200910000002 -2.179105 -3.89834 -3.57595
2080 -5.0117328 -14.919028380000002 15.553705950000001 -1.425219 -6.596019999999998 -3.330082
2100 -5.206019850000001 -8.636292359999999 13.41869679 -8.635325 -10.358444 -1.642968
2120 -2.7331641 1.4888048400000002 4.3206183000000005 -9.896424 7.948774 1.7291869999999998
2140 0.8271792000000001 8.652459240000002 -4.896014040000001 -0.110423 2.475446 3.085354
2160 15.69935502 34.102532430000004 -45.96087024 -3.644873000000001 4.209073 0.719039
2180 11.38832109 19.27825884 -11.711050470000002 -2.538127 -0.792025 -0.331839
2200 4.10551443 -3.83293377 16.97695056 0.2214 -5.830322 -0.972678
2220 -5.44223484 8.35786494 8.778498120000002 0.752558 -1.096884 -0.472969
2240 -13.49773596 18.70809183 3.10963266 2.344452 2.9979880000000003 0.289204
2260 -23.311777680000002 11.52663228 12.902720220000003 2.431649 1.8012689999999998 0.582971
2280 -15.148199790000001 6.14427768 14.828913720000003 2.555475 -1.28447 -0.147147
2300 -8.254585259999999 14.779363410000002 13.81357872 3.87329 -4.986102 -0.806178
2320 -4.068089280000001 29.84463927 14.384040030000001 4.870878 -5.273873 -1.101148
2340 12.98519289 59.77474326 -12.3436287 4.959807 -1.196249 -1.381353
2360 4.58901009 41.56900191 -37.95297705000001 4.828744 1.706386 -0.409633
2380 -1.80015462 19.9205784 -19.480187880000003 5.201398 0.626356 0.8238770000000001
2400 -1.83009474 7.62993351 2.02304763 5.4288690000000015 2.597191 0.608228
2420 -4.13110872 -5.075792100000001 -8.63374176 4.217233 3.826516 0.327929
2440 7.519011840000001 -0.6712002000000001 -16.51321224 3.394251 1.972171 0.699503
2460 9.727968780000001 4.63450887 -13.99155174 5.246716 -5.915001 -0.138438
2480 4.143979440000001 3.50271936 -5.37022944 4.816261 -5.320007 0.091734
2500 -2.40654996 1.0428814800000001 -4.342769280000001 2.22111 -3.998117 1.037585
2520 -4.032469170000001 1.35453537 -1.82110878 0.17493 -2.5478650000000003 0.312135
2540 -1.2939095699999998 5.03073477 -4.661005680000001 -2.139698 0.499839 -0.33178
2560 1.96151931 7.5239560800000005 -5.029537950000001 -3.878927 3.782456 -0.81388
2580 3.26590596 12.829223700000002 -2.18844423 -4.182967 5.305528 -0.482534
2600 3.94669053 25.248899520000002 -2.3403815100000003 -5.2210839999999985 3.5627190000000004 0.15445
2620 2.31613119 38.6470836 -3.7074933 -6.059454 2.912889 0.883295
2640 -5.787419310000001 43.69428936 0.69200721 -0.550636 2.4798720000000003 1.5632620000000002
2660 -9.81494424 29.652137640000003 0.53917722 -1.063361 1.919503 0.419538
2680 -6.2646267600000005 19.217633040000003 -0.613125 2.005004 7.569346 1.582069
2700 4.342170870000001 16.67517534 4.86802611 1.684027 2.734386 0.980341
2720 15.47781579 17.48364687 6.69737529 -0.239866 3.054101 -0.313237
2740 -5.964793920000001 1.68040395 9.38593332 -5.226738 -2.569572 -2.359804
2760 -7.13386143 -4.891079610000001 10.611280800000001 -2.834682 -1.946609 -1.980698
2780 -4.46072472 -13.014681750000001 15.84993852 -1.675957 -3.062381 -2.877027
2800 -3.7200599100000002 -16.46545716 16.91976807 -1.569102 -3.397663 -2.773301
2820 -4.19068485 -12.78536319 16.34496093 -11.610935 -11.257333 -2.309943
2840 -3.9658494600000003 0.032186610000000004 5.799387510000001 -4.7415660000000015 1.421908 1.23731
2860 -1.1091970800000002 6.8196667500000006 -3.1482546300000003 -2.448079 5.575506 2.155996
2880 17.69814252 32.49667467 -42.76023021 -4.324603 5.603442 -0.0032049999999999995
2900 10.00250163 21.664600200000002 -15.41479635 -1.248783 -0.946898 -1.0800040000000002
2920 3.5266655700000005 5.6736527400000005 11.10615606 -0.614966 -6.91847 -0.655591
2940 -5.40555525 20.760481170000002 -2.6725383000000003 1.19386 -4.184541 0.330963
2960 -7.387440120000001 11.03534748 8.23662315 2.613844 2.288998 -0.064792
2980 -11.321858340000002 2.59679529 11.857140990000001 2.52334 2.448516 -0.184201
3000 -17.2107621 7.17338592 25.18602723 3.026683 -0.130694 -0.5758270000000001
3020 -8.94539565 11.680207829999999 13.132637190000002 4.299444 -3.922465 -1.032096
3040 -8.072266410000001 20.84864364 14.24901519 4.912892 -4.4382410000000005 -1.783451
3060 -2.7879529499999998 53.388727560000014 -7.147036260000001 4.923468 -1.44032 -1.851312
3080 8.243509770000001 45.82405998 -31.11384726 5.421138 0.661931 -0.8015359999999999
3100 -2.5000981200000005 23.10100983 -22.27592997 5.8204379999999984 1.647748 0.60577
3120 -0.9713273400000001 11.931991290000001 -1.89206451 4.77644 4.371538 -0.5886020000000001
3140 0.80787312 -1.29630321 -3.63608631 3.958301 4.2431800000000015 -0.281163
3160 7.8321666599999995 -1.54194561 -13.4713863 3.4252230000000004 -0.259496 0.11933
3180 11.924055000000001 2.3511627 -19.02573963 5.28115 -5.012054 0.465259
3200 2.8340599500000003 3.3805652400000006 -8.24500089 4.079624 -5.69538 0.296441
3220 -5.738614560000001 0.48798864 -4.5452967300000005 1.992385 -4.683941 0.916157
3240 -6.15026178 1.5432895800000002 -2.1445935300000003 0.163573 -2.286481 0.4901140000000001
3260 -4.2887358 3.5699276699999998 -3.0576887100000003 -2.488373 1.825031 0.23879
3280 -1.46470167 7.7665966200000005 -1.6603425000000003 -4.213205 4.4697809999999984 -0.047976
3300 0.37123002000000005 14.03735463 -2.25970407 -4.778087 5.846875 0.251825
3320 4.07662398 30.1299435 -2.3173280099999998 -5.285164 4.453908 0.587626
3340 2.9057612400000004 37.24195806 -3.1190600699999997 -4.690632 3.787493 1.29125
3360 -8.20997919 39.16590507 0.97027767 0.208592 -0.765408 1.018317
3380 -14.294523779999999 32.04551277 -2.0730393900000004 -0.4557060000000001 0.8660620000000001 0.6622779999999999
3400 -5.83456617 18.58370103 -0.95216841 2.940537 7.2848169999999985 1.329391
3420 10.13646699 18.35857134 7.682024610000001 0.930513 2.162632 0.228055
3440 17.97432345 16.75181106 1.51485039 -1.993025 3.135178 -0.420659
3460 -3.39718338 4.50458523 7.9258717800000005 -7.441424 -1.886709 -1.24597
3480 -5.82977889 -3.7339803000000003 10.70797797 -4.124695 -0.38653 -2.056869
3500 -3.36979386 -14.36218335 16.933384349999997 -1.331697 -2.849997 -3.539328
3520 -1.50930774 -16.99505982 17.524809630000004 -1.524563 -4.76727 -2.896217
3540 -1.5482338199999999 -11.540248560000002 14.00742432 -11.203493 -10.811509 -0.403029
3560 -1.65046383 -0.38230551 6.78613617 -3.614605000000001 6.034654 1.034173
3580 -0.6908103900000001 6.39754245 -1.8684126 -0.10836400000000003 3.2774620000000003 1.521532
3600 6.33168792 25.147110960000003 -35.770968180000004 -3.169145 7.385521000000002 0.3583
3620 7.17427863 26.386830090000004 -24.900870150000003 -2.041361 3.639657 -0.79552
3640 3.02131323 6.368808960000001 4.768788150000001 -0.73437 -4.141904 -1.4643540000000002
3660 -2.9364469200000007 8.70364782 10.189009350000001 -0.284567 -7.655083 -1.080696
3680 -10.26819567 13.99529916 10.30516956 1.401285 -4.961188 0.166765
3700 -8.76666726 4.881348090000001 12.147389460000001 2.423841 0.5025430000000001 -0.16958399999999998
3720 -14.45094423 1.46470167 25.88582358 2.255812 1.673241 -0.546136
3740 -8.127800820000001 13.8474036 18.33731307 3.245989 -1.771535 -0.686492
3760 -5.736525030000001 22.24494018 15.01857045 4.533451 -3.395857 -1.05891
3780 -5.29044471 47.431860119999996 13.40372673 4.740246 -0.344695 -1.291043
3800 9.29208105 50.389418160000005 -37.85209101 4.751792 1.469303 0.33682
3820 -9.03745269 25.600068090000004 -42.54347826 5.336167 -0.999344 1.261668
3840 -2.52449559 12.59795295 -3.1106823300000004 5.641325 1.781325 1.188665
3860 2.9273138100000002 0.17019369 4.5813681 3.860456 4.349678 -0.721023
3880 4.099373370000001 -6.8713065900000005 -5.51542725 2.9288 3.621676 0.987899
3900 8.56413981 -4.14966924 -11.53710936 3.176801 -0.001399 1.057299
3920 7.805817 1.1569423499999998 -10.752741000000002 4.347877 -4.339201 0.8413700000000001
3940 2.34697383 3.8559774600000005 -9.3967047 2.716046 -3.048859 0.584763
3960 -4.87670796 -0.18905832000000003 -2.64230388 0.7573340000000001 -2.857575 0.26853
3980 -4.44441069 1.9886145300000002 -1.13508567 -1.260436 -1.049265 -0.246741
4000 -2.6250873300000004 7.04225565 -4.7006773200000005 -2.8065740000000003 1.039584 -0.731304
4020 -0.17963091 10.150240230000001 -3.3040766700000006 -3.555945 3.24443 -0.8120029999999999
4040 1.96646355 15.20837433 -0.42047622 -3.705976 2.793866 -0.161926
4060 3.9049293600000006 27.83746422 -0.6815301300000001 -3.983666 1.992038 0.52937
4080 3.0291023700000004 37.300778820000005 -3.60675441 1.366561 3.426945 2.286876
4100 -10.25921952 47.31466005 1.13928435 0.317475 -0.079807 0.501179
4120 -16.11923283 29.435836950000002 1.3212990900000001 -0.23384 3.355178 0.312397
4140 -8.74795959 17.42900517 2.060168670000001 3.071097 6.995284 1.426814
4160 1.7193202200000002 14.38074387 6.90169797 -3.985337 -1.956025 0.036626
4180 15.68333529 14.17402755 6.04233216 -0.200502 6.949812 -1.144758
4200 -6.3978465600000005 -0.83511549 5.14614942 -2.241268 2.620996 -2.686364
4220 -6.157746810000001 -4.72088592 7.3745694 -4.5905510000000005 -3.861021 -2.294953
4240 -2.35549872 -12.64555107 12.27656754 -2.1847380000000003 -4.0624970000000005 -2.480852
4260 -0.98959356 -14.46696396 15.191609040000001 -1.47292 -4.814699 -2.801792
4280 -2.7881001000000003 -12.21385221 15.06557016 -5.549322 -6.425049 -0.423635
4300 -3.6625831200000003 -5.453310330000001 7.314836310000001 -12.136794 10.00647 1.378684
4320 -1.87335684 5.642221500000001 -1.13508567 0.760679 0.635664 2.077918
4340 6.195770370000001 26.443257210000002 -38.31881157 -1.394641 3.149435 0.821572
4360 7.093297080000001 29.67608385 -23.343503220000002 -3.3094050000000004 4.189851 -0.357498
4380 6.536304899999999 -1.1588945400000001 2.1165957900000003 -2.036795 -1.544941 -0.8240959999999999
4400 -2.26254897 -4.90275351 22.885758810000002 -0.177688 -6.263793 -0.917227
4420 -16.59688173 30.316755330000003 -26.11334691 1.577432 -1.848557 -1.023856
4440 -12.204424800000002 16.854050880000003 18.55481058 1.205835 -0.912074 -0.72855
4460 -8.1496575 7.48892457 8.256684600000002 1.355109 -1.940022 -0.070302
4480 -8.49169296 9.15241608 14.67996849 3.070279 -2.150037 -0.186239
4500 -2.2986203400000003 15.10897941 20.31485211 4.032278 -1.573852 -0.720778
4520 1.2433194000000003 22.093758270000002 17.50744593 4.242158 -0.134766 -0.877116
4540 1.9001479500000003 40.066884900000005 10.141264080000001 4.6906690000000015 1.230513 0.165784
4560 6.919365780000001 46.839993390000004 -18.16338177 4.53647 -1.78733 1.076562
4580 -5.58503901 24.570204480000005 -38.874008520000004 4.240287 0.15270899999999998 1.023938
4600 -1.4154554700000002 14.85136881 1.6687300500000002 4.295333 3.2514830000000003 -0.059621
4620 0.54995841 0.49741605 -1.1407754700000001 3.829918 3.551235 0.773161
4640 3.33970659 -6.30369018 -9.3212658 3.167448 -0.053351 0.471915
4660 7.90296543 -6.48196731 -16.38373005 4.340033999999998 -3.8922 0.419863
4680 6.99420627 0.31374342 -7.39956528 3.645178 -3.407636 0.25736
4700 1.05081777 0.21180771 -1.3591755 1.781382 -3.727792 0.151816
4720 -1.8595836000000001 1.7667711900000003 -4.4680626 -0.090998 -1.853943 -0.362524
4740 -3.3436011600000004 6.56669628 -7.95266289 -1.8015 0.142052 -0.927164
4760 -0.96788403 6.462062820000001 -1.42129242 -3.16888 3.273663 -0.732424
4780 0.5655268800000002 9.489811410000002 2.15057763 -3.904207 3.975203 0.023183
4800 2.5005493800000003 21.05416314 3.6039095100000003 -4.819653 3.1916130000000003 0.4365350000000001
4820 3.56378661 36.87522102 -2.2945786200000002 -0.878677 3.732108 1.979177
4840 -2.98433934 39.56976315000001 -0.21106215 -0.669277 -1.2850549999999998 0.928461
4860 -12.0108735 41.927214060000004 0.13756563000000002 0.558375 3.166212 -0.00443
4880 -11.914029180000002 18.53909496 1.4253341400000001 3.91963 5.66058 1.202647
4900 -5.34688164 14.08615938 4.520752110000001 -3.857666000000001 -3.063085 -0.280462
4920 7.691608980000001 16.21473318 6.99061581 -1.071736 4.929793 -1.124754
4940 9.38562921 14.551094520000001 4.730911740000001 -2.331441 1.946561 -2.047333
4960 -5.09435262 2.21763879 6.9786378000000004 -2.950158 -3.328376 -2.120739
4980 -5.157224909999999 -5.26290804 9.783954450000001 -2.317451 -5.573578 -2.236288
5000 -2.0796219000000002 -12.962894760000001 13.273950240000001 -2.634607 -6.714673 -1.649519
5020 -1.2322341 -15.350128830000001 17.126484389999998 -7.818227 -5.366448 0.547266
5040 -2.2817079000000002 -14.368922820000002 13.663132560000001 -9.859695 13.622478 0.887892
5060 -2.40265539 -1.3967478000000002 3.0795453900000003 1.518186 -1.13627 1.251198
5080 -1.29226149 8.90348733 -10.383757470000003 0.414232 -1.632141 0.207947
5100 15.126195960000002 35.6366889 -41.297019660000004 -2.844668 4.092257 -0.5966130000000001
5120 10.29110202 16.079561190000003 -5.147199090000001 -2.74186 0.640096 -1.050806
5140 0.57151098 -6.26238027 20.254530420000002 -0.577761 -4.603966000000002 -1.400711
5160 -8.813971080000002 10.266106140000002 2.20252158 2.457237 -2.660107 -1.034831
5180 -16.387173360000002 25.60710186 24.157517400000003 2.557459 -0.679214 -0.459829
5200 -9.08894538 7.416928980000001 11.706557490000002 2.529747 -0.457234 -0.004176
5220 -8.24006646 7.381446210000001 9.45119925 3.448368 -2.477664 -0.366912
5240 -5.25152844 13.521230910000002 14.37880149 4.83219 -2.461516 -1.075112
5260 -1.5206873400000003 21.01599243 16.45124247 4.516028 -0.180238 -0.133799
5280 0.57914316 32.76102474 12.95316324 4.664807 0.846944 1.269568
5300 10.22748417 47.20643613000002 -17.88615117 4.754293 0.715495 2.361016
5320 -3.81511881 30.30103971 -56.71466091 3.986826 3.564659 1.009249
5340 -1.6593026400000002 18.05155758 -7.357352850000001 3.514767 4.582489 0.231255
5360 0.28650105 3.22713684 1.60466094 3.713438 0.731462 0.605046
5380 0.49427685 -3.3115617 0.92806524 2.57041 -3.068667 1.400961
5400 2.6131191300000003 -8.394691680000001 -14.32939833 3.835844 -3.3045940000000003 0.430543
5420 7.61182425 0.30221667 -13.09402503 2.376515 -3.321651 0.36696
5440 5.594760720000001 0.82927854 -6.981482700000001 0.253565 -2.148857 -0.170664
5460 -0.45130905 2.92970745 -5.59790973 -1.53903 -0.439948 -0.798534
5480 -3.5929811700000003 3.0053033100000004 -2.5174618200000003 -3.10025 2.190887 -0.944202
5500 -3.36380976 6.702613830000001 -3.55285827 -3.75822 4.207741 -0.180126
5520 0.38096154000000004 11.87526006 -0.01047708 -4.698930000000002 2.902748 0.109805
5540 3.5750190600000002 23.170611780000005 0.6908103900000001 -4.894557 1.711168 0.429363
5560 5.81196393 36.76145445 -2.7562176 0.51908 -0.128693 1.893475
5580 -3.3036254100000004 39.80028834000001 0.25042968 -0.5018779999999999 0.033289 0.368193
5600 -15.179032620000001 42.72475725 -3.1620278699999997 3.019563 5.299066000000002 0.74817
5620 -14.099481360000002 18.73369593 1.1996060400000002 1.910746 1.457503 1.486693
5640 -3.3551181 13.44099492 4.89167802 0.07336000000000001 3.317654 -0.425687
5660 12.266541720000001 15.057035460000002 8.66009142 -2.291332 -0.040243 -1.799884
5680 3.71886309 8.50142448 4.9969098899999995 -4.591815 -3.714992 -2.581432
5700 -7.82992017 0.043114950000000006 8.23468077 -2.69992 -1.184245 -2.004234
5720 -7.6136194800000006 -8.01433836 10.197691200000001 -1.902383 -2.341502 -2.336875
5740 -2.3773554000000003 -14.741192700000003 14.736856679999999 -2.140963 -5.65845 -1.94439
5760 -1.00261143 -15.426018990000003 18.86167719 -12.152353 -2.422403 -1.192731
5780 -3.0937698900000004 -12.375815310000002 8.67131406 -6.837975 10.554788 0.8563139999999999
5800 -3.0801438000000005 -0.19654335 1.7630335800000003 2.137414 -2.116687 1.603952
5820 0.5890218299999999 10.99987452 -14.812893990000003 -0.590622 0.07894 0.217963
5840 13.23862443 40.50741276000001 -35.11158903 -2.320231 3.604292 -0.501525
5860 8.85079782 14.127018030000002 -7.31918214 -2.008953 0.382025 -0.818893
5880 1.58684598 2.1197448 17.48154753 -1.05145 -4.505653 -1.067656
5900 -8.833434120000001 22.274733150000003 -1.6378972200000002 0.985306 -2.584526 -0.811268
5920 -10.18436922 12.880117980000001 9.41856138 2.149515 -0.393798 -0.08703
5940 -11.514801420000001 6.477925590000001 10.589581080000002 2.338728 0.08226900000000001 0.308923
5960 -13.40671878 8.187524100000001 17.0197614 3.076555 -2.040887 -0.048534
5980 -9.755662410000001 11.3803848 15.18082785 4.503347 -1.381767 -0.414358
6000 -5.92632891 14.89762296 11.112885720000001 4.832186 -0.79977 1.074158
6020 -4.9334391900000005 29.432099340000004 10.88431272 4.610655 -1.808707 2.360042
6040 8.47237707 50.40243602999999 -16.41695652 5.034049 0.469965 2.779891
6060 3.8396634300000003 38.25774432 -46.46442735 3.379685 5.071279 0.390986
6080 -1.21546881 18.77979312 -15.212563200000002 3.776780000000001 3.850589 0.550217
6100 2.37989619 8.5663863 2.7960363900000003 4.162612 1.930425 0.616261
6120 2.97701127 -0.48543804 2.87043543 2.845878 -1.862042 0.18143
6140 2.2279687200000002 -6.367455179999999 -6.62821479 4.283012 -4.315551 0.578104
6160 6.223758300000001 -4.845423870000001 -13.4281242 3.372786 -4.732917 -0.285502
6180 5.9604579 1.3403108700000002 -10.13931189 1.270977 -3.685352 -0.427575
6200 2.51327295 1.73069982 -4.05132399 -0.6557890000000001 -1.7179240000000002 -0.8537520000000001
6220 -1.3192095600000002 3.0344880600000006 -3.6280028700000004 -2.647784 0.755587 -0.97659
6240 -2.0917470600000008 6.6979737 -6.14667132 -4.187767 3.173433 -0.359126
6260 1.67382144 11.013500610000001 -0.44607051 -4.947116 3.143752 0.261586
6280 6.298157340000001 23.06972574 0.37871505 -5.156136 2.417255 0.7033010000000001
6300 6.330932550000001 25.820557650000005 -2.6129621700000003 0.490017 1.475932 2.370848
6320 -0.09400923 30.819409920000002 -0.8071177500000001 -1.062984 -1.023982 0.717073
6340 -14.534476380000001 52.98231888000001 0.04969746 1.200682 3.373143 0.436694
6360 -20.105595 27.700497000000002 -1.96510977 1.109973 1.568917 1.491639
6380 -12.75587433 16.601678820000004 2.2829047200000003 0.182783 3.951011 -0.400097
6400 -0.27273762 13.608500670000002 7.94907243 -0.35924 3.002195 -1.346975
6420 8.69541723 15.12215424 6.28976979 -3.278407 -2.703269 -2.050126
6440 3.8184051600000006 8.82040644 6.051318120000001 -2.198745 -2.497918 -1.593126
6460 -5.8881582 -4.07916477 8.05400019 -1.900965 -2.728024 -1.849261
6480 -3.68833437 -10.95287481 10.33406001 -2.845835 -5.013681 -1.137223
6500 1.8053931600000002 -14.141988090000002 15.844552830000001 -10.533251 -1.5501200000000002 -0.6879529999999999
6520 0.74050785 -14.260100490000001 15.578701830000002 -7.8049300000000015 13.466637 0.5168159999999999
6540 -1.3201022700000002 -9.88469334 6.32389878 0.973682 -3.978189 0.865408
6560 -2.5945586100000004 2.8141456500000004 -1.0324044 1.349077 -5.670321 0.392704
6580 7.09314993 25.47747252 -38.27944404 -1.798711 1.855712 -0.305498
6600 7.608979350000001 28.569888630000005 -21.752909820000003 -2.255497 1.968128 -1.114272
6620 3.93726312 4.950351629999999 6.514301070000001 -1.684853 -2.1721630000000003 -1.185098
6640 -4.54395276 2.5427618100000005 13.19610789 2.124365 -1.204972 -1.004837
6660 -12.40365609 30.86955864 6.87579957 2.462667 -1.252526 -0.595421
6680 -10.79660151 13.58484876 11.0447847 2.160978 -1.2679120000000002 0.049834
6700 -8.072109450000001 3.0304463400000006 10.507245750000001 3.400831 -2.1503970000000003 -0.382618
6720 -8.92623672 11.479328460000001 16.783399260000003 4.48765 -2.757016 -0.672284
6740 -4.73600313 15.24594663 14.280603390000001 4.182524 -0.645943 0.731865
6760 -2.9562042600000003 21.71968335 11.87854641 4.41718 0.920073 1.843516
6780 0.01018278 32.440689000000006 5.96658915 3.967548 2.406073 2.2476
6800 10.682089379999999 40.21986203999999 -6.92040564 2.170058 2.573019 0.6869770000000001
6820 2.16360531 25.807834080000003 -48.67308018000001 1.920407 2.924861 0.561937
6840 -0.036071370000000005 15.255972450000002 -6.545889270000001 2.151736 1.753198 0.858815
6860 0.5070004200000001 5.60673873 3.68025093 2.260994 -2.323438 0.720592
6880 0.07648857 -1.64478384 -0.9635480100000001 2.424888 -2.054032 0.606024
6900 -0.6093873900000002 -6.30983124 -11.58051861 2.011973 -2.343557 -0.158132
6920 6.20280414 -0.3930867 -15.319747260000002 0.520976 -1.70589 -0.355234
6940 4.89153087 -0.20372427 -1.47173544 -0.814012 0.030217 -0.456514
6960 3.2088804300000007 1.07521524 -0.8490358800000001 -1.936274 1.6780000000000002 -0.49958
6980 -1.13284899 4.4304903 -6.0454811699999995 -2.6017490000000003 1.750682 -0.25008400000000003
7000 -3.33311427 6.08185665 -4.28139792 -2.82423 0.977911 0.053795
7020 0.70892946 11.80729638 2.13022188 -1.5651700000000002 -0.291358 0.425275
7040 4.18260141 28.46436246 2.7024784200000003 0.961126 -0.799187 1.619685
7060 2.36657421 35.35348401 -0.19429686000000002 0.569234 0.283844 -0.080777
7080 -7.03582029 37.92064329 0.7791298200000001 4.525157 3.200479 0.507139
7100 -14.77113282 24.874677450000004 -0.78871419 0.807427 2.885986 0.326681
7120 -8.920851030000001 14.088248909999999 0.24788889 1.247219 5.352641 0.608603
7140 1.52772111 12.90556512 0.7173072 -2.761994 1.243671 -1.190589
7160 7.041205980000001 13.209135569999999 4.95245097 -1.913554 -0.347551 -0.935865
7180 1.8239536800000002 9.13265874 5.137918830000001 -0.932234 -1.017355 -1.316985
7200 -4.37615271 0.41822973 5.647901490000001 -1.133695 -2.5512200000000003 -1.707395
7220 -3.96076788 -5.175039870000001 8.5404879 -5.737021 -6.678238 -1.411658
7240 -1.73533995 -10.99089837 10.041270749999999 -6.792175 -0.727817 -0.446026
7260 -2.08411488 -10.277780040000001 11.076814350000001 -1.10232 3.5170980000000003 0.000612
7280 -2.07289224 -6.837628860000001 4.45503492 -1.921326 -1.558372 0.301565
7300 -0.48603645 -1.7438746500000002 -2.39576877 -2.557138 -3.715556 -0.21179
7320 8.98671537 12.889545390000002 -48.55168143 -1.556164 -2.83248 -0.803066
7340 7.94352978 25.84465101 -24.23489868 -0.370417 -1.102341 -1.064056
7360 4.288578840000001 9.80865603 10.71921042 -0.043249 -0.093213 -1.159203
7380 -3.4408967400000003 14.572647089999998 10.31519538 0.168946 0.550818 -0.961994
7400 -10.55380401 30.84844752 22.15467837 0.960582 0.563146 -0.469371
7420 -5.80852062 7.630679070000001 12.35261466 1.8499330000000005 0.464179 -0.467305
7440 -8.502170040000001 1.7904231000000002 10.354719870000002 2.535102 -0.930551 -0.723514
7460 -7.74908577 8.88641793 12.436735409999999 3.351814 -1.729281 -0.689012
7480 -5.360497919999999 16.25020614 9.25630398 4.1739120000000005 0.787514 0.042033
7500 -5.14060677 20.566478610000004 6.55890714 3.49432 1.117222 1.560148
7520 0.17753157 22.813155000000002 -12.20876082 3.179708 1.571361 1.749648
7540 9.253910340000001 21.72447063 -5.670660689999999 1.839675 1.418532 0.639147
7560 6.99226389 21.26807019 -13.5724293 1.239097 2.433294 0.206363
7580 0.7499450700000001 18.25648848 -9.64115028 1.246568 4.072928 0.422231
7600 -3.1124775600000003 11.68829127 -7.21799199 1.727069 1.3831719999999998 0.25598200000000004
7620 -4.099373370000001 4.3875225 -8.34993846 1.28383 -1.16634 0.184582
7640 -2.62285065 0.12603888 -4.97295387 0.432978 -0.917608 0.790412
7660 -0.27812331 -1.5988239899999999 -3.8088306000000003 0.676371 -1.212224 0.463477
7680 -0.016461180000000002 -2.85037398 -3.79924623 0.407064 -1.938369 0.07155700000000001
7700 0.24144372 0.78407406 -3.2376139200000003 0.032261 -0.911912 -0.018902
7720 -1.1710197 2.21180184 -3.74431023 -0.666929 0.4974770000000001 0.047047000000000005
7740 -4.26448548 4.573441620000001 -3.5681324400000003 -1.218364 0.09645 -0.152844
7760 -0.36568737 12.28165893 1.8839810700000001 -1.818859 -2.015979 -0.168218
7780 3.96525105 24.843383550000002 2.6081748900000004 -3.4060580000000003 -8.528157 -0.353626
7800 5.889207870000001 33.303939570000004 -2.9367412200000005 3.281335 -7.8999130000000015 0.042657
7820 -2.36193408 21.15505899 1.56918798 1.829249 1.995318 -0.267517
7840 -8.39349486 22.31230545 -0.08741691000000001 4.6597 1.122997 -0.890766
7860 -11.23743348 16.36442397 0.55938582 3.274464 -2.426132 -0.31585
7880 -9.10212021 12.478055130000001 0.65803518 1.104915 0.427949 -1.149715
7900 -1.14421878 12.7688922 0.10373094000000001 -0.211387 1.001431 -0.633011
7920 2.105971560000001 10.85168466 2.6065268100000005 -1.194294 -1.503173 0.253162
7940 4.53841011 10.17613863 4.966675470000001 -1.4008459999999998 -1.439369 0.459941
7960 1.86078042 5.1263920800000005 3.60030924 -0.79066 -1.840164 0.792661
7980 -0.51642783 0.07574300999999999 5.09944401 -1.388081 -2.039539 0.819722
8000 -0.9428881500000001 -2.65397778 5.50509732 -1.832628 -2.669718 0.822765
8020 -0.89244513 -3.6860878800000005 5.03582616 -2.010548 -2.402674 0.795543
8040 -1.60271856 -3.3539212800000002 3.0509590500000003 -2.013516 -2.156412 0.7524770000000001
8060 -2.8053166500000004 -2.1188422800000004 -0.9930368700000001 -1.843362 -2.26158 0.531611
8080 -1.9995428700000002 2.14863525 -10.52206866 -1.590286 -2.394884 0.348747
8100 9.079969230000001 20.106340560000003 -43.45942815 -1.264655 -2.597292 0.334189
8120 -4.909787280000001 24.79518702 -13.197304710000001 -1.327281 -2.835405 0.261418
8140 -4.12931349 24.763000410000004 15.327379440000001 -1.500851 -3.135721 0.12279
8160 -11.041194240000001 20.894005080000003 1.47009717 -1.393242 -3.380257 -0.08979
8180 -0.03652263 5.48968581 13.54278348 -0.956284 -3.2497830000000003 -0.329391
8200 6.47373672 11.02262391 16.76393622 -0.5840390000000001 -2.6583900000000003 -0.426894
8220 6.13933344 12.62444976 3.62905254 -0.181355 -1.869251 -0.451798
8240 3.41230059 18.08688339 -0.48783168000000005 0.168738 -1.437659 -0.527885
8260 -0.73736865 16.16173956 0.65533743 0.406636 -1.210494 -0.532924
8280 -2.8253781 12.46293792 2.57449716 0.536354 -1.027894 -0.488455
8300 -3.5908818300000003 11.902943880000002 0.5809383900000001 1.664643 -1.057922 -0.8832549999999999
8320 -3.25393776 11.728708470000003 -0.37212273 3.812944 -3.3399980000000005 -1.881204
8340 -2.39666148 11.50941573 -2.0242444500000003 2.868266 -2.375471 -2.240483
8360 -1.9604696400000001 9.92570895 -2.21973813 2.87742 1.274437 -2.05068
8380 -0.84888873 8.31894867 -1.34315577 3.746038 0.902263 -0.310412
8400 -0.23246757 6.927890669999999 -0.9657945 3.522873 -2.055991 2.006657
8420 -0.5159765700000001 6.723420840000001 -1.16981307 1.941821 0.222319 2.124085
8440 -1.24735131 6.68389635 -1.3492968300000001 0.427311 2.486003 2.377661
8460 -1.8154287900000001 6.34695228 -1.88921961 0.825665 0.09563 2.272412
8480 -1.6070545800000002 6.727011300000001 -2.85321888 0.8630549999999999 -1.648092 1.940554
8500 -1.04063499 7.962992820000001 -3.5220254399999997 -0.036255 -3.3936230000000003 2.073241
8520 -1.02461526 9.40030497 -4.1573014200000005 -0.384923 -3.342362 2.07715
8540 -1.5004787400000001 11.137734450000002 -3.7973038500000005 -0.30811700000000003 -2.827317 1.881541
8560 -2.4128283600000002 11.62019025 -3.20977314 -0.447136 -4.019146 1.948327
8580 -3.8176596000000003 10.724301810000002 -2.28649518 0.529674 -4.656368 1.415447
8600 -4.12317243 8.5922847 -2.63691819 1.583648 -5.164105 0.935282
8620 -6.38871345 8.37747513 -4.94690832 1.931435 -5.347821 0.7563489999999999
8640 -10.11670965 11.500135470000002 -7.59850227 1.995548 -5.518777 0.562599
8660 -4.54050945 11.64832533 -1.15364619 1.862614 -4.916454 0.8332959999999999
8680 1.8661661100000002 16.82830944 1.67681349 1.528766 -3.785683 0.994021
8700 8.710387290000002 25.27688745 4.86518121 1.122106 -3.036747 1.068201
8720 15.23172213 21.72088017 4.33753074 0.754784 -2.115235 1.108251
8740 17.129182139999998 7.769441520000001 5.21665389 0.466008 -1.5316459999999998 1.137533
8760 10.83057354 10.141264080000001 -0.30012714 0.328167 -1.447537 1.268922
8780 1.1407754700000001 15.66028179 2.83929849 0.223471 -1.446239 1.301304
8800 -0.6950090700000001 16.16503572 2.433193920000001 0.11262 -1.532871 0.951332
8820 1.03674042 13.96835109 0.8009865 -0.074921 -0.700731 0.541963
8840 0.8060778900000001 11.35508481 0.98540469 -0.848137 0.566156 0.078808
8860 -0.043860510000000005 10.30337433 1.56784401 -1.834016 1.096723 0.385299
8880 1.4835663000000001 10.630890990000001 3.32399097 -3.489686 -0.323689 0.58813
8900 3.24225405 8.97832782 2.09250243 -0.697602 2.18691 -0.700951
8920 0.04415481 8.30802033 0.9586037700000001 -0.701666 0.684317 -0.8251040000000001
8940 -1.98307188 7.5717013500000006 0.73617183 -1.055481 -0.009061 -1.61183
8960 -2.67329367 8.79854976 2.23514964 -0.6186659999999999 -0.902147 -1.893918
8980 -4.03860042 9.780962400000002 1.57487778 -0.35855 -2.959429 -1.528406
9000 -5.06846403 8.794665 -0.25387299 -0.5447810000000001 -5.10357 -1.1659
9020 -3.99923289 7.456149360000001 -1.05156333 -1.3940780000000002 -6.501382 -0.65409
9040 -2.86503993 6.71997753 -1.6774119 -2.91061 -5.595864 0.118231
9060 -1.34764875 7.55299368 -1.7754530400000001 -3.207147 -1.961936 1.370937
9080 0.99438084 7.028786520000001 -3.12415146 -3.515388 0.910044 1.372581
9100 2.52913572 6.76891962 -4.82791302 -2.916507 0.895442 1.04243
9120 3.85897932 7.027285590000001 -8.800344990000001 -1.58616 -0.235693 0.6419060000000001
9140 3.7423678500000004 4.687051230000001 -8.276736240000002 -0.372548 -0.14944200000000002 0.132185
9160 -1.9050921900000002 0.38051028000000003 -0.6780868200000001 0.17690799999999998 1.862631 0.24667600000000006
9180 -5.18731218 1.7438746500000002 -4.280946660000001 -0.596537 5.1317260000000005 0.177264
9200 -2.2382986500000004 23.19246846 -4.92610131 -1.39185 6.023587 -0.25458600000000003
9220 0.8689403700000001 16.28463924 7.641911520000001 -1.241752 2.396614 -0.7231810000000001
9240 -0.09160578000000001 10.15219242 5.707183320000001 -1.480066 -3.778411 -0.877166
9260 -2.4481541700000005 14.082117660000002 6.31701216 -2.891507 -5.826258 -0.090712
9280 -4.782110129999999 16.22281662 5.2299758700000005 -3.161666 -6.88588 0.327502
9300 -4.34786067 14.51321811 2.14294545 -0.312278 -5.388252 -0.239899
9320 -2.2808053800000003 13.76192907 1.18958022 0.683496 2.471301 -0.291085
9340 -0.10358379000000001 12.883561290000001 1.9378674 2.383508 2.180288 -0.916566
9360 1.32968664 10.289002680000001 2.3144831100000003 3.3847730000000005 0.707381 -1.077532
9380 0.1505835 7.1917992900000005 1.95448554 3.649506 -1.569233 -1.010809
9400 0.20163474 7.879166370000001 -4.43513043 4.25447 -1.6752790000000002 -1.122884
9420 -2.89393038 7.26768945 -5.90507064 4.627888 -1.288351 -0.972288
9440 -3.76152678 4.639305960000001 -6.887473470000001 3.959774 -1.6955759999999998 -0.8535879999999999
9460 -0.61582275 4.87491273 -3.1895645400000006 2.842616 -1.532658 -0.667183
9480 -0.06002739000000001 6.537501720000001 1.0792569600000002 2.030634 -0.069452 -0.375628
9500 -1.51394787 7.130418120000001 4.15416222 1.815969 1.097764 -0.108363
9520 -4.82327289 7.812252360000001 3.8835239400000003 1.87294 2.517243 0.507648
9540 -6.63196221 8.29514961 1.64986542 2.17106 2.988762 0.880868
9560 -0.52974981 10.612036170000001 1.2424168800000002 2.7128520000000003 0.133079 1.395717
9580 2.54934432 12.648395970000003 2.13441075 5.607786 -4.668429 0.29725300000000004
9600 -0.10463346000000001 16.40259468 -5.18057271 5.429176 -3.810177 0.541665
9620 -2.28499425 21.50892531 -12.89822724 5.412918 -4.611921 0.985891
9640 -4.87670796 18.79641126 -7.20077544 5.0952660000000005 -4.325157 1.209768
9660 -0.24729048000000003 21.06733797 -4.91532993 4.31628 -2.8623540000000003 1.041151
9680 3.7576322100000006 16.233744960000003 -0.47586348000000006 3.50577 -2.202923 0.672517
9700 4.38782661 14.95196055 -2.04969159 2.218064 -1.231336 0.443292
9720 4.0983237 15.637228290000001 3.65240034 1.319827 -0.456168 0.244812
9740 3.92588352 15.47676612 4.7424384900000005 0.540646 -0.340358 0.197561
9760 2.4569929800000003 16.77606138 2.04355053 -0.879584 0.140568 0.241503
9780 0.3379937400000001 17.628246269999998 2.57449716 -3.019861 2.4746650000000003 0.21288
9800 -0.41149026 16.90779006 3.90942234 -2.1150290000000003 4.773344 1.071901
9820 -0.10537902 12.54301695 2.7196949700000004 -3.253302 -0.189442 0.112114
9840 0.37451637000000004 7.4998529099999995 2.5737516 -2.640675 6.048748000000002 0.12976400000000002
9860 2.8288214100000006 4.396655610000002 3.2204071800000005 -4.832506 3.3678480000000004 0.8635079999999999
9880 1.9782846 4.9311926999999995 -0.00014715 -5.551197 4.8307150000000005 0.094972
9900 2.06285661 3.7706598900000006 -2.0151113400000003 -6.041666 6.049737 -0.8970540000000001
9920 2.5077303000000004 4.99930353 1.32115194 -5.781773 4.664061 -1.715993
9940 0.32437746000000006 7.378905420000001 2.28604392 -5.312993 1.952296 -1.430438
9960 -2.91892626 8.70948477 4.27510971 -3.461107 -0.587256 -2.251734
9980 -6.20010639 7.5654131399999995 4.511766150000001 -2.85901 -3.329559 -2.702282
10000 -7.3488181500000005 4.767140070000001 0.6905160899999999 -3.060857 -3.281921 -1.654759
10020 1.00725156 6.12586431 -3.9133169100000003 -3.697961 -4.088426 -0.282306
10040 -1.41755481 4.94362197 -7.57454625 -2.573212 -1.619565 0.71797
10060 -2.59470576 3.30706872 -11.38577049 -1.946724 0.604525 0.75902
10080 -2.26822896 -2.9776096800000005 -10.123596270000002 -2.662866 1.732803 0.277213
10100 -4.3704629100000005 -6.88103811 4.20999093 -1.225795 1.0053530000000002 -0.20213
10120 -12.70962018 -4.5725391 -2.28140379 0.6078819999999999 0.393942 -0.739741
10140 -0.6717986100000001 28.336224240000004 -28.087589790000003 1.045755 -0.123561 -0.642016
10160 2.69903511 10.47701133 26.530075710000002 1.354099 -1.029845 0.354746
10180 -7.1001837000000005 -2.24578368 -4.8671334 1.7703529999999998 -0.690341 1.138088
10200 -2.2532687100000004 1.4311710900000003 7.600297500000001 2.90667 -1.11829 1.411493
10220 -1.35827298 11.90145276 11.66688585 3.561653 -2.762858 0.25808600000000004
10240 -2.4920146800000005 18.45422865 5.17339179 3.442082 -3.188193 -0.629896
10260 -1.6110963 20.77335189 3.7928108700000003 3.405532 -0.8322879999999999 -1.541159
10280 1.7866854900000002 23.84720748 5.39852148 4.230237000000002 1.588994 -1.966858
10300 9.469004400000001 29.2017213 -1.7122864500000001 5.782659 -1.168385 0.258738
10320 10.78956774 27.08512551 -2.3164353 4.93301 2.374852 1.759797
10340 8.28257319 28.15720155 -8.069568660000002 3.340356 5.695633 1.463475
10360 -2.9223695700000003 21.82745601 -10.39707945 3.541612 2.2094400000000003 0.909599
10380 -8.060886810000001 15.74785566 -8.71502742 4.508946 -3.706914 0.29155
10400 -0.34069149000000004 8.920252620000001 -10.503508140000001 5.007542 -6.441441 -0.149048
10420 1.40153508 0.21285737999999998 -8.03903013 3.568867 -5.050495 0.6402869999999999
10440 4.7464802100000005 -2.29398021 -7.87766544 2.052568 -3.3838410000000003 0.216294
10460 5.01831531 -0.03771945 -4.77701874 0.236583 -0.987466 -0.216068
10480 4.120327530000001 1.69252911 -5.616323100000001 -2.165424 1.22171 -1.011206
10500 3.70389303 3.56394357 -3.95672616 -3.461231 3.59995 -1.355522
10520 -1.9464021 3.26441484 -6.31387296 -3.478282 5.304622 -0.600456
10540 -5.1563322 2.0646518400000002 -3.3961337100000004 -3.341832 4.424288 0.449551
10560 -6.68405331 2.4755535 -3.8923529400000003 -3.18651 2.02584 1.240989
10580 -2.7584640900000004 6.852304620000001 -3.0828415500000004 -1.725125 2.413954 1.217585
10600 3.0904737300000003 15.383355300000002 -1.07086941 -1.39704 5.5804529999999986 -0.255123
10620 8.335262700000001 38.65337181 -0.11436498 0.058909 6.3635150000000005 0.857517
10640 4.480786170000001 42.902435970000006 -0.9511187400000001 -5.009695 -4.074357 0.7981
10660 -3.1054437900000007 27.54542052 -0.5825864700000001 -2.955721 3.731569 -3.80266
10680 -8.37149103 28.41091758 -5.52874923 -0.880308 3.111818 -3.530996
10700 -3.4138015200000003 21.61954287 -2.6973870300000002 -2.605181 -5.2108089999999985 -2.662847
10720 10.12868766 19.33290054 3.90971664 -3.079959 -9.001139 -1.699906
10740 9.063056790000001 17.06317065 3.11891292 -5.219827 -5.614491 -1.477775
10760 -8.81576631 5.04809847 5.70254319 -6.873054 5.793189 0.574819
10780 -7.784411580000001 -4.1694265800000005 7.76779344 -4.616003 2.881663 3.973101
10800 -5.23027017 -10.950481170000002 10.11775932 -0.586141 -3.469993 1.13694
10820 -4.918920389999999 -12.828772440000002 10.839853800000002 -2.857552 0.55977 -0.311234
10840 -5.70957696 -10.08857457 10.72190817 -2.152034 -0.71942 -0.707386
10860 -0.9963232200000001 -3.57382224 8.02646352 0.181744 -2.177993 -1.079117
10880 2.10611871 2.55055095 1.36994688 0.733006 -0.174598 -0.661227
10900 4.0635963 7.565265989999999 -13.13189163 2.207514 1.347751 -0.09313
10920 13.60655829 17.65922625 -14.18465178 2.38482 1.126002 0.594191
10940 2.16868689 3.60240858 7.38848979 2.230352 -1.5625440000000002 0.941593
10960 -1.8977543100000003 0.30042144 9.21588678 3.678388 -4.262471 0.083499
10980 -11.18443986 21.09533571 -9.28503747 4.948607 -3.521205 -0.974664
11000 -11.789785530000001 36.02887308 20.58130152 4.74072 -1.2016440000000002 -0.110624
11020 -9.151670520000001 14.64748758 3.10618935 4.625118 -0.014426 0.928563
11040 -4.631222520000001 11.517499169999999 2.23155918 4.1341 2.640597 1.2646309999999998
11060 1.5603589800000002 18.19975725 7.569906120000001 3.452054 5.477013 0.36213
11080 14.666352210000001 33.63266286 1.9431059400000001 2.841199 2.856486 1.676202
11100 16.1120421 37.140169500000006 -6.439009320000001 2.8847270000000003 -1.008519 1.418677
11120 -1.4991347700000002 26.47065654 -30.322141020000004 4.4791089999999985 -5.045111 0.369969
11140 -4.931948070000001 15.20598069 -11.418555510000001 4.034029 -6.135178 0.02963
11160 -6.3580277700000005 6.39500166 -1.3768335 2.222649 -4.591754 0.57368
11180 -3.06547785 -2.77028514 -8.14950054 0.172189 -2.13175 0.150281
11200 5.254520490000001 -3.2660629200000004 -14.2174368 -1.816665 1.270482 -0.45763
11220 7.2965799 3.0147307199999998 -9.940080600000002 -3.464843 4.071741 -0.788926
11240 3.85762554 4.026622410000001 -1.4383618200000001 -3.739987 5.111194 -0.4866680000000001
11260 2.08621422 1.68834024 -3.74176944 -4.149403 3.802436 0.283406
11280 -2.33274933 4.076476830000002 -6.355486980000001 -3.2219830000000003 2.1518770000000003 1.188237
11300 -2.92028004 4.88689074 -8.4422898 0.215313 0.13330699999999998 1.37293
11320 0.5417278200000001 8.663387580000002 -1.04512797 -0.999141 4.231362 0.31127
11340 3.1145769000000003 19.31553684 0.6063855300000001 0.90199 5.237851999999998 1.108403
11360 5.0069357100000005 30.3323238 -0.060174540000000006 0.745478 1.90705 -0.164947
11380 -2.7505278000000004 43.172024580000006 0.2721294 -1.5999219999999998 2.234082 -2.388696
11400 -9.04269123 34.17229134 -0.13651596 -3.806416000000001 -1.152309 -2.902901
11420 -4.235438070000002 23.84691318 -1.50197967 -3.058359 -1.89033 -2.0079700000000003
11440 2.18590344 19.592453520000003 1.6175316599999998 -1.886314 -2.272751 -2.759867
11460 8.26640631 14.578631190000001 3.66064074 -1.232784 -5.295873 -2.826204
11480 9.26932185 13.018282020000001 5.6453607 -10.348232 -9.054566 -3.081612
11500 -6.862026330000001 0.3239262 6.215223600000001 -6.262419 8.119978999999999 2.117547
11520 -8.81187174 -5.58248841 9.54295218 0.569535 0.238734 2.671022
11540 -6.762484260000001 -11.805197040000001 12.4651746 -1.508944 1.971689 1.340371
11560 -5.0900166 -13.4395038 13.567789170000001 -4.033671 3.196982 0.277512
11580 -4.03860042 -8.29485531 11.191777740000001 -1.506107 -5.002127 0.137963
11600 1.19226816 2.2609008900000003 4.9223637 0.933676 -7.335619 -0.243656
11620 3.3901496100000004 9.16843581 -6.208189830000001 2.0137080000000003 -1.948382 -0.14901199999999998
11640 12.971576610000001 22.635927540000004 -32.04895608 2.984216 0.963208 -0.238899
11660 10.81471077 13.476330540000001 -6.12331371 2.97078 0.108908 -0.240035
11680 3.18193236 0.35102142000000003 8.227038779999999 3.389584 -3.635624 -0.314564
11700 -5.24389626 7.97466672 8.136776970000001 4.919743 -2.762975 -1.154231
11720 -9.78215922 16.95284739 5.64670467 4.674121 0.440371 -1.223076
11740 -16.817528250000002 14.51636712 8.76547044 4.703278 2.060408 -0.388531
11760 -17.21794302 6.9006483 13.058689410000001 5.0015480000000005 3.950296 0.661193
11780 -10.622513249999999 12.51532332 9.31408488 3.962983 5.569897 1.198793
11800 -7.0940524499999995 24.14389131 9.31497759 3.747752 2.425374 1.076337
11820 6.875652420000001 50.281488540000005 -14.130019890000002 3.880776 -1.854685 0.906494
11840 18.66947967 40.06643364 -14.54974074 6.262783 -7.683880999999999 -0.08955
11860 0.5465151 21.38033583 -28.29955446 4.495987 -6.083002 -0.630576
11880 0.28156662 13.23862443 -3.2260871700000004 1.619446 -3.720547 0.345092
11900 1.52607303 2.4662732400000005 4.78854549 -0.286174 -1.151993 0.08920800000000001
11920 0.27886887000000005 -3.8889096300000006 -10.77623595 -2.618824 2.099589 -0.375633
11940 6.918159149999999 1.38806595 -16.1612883 -4.646256 4.477528 -0.543461
11960 7.536228390000001 2.7872073900000003 -12.15427608 -4.8487160000000005 5.19123 -0.359919
11980 -3.46395024 0.9455859000000001 -4.19443227 -4.5262449999999985 3.86826 0.399262
12000 -7.203914640000001 2.00837187 -0.7286868000000001 -3.294671 2.801229 1.633414
12020 -6.808444110000001 6.977735280000001 -7.82767368 0.357665 -1.052438 1.272895
12040 -1.6584001200000003 8.4132522 -8.03708775 -0.821285 4.713954 0.151661
12060 -0.08203122 10.989544590000001 -2.42406081 2.785432 4.164611 0.66894
12080 2.2676305500000007 24.22757061 -0.8116107300000001 0.999458 3.100993 -1.125035
12100 2.9806017300000005 42.861871619999995 0.04625415 -2.78885 1.890159 -1.931883
12120 -4.07796795 39.94353396 1.6880361300000002 -5.387841000000001 1.668059 -1.6794919999999998
12140 -7.21739358 26.858200590000003 0.36838512000000007 -4.441474 1.088571 -2.504284
12160 -3.60226143 22.03373088 -0.68332536 -2.61346 -1.792789 -3.341333
12180 4.51700469 16.91003655 4.997508300000001 -1.605006 -8.155969 -3.344294
12200 14.35484547 17.13037896 5.45945139 -12.381002 -6.201907 -1.816532
12220 -5.23715679 0.77135049 8.16941484 -5.971465 10.612105 0.158335
12240 -8.390502810000001 -5.26200552 9.13655331 0.817171 -2.283044 2.258309
12260 -4.90110543 -13.51359873 11.774217060000002 -0.27518400000000004 -0.206391 0.968288
12280 -3.30617601 -16.02013221 13.362563970000002 -2.117453 4.432184 0.077806
12300 -3.86989785 -10.89195471 12.240643320000002 -2.929591 -1.384425 -0.232334
12320 -0.58213521 0.54546543 6.8485572 0.805222 -4.252743 -0.390577
12340 2.259252810000001 7.106324760000001 -1.2040990200000001 3.419532 -0.967375 -0.273977
12360 7.052134320000001 21.109403250000003 -35.328488130000004 2.83326 0.182692 -0.190883
12380 13.93213257 26.224415730000004 -19.841392080000002 2.470749 -1.284679 -0.287675
12400 4.17901095 5.27592591 8.75573892 3.362688 -3.234998 -0.578048
12420 -7.769745629999999 9.22471578 8.23662315 4.901813 -2.837842 -0.798542
12440 -11.415416310000001 13.209429870000001 5.34613608 5.185782 0.20426 -0.164865
12460 -16.56904095 5.04226152 11.904591960000001 4.8885830000000015 1.7874419999999998 0.844773
12480 -17.90441739 6.77072466 12.956008140000002 4.527439 1.82228 1.23638
12500 -12.947326290000001 13.86402174 9.68306841 3.42016 3.941546 0.225006
12520 -7.7607596700000006 25.48585026 12.84957945 3.6995 4.283115 0.611079
12540 0.12005478000000001 46.808709300000004 10.66487283 3.926456 -1.065116 0.5511520000000001
12560 30.65894775 55.58091921000002 -15.50580372 4.170936 -5.468709 1.339373
12580 3.213069300000001 25.616078010000003 -47.3725881 4.909105 -5.357334 0.28791500000000003
12600 1.2621742200000001 14.42385882 -10.126745280000002 2.966844 -4.3997720000000005 0.403444
12620 2.4170270400000002 3.8107729800000003 3.45721077 1.022882 -2.727246 -0.052385
12640 0.6529437900000001 -3.0066472800000006 -0.9593591400000001 -1.682237 0.734536 -0.279747
12660 4.694683410000001 -6.881940630000001 -17.60998005 -3.802956 2.898059 -0.5590470000000001
12680 7.1421018300000005 1.64687337 -11.40777432 -4.478485 4.1262120000000015 -0.478814
12700 1.03479804 1.75315491 -2.7896010300000005 -4.6876940000000005 3.663627 0.031996
12720 -3.21651261 1.2513930300000002 -3.7456640100000005 -4.414301999999998 2.634616 0.848141
12740 -2.3376935700000003 4.54364865 -3.4928406900000004 0.5704279999999999 0.114221 2.107167
12760 -1.00380825 6.872061960000001 -5.652247320000001 -0.814325 2.123705 0.28642
12780 0.0868185 9.79562835 -1.42039971 1.800664 6.188562 1.273695
12800 -0.19759302 14.889382560000001 0.33155838000000004 0.308243 -2.190705 0.921495
12820 2.53183347 30.434259510000004 -1.31232294 -0.8915049999999999 2.674498 -0.988146
12840 -2.8602526500000005 36.77387391 -3.50690823 -5.3901059999999985 1.916196 -3.787428
12860 -9.63157572 42.19979472000001 0.28425456 -3.159751 -2.159398 -2.031834
12880 -10.961703810000001 23.681801070000002 -0.00299205 -1.568731 -4.6295660000000005 -2.662761
12900 -1.26996336 18.225645840000002 3.08628486 -2.266844 -5.1937190000000015 -2.435111
12920 19.3102983 21.34441161 8.97323643 -4.692097 -6.554997 -0.903521
12940 8.21851389 13.712682870000002 3.31216011 -12.927998 3.8776 1.0840459999999998
12960 -9.87227388 -0.5951628900000002 8.22719574 0.6652520000000001 2.440528 2.088825
12980 -8.099803080000001 -9.504781470000001 10.734778890000003 0.164053 0.851413 1.389812
13000 -3.8206516500000003 -15.365991600000001 14.706318150000001 -3.059466 4.309568 0.654633
13020 -3.7071891900000002 -14.163550470000002 11.925104670000001 -2.372955 1.116271 -0.03937
13040 -2.2508652600000003 -8.93836188 10.33465842 -0.4861 -5.646461 -0.51852
13060 0.40610457000000005 0.60893613 3.6922191300000002 1.336182 -5.417214 -0.2871
13080 1.7931208500000002 6.71428773 -4.840185330000001 1.829723 -1.247285 -0.29220100000000004
13100 14.801367240000001 26.398503990000002 -43.40958353999999 1.9102 -0.727371 -0.110707
13120 9.10212021 18.47862612 -8.72011881 3.583452 -2.517757 -0.31464200000000003
13140 -1.15244937 3.21321645 8.94704373 4.350708999999998 -2.524845 -1.070916
13160 -12.245881859999999 10.965451230000001 -12.02449959 4.738958 -0.486 -1.383806
13180 -7.499558610000001 12.34108791 13.75429689 4.959022 0.098212 -0.6203069999999999
13200 -12.38853888 13.984223670000002 16.436870820000003 4.577432 0.306125 0.462075
13220 -14.506331490000003 14.39526267 21.30010965 3.765784 4.125761 -0.054826
13240 -5.1162093 15.49039221 15.923435040000001 2.343878 6.092178 0.664454
13260 -3.20663394 24.226520940000004 14.25021201 1.278312 4.080664 1.921158
13280 -2.5712010000000003 43.99336683000001 6.820412310000001 2.766352 -2.127938 1.474832
13300 9.90011466 42.79181841 -22.044953520000004 5.015556 -5.24885 -0.026606
13320 -5.52426606 21.330039960000004 -40.98267783 2.771919 -3.711719 0.068984
13340 -3.59357958 13.86775935 -5.17968 1.126004 -3.3749260000000003 -0.14377
13360 0.58753071 1.95553521 -0.5049010799999999 -0.382293 -1.879596 -0.620899
13380 2.22871428 -4.11449058 -4.64993019 -2.320195 1.04203 -0.699068
13400 6.404880330000001 -4.51281582 -14.275816110000001 -3.32349 4.27671 -0.222043
13420 8.274941010000001 1.4983794 -11.710746360000002 -3.983182 4.5323730000000015 0.34986100000000003
13440 3.6127385100000002 3.04421958 -2.2107521700000006 -4.384109 2.800095 0.465717
13460 -2.681073 0.82059669 -3.6297981000000004 1.271885 1.7921080000000005 2.0127080000000004
13480 -5.793099300000001 3.70090098 -8.48884806 -0.5815779999999999 2.0681990000000003 0.91089
13500 -3.02401098 7.46751915 -3.96885132 2.922082 4.5185900000000006 1.005931
13520 1.12910157 13.06528173 1.1511054 2.7348 1.649475 -0.080219
13540 1.7884807200000001 26.43038649 0.55489284 -1.458245 2.082651 -0.342935
13560 -0.51537816 38.12691816 -2.99272689 -7.500002 -0.944899 -1.753923
13580 -7.22053278 38.254595310000006 1.8567387 -5.011839 3.760275 -2.540534
13600 -11.00346498 26.83380312 2.75277429 -0.986988 0.06875099999999999 -3.012959
13620 -7.676187660000001 19.662065280000004 1.60376823 0.069039 -7.289986999999999 -3.4416010000000004
13640 1.7504571599999998 15.623759160000002 6.37539147 -2.667798 -11.510667 -2.388156
13660 16.27699725 15.239364120000001 8.2108719 -11.889406 1.600421 0.356077
13680 1.66304025 6.97758813 4.35399192 -0.821923 4.44169 2.1688080000000003
13700 -6.20654175 -0.5194198800000001 6.82370847 -0.480341 1.976715 1.3229799999999998
13720 -4.684206330000001 -8.33317317 8.56593504 -2.816802 5.02076 0.5475260000000001
13740 -3.32413812 -12.83460939 12.15817065 -2.482208 2.294387 -0.191194
13760 -2.6637093000000003 -13.154346720000001 15.15852972 -1.667237 -5.412421 -0.746056
13780 -2.82208194 -10.89538821 8.42432769 1.340126 -8.869449000000003 -0.105324
13800 -1.9730460600000002 0.58858038 1.89820557 2.776187 -4.764031 -0.5118189999999999
13820 1.3349251800000002 12.537180000000001 -22.15003824 3.049935 0.184882 -0.925378
13840 15.27692661 34.06346901 -31.615010730000005 3.059525 0.491359 -0.8530639999999999
13860 8.254281149999999 15.9238863 1.52054019 4.268865 -1.7140080000000002 -1.0404799999999998
13880 -3.9035853900000004 8.18917218 15.155086410000001 4.946587999999998 -1.408558 -1.0243870000000002
13900 -7.043452470000001 7.35450795 7.4182729499999995 4.858217 -2.03661 -0.264694
13920 -7.76554695 2.49141627 9.950410530000001 4.977837999999998 0.715522 0.56476
13940 -15.119456490000003 8.74945071 24.754769820000003 4.496328 4.888696 0.061462
13960 -12.82248423 14.763500640000002 14.815287630000002 3.854722 5.025309 0.286473
13980 -7.8222879899999995 17.668359360000004 7.876321470000001 3.44825 2.336056 -0.035523
14000 -5.128932870000001 31.091549130000004 9.80191656 3.391629 -3.770131 0.285963
14020 6.33976155 52.536846780000005 -23.17600728 5.093065 -5.262076 0.282668
14040 -0.51343578 35.892808380000005 -37.36919376 3.765425 -5.095843 -0.17654
14060 -2.8818052200000004 17.29069398 -13.893206490000003 1.267968 -2.982786 0.235937
14080 1.6898313600000001 5.622454350000001 2.4498022500000003 -1.121526 -0.119384 -0.07497899999999999
14100 3.0049992 -2.2668849900000003 0.16420959 -3.4356720000000003 2.609714 -0.43113
14120 4.38797376 -4.55278176 -10.035129690000002 -4.2466040000000005 4.911827 -0.008183
14140 7.07922954 -2.5005493800000003 -15.96250827 -4.322566 3.950225 0.504197
14160 7.6179555 1.5387966000000002 -10.288257119999999 -3.973784 3.274898 1.5180360000000002
14180 -2.1395021400000003 2.6773353900000005 -3.95792298 1.100503 -0.086069 2.184834
14200 -4.838242950000001 1.2614286599999998 -0.15837263999999998 -0.597797 1.385838 0.272854
14220 -6.00281748 6.8773005 -6.026616540000001 2.038106 4.330151 0.94445
14240 -0.73033488 13.05629577 1.1337417 0.426628 2.455878 0.5905600000000001
14260 2.7066672900000004 24.83021853 -1.5167927700000001 -2.336226 4.367624 -1.168118
14280 3.56199138 30.61104552 -4.05895617 -3.3677040000000003 5.667171 -1.582912
14300 -3.18552282 30.869852940000005 1.6566048900000003 -3.816538 3.360822 -2.783773
14320 -14.143037760000002 40.90438422000002 1.1183203800000001 -3.639553 -0.476131 -3.511489
14340 -12.979512900000001 22.485491190000005 0.8773279200000001 -1.810562 -5.4539800000000005 -3.810664
14360 -2.17272861 16.7510655 2.26239201 -3.152006 -10.277454 -2.141018
14380 12.801677220000002 22.182224849999997 7.5658644 -15.192638 -3.07262 0.208669
14400 9.796373910000002 17.26374591 4.678967790000001 -3.173655 11.7079 0.223475
14420 -7.01156997 2.29427451 8.424631799999998 1.354444 -1.954814 1.495726
14440 -7.30675287 -6.31387296 7.97107626 -1.666784 4.123432 -0.090634
14460 -2.71520199 -14.95165644 12.25127736 -1.696766 1.549582 -0.028793
14480 -0.8542744200000001 -17.31554271 16.764387480000003 0.018097 -3.514957 -0.660872
14500 -1.3216032000000002 -12.892988700000002 12.72968163 2.177586 -1.153168 -0.6862020000000001
14520 -0.8791231500000001 0.1041822 3.91810419 2.283773 0.293848 -0.073087
14540 2.37481461 9.80131815 -9.77991273 2.075237 -1.946569 0.409027
14560 13.33577286 38.29875993 -44.68941576 3.107097 -2.962924 0.068229
14580 9.421553430000001 14.018646960000002 -0.8559225 4.592046 -2.319434 -0.43497
14600 -1.6842985200000002 -1.89221166 17.86639383 5.650399 -0.927375 -0.223194
14620 -10.358457480000002 15.974780580000001 -2.78151759 4.622713 -0.926251 1.981914
14640 -12.48853221 13.279031820000002 10.25412813 4.273502 -0.887036 2.334074
14660 -13.87120266 7.187904720000001 11.75116356 4.7647080000000015 1.6386040000000002 1.675175
14680 -13.79605806 4.2647797800000005 8.458613640000001 3.100293 2.782315 -0.5096109999999999
14700 -13.72525929 15.79410981 9.417511710000001 2.1084110000000003 2.9694130000000003 1.510706
14720 -9.1103508 32.354616060000005 15.78033657 2.69513 -1.521001 1.071905
14740 0.8454454200000001 47.17365111 13.499972640000001 4.421885 -5.640523 0.400242
14760 22.19179941 49.50011223 -29.0482929 3.021992 -3.921011 0.242982
14780 0.01362609 26.959685040000004 -58.463626949999984 0.944598 -2.987278 -0.224583
14800 2.50549362 13.31585856 -12.97172376 -1.1054469999999998 -0.104736 -0.554517
14820 3.10873995 2.11240692 7.85955618 -3.081788 2.52533 -0.680651
14840 3.45421872 -6.82865271 -6.54858702 -3.952623 4.791437 -0.259144
14860 7.3575 -6.981178590000001 -13.1534442 -4.128851999999998 2.8321240000000003 -0.038879
14880 6.503529690000001 0.91894194 -5.62125753 -1.84238 0.471458 0.911607
14900 2.6158070700000002 1.8492536700000002 -3.6628872300000004 -0.211622 0.409102 0.972216
14920 -0.9630967500000001 1.5919373700000001 -4.53916548 -0.13364700000000002 1.631378 0.271509
14940 -1.04018373 5.74340184 -5.5468683 2.514303 5.889748 0.52383
14960 -0.6366297600000002 7.54550865 -4.3322922 0.787285 0.981915 1.247651
14980 3.9032812800000003 14.28703875 3.9413048400000004 -1.138731 1.727626 -0.813471
15000 4.22151768 31.21653834 -2.16779418 -1.853042 1.460952 -1.436619
15020 2.2356009 30.31405758 -1.9502966700000002 -3.4852480000000003 -2.091837 -2.660172
15040 -6.768625320000001 37.17848736 1.2337350300000003 -2.473343 -3.3767910000000003 -2.148325
15060 -15.66402921 36.54500661 -0.27078543 -1.837262 -4.407763 -2.7525150000000003
15080 -10.93116528 18.206339760000002 2.9532122100000002 -4.838066 -7.826459 -2.226439
15100 0.82628649 14.78460195 4.70501334 -11.581716 5.33642 -0.993589
15120 13.268858849999999 15.845602500000002 6.7555976399999995 -0.16561800000000002 1.786863 1.37456
15140 -1.8345877200000003 8.07779925 5.93156745 0.391737 -1.114374 0.7487149999999999
15160 -9.04673295 -1.2747506400000002 9.324405 -3.654668 4.3865300000000005 -0.491553
15180 -6.07227228 -11.45493099 12.66097239 -2.981277 2.119034 -0.6612680000000001
15200 -3.13658073 -16.74118683 15.86206368 -2.24759 -4.182496 -1.190725
15220 -1.8679613400000001 -16.20200961 16.48956033 0.4747270000000001 -4.398969 -0.8317379999999999
15240 -4.891825170000001 -2.82686922 0.0056898 2.177991 -2.06674 -0.263081
15260 -1.95178779 6.80335272 -11.805354000000001 2.656118 -0.088126 0.021871
15280 17.62360614 34.193843910000005 -34.05044133 3.3446830000000003 -0.93353 -0.680467
15300 9.95878827 18.72351315 -12.02194899 4.3751690000000005 -3.223875 -1.039939
15320 6.249656700000001 -3.0009574800000003 13.95338103 4.948112999999998 -1.879973 -0.8849040000000001
15340 -4.68046872 5.843100870000001 12.608881290000001 5.218916 1.539566 0.20967
15360 -14.1160995 24.022943820000005 7.00004322 6.143999 0.472494 1.985406
15380 -10.73582856 8.69871339 10.31071221 5.740238 -0.009693 3.037539
15400 -12.636869220000001 3.74356467 12.41054271 4.945655 2.005656 1.901364
15420 -11.35747845 11.20240197 14.60019357 4.018058 3.866653 0.05409
15440 -6.28782741 18.575323290000004 13.87299789 3.690592 -1.82032 1.00233
15460 -3.90014208 32.07364785 11.635150500000002 4.040553 -5.311644 1.069069
15480 11.65865526 46.924722360000004 -15.804429930000001 3.209175 -3.757732 0.539978
15500 0.8469365400000001 30.913860600000003 -39.617959680000006 0.826991 -2.281633 0.301393
15520 -0.28111536000000004 19.24622919 -8.37194229 -1.308066 -0.671262 -0.429156
15540 0.04699970999999999 5.326221780000001 3.0024584100000005 -3.201517 1.012026 -0.956217
15560 2.04969159 -0.61132977 -1.56978639 -3.654849 4.405141 -1.148534
15580 3.8692994400000003 -6.667131060000001 -12.50589591 -3.970958 4.5739269999999985 -0.1949
15600 7.456149360000001 -2.15012637 -12.056225130000001 -4.556131 1.256299 0.401332
15620 6.64812909 1.25648442 -10.55994507 2.253468 2.530708 3.466059
15640 -1.28522772 4.78779012 -8.02780749 -1.737328 1.80149 0.94482
15660 -4.59305181 7.184912669999999 -5.795502750000001 0.175715 5.019714 0.34624
15680 -3.7266522300000005 7.65702873 -5.40301446 1.247131 5.198826 0.712417
15700 -1.19930193 7.497008010000001 -3.63369267 -2.731109 1.524245 -1.850894
15720 2.85022683 13.795312500000001 3.88696725 -2.369915 3.637113 -2.003835
15740 5.25287241 27.03542805 2.19757734 -3.823112 -2.367064 -2.537198
15760 9.067844070000001 41.449408199999986 -6.57582939 -1.68715 -3.100897 -2.559793
15780 -3.68009397 39.71660904 -2.3540076 -1.615767 -4.59352 -2.844734
15800 -16.4066364 41.2789104 -1.2810388499999998 -6.449139 -8.667064 -1.870215
15820 -13.817620440000002 18.401087880000002 1.7751587400000002 -7.810539 3.254478 0.096165
15840 6.74317818 17.0573337 8.97923034 -0.459251 3.519635 1.736688
15860 19.740947490000003 16.65272025 6.75829539 -2.422747 3.1934400000000003 0.299451
15880 -11.114985060000002 -0.81430848 7.11799866 -3.596682 2.479632 -1.060203
15900 -11.10271275 -5.703592860000001 10.36025271 -2.194029 -1.642475 -1.071829
15920 -5.16336597 -12.929364180000002 12.255613380000002 -1.008414 -3.645334 -0.999024
15940 -2.2788630000000003 -14.50064169 17.247735990000002 1.190058 -2.031256 0.243788
15960 -4.40848647 -11.914176330000002 14.237488440000002 2.604526 0.171876 0.845844
15980 -5.44552119 -2.6617669200000003 3.5971700400000004 3.635792 -0.90124 0.580958
16000 0.22708187999999999 7.7089726800000005 -11.16228888 3.812169 -3.540345 0.000186
16020 19.244433960000002 39.8124135 -43.2597456 4.1702949999999985 -4.787299 -0.696468
16040 12.91469823 9.73275606 0.25162650000000003 4.628842 -0.807086 -1.179065
16060 2.1257289 -11.38577049 20.42068239 5.024091 2.172318 -0.680194
16080 -7.51212522 12.56756157 6.366415320000001 5.356244 0.921018 1.326645
16100 -14.552438490000002 24.9875415 13.722865650000001 4.595434 3.395446 0.973125
16120 -11.68844823 8.87804019 8.69871339 3.507309 4.651707 0.775907
16140 -10.19245266 10.388250450000001 13.437404460000002 3.171564 1.27795 1.605757
16160 -7.06081617 17.521513470000002 13.373188200000001 4.405485 -3.920635 0.547475
16180 -4.028574600000001 26.648188110000003 9.77632227 4.709262 -5.841599 0.35230100000000003
16200 2.83630644 41.865989850000005 -8.573272919999999 2.808005 -5.057663 0.428815
16220 5.44552119 36.26074224 -23.003861399999998 0.459941 -3.084309 0.217605
16240 -1.60376823 22.037468490000002 -17.0573337 -1.758854 0.215305 -0.369348
16260 0.33275520000000003 11.386673009999999 -1.56844242 -4.04219 3.521147 -0.5935630000000001
16280 0.7607164500000001 0.67779252 -1.82979063 -4.32534 5.148569 -0.534602
16300 6.45771699 -4.3382763 -9.92092167 -4.575568 3.823541000000001 0.170375
16320 11.15105643 1.8788896800000001 -13.141770300000001 -3.125267 2.332641 1.4536
16340 9.99427104 2.1794680800000004 -11.757746070000001 1.017485 -0.74873 1.473667
16360 -0.44202879000000006 2.6897548500000004 -7.57829367 -0.997925 3.5210550000000005 0.518356
16380 -5.58788391 1.7378905500000001 -3.78652266 0.986696 5.705728 1.246196
16400 -6.52328703 5.772743550000001 -3.93876405 -0.8021199999999999 0.389043 0.108198
16420 -4.336785180000001 9.293572170000001 -2.35056429 -3.1555470000000003 3.612413 -3.1362650000000003
16440 2.0041830000000003 19.107613890000003 0.3646377 -3.733326 3.101018 -2.088515
16460 5.846995440000001 31.49165979 -0.24803604 -3.584849 -0.830842 -2.501182
16480 0.30192237 34.581839220000006 -1.48581279 -2.025772 -5.147069 -2.854366
16500 -8.70768954 45.89456444999999 0.37706697 -1.597329 -8.448319 -2.96892
16520 -10.276730370000001 25.568332740000002 1.76453451 -11.068565 0.118346 -2.413667
16540 -1.97813745 19.743645240000003 1.06832862 -5.20385 6.9014570000000015 2.75889
16560 9.08520777 16.03705446 7.62125166 0.216094 -2.096826 2.297669
16580 12.9712725 15.34039731 5.64236865 -3.535654 0.772813 0.278756
16600 -8.16252822 -0.5830377300000001 7.23834774 -1.890955 -0.8797530000000001 -0.798292
16620 -8.52267294 -6.51879405 10.30980969 1.1337780000000002 -2.103735 -1.5596709999999998
16640 -5.156479350000001 -16.053064380000002 13.87943325 1.127903 -0.236533 -1.232024
16660 -3.81900357 -16.07462676 15.83407575 2.095419 1.3641 0.177395
16680 -4.285135530000001 -9.25570557 12.2883984 2.993242 0.234516 0.828183
16700 -2.185452180000001 2.4361859700000004 3.46619673 3.378688 -3.2131830000000003 0.8769540000000001
16720 2.22093495 11.252844990000002 -10.02539817 3.85967 -6.25169 0.013607
16740 14.28749001 35.86063158 -39.01501746 4.627665 -2.836961 -1.047217
16760 9.89098155 10.32837021 -2.5421633999999997 4.5766230000000006 0.537439 0.159466
16780 3.2584209300000007 -9.62258976 19.221527610000003 5.25941 1.500561 1.136151
16800 -9.537115230000001 10.50021198 6.8308992 4.761737 3.979255 1.351689
16820 -15.61538142 25.43031585 16.471294110000002 3.281534 4.944301 0.262277
16840 -15.8430519 7.6017886200000016 11.297608020000002 3.474129 1.51777 0.512636
16860 -12.755570220000001 10.105938270000001 10.06686504 2.99716 -0.29927600000000004 0.8470540000000001
16880 -6.354888570000001 16.40393865 11.137440150000002 5.231485 -6.3297360000000005 0.22625100000000006
16900 0.11496339000000001 30.070073070000003 13.574077380000002 3.441895 -4.185783 0.557107
16920 20.06846415 50.06997513000001 -16.01549208 1.345936 -3.23316 0.44297
16940 6.124363379999999 37.7128773 -24.668696880000002 -0.477915 -1.410054 -0.47689
16960 -1.91885562 21.816527670000003 -24.236998019999998 -2.609757 1.659716 -0.93689
16980 -3.1446641700000004 9.339532020000002 0.769104 -3.732365 4.141765 -1.018415
17000 -6.58765044 -0.50579379 -4.5229986 -4.387084 4.234863 -0.29030700000000004
17020 2.84812749 -3.9469946399999998 -11.710746360000002 -4.858431 3.051473 0.616973
17040 7.914345030000001 0.56911734 -12.17358216 -0.974888 1.317456 1.980531
17060 9.192234870000002 3.1177161 -11.215880910000001 -1.170937 1.7908130000000002 0.726599
17080 3.34449387 3.0514005 -1.31756148 -0.398629 5.570662 0.261406
17100 -1.5012243 1.1719124099999998 -1.2742993800000002 1.138497 4.246293 1.382654
17120 -5.6080925100000005 5.08986945 -9.7465293 -3.08633 -2.602563 -0.762774
17140 -2.68092585 11.87854641 -3.72156084 -1.542125 2.747354 -2.391086
17160 1.13912739 21.06120672 0.6590750400000001 -1.90993 -0.8727090000000001 -2.274717
17180 3.66961689 32.52616353 -0.13142457 -1.130254 -5.900468 -2.503178
17200 -4.65442317 34.98539319 0.55489284 -1.6789490000000002 -6.089715 -2.387127
17220 -13.686784470000003 39.915398880000005 0.039367530000000005 -3.272312 -7.279396 -1.331715
17240 -11.090881890000002 23.83149186 -2.9056042800000004 -10.149139 1.140529 0.102835
17260 0.036071370000000005 19.08411894 2.9970629100000004 -5.749122 5.633247 1.501545
17280 12.630433860000002 17.12304108 5.35032495 0.52465 0.141509 0.91895
17300 7.23131397 11.37035898 5.87498337 -1.525251 2.215913 0.221515
17320 -9.08805267 -3.2233992300000005 7.672293090000001 -2.3782970000000003 3.713372 -0.290563
17340 -6.4535281200000005 -9.52304769 9.76149936 -1.884687 -1.532193 -0.946964
17360 -2.8006765200000006 -15.23396862 14.8078026 0.7805880000000001 -4.750353 -0.869743
17380 -3.44104389 -13.94814249 14.29916391 2.591344 -2.603238 -0.189003
17400 -3.8440092600000004 -7.12293309 11.735447940000002 2.738315 -1.05663 -0.007293000000000002
17420 -0.15328125 3.02460939 4.40189415 2.757397 -1.5956860000000002 -0.283138
17440 2.42255988 9.63261558 -6.23498094 3.961952 -2.901469 -1.121219
17460 14.98174371 29.01686166 -33.62322564000001 4.384553 -1.475379 -1.142527
17480 9.767189160000001 11.712090330000002 1.10800026 4.531104 1.894394 0.250344
17500 0.46448388 -7.5365325 12.2969331 4.853448 0.663728 1.369397
17520 -8.24679612 9.78201207 3.5422340400000003 4.444354 2.361894 2.226418
17540 -11.190580920000002 21.773275380000005 13.097762640000001 3.171919 4.686587 1.134579
17560 -9.55418463 11.178004500000002 11.31152841 3.295985 2.796811 1.553405
17580 -8.27075214 12.35276181 10.227778470000002 2.43142 0.08684 2.013379
17600 -4.94661402 16.319808090000002 11.400446250000002 4.43131 -5.858844 1.175049
17620 -4.03500996 22.458700080000003 10.98056844 3.80911 -5.648393 0.235739
17640 0.23785326 33.44884308 -0.68183424 1.809943 -4.534035 0.35067
17660 7.0540767 39.22847325 -10.99972737 -0.311738 -1.473243 -0.004563
17680 -5.17743351 25.33930848 -34.635274290000005 -2.411221 1.186229 -0.7169800000000001
17700 -1.20678696 15.902029620000002 -6.2007048000000005 -3.544631 3.992539 -1.158986
17720 3.010689 4.334832990000001 1.3974933600000001 -3.845588 3.922739 -0.49336
17740 3.80209113 -2.74064913 -5.113668510000001 -4.101697 2.668331 0.404833
17760 6.30443574 -4.981939830000001 -16.1960157 0.288899 0.543851 2.270224
17780 8.44663563 -0.9425938500000001 -12.55394529 -0.769353 2.205609 0.810058
17800 4.07347497 1.0734200100000002 -3.7283003100000003 1.791821 4.8698169999999985 0.732667
17820 -2.65009302 1.52458191 -1.6919307000000001 3.455442 4.141584 -0.545192
17840 -6.66159822 5.93081208 -8.61623091 0.342447 3.495582 -1.729402
17860 -4.067196570000001 7.87722399 -3.2563314 -5.446193 -0.908922 -2.673249
17880 1.5437408400000001 15.127991190000001 2.7238838400000005 -5.282022 0.254938 -2.427902
17900 6.12226404 29.79927783 1.42143957 -2.701525 -1.366587 -3.022027
17920 4.299360030000001 30.541443570000002 -3.0855294900000003 -1.4240270000000002 -4.78236 -3.20528
17940 -5.19539562 35.17310754 -1.0479728700000002 -8.065622 -10.64552 -1.209196
17960 -12.36159081 33.7881906 0.45025938000000004 -10.554108 12.16327 0.104041
17980 -5.99578371 20.59342668 -2.85231636 1.0275459999999998 -1.302497 2.484985
18000 4.25250747 17.71356384 5.013822330000001 0.06311599999999999 -1.567766 1.727628
18020 17.09819235 16.363070190000002 6.39964179 -3.945224 4.411619 -0.386792
18040 -3.4124575500000005 4.67463177 5.489538659999999 -2.113517 -2.294285 -0.6442100000000001
18060 -10.363401719999999 -2.3077534500000003 6.64153677 0.945086 -6.310722 -0.8110470000000001
18080 -7.397465940000001 -10.141107120000001 9.3967047 1.727805 -1.0333290000000002 -0.428851
18100 -2.8059150600000002 -15.30432594 15.16242429 3.069861 2.301723 0.08686
18120 -2.8726721100000003 -14.127018030000002 15.64411491 3.553022 1.343549 0.589254
18140 -3.78532584 -4.76339265 7.475151330000001 2.886823 -3.395381 -0.018213
18160 -2.07588429 6.27046371 -2.8472249700000005 3.476282 -5.8757519999999985 -0.95843
18180 8.78687586 26.02174113 -38.79542061 4.109797 -2.258684 -1.088963
18200 12.88999665 22.04690571 -19.19982789 4.879571 0.867267 0.264777
18220 -3.3870104100000007 18.21516876 0.10612458 4.926449 1.840095 1.496586
18240 -9.27875907 12.386596500000001 20.68158915 3.4656830000000003 5.371713 0.310017
18260 -11.948452470000003 7.914188070000001 9.9457704 2.797036 4.608904 0.906665
18280 -16.935777990000002 0.90591426 22.15677771 2.7824150000000003 1.072534 1.099101
18300 -13.16556936 9.06559758 15.58139958 2.208227 -2.209837 1.6601130000000002
18320 -7.4206665900000015 19.25805024 11.85145119 4.402691 -4.736691 0.829443
18340 -3.8377210500000003 29.554989210000002 12.996121230000002 3.213484 -5.064321 0.410291
18360 8.76577455 50.18912739 -5.41559088 1.238777 -3.317135 0.224412
18380 16.80690402 44.92622916 -23.02736616 -0.6919930000000001 -0.61568 -0.477267
18400 -3.3151521600000002 18.70660071 -33.00322383 -2.828052 2.951651 -0.686902
18420 1.20230379 7.666161840000001 -1.1374891200000001 -3.587187 4.499 -0.437814
18440 0.03248091 0.6813829800000001 5.38160904 -4.0762730000000005 3.2025 0.266525
18460 -0.15148602000000003 -7.00528176 -10.85498082 -2.948907 1.969564 1.25554
18480 8.124053400000001 0.6159699000000001 -17.64680679 -0.13107 1.232857 2.158518
18500 7.44267042 4.30295049 -12.629688300000002 -0.793239 4.015366 0.335418
18520 -0.74514798 1.4245885800000002 -1.06787736 1.171416 2.185273 1.0159200000000002
18540 -3.8416156200000002 1.93547376 -2.0839677300000004 -0.3823 -0.055766 -1.172302
18560 -4.1835039300000005 3.99758481 -4.9135347 -0.595338 5.6806480000000015 -3.3581769999999995
18580 -2.2043168100000003 7.98724314 -1.91631483 -4.198392 1.134261 -2.419324
18600 1.57936095 21.24771444 -1.12116528 -3.443171 -2.867457 -1.873741
18620 5.9600066400000005 30.52497258 -1.66648356 -2.481777 -3.699217 -2.495143
18640 0.34533162 26.38802691 0.01571562 -2.934084 -6.415425 -1.898754
18660 -9.38892537 40.724164710000004 2.1442894200000007 -9.354605 -2.120699 -0.4803
18680 -12.602445930000002 26.66255976 -1.13239773 -4.804343 6.287139 1.794658
18700 -3.4215808500000002 16.94969838 1.18494009 -0.356595 -0.8773620000000001 1.798587
18720 7.1699426100000005 15.508501470000002 6.23812995 -1.734388 0.789159 0.224019
18740 17.26644366 17.77119759 5.130728100000001 -3.26805 1.970516 -1.099984
18760 -4.92101973 5.16949722 5.996078010000001 -1.340293 -1.316655 -1.50639
18780 -9.47065248 -2.38349646 8.73059589 -0.4421229999999999 -2.528798 -1.255009
18800 -6.9091830000000005 -11.40463512 10.20203703 0.542249 -0.760042 -0.344547
18820 -3.38476392 -16.570394730000004 15.12454788 2.03266 -0.127801 -0.171509
18840 -4.38318648 -15.50415564 11.548332 2.67615 -1.275018 0.31408800000000003
18860 -1.6531615800000001 -1.7033103 4.6505286 3.331268 -3.229685 0.250666
18880 0.42197715 6.41610297 -4.81294296 4.4243260000000015 -2.55342 -0.383499
18900 12.01506237 20.672907300000002 -37.08478224 4.743115 -0.538401 0.259216
18920 11.36048031 15.406261650000001 -5.56019028 4.3575089999999985 -1.462013 0.8633879999999999
18940 -3.0496052700000003 -1.21996179 10.070014050000001 4.223392 -1.157823 1.099206
18960 -14.953902930000002 18.98082945 -10.419534539999999 4.138715 2.7145080000000004 -0.171122
18980 -11.534568570000001 22.319633520000004 16.88368689 3.800071 3.732467 0.233269
19000 -12.89463678 11.3396733 15.821352180000002 3.841324 1.453951 0.170247
19020 -10.783720980000002 12.549756420000001 12.302613090000001 2.400241 0.70538 0.540359
19040 -4.3872282 17.2805112 12.25008054 4.093428 -3.842785 0.264253
19060 -0.92702538 22.13776593 9.039100770000001 3.218331 -4.273809 0.120892
19080 8.151894180000001 34.45265133 -10.387495079999999 1.291177 -2.496427 0.06776499999999999
19100 14.53327956 37.40152752 -13.04148267 -1.103539 0.155002 -0.242916
19120 -5.17833603 22.26095991 -27.415035810000003 -3.0522970000000003 3.016022 -0.34031100000000003
19140 -3.92004657 14.005177830000001 -5.903873820000001 -3.533975 3.5504870000000004 -0.6455989999999999
19160 -0.52750332 4.59200214 -0.36628578000000006 -3.905863 2.473799 -0.400057
19180 -0.0230535 -2.4760047600000004 -5.07160323 -3.825832 2.089043 0.6425109999999999
19200 5.9579073000000005 -4.52673621 -11.800861020000001 0.6453770000000001 0.990369 2.451604
