time Ax Ay Az Gx Gy Gz
20 11.58829794 3.32743428 -1.94879574 1.5873959999999998 0.303337 0.820412
40 7.083565560000001 5.80029003 1.7850374100000002 2.047198 -0.144421 1.571952
60 5.9938315200000005 13.97628738 0.79859286 2.724889 -0.798771 1.585002
80 2.5312350600000006 25.90558092 -0.41179437 3.584842 -0.7677689999999999 1.611265
100 -3.3403050000000003 15.564035879999999 -0.31000581 4.315293 -0.868246 1.5962
120 -1.5444864 11.922112620000002 -4.737199950000001 5.560674 -1.43535 1.676129
140 -3.62366685 13.71657744 -2.13096744 7.194942 -2.150068 0.772994
160 -2.5084856700000002 8.28960696 -0.8994789 5.496091000000002 -2.201134 2.226793
180 1.4835663000000001 2.36104137 1.6515135 3.508802 -0.700078 1.26668
200 3.58549614 -0.76401261 -0.7908037200000001 1.262828 0.607812 1.415959
220 3.62022354 -1.6835529600000003 -0.8767295100000001 0.115032 1.422344 1.712409
240 3.81032172 0.25791471 -1.3052891699999998 -1.378387 0.200804 1.858435
260 2.50413984 2.78436249 -1.02761712 -2.087386 -1.87723 1.328444
280 0.65787822 5.23955043 2.0562741 -2.45749 -0.507919 1.0089780000000002
300 -2.84064246 9.848621970000002 -2.4772015800000005 -1.1507690000000002 1.350225 0.068212
320 0.16076628 33.067881539999995 -5.01396948 -0.232922 0.042509 -0.837031
340 -2.32122258 33.18359049 -1.0548594900000001 -0.315384 -0.475143 -1.04952
360 -9.43128495 15.20927685 -8.41804929 -0.778432 0.320923 -0.724762
380 -5.748650189999999 15.268097610000002 -11.828554650000001 -1.159284 1.6120139999999998 -0.389382
400 -0.51477975 16.60242438 -8.5228299 -1.351082 2.7266220000000003 -0.039637
420 1.47892617 14.765590170000001 -8.2598238 -0.93274 4.605565 -0.08505599999999999
440 2.26449135 7.063062660000001 -6.77326545 0.911719 3.216829 -0.713462
460 4.7894382 -2.7644481900000004 -7.79608548 0.052914 3.900031 -2.1880740000000003
480 7.775278470000001 -4.30205778 -3.6359391600000004 -1.901289 2.721352 -2.503588
500 -0.34368354000000007 -0.84798621 0.60354063 -2.446811 1.314393 -0.50268
520 -1.2494506500000002 -3.14196642 1.8086893200000003 -3.497326 1.1961389999999998 -1.187119
540 -1.58999499 -2.9370453300000006 2.3096958300000003 -3.678816 0.218091 -2.861037
560 -1.88981802 -1.3671117899999998 2.00552697 -3.932477 -0.331568 -3.711341
580 -2.306850930000001 0.21001248 0.91504737 -3.109469 -2.1026990000000003 -3.199122
600 -3.41559675 1.1846359800000001 3.5874385200000005 -3.4013410000000004 -2.735106 -2.506006
620 -4.615349940000001 6.715337399999999 -4.10925204 -2.203544 -1.494586 -2.613529
640 -6.407578080000001 23.741524350000002 -2.55473982 -1.215966 0.15661 -1.34504
660 -4.92042132 37.97543214 -1.81273104 0.225176 0.8759610000000001 -0.8028529999999999
680 10.30397274 14.978604510000002 -5.38355142 0.922512 0.415256 -0.216279
700 14.216681430000001 5.407203330000001 -2.67389208 1.5246110000000002 0.607038 0.850562
720 12.36787902 8.071668 -0.24069816 2.340712 0.057209 1.510719
740 11.23308765 12.772639620000001 -2.0420496000000004 3.083091 -0.8639190000000001 1.582247
760 6.389910270000001 24.08985783 -0.6712002000000001 3.666912 -0.984462 1.6505720000000002
780 -0.11884815000000001 16.93413972 -0.65084445 4.608468 -1.58191 2.122591
800 -1.2088863 11.53261638 -3.3072256800000006 6.570887 -2.576887 1.756219
820 -4.187545650000001 13.883631930000002 -2.42975061 6.215346 -3.527501 1.096929
840 -4.48586775 9.40703463 1.13448726 4.706476 -0.485223 1.110264
860 -0.6215027399999999 3.9163089600000003 2.19099483 2.295796 0.396682 1.637089
880 3.4937334000000004 -0.7813763100000001 -1.51635132 1.195792 1.783578 2.080554
900 4.46746419 -2.215392300000001 -4.025876850000001 0.10036 1.430276 2.138517
920 3.8293335 1.0105477200000001 -0.71955369 -0.8669520000000001 -1.648968 2.06093
940 3.0190765500000003 3.19376322 2.76684183 -1.417669 -1.7227860000000002 1.551909
960 -1.28597328 7.3575 -0.36434340000000004 -1.46699 -0.271517 0.4398220000000001
980 1.336122 17.36359209 -3.63713598 -0.365827 0.115636 -0.627613
1000 0.34219242000000005 38.2798953 0.6360313500000001 -0.368339 -0.790572 -0.976846
1020 -6.083946180000001 25.87504239 1.4022806400000003 -1.159282 -0.027642 -0.606266
1040 -11.05211277 17.132174190000004 -9.468710100000001 -1.523359 1.569649 -0.135498
1060 -4.1216813100000005 16.41067812 -8.19695151 -1.571491 2.695105 0.307104
1080 -3.4190400600000004 16.15994433 -5.58578457 -1.55896 3.700323000000001 0.66269
1100 -0.11765133000000001 13.081899869999999 -5.620511970000001 -0.6719579999999999 4.495897 -0.058525
1120 3.6786028500000003 6.79137471 -4.83075792 2.05656 2.387047 -0.125426
1140 5.25991599 -1.1596401 -5.06337264 -0.585253 3.237474 -3.774787
1160 4.3905243600000015 -4.902007950000001 -0.14235291 -1.774578 0.725407 -1.112525
1180 -0.87448302 -4.00312746 0.42676443000000003 -2.884872 0.97052 -0.7082609999999999
1200 -1.96496262 -4.72627161 0.5502527100000001 -3.739463 -0.006048 -2.168966
1220 -1.46275929 -3.45675951 2.0697432300000003 -3.995681 -0.555231 -3.4017120000000003
1240 -2.01675942 -2.05253649 1.4894032499999998 -3.418207 -1.876324 -3.5978790000000003
1260 -1.6262135100000001 -0.58528422 0.31658832000000003 -3.552181 -2.877122 -2.558152
1280 -2.82717333 -0.63512883 3.2379180300000003 -2.868211 -2.179477 -2.590588
1300 -5.028046830000001 3.89669877 -5.17308768 -1.734075 -0.335554 -1.693064
1320 -5.41184346 23.732096940000005 -5.9959308600000005 -0.329181 0.972695 -0.8036439999999999
1340 -2.04624828 48.86108883000001 2.5854255000000004 0.973794 1.028076 -0.332074
1360 12.75632559 15.201036450000002 -5.01456789 1.340909 0.8513120000000001 0.662027
1380 14.756908319999999 4.20251571 -3.6051063300000004 2.0517380000000003 0.498557 1.680119
1400 10.80408654 8.089031700000001 0.49651353 2.9858990000000003 -0.76171 1.946769
1420 8.92249911 11.784988440000001 0.28455867 3.846886 -1.318319 1.86697
1440 3.7829322000000003 25.138429110000004 -0.9276237900000001 4.665099 -1.993482 2.167311
1460 -2.7482813100000003 15.912359550000001 -1.28477646 6.48106 -2.801257 2.5314080000000003
1480 -2.79049374 10.73238525 -2.8853956800000002 7.042663 -4.139806 0.855665
1500 -5.50449891 13.25463435 -1.30678029 6.261364 -2.670461 1.449733
1520 -3.46993434 8.621616600000001 2.17288557 3.369012 -0.671922 1.539132
1540 1.79746668 2.09519037 1.84566321 1.751698 0.413548 1.886435
1560 4.78554363 -1.3305793499999998 -2.1489295500000005 0.348465 0.983364 1.797923
1580 5.34657753 -1.17939744 -4.906196820000001 -0.988849 -1.177076 1.6407310000000002
1600 5.15273193 1.59418386 -0.60025428 -2.160007 -1.597047 1.387398
1620 2.91324627 4.66923627 3.31650594 -2.52262 -0.461161 0.8279340000000001
1640 -1.7453657700000003 9.07682022 -1.4088729600000003 -1.076139 0.395344 -0.163984
1660 3.505113 25.258474080000003 -1.8236593800000003 -0.524187 -0.548196 -0.715463
1680 1.21981464 40.382874810000004 1.8794880900000002 -0.876201 -0.374929 -0.31756100000000004
1700 -6.42059595 21.609958500000005 -3.2154629399999997 -1.169114 1.011752 0.01297
1720 -8.539143930000002 16.29885393 -12.321772020000001 -1.051739 2.564124 0.377132
1740 -3.58758567 18.40093092 -8.538398370000001 -0.042285 4.2928510000000015 0.887237
1760 -2.183509800000001 15.315254280000001 -7.67049786 0.386302 3.322832 0.936339
1780 0.11331531000000002 10.156234140000002 -4.91982291 0.357872 2.8996 -0.289636
1800 1.7592959700000002 0.19279593 -7.19628246 -2.0954490000000003 4.154038 -4.170001999999998
1820 2.71924371 -4.483179810000001 -3.46603977 -2.76478 0.8685649999999999 -1.421932
1840 1.8835298100000002 -6.762189960000001 -0.57794634 -3.630256 1.89458 -1.775396
1860 -2.6551746 -5.1126188400000006 0.19264878 -3.974461 1.633629 -3.083902
1880 -0.52810173 -4.38378489 1.61319564 -3.751818 -0.64063 -4.100651999999998
1900 0.09805095000000001 -2.17976238 2.22497667 -3.799472 -1.511093 -2.430239
1920 -0.5935148100000001 0.2817137700000001 1.6983660600000001 -3.421103 -1.588183 -2.66037
1940 -2.0446002 3.6763563599999998 1.9441556100000001 -2.150894 -1.115658 -2.315613
1960 -2.53183347 9.70806429 -6.46909659 -1.899357 -0.024029 -1.3997879999999998
1980 -4.50009225 14.88354561 -4.60502001 -0.737722 0.921133 -0.874798
2000 -6.474786389999999 40.6515609 0.31120263000000004 0.33765500000000004 0.364057 -0.225639
2020 7.419018510000001 14.47310502 -1.0115973900000002 1.027404 -0.060435 0.901356
2040 10.164611879999999 4.19218578 1.2948120900000002 2.154589 -0.12803399999999998 1.909171
2060 8.461752839999999 8.44873497 2.49246594 3.153919 -1.0661200000000002 2.002812
2080 12.025098 23.136188490000002 -1.5976271700000002 3.980594 -1.2717889999999998 1.836866
2100 8.8669647 27.976972230000005 -2.9147373900000004 4.787281 -1.645617 1.915619
2120 -1.41650514 10.884911129999999 -3.1988448000000007 7.139987 -2.619733 1.854252
2140 -0.73885977 11.53756062 -3.20214096 6.773039 -3.07167 0.906892
2160 -2.17796715 13.44639042 -3.2964444900000003 5.808026 -0.8348780000000001 2.079807
2180 -1.1332904400000001 9.68126337 -1.3216032000000002 2.950635 1.09732 1.680289
2200 2.19293721 2.91203964 2.3659758 1.893105 2.258956 1.942742
2220 4.6969299 -1.38491694 0.32572143000000003 0.730317 1.7436459999999998 2.346546
2240 4.38902343 -2.4548936400000003 -3.27429351 -0.455675 -1.698625 2.134369
2260 3.6160346700000003 0.91954035 -2.5752427200000003 -1.570208 -2.147368 1.834467
2280 2.7596609100000005 3.1702584600000003 0.16046217000000002 -2.417078 -0.8790899999999999 1.619691
2300 -0.42646032 7.49760642 1.4691946500000002 -0.998898 0.627814 -0.024873
2320 -1.64717748 16.595537760000003 -4.95604143 -0.358318 -0.261962 -0.777696
2340 1.08748755 47.33202375 1.06443405 -0.934486 -0.16451400000000002 -0.6718189999999999
2360 -5.147493389999999 23.865169590000004 0.18741024 -1.321984 1.344731 -0.5397270000000001
2380 -12.591370440000002 18.34315983 -8.47313244 -1.38561 2.21181 -0.47078
2400 -4.84303023 16.99431426 -6.7379396400000005 -1.450229 2.6379080000000004 -0.14597000000000002
2420 -1.54613448 16.93158912 -5.811365520000001 -1.637975 4.457333 -0.232934
2440 0.6192660600000001 14.72413311 -5.635482030000001 1.326836 2.9702740000000003 -1.219789
2460 2.63871342 4.507724430000001 -6.91442154 -0.586932 2.425403 -1.828526
2480 4.217780070000001 -2.72987775 -6.60171798 -2.475782 3.175398 -3.129888
2500 5.6118301200000005 -6.86457693 -1.28836692 -2.612882 0.5523520000000001 0.7971630000000001
2520 -3.5146875600000005 -3.6250108200000004 -0.8665467300000002 -3.743437 0.69917 -0.570769
2540 -3.0159275400000007 -5.43968424 1.7095985100000002 -3.389883 0.614572 -2.894778
2560 -1.7486619300000001 -5.997726090000001 3.86256978 -3.697631 -0.122297 -3.767653
2580 -2.2065633 -3.48026427 2.4424741800000005 -2.928095 -2.036593 -3.370992
2600 -1.0065060000000001 -0.09520605 0.09520605 -3.565488 -2.135259 -2.654268
2620 -0.8415508500000001 0.21644784 2.44456371 -2.219488 -0.63327 -2.476943
2640 -4.25176191 3.04572051 -0.19429686000000002 -1.139791 1.7837599999999998 -0.997284
2660 -2.42495352 19.586175120000004 -4.571646390000001 0.476017 1.670734 -0.50729
2680 -9.78529842 55.87909416 1.1394315000000002 0.966994 0.830723 0.274882
2700 11.202706080000002 17.47016793 -2.04385464 2.007467 0.460994 1.521761
2720 13.29175539 2.76729309 -3.7504512900000004 2.996843 -0.538801 1.870716
2740 11.10331116 6.080051610000001 0.5783976000000002 3.734002 -1.009099 1.892491
2760 10.13167971 12.93684921 0.12020193000000001 4.559982 -1.444345 2.128486
2780 6.2035497 20.13597657 -1.02970665 5.967215 -1.7958470000000002 2.49662
2800 -1.9699068600000003 20.18761641 -0.13756563000000002 7.078755 -2.3222970000000003 1.053345
2820 -3.97258893 12.028237200000001 -2.89318482 6.035974 -2.329344 1.853646
2840 -4.798571310000001 15.153438330000002 -3.27503907 3.840844 -1.248169 1.379729
2860 -2.9361428100000007 11.0305602 -0.19205037000000003 2.711779 -0.254923 1.723083
2880 2.4266016 3.3172515000000002 1.42623666 1.951376 0.5423399999999999 1.74025
2900 5.85192987 -0.87747507 -1.3665035700000001 0.423656 -1.368659 1.706391
2920 5.297782590000001 -2.71475073 -3.1985505 -1.263713 -1.967171 0.995686
2940 4.81892706 -0.34578288 -0.27692649 -2.477232 -1.2305469999999998 1.118725
2960 2.26733625 3.7778408100000003 1.78833357 -2.009323 -0.16183599999999998 0.387824
2980 -2.22122925 8.76113442 -1.61663895 -0.665404 0.358779 -0.433465
3000 3.13103808 25.58509803 -5.466181050000001 -0.641355 -0.19961 -0.408012
3020 -0.9662359500000001 45.01977732000001 0.58019283 -1.2396280000000002 0.901564 -0.076044
3040 -4.9991563800000005 19.855008360000003 -2.81145771 -1.655929 2.308104 0.190574
3060 -6.1689694500000005 15.875689770000001 -7.7387558400000005 -1.727263 3.307621 0.446237
3080 -2.41507485 18.02730726 -5.9633028 -2.65728 3.827618 0.41771
3100 1.9832288400000002 14.742693630000002 -9.01335933 -1.79203 4.3851239999999985 -0.68898
3120 1.5682854600000002 11.8574451 -6.90214923 2.709181 3.007498 -1.337299
3140 1.4534790300000002 0.18142614 -7.422020370000001 -2.778021 2.522594 -3.718685
3160 3.2497390800000003 -2.92760811 -4.935832830000001 -1.672378 1.8789 -0.618703
3180 1.24211277 -6.32853891 -0.72509634 -3.286788 -0.8236290000000001 0.7600359999999999
3200 -4.597534980000001 -4.27840587 -0.6408186300000001 -2.926511 0.363635 -1.550602
3220 -2.21045787 -6.080355720000001 1.5732297000000002 -3.09513 1.6060370000000002 -3.871413
3240 -1.17026433 -5.32846827 3.1537874700000006 -3.393562 -0.179799 -4.302771
3260 -0.40550616000000006 -3.20364189 1.17011718 -3.100229 -2.197593 -3.4521040000000003
3280 0.512082 0.11511054 0.21899844000000002 -4.026959 -2.4353860000000003 -2.590877
3300 -1.58041062 -0.9710330400000001 0.90770949 -2.148488 -0.13761500000000002 -2.347828
3320 -5.00873094 -1.1439244800000001 6.54558516 -0.612219 1.657419 -0.7627010000000001
3340 -3.98890296 17.30595834 -5.250331620000001 0.784 1.826382 -0.271397
3360 -5.77678527 57.528665280000006 0.63962181 1.063362 0.8319780000000001 0.676137
3380 13.27484295 23.203700910000002 2.8747714500000003 2.1640330000000003 0.202606 1.799855
3400 12.748536450000003 2.04445305 -6.039045810000001 3.068694 -0.8654 1.698584
3420 10.40381892 1.40138793 -1.54269117 3.848842 -1.229359 1.996124
3440 7.62034914 9.72677196 -0.07155414 4.941202 -1.541698 2.43358
3460 6.00356304 16.830850230000003 1.00800693 7.259613000000001 -2.39817 2.286366
3480 -0.92686842 24.06096738 3.74610546 7.231495 -3.5835510000000004 1.178874
3500 -1.8256017600000003 14.944622670000001 -1.1020063500000001 5.992718 -1.82511 1.535436
3520 -2.27796048 14.414725709999999 -4.51551357 4.013366 -0.54593 1.440922
3540 -4.830002550000001 12.61172619 -2.1921916500000003 3.29043 0.863405 1.806876
3560 -0.17782587000000002 5.75403588 0.6116240700000001 1.400233 1.089891 1.95148
3580 5.59431927 0.49607208 -1.07910981 -0.013884 -2.773588 1.510718
3600 5.82289227 -2.9457271800000004 -2.72493351 -2.282318 -2.745865 1.339946
3620 5.0687583300000005 -0.58498011 -0.033383430000000006 -3.5043900000000003 -1.77295 0.988332
3640 3.3479371800000006 3.6702153 2.0348686800000007 -2.244968 -0.451718 -0.174267
3660 -0.71506071 9.67453371 -1.43640963 -0.8615120000000001 0.046751 -0.554075
3680 5.24883069 25.033942800000002 -3.9739329000000003 -0.735919 0.026106 -0.029743
3700 1.8356373900000003 42.38540973 0.98988786 -1.197452 1.029353 0.164437
3720 -5.970630870000001 21.389321790000004 0.05972328000000001 -1.558441 2.233852 0.026844
3740 -7.17263055 15.744108240000001 -9.21364029 -1.47963 2.848727 0.437872
3760 -2.3185248300000003 17.763859710000002 -8.10983871 -1.956656 4.20675 0.6357619999999999
3780 0.23875578 17.15312835 -9.938138219999999 -1.329924 5.347773 -0.466932
3800 1.2578382000000001 14.984588610000001 -7.388038530000001 2.9915380000000003 3.073359 -0.47122
3820 0.9307629900000001 0.82089099 -6.655761270000001 -3.164227 3.424923 -4.724531
3840 3.54926781 -7.06605471 -5.78381904 -1.855849 1.934957 -0.093423
3860 3.4188929100000003 -9.617498370000002 -1.85898519 -2.902414 0.679555 -0.656736
3880 -3.3453963900000003 -6.014197080000001 -0.9892894500000001 -3.029904 0.595893 -2.532249
3900 -3.3620047200000003 -6.12301941 1.85179446 -3.3068800000000005 0.6285109999999999 -3.78725
3920 -1.40811759 -3.5997108300000003 3.6037525500000003 -3.286471 -0.753161 -3.5364410000000004
3940 -2.86175358 -1.92693906 1.83353805 -3.69289 -2.190383 -2.6112900000000003
3960 -1.20903345 0.84124674 -0.19788732 -3.031427 -1.7090869999999998 -2.599809
3980 0.36823797 2.0254412700000004 1.49733954 -1.568 0.444011 -1.782633
4000 -4.28034825 3.2437549800000003 6.56160489 -0.489746 1.800877 -1.046177
4020 -1.54747845 15.73183593 -6.20175447 0.627313 1.324249 -0.57095
4040 -13.413752550000002 53.026777800000005 -1.35513378 1.072233 0.36244 0.606298
4060 8.68748094 22.54805937 3.67425702 2.2203060000000003 -0.163769 1.731283
4080 14.69209365 7.88710266 -5.480258399999999 3.233452 -0.993728 1.94559
4100 11.546242470000001 3.9686943600000006 0.034874550000000004 4.034896 -1.283637 2.088292
4120 7.55149275 10.84929102 0.64560591 4.899272 -1.875947 2.408078
4140 8.522525790000001 16.457226570000003 -1.46694816 6.872536 -2.678544 2.672854
4160 1.37862873 24.850868580000004 0.78436836 7.117635000000001 -2.692193 0.814809
4180 -2.9536536600000005 13.291608240000002 -2.0838205800000003 6.113201 -0.929265 1.976305
4200 -1.39450131 11.9069856 -6.86442978 4.136647 -0.046209 1.573603
4220 -3.56498343 13.375885949999999 -3.20947884 3.076892 0.817429 2.034043
4240 0.61686261 6.2903682000000005 2.0993890500000005 1.530335 0.622873 2.211497
4260 5.634432360000001 -0.47017368 1.0008162 -0.795859 -1.838529 1.7187709999999998
4280 6.10295796 -3.78667962 -1.8805377600000002 -2.515809 -1.6641860000000002 1.436273
4300 5.50016289 -1.6259192100000002 -2.51238024 -3.255117 -1.116658 1.018074
4320 3.32727732 1.72770777 1.9486485900000001 -1.634359 -0.0017579999999999998 -0.274196
4340 -1.7407256400000002 7.166195190000001 -0.80113365 -0.465927 -0.389839 -0.939586
4360 -1.17356049 11.03565159 -4.79543211 -0.746061 -0.459327 -0.635942
4380 1.6833960000000001 40.648568850000004 -0.76296294 -1.6947450000000002 1.040302 -0.277022
4400 -6.374793060000001 31.26638295 2.09219832 -1.926195 2.2140880000000003 -0.30578
4420 -7.8321666599999995 15.004797210000001 -7.689362490000001 -1.344429 2.814996 0.231625
4440 -3.33207441 18.34824141 -9.49101804 -0.7182189999999999 4.805636 0.577415
4460 2.3842420200000003 19.75965516 -10.16251254 0.206599 4.974886 0.075185
4480 2.68781247 17.7140151 -8.737629660000001 1.090586 3.774373 -1.501275
4500 2.1356075700000003 5.19000993 -6.195319110000001 -1.696525 2.676336 -1.814166
4520 3.3048320400000004 -5.5263555900000005 -6.817273110000001 -2.239488 1.41573 -0.716074
4540 2.4905235600000006 -7.53383475 -4.20594921 -2.818016 1.351276 -1.6771599999999998
4560 -1.74717081 -6.03709362 -0.39188987999999997 -3.160831 0.110677 -3.088017
4580 -3.42562257 -7.205415570000001 2.67598161 -3.904159 -0.28977 -3.798791000000001
4600 -1.99445148 -6.8632231500000005 4.59229644 -3.625948 -1.989703 -3.303287
4620 -2.3742162 -1.6154421300000001 2.9554587 -4.060631 -2.336068 -2.3572990000000003
4640 -2.21314581 1.6789128300000002 0.12888378 -2.512052 -1.66969 -2.51291
4660 -0.016765290000000002 3.91002075 0.56462436 -1.494167 -0.241975 -1.327244
4680 -1.89969669 6.01224489 4.593797370000002 -0.245061 0.753689 -0.98651
4700 -3.44957859 16.53806097 -7.22727225 0.72045 0.6656529999999999 -0.587616
4720 -12.079582740000001 51.991381350000005 -4.90634397 1.62457 0.4311140000000001 0.270373
4740 8.256380490000002 16.35588927 1.69881732 2.265295 -0.326316 1.05028
4760 13.208233050000002 7.51183092 -3.9788771400000003 3.029484 -1.099509 1.403781
4780 11.710147950000001 5.32502496 0.48229884 3.76081 -1.102549 1.529602
4800 7.291635660000001 8.79062328 1.7069007600000001 4.255221 -1.320208 1.453218
4820 8.6529105 13.63394781 -0.74769858 5.295517 -1.641832 1.594424
4840 5.10618348 23.66039565 0.4263131700000001 7.9734479999999985 -2.691722 1.020544
4860 -0.22887711000000002 15.288904620000002 -1.70180937 5.9012 -2.536924 2.199075
4880 -2.2546126800000006 11.327548140000001 -6.368053590000001 4.104606 -0.558048 2.259833
4900 -5.36544216 13.890518550000001 -3.33386964 1.837413 0.951177 1.629972
4920 -1.28702295 7.415428050000001 0.61192818 0.712581 1.266722 2.015884
4940 2.97266544 1.0057604400000002 1.1832920100000002 -0.806646 -0.262491 2.136487
4960 4.76114616 -2.9615899500000005 -0.9035206200000001 -1.608653 -2.714686 1.749467
4980 4.86862452 -0.99662733 -1.1394315000000002 -1.681559 -1.16645 1.714927
5000 3.11981544 1.30558347 -2.15282412 -1.5209290000000002 0.679425 0.573891
5020 1.1762582400000001 2.5361793000000006 -2.12737698 -0.766696 0.6497930000000001 -0.393953
5040 0.6620769 4.31402598 4.3263081 -0.778604 -0.5214489999999999 -1.055901
5060 -3.0916705500000004 11.05196562 -1.2763987199999998 -1.139787 0.274718 -0.8447309999999999
5080 3.0049992 41.804618489999996 -3.31710435 -1.226501 1.779883 -0.220219
5100 0.30491442 34.76805264 0.00703377 -1.266761 2.601382 0.304012
5120 -10.91649933 13.25374164 -9.05062752 -1.6453060000000002 3.486473 0.669838
5140 -5.880820320000001 14.002627230000002 -11.55566988 -1.007288 4.509501 0.02671
5160 -0.67284828 16.8438681 -7.81135965 2.987375 1.573971 -0.331527
5180 0.7331797800000001 15.27094251 -8.49064329 -3.0807130000000003 3.712103 -5.217835
5200 1.02312414 6.012549 -4.79288151 -1.964866 1.660907 0.867567
5220 4.81279581 -4.20954948 -3.239262 -3.687216 0.467714 -0.014604
5240 1.7025549300000002 -6.04293057 -0.98974071 -2.934564 -0.077394 -2.340577
5260 -2.0646518400000002 -3.1015492200000003 0.19938825000000002 -3.605041 0.662945 -3.881244
5280 -2.32600986 -5.1380659799999995 1.54957779 -3.567803 -1.353155 -3.498113
5300 -1.7943176699999999 -4.21163901 2.5831790100000003 -3.712173 -2.192618 -2.83468
5320 -1.6102035900000002 -1.75899186 0.55115523 -3.217925 -1.190812 -2.842126
5340 0.31390038 1.1258054100000001 -1.41021693 -1.817232 1.498501 -1.533625
5360 0.09475478999999999 -0.29683098 1.2009500100000001 -0.485788 1.95114 -1.064501
5380 -4.93523442 0.7328756700000001 5.3940285 0.478842 1.270499 -0.586874
5400 -0.46822149 19.16659161 -7.60508478 1.3016299999999998 0.605579 0.609725
5420 -11.46540807 65.4831234 4.07332782 2.23346 -0.143451 1.434383
5440 12.82503483 14.918871420000002 -4.26837024 2.977987 -0.886325 1.6819540000000002
5460 13.64023602 1.88308836 -3.81316662 3.709721 -1.269683 1.81147
5480 10.138870440000002 6.994059120000001 1.7751587400000002 4.044236 -1.467566 1.7232619999999998
5500 7.8576138 11.64502917 0.7964935200000001 5.161091000000001 -1.912654 2.037145
5520 4.80515382 19.89513126 -1.55720997 8.185047 -3.08852 1.497889
5540 -1.5486752700000002 21.35220075 0.7695454500000001 6.0245739999999985 -2.581305 2.0023720000000003
5560 -3.66901848 12.5630784 -2.23081362 3.989272 0.152799 2.282686
5580 -2.7223927199999998 14.316076350000001 -5.89729131 2.137988 0.818421 1.80102
5600 -2.68631154 10.804527990000002 -1.33836849 1.33521 0.414854 2.452887
5620 3.4967254500000005 3.20154255 1.8627228 -0.173705 -1.168934 2.359987
5640 6.17346243 -1.6603425000000003 0.09805095000000001 -1.683568 -3.084924 1.428952
5660 6.86158488 -2.58347331 -2.71819404 -2.255003 -2.133514 1.095797
5680 5.27727969 -0.07858791000000001 -2.30385888 -1.528567 -0.14923499999999998 0.017287999999999998
5700 2.03800788 1.63804437 -1.88967087 -1.070675 -0.29209 -0.884115
5720 0.70323966 2.59021278 3.12325875 -1.160099 -0.670166 -0.830844
5740 -3.17489859 7.6728915 -0.6481565100000001 -1.914566 1.007075 -0.302016
5760 2.10896361 27.546313230000003 -8.170307549999999 -1.91111 2.657668 0.107159
5780 -2.34906336 55.70725239000001 4.204458090000001 -1.106105 3.500893 0.5924010000000001
5800 -6.44739687 13.86746505 -8.80619175 0.281436 5.195779 0.97914
5820 -6.56010396 15.113325240000002 -11.61419634 2.263317 2.340946 0.8332040000000001
5840 0.16450389 19.70067744 -8.36835183 -0.376034 3.856797 -2.4591380000000003
5860 1.78144695 15.342192540000001 -4.94481879 -2.298348 2.628362 -2.082159
5880 2.8993160700000002 8.104894470000001 -5.469173100000001 -2.7159470000000003 1.094063 -1.379151
5900 1.80075303 -4.3066979100000005 -3.81496185 -3.531172 1.377406 -2.264355
5920 2.61192231 -6.01314741 -0.9648919800000001 -4.052311 1.043902 -3.923312
5940 -1.56844242 -4.59738783 -0.79769034 -4.019812 -1.009111 -4.426792
5960 -2.7596609100000005 -6.030207000000001 1.72501002 -4.281789 -1.952774 -2.3806990000000003
5980 -1.4956914600000002 -4.60367604 2.8678848300000004 -3.592446 -1.466253 -2.6339490000000003
6000 -2.5140185100000005 -1.5069141000000001 1.7905800600000001 -1.886898 -0.459499 -1.999484
6020 -1.25723979 0.9780668100000001 -0.33351057 -1.497479 0.768637 -1.240968
6040 -1.5141048300000002 4.7880942300000005 2.86654086 0.062274 1.143026 -0.8481299999999999
6060 -3.9978889200000003 10.008789839999999 -8.760830310000001 0.747491 0.350145 -0.032615
6080 -7.892488350000001 28.9848222 -3.75568983 1.417555 -0.236932 1.277117
6100 0.8511254100000001 35.904786390000005 5.10723315 2.552563 -0.70424 1.803731
6120 11.61374508 9.76733631 -3.59342262 3.5024870000000004 -1.627595 1.98567
6140 11.88258813 2.1772215900000003 -0.46238454000000007 4.056648 -1.647158 1.868857
6160 7.741904850000001 6.959027610000001 3.03957945 4.915732 -1.909657 2.03329
6180 9.52708941 17.13516624 -0.020355750000000002 7.566383 -3.284444 1.7459189999999998
6200 6.88208778 28.67017626 -3.09331863 6.646248 -2.8789290000000003 1.301001
6220 -2.5056407700000003 13.50596655 -0.92372922 5.369055 0.339253 2.410657
6240 -0.80113365 9.828707670000002 -3.9348694800000006 3.037151 1.815189 1.903232
6260 -2.30864616 13.21227477 -5.379362550000001 2.019468 1.72898 2.498711
6280 -0.64770525 10.29199473 -1.3708494 0.934296 0.001823 2.46023
6300 3.33311427 2.4557961600000002 2.1168999000000004 -0.81012 -2.802845 1.791478
6320 5.41004823 -2.4439653 0.90097983 -2.20386 -2.35104 1.369898
6340 5.71361868 -3.0148778700000003 -3.1290956999999997 -2.224231 -1.051249 0.5509
6360 3.4877493000000004 0.5092371000000001 -2.14713432 -0.656032 -0.17196 -0.915555
6380 1.4111194500000002 2.7268758900000005 -0.58872753 -0.678222 -1.18144 -1.262657
6400 0.020355750000000002 5.2196459399999995 3.93996087 -1.460125 0.060313 -0.762305
6420 -2.72313828 13.234131450000001 -3.56797548 -1.943608 1.993045 -0.690178
6440 1.85868108 49.28905008 0.02499588 -1.536875 2.870147 -0.339152
6460 -5.77169388 28.1775573 2.63871342 -0.08592799999999999 4.07972 0.411847
6480 -11.232793350000001 16.70107374 -8.43855219 1.4778 4.33628 1.228948
6500 -2.9526138000000004 19.26524097 -8.70544305 0.123041 2.92058 -0.00502
6520 0.8508311099999999 18.944905230000003 -7.18446141 -1.8836580000000005 5.184759 -3.971154
6540 2.6665542 15.550262640000001 -7.793838990000001 -2.446858 1.35943 -1.640394
6560 3.44702799 4.06344915 -8.19470502 -3.452574 1.472309 -2.089808
6580 4.538861370000001 -6.2804895300000005 -5.144501340000001 -3.614812 0.8804420000000001 -3.385936
6600 4.53048363 -8.21775852 -1.33177617 -3.818439 -0.797007 -4.6296870000000006
6620 -2.5578790200000006 -4.474497960000001 1.3573802700000002 -3.862624 -2.523989 -2.686824
6640 -2.68257393 -8.28137637 3.0419730900000004 -4.057539 -2.245038 -2.480239
6660 -1.6932746699999999 -6.01300026 3.55285827 -2.299751 -1.250497 -2.565375
6680 -2.99302119 -2.06959608 1.4929937100000004 -1.768864 -0.114371 -1.564335
6700 -1.58684598 2.3972697000000003 0.27722079 -0.5844779999999999 1.055845 -1.129205
6720 -1.02521367 6.55382556 1.6881930900000002 0.5778760000000001 0.526552 -0.576683
6740 -2.13919803 13.487847480000001 -6.1152302700000005 1.081406 -0.07181599999999999 0.504369
6760 -9.91568313 28.743672780000004 -2.31628815 2.100057 -0.145038 1.6802130000000002
6780 3.12310179 31.284345060000003 1.1493101700000001 3.264228 -0.905918 2.070675
6800 10.95467004 8.71592994 -1.4778765 4.0294300000000005 -1.250954 1.911956
6820 10.477609740000002 2.8446841800000002 2.04145119 4.759424 -1.98493 2.078229
6840 8.99494596 11.239827120000001 2.2162948200000003 6.883104 -3.2229650000000003 2.14806
6860 11.225455470000002 23.112085320000002 -1.32894108 6.948424 -3.324319 0.799482
6880 5.56287822 22.87857789 0.0205029 5.749386 -0.229242 1.725039
6900 -3.09062088 9.29626992 -4.1695835400000005 3.431593 1.563148 1.7204400000000002
6920 -1.9401138900000001 11.912076990000001 -3.72994839 2.804173 1.215552 2.3424810000000003
6940 -3.2930011800000005 13.62571722 -3.81856212 2.593101 0.762656 2.563777
6960 -0.98285409 7.73860869 0.52795458 0.361103 -2.342608 1.832184
6980 3.28477059 1.09707192 2.7009873000000004 -1.605962 -2.538398 1.085894
7000 4.689003420000001 -3.65928696 -0.19564083 -2.627068 -1.799144 0.651594
7020 5.71825881 -2.11644864 -3.34704447 -1.6820099999999998 -0.577289 -0.694671
7040 2.9421269100000007 2.8053166500000004 -2.39801526 -1.0419 -1.105681 -0.979011
7060 1.20454047 5.425763850000001 3.87783414 -1.155033 -0.450796 -0.550147
7080 -3.09480975 10.257424290000001 -2.3456200500000004 -1.4710370000000002 1.364842 -0.112437
7100 4.66639137 29.15457444 -2.05447887 -1.487566 2.715604 0.169864
7120 -2.90770362 40.46610285 2.92117275 -1.382818 3.719965 0.659622
7140 -5.389692480000001 19.34636967 -3.3187524300000004 -1.292799 5.974722 0.689408
7160 -5.34238866 18.684292770000003 -8.48794554 1.7773599999999998 3.3715300000000004 0.074324
7180 -0.46882971 19.06375338 -6.4970845200000005 -0.87623 3.423461 -3.413863
7200 -0.15971661 16.71963426 -4.85680347 -2.38102 2.030104 -1.851234
7220 2.26628658 13.60580292 -6.80409828 -2.681126 1.1265969999999998 -1.021095
7240 2.38244679 -0.81924291 -6.457118580000001 -3.36726 0.786898 -2.05415
7260 3.88741851 -6.90619095 -2.36762388 -3.956005 0.540064 -4.0159970000000005
7280 -1.08195471 -7.83949473 -1.84401513 -4.003719 -1.404515 -4.128139
7300 -4.6509798600000005 -5.19524847 0.79469829 -3.820980000000001 -2.596142 -2.528343
7320 -1.96302024 -6.491698830000001 2.21180184 -3.766674 -1.841317 -2.461633
7340 -1.5790666500000001 -4.16104884 2.89827621 -1.840154 -0.625247 -1.882509
7360 -1.63519947 -1.5667943400000004 0.9466355700000001 -0.94406 0.952126 -0.987374
7380 0.47720745000000003 1.76722245 0.07589016 0.6549510000000001 1.147936 -0.725424
7400 -1.54957779 3.43386297 5.963145840000001 0.990527 0.63335 0.062723
7420 -2.8316663100000006 10.84914387 -8.14231962 1.578264 0.310373 1.199558
7440 -13.39549614 55.699021800000004 -6.192327060000001 2.380338 -0.465542 1.6676259999999998
7460 5.435201070000001 24.60284235 4.208794110000001 3.321882 -1.1702709999999998 1.7958150000000002
7480 13.59487458 6.01119522 -3.91511214 3.800078 -1.417769 1.736447
7500 12.246480270000001 1.8652734000000002 1.1364394500000001 4.738614 -2.206979 2.214032
7520 8.85364272 7.998171480000001 2.36253249 7.088634 -3.266675 1.712649
7540 8.47866528 16.58656161 0.01466595 6.4089589999999985 -3.041674 1.711886
7560 3.78383472 25.847947169999998 -1.00875249 4.6476120000000005 -0.058442 2.057887
7580 -3.70015542 13.338009540000002 -1.76453451 2.363468 0.808525 1.948955
7600 -2.23770024 11.27500578 -4.80635064 1.805583 1.018615 2.374214
7620 -4.61639961 12.79793961 -3.2254887599999997 0.686225 -0.247254 2.093484
7640 -0.11884815000000001 7.284297780000001 0.6930568800000001 -0.888225 -2.089262 1.364865
7660 3.9401080200000003 0.55849311 1.25423793 -1.977648 -1.892818 0.8698950000000001
7680 5.09675607 -3.37847571 -1.9815807600000002 -1.89055 -1.1726379999999998 0.248943
7700 4.99930353 -1.9347282000000001 -2.37960189 -0.820315 -0.135299 -0.8836350000000001
7720 2.9791008000000003 1.56230136 -1.54792971 -0.682092 -0.786378 -0.954474
7740 1.7122864500000001 3.4796658600000003 3.84026184 -1.280015 0.061746 -0.47797
7760 -2.7390010500000006 7.99412976 -1.42473573 -1.589639 1.91649 -0.234681
7780 4.75935093 20.625162030000002 -4.67238528 -1.100852 2.936348 0.043027
7800 0.6198644700000001 48.619792260000004 2.6997904800000003 -0.074632 4.247879 0.4405520000000001
7820 -7.28310096 20.512592280000003 -2.5068375900000004 1.099235 4.910262 0.808962
7840 -7.77632814 17.057628 -9.03416634 0.7537510000000001 2.912292 0.188472
7860 -1.1883834 18.556762770000002 -6.458021100000001 -1.981299 4.240855000000002 -3.603158
7880 1.06024518 16.06264875 -5.8207929300000005 -2.0418830000000003 1.1786450000000002 -1.004947
7900 2.5725547800000004 11.742334560000002 -6.36895611 -3.365175 1.745777 -1.556505
7920 2.6556258600000002 -0.51373008 -6.812181720000001 -3.412578 0.682188 -3.000777
7940 3.75538572 -5.49372753 -3.54417642 -3.873547 0.05316 -4.335264
7960 2.12049036 -5.69654928 -1.63355139 -3.162805 -2.006064 -3.34276
7980 -2.57839173 -3.76032996 0.99902097 -4.0677080000000005 -2.593191 -1.987414
8000 -2.81534247 -5.7769324200000005 1.64193894 -2.677869 -1.457423 -2.438497
8020 -2.02199796 -3.48071553 2.44995921 -1.698274 0.185804 -1.301444
8040 -2.02603968 -1.84850811 0.45221157000000006 -0.6389859999999999 0.937224 -0.988429
8060 -0.22782744000000002 1.89700875 0.7328756700000001 0.321438 0.570492 -0.6864210000000001
8080 -1.9350225 5.716012320000001 3.3075199800000004 1.119523 -0.114757 0.287841
8100 -3.0701179800000005 13.598622000000002 -8.570428020000001 1.969844 -0.325112 1.271473
8120 -12.857662890000002 58.017997890000004 -2.42855379 2.889436 -1.126756 1.678439
8140 9.75176784 18.850896000000002 1.6816007700000002 3.771479 -1.317751 1.790599
8160 12.434488920000001 5.01936498 -4.3297416 4.414294 -1.929244 1.772372
8180 10.22523768 3.1225033800000004 1.88308836 5.818418 -2.828975 2.0461150000000004
8200 7.146585000000001 10.247535809999999 2.94497181 6.918042999999999 -3.115867 0.645179
8220 8.38167381 20.78263215 -1.17610128 6.197554 -1.746986 2.332592
8240 5.1392628 24.485926770000003 -0.06975891000000001 3.984411 0.042677 1.588449
8260 -1.52188416 9.3559932 -2.7473886 2.3299830000000004 1.114686 1.871416
8280 -1.7642304000000002 10.19709279 -5.467083570000001 1.662048 1.119181 2.125255
8300 -2.9467768500000004 12.227174190000001 -3.67006815 -0.26118800000000003 -0.878132 2.174201
8320 -1.4742860400000002 6.98941899 0.33679692000000006 -1.977088 -2.565513 1.26173
8340 3.51484452 1.18643121 2.04355053 -2.674221 -1.478745 1.020459
8360 4.7267228700000015 -3.39868431 -0.65847663 -1.43516 0.173291 -0.26662
8380 4.981488570000001 -1.4346144 -1.4587175700000001 -0.6522899999999999 -0.085549 -0.949823
8400 3.2754903300000002 2.12692572 -2.43573471 -0.951308 -0.590649 -0.917081
8420 1.6079571000000001 4.11224409 2.3792977800000004 -1.454012 0.691114 -0.54088
8440 -2.43723564 8.5606965 -1.9592728200000002 -1.3553620000000002 2.24504 -0.282604
8460 2.8520220600000004 22.17742776 -5.2172523 -0.974499 2.983113 0.226516
8480 -0.9322639200000001 46.311744510000004 3.70090098 -0.6210479999999999 4.317531 0.545605
8500 -5.220548460000001 17.180223570000003 -2.12527764 0.76344 3.890036 -0.041313
8520 -8.03529252 17.43514623 -9.65148021 1.584545 2.139057 -0.037606
8540 -0.85008555 18.17984295 -8.229883680000002 -2.686919 4.06162 -3.457238
8560 0.7806307500000002 17.295334110000002 -5.91030918 -2.271733 1.96629 -0.109187
8580 2.09519037 14.248269630000001 -9.55747098 -3.597953 0.91959 -0.673653
8600 1.7063023499999999 1.4166522899999998 -5.682933 -3.145798 -0.32810900000000004 -2.595968
8620 4.631065560000001 -7.061414580000001 -2.2269190500000002 -3.891089 0.12718 -3.916738
8640 1.57337685 -6.292761840000001 -2.4152318100000008 -3.136107 -1.954254 -3.53492
8660 -1.9550839500000001 -3.9972905100000005 0.6649218 -3.503213 -2.950489 -2.368641
8680 -1.9562807700000002 -5.908965210000001 1.24002324 -3.111595 -1.617698 -2.474436
8700 -2.35580283 -3.4670894400000005 2.42735697 -1.76545 0.346174 -1.387577
8720 -2.04924033 -1.37848158 0.5448670200000001 -0.639108 1.282894 -0.85214
8740 0.10104300000000001 2.04340338 -0.50026095 0.5080859999999999 1.130845 -0.58649
8760 -1.5343134299999999 2.8428889500000003 5.83546869 1.074515 0.510887 0.245064
8780 -5.69520531 6.99764958 -7.854464790000001 1.930838 -0.012733 1.241959
8800 -9.5700474 43.28443737 -4.70187414 2.805688 -0.7950619999999999 1.6528599999999998
8820 4.485720600000001 31.53970917 5.03133318 3.624837 -1.141651 1.835282
8840 14.350509450000002 9.09762723 -5.611977270000001 4.080845 -1.414344 1.7020849999999998
8860 12.53792556 1.9218574800000001 -2.15581617 5.229208 -2.34783 2.1140220000000003
8880 9.81194238 7.693698510000001 1.7378905500000001 7.893502000000002 -3.819636 1.302373
8900 8.57072232 12.194094870000002 1.10126079 6.284367 -2.902884 2.2759270000000003
8920 4.34157246 20.87064747 -1.3837201200000002 3.950754 0.027419 1.703601
8940 -0.5960556 18.30274263 0.6717986100000001 2.229652 0.822268 1.825157
8960 -3.6283069800000005 9.57079296 -3.91780008 1.482321 1.0578299999999998 2.172148
8980 -3.27893364 12.9712725 -5.065020720000001 -0.187933 -0.162857 2.258185
9000 -3.33491931 10.196641529999999 -0.11211849 -1.58004 -2.151783 1.881405
9020 1.9782846 3.51484452 2.10881646 -2.276564 -1.122829 1.445796
9040 4.465364850000001 -1.2145761000000002 -0.23381154 -1.897183 -0.145144 0.378972
9060 5.49417879 -2.5725547800000004 -2.14174863 -1.132769 -0.247504 -0.79167
9080 4.405935870000001 1.3362691500000001 -2.57928444 -1.151759 -0.861459 -1.218305
9100 2.6056341 2.10178269 -1.4747373 -1.499118 0.350424 -0.8174279999999999
9120 1.33133472 4.24052946 4.6997748 -1.426287 1.659375 -0.280213
9140 -2.7116115300000003 10.30352148 -1.55885805 -1.036523 2.484637 -0.004015
9160 5.5904247 35.67202452 -4.016449440000001 -1.098618 3.627986 0.238709
9180 -1.39509972 43.24013541 3.3757779599999997 -0.272934 5.383204 -0.120968
9200 -9.405092250000001 12.75348069 -8.64422865 2.202347 3.046665 -0.570702
9220 -4.65816078 16.504530390000003 -10.81561329 -2.188372 4.161477 -4.617178
9240 -0.25940583 17.405206109999998 -7.57275102 -2.257041 2.070217 0.527443
9260 1.9881632700000003 15.883920360000001 -7.871230080000001 -3.073453 2.0417400000000003 -0.167226
9280 2.16659736 10.571167710000001 -5.708232990000001 -2.717402 0.08789 -2.304021
9300 3.3563247300000003 -3.8395162800000002 -6.61249917 -3.232344 0.582499 -3.800557
9320 4.402796670000001 -6.94450881 -3.12730047 -3.383934 -1.22 -3.922152
9340 -1.89326133 -3.7393758000000004 -1.67082939 -3.175575 -2.756636 -2.911394
9360 -2.41567326 -4.448148300000001 1.12192065 -3.790081 -1.638634 -2.5111950000000003
9380 -2.5014519 -4.394409120000001 2.24952129 -1.893043 -0.005249 -1.838808
9400 -3.17759634 -2.1734839800000003 1.47818061 -0.954204 1.277188 -1.016703
9420 -0.9967744800000001 -0.10208286000000001 -0.53094663 0.726941 1.014563 -0.734364
9440 -0.34054434000000006 0.5553441 0.78975405 1.016789 0.26271100000000003 0.020653
9460 -3.78068571 2.2200324300000007 6.129749070000001 1.6399849999999998 -0.28605 1.113159
9480 -3.8082321900000005 12.46173129 -6.851402100000001 2.378706 -0.807466 1.927631
9500 -16.53206706 69.36859953000001 -4.229306820000001 3.3005089999999995 -1.238023 1.974146
9520 10.797798329999999 19.065705570000002 1.55347236 3.826882 -1.392172 1.971611
9540 16.373547270000003 5.81435757 -6.202951290000001 4.7037260000000005 -1.822598 2.290208
9560 12.70347912 4.290972480000001 1.03629897 7.451103999999999 -2.913802 2.130267
9580 8.0918766 7.27082865 3.4590060000000005 6.404039 -3.110361 1.311356
9600 6.899755590000001 11.62572309 -0.558189 4.657483 -0.5119100000000001 2.4965080000000004
9620 2.1399534 24.45913566 -0.8942403600000001 2.433426 0.661456 1.903698
9640 -0.75398679 17.0806815 0.13113027000000002 1.808364 1.073294 2.284432
9660 0.04190832 8.79450804 -5.259759030000001 0.534992 -0.189089 2.330567
9680 -3.4696302300000004 11.812839030000001 -4.532720310000001 -1.455445 -2.413319 1.909316
9700 -1.78578297 8.318801520000001 0.92717253 -2.287517 -2.2930040000000003 1.048773
9720 3.3483884400000004 1.38790899 2.3366439000000003 -1.887379 -0.784566 0.168351
9740 4.60008558 -2.62838349 -0.59935176 -0.705957 -0.2343 -1.266201
9760 5.90971077 -2.94812082 -2.44127736 -0.781615 -0.7134199999999999 -1.529966
9780 3.3519789 0.44592336000000005 -2.08621422 -1.57919 0.17877 -0.978001
9800 1.11577959 1.9646683200000001 0.01586277 -1.7037240000000002 1.915781 -0.490783
9820 -0.9922913100000001 5.332058730000001 2.36717262 -1.188202 2.770303 0.08429
9840 -1.6628931 12.50394372 -3.8378682000000004 -0.74224 3.782858 0.626628
9860 3.95133066 51.28590501000001 -0.5551969500000001 -0.288135 5.790554 0.586635
9880 -3.4370021700000004 28.91956608 -1.40931441 1.619612 2.557689 -0.062467
9900 -8.361759509999999 14.590157940000001 -10.71966168 -1.432964 4.3743919999999985 -4.172066
9920 -0.41553198 19.49156748 -9.488614590000001 -1.963594 2.8365400000000003 -0.6219640000000001
9940 1.2379239 18.60241851 -6.955731450000001 -2.765121 2.03599 -1.126465
9960 3.0599352 13.00465593 -3.33521361 -2.753217 0.16810799999999998 -2.087524
9980 2.6770312800000005 2.3493674700000002 -5.77049706 -3.078001 0.243295 -3.822545
10000 4.25595078 -6.90229638 -4.89826053 -3.710386 -0.680298 -4.339594
10020 3.3581199600000002 -6.857984610000001 -4.25026098 -3.349327 -3.059237 -3.011565
10040 -1.87664319 -4.83569235 0.5945644800000001 -3.83893 -2.490873 -2.46451
10060 -3.28626171 -6.887473470000001 2.45235285 -2.187016 -1.213962 -2.209985
10080 -2.53303029 -3.62441241 3.2675540400000003 -1.405815 0.385436 -1.128742
10100 -2.2781174400000004 -0.24204213000000002 -0.02529999 0.116099 1.017117 -0.8433200000000001
10120 0.10119015 2.30924457 -1.4732363700000002 0.704334 0.6805720000000001 -0.308941
10140 -1.14362037 2.8171377 5.11845579 1.126639 0.04098 0.7619819999999999
10160 -4.3504014600000005 5.069209590000001 -0.8834591700000001 1.899415 -0.527205 1.787191
10180 -4.54589514 31.16115108 -7.488326160000001 2.985878 -1.1223610000000002 1.82759
10200 -2.15297127 33.32595321000001 3.28671297 3.710486 -1.349531 1.798759
10220 13.14715599 15.001805160000002 -4.62343338 4.366355 -1.997871 1.925949
10240 13.442643000000002 3.62606049 -2.7825672600000004 6.024388 -3.002471 2.097982
10260 10.93386303 5.709724110000001 3.0680186400000005 6.679964999999998 -3.323141000000001 0.471798
10280 7.78022271 10.8629073 1.31651181 6.005356 -1.829218 2.284353
10300 6.06942738 19.013310360000002 -2.7478398600000005 3.492877 0.193085 1.430999
10320 2.6690949900000005 22.037321340000002 2.79573228 2.121067 1.396642 1.871732
10340 -1.8974502000000002 9.70416972 -3.1551412500000002 1.56089 1.4039469999999998 2.1284560000000003
10360 -2.43274266 10.185723000000001 -6.220167840000001 -0.266506 -0.54293 2.268806
10380 -4.15117017 12.079729890000003 -2.8026189 -1.478796 -2.172501 1.64713
10400 -0.93600153 6.2785471500000005 0.53109378 -2.207328 -1.543326 1.048372
10420 3.48370758 0.34982460000000004 1.5593093100000002 -1.206406 -0.278879 -0.341355
10440 4.69543878 -3.53669139 -0.6243476400000001 -0.577322 -0.806818 -1.261364
10460 5.704034310000001 -1.50721821 -2.2866423300000003 -1.029393 -0.717988 -1.238998
10480 2.91069567 2.0857629600000003 -2.8291157100000004 -1.626636 0.86792 -0.650203
10500 1.5703848 3.8191605300000004 3.01293549 -1.464728 2.565139 -0.316893
10520 -2.83870008 8.17285815 -1.96630659 -0.191241 4.140839 0.403555
10540 3.3410505600000007 22.322184120000003 -5.79070566 1.607071 3.661737000000001 1.705006
10560 1.72560843 48.56171706 3.26965338 0.247494 1.620006 0.919392
10580 -4.60951299 17.90621262 -1.57846824 -1.854492 7.892958 -2.999134
10600 -8.12959605 17.835855300000002 -9.72992097 -2.619327 2.028135 -2.483147
10620 -1.9559864700000003 17.7458976 -8.13813075 -3.784767 1.7530009999999998 -2.19931
10640 -0.91624419 15.91804935 -6.970103100000001 -3.532543 1.55049 -3.454586
10660 2.41762545 14.33403846 -9.187143480000001 -3.4157910000000005 -0.128527 -4.05196
10680 3.1900158000000003 3.23028585 -5.17174371 -3.245363 -2.217172 -3.225562
10700 4.398607800000001 -6.08829201 -3.42652509 -3.768148000000001 -2.307019 -1.884207
10720 3.3450922800000003 -6.58181349 -1.2621742200000001 -2.594809 -1.849254 -2.558123
10740 -1.77201954 -3.4317636300000003 1.16577135 -1.658253 -0.804606 -1.941897
10760 -2.16270279 -5.8188505500000005 1.9399667400000002 -1.410023 1.005864 -1.234252
10780 -1.8359316900000002 -3.12385716 1.72965015 -0.418828 1.072606 -0.93579
10800 -2.1794680800000004 -0.45999090000000004 1.4055768 0.186847 0.083188 -0.18574
10820 -1.1512525500000002 5.149288620000001 2.39651433 1.164145 -0.297136 1.101303
10840 -1.601973 13.48755318 -5.8880012399999995 2.572244 -0.72075 1.919258
10860 -6.20280414 10.68597414 -6.983425080000001 3.551601 -1.500412 2.105491
10880 -5.62889952 41.87556441 4.09848066 3.980779 -1.565414 1.738967
10900 11.917619640000002 18.44913726 -2.15416809 4.726822 -1.532734 1.711021
10920 11.0880468 2.8915367400000003 0.8264336400000001 7.375615 -3.329439 1.17635
10940 10.47088008 7.463330280000001 2.13620598 6.37527 -3.408261 1.242103
10960 11.638750770000001 16.72157664 1.81108296 5.2270400000000015 -0.029698 1.826889
10980 8.39724228 21.07228221 -1.8895237200000001 3.096204 2.167244 1.457745
11000 0.6179122800000001 16.00022772 -0.40117014 2.245977 2.406032 2.152254
11020 -2.7882472500000004 10.480758750000001 -3.54926781 1.368553 1.7003700000000002 2.492065
11040 -1.97020116 11.785439700000001 -3.3296807700000004 -1.011874 -2.774768 1.60523
11060 -0.78347565 11.888130780000001 -2.28395439 -1.986736 -2.501969 1.097075
11080 0.6562399500000001 6.058047780000001 1.0340524800000002 -2.163226 -1.310064 0.486496
11100 3.99339594 -0.16406244 2.47644621 -1.029701 0.102738 -0.822377
11120 5.0488538400000005 -4.8536544600000004 -0.53154504 -0.5764060000000001 -0.599108 -1.257351
11140 4.90230225 -1.86976638 -3.1148712000000005 -0.990977 -0.521828 -1.043497
11160 2.73495933 2.55443571 -3.5233694100000004 -1.574314 1.198702 -0.565872
11180 0.6590750400000001 4.022737650000001 -0.79469829 -1.245158 2.393478 -0.202976
11200 -0.7789826700000001 7.56691407 2.1305161800000003 -0.975722 3.050991 0.5682510000000001
11220 0.39682431 25.73178696 -7.655979060000001 -1.456373 3.4064339999999995 0.8079930000000001
11240 -0.8675963999999999 54.06561756000001 6.56729469 0.387804 2.812437 -0.6290100000000001
11260 -6.082749360000001 16.31906253 -1.5194905200000002 2.949209 -0.10163 -1.115858
11280 -9.53546715 19.98523611 -7.89622596 -4.270302 6.924237 -5.333876999999998
11300 -0.7899110100000001 16.66020528 -8.06927436 -1.601493 1.406737 0.7112649999999999
11320 1.11877164 16.55946639 -4.579425720000001 -3.702926 -0.241563 -0.316112
11340 1.7528508 12.347670420000002 -10.37118105 -3.090892 -1.2882559999999998 -1.762209
11360 2.90306349 3.0105418500000005 -4.57014546 -3.503184 0.384649 -2.840796
11380 4.31433009 -4.28005395 -2.38110282 -3.223776 -2.215964 -3.279892
11400 3.86181441 -5.9405436 -0.96264549 -2.80802 -2.739281 -2.775321
11420 -0.83107377 -3.04108038 0.06196977000000001 -3.228768 -1.032513 -1.928006
11440 -1.99191069 -5.8528323900000006 1.2891222900000001 -1.285926 0.285531 -1.556133
11460 -1.5988239899999999 -4.7880942300000005 2.33484867 -0.385428 1.631822 -0.685241
11480 -2.30699808 -1.4542245900000002 1.2778898400000003 0.689685 1.734019 -0.268733
11500 -0.8033801400000001 2.17078623 -0.06960195000000002 1.264802 1.032471 0.446551
11520 -0.48319155 0.85757058 -0.18771435 2.0946860000000003 0.23446 1.353881
11540 -5.92617195 1.3727917800000002 4.37091417 2.813908 -0.672404 1.607895
11560 -3.34987956 11.089390770000001 -18.89042049 3.558065 -0.85265 1.54923
11580 -13.32977895 69.72560505000001 6.397101 4.08444 -1.6811599999999998 1.823161
11600 16.672330440000007 22.25931183 2.41222995 5.228504 -2.890411 2.203375
11620 15.04910898 4.81877991 -6.08529996 6.973347 -4.167967 1.29746
11640 11.582019540000001 1.88622756 -1.4602086900000002 5.314869 -2.7614240000000003 2.106604
11660 7.302416850000001 5.21500581 2.98943073 3.437399 -0.4239 1.526474
11680 4.1299119 9.5874111 1.50227397 2.078587 0.503926 1.646116
11700 -0.3972755700000001 21.88882737 -0.9174410100000001 0.970285 0.4689100000000001 2.039003
11720 -2.02304763 20.900283480000002 -1.5965775000000002 -0.599896 -1.596547 2.040296
11740 -2.7445437000000004 12.51637299 -3.24629577 -1.49876 -2.195718 1.077658
11760 -6.261624899999999 13.297896450000001 -2.85246351 -2.039937 -0.991659 0.673888
11780 -0.40535900999999996 8.38646109 2.17123749 -1.420418 0.044794 -0.113597
11800 3.20752665 1.4293758600000002 -0.28381311 -0.924498 -0.29035500000000003 -0.645951
11820 5.5875798 -2.6295803100000006 -2.7671459400000002 -1.080279 -0.357732 -0.711046
11840 5.54701545 -1.2380710499999998 -1.9374259500000002 -1.354192 0.8219139999999999 -0.304273
11860 4.77132894 0.7960422600000001 0.14804271000000002 -1.138342 2.24702 0.099196
11880 1.13404581 4.71773691 1.22355225 -0.949623 3.309165 0.717654
11900 -1.03314996 7.999211340000001 -1.1106882 -1.389463 3.993509 0.989306
11920 7.211998080000001 21.91487292 -3.62606049 0.200501 3.947501 -0.07095599999999999
11940 1.53056601 48.25649852999999 1.9547896500000002 1.845336 2.705038 0.188885
11960 -5.92991937 17.47645614 -4.24083357 -3.486277 6.33297 -4.93881
11980 -7.5658644 16.59314412 -10.66532409 -1.7235599999999998 1.6491919999999998 -0.140203
12000 -1.13029839 17.59756059 -7.86090015 -3.038919 1.035515 -0.312042
12020 1.07641206 15.18562494 -6.2167245300000005 -2.4645740000000003 -0.165311 -2.074399
12040 2.2203365400000004 10.85916969 -4.55008401 -3.198489 0.191786 -3.890619
12060 0.77239035 -0.44502084000000003 -4.8100980600000005 -3.127672 -1.169775 -3.917222
12080 2.37646269 -5.99488119 -4.0547673 -3.4310629999999995 -2.740282 -2.783945
12100 1.7404313400000002 -4.88060253 -2.6488962 -3.32372 -1.903158 -2.565282
12120 -2.2489228800000003 -3.5232222600000003 0.68916231 -1.944444 -0.0689 -1.860449
12140 -2.30730219 -3.77634969 1.70376156 -1.147172 1.195224 -1.131178
12160 -1.793268 -1.84551606 1.5838539300000003 0.09896 0.823061 -0.784438
12180 -0.9669913200000001 0.13531914 0.56897019 0.672912 -0.035491 0.033588
12200 -0.35611281 1.3162175100000002 0.1070271 1.60065 -0.16059 1.2077950000000002
12220 -2.53303029 -0.11286405000000001 3.7166166 2.529469 -0.990186 1.670408
12240 -7.644158010000001 2.9494647900000004 -5.02190577 3.390914 -1.465642 1.808426
12260 -8.046368009999998 29.252321280000004 3.9502809900000004 3.977384 -1.498841 1.610671
12280 0.6509916 47.30867595 2.9270097000000006 4.859129 -2.272267 1.920128
12300 16.812142559999995 13.2342786 -2.7801638100000003 7.3460800000000015 -3.932311 1.449313
12320 14.45019867 2.22017958 -1.52607303 6.150875 -3.694046 1.509025
12340 12.184961760000002 5.9579073000000005 1.1075490000000001 4.4845440000000005 -0.270146 1.329561
12360 8.7169698 11.11438665 1.00320984 2.52191 1.181714 1.726325
12380 4.465364850000001 18.41006403 -3.4792145999999997 1.724791 1.653309 2.230763
12400 0.21211182 21.840336540000003 1.60541631 0.90457 -0.098629 2.564836
12420 -1.6098994800000002 9.985137929999999 -3.3573645900000004 -0.7748689999999999 -2.0510040000000003 1.821739
12440 -1.74641544 10.894642650000002 -6.91083108 -1.467415 -1.68534 1.022744
12460 -2.27661651 11.81972565 -2.0658584700000002 -2.192149 -0.822334 0.28698
12480 1.3099292999999999 4.80276018 1.8670686300000001 -1.422473 -0.543033 -0.961026
12500 4.4074368 -1.00320984 0.79618941 -0.685029 -1.138386 -1.367446
12520 4.79752164 -3.9880102500000003 -2.14967511 -0.800114 -0.359194 -0.8543649999999999
12540 3.8883112200000003 -0.27437589 -2.8672864200000006 -1.068051 1.221002 -0.188486
12560 2.4032538000000008 1.7591390100000002 -1.63190331 -0.64147 2.477279 0.161124
12580 0.98464932 4.7054646 3.58519203 -0.602057 3.791344 0.780352
12600 -1.7476122600000001 9.12562497 -1.75674537 -0.009838 5.593159 0.425394
12620 6.49484784 30.60820062 -5.027889870000001 2.994444 1.391424 0.290462
12640 -2.3107455000000003 51.257612970000004 3.78712107 -2.0456060000000003 5.675264 -4.482456
12660 -10.175991479999999 14.942229029999998 -6.18528348 -1.880302 2.355683 -1.121762
12680 -7.093297080000001 18.2027493 -10.093656150000001 -3.3426089999999995 1.500234 -0.645908
12700 -0.97327953 18.380879280000002 -7.430849370000001 -3.452414 0.238315 -1.456906
12720 1.2584366100000002 18.23209101 -6.151007340000001 -4.00747 0.332386 -3.4520699999999995
12740 2.73765708 10.949578650000001 -4.27601223 -4.05294 -2.121166 -3.623363
12760 4.12512462 -3.4687375200000004 -4.34590848 -3.861458 -3.250147 -2.245777
12780 3.9880102500000003 -7.636074570000001 -2.9506616100000005 -3.937976 -1.977908 -1.988364
12800 1.97335017 -6.591093750000001 -2.3905302300000004 -2.037346 -0.4875310000000001 -1.785786
12820 -1.56230136 -4.1936769 1.4462883000000002 -1.437515 1.388032 -1.144135
12840 -3.2280393600000004 -5.40047367 1.52218827 -0.095416 1.523381 -0.990724
12860 -3.0292495200000005 -2.8428889500000003 1.4250398400000002 0.414042 0.587063 -0.38242
12880 -1.4319264600000001 -0.6375224700000001 0.36494181 1.075753 -0.189743 0.695692
12900 -0.28396026 0.28500993 0.67569318 2.297343 -0.397151 1.686187
12920 -3.88606473 2.48348979 6.93268776 3.3171800000000005 -0.976587 1.848945
12940 -2.05957026 10.961703810000001 -14.13555273 4.010624 -1.470161 1.602321
12960 -16.01818983 61.27059168 -3.9067245900000005 5.036854 -2.856615 1.910368
12980 12.220591680000002 24.746990489999998 2.61640548 6.971953 -4.027358 1.034488
13000 15.691869990000002 3.88367109 -5.5351944 6.27942 -3.1255490000000004 1.48783
13020 12.81305682 0.69604893 2.30535981 4.652774 0.588897 1.076466
13040 9.18130653 9.170525340000001 1.59972651 2.8801490000000003 2.965274 2.14208
13060 9.26018874 15.832427670000001 0.29548701 2.040315 2.603361 2.532988
13080 2.9472183000000003 23.712790860000002 -0.38305107000000005 1.474764 -0.08086900000000001 2.956561
13100 -4.140693090000001 13.04836929 -2.2299111000000003 -0.210438 -2.340345 1.761959
13120 -4.33154664 10.391840909999999 -5.28924789 -1.406462 -1.725636 1.189864
13140 -5.4226246499999995 12.307557330000002 -4.4120769300000005 -2.113634 -1.486856 0.43259
13160 -1.1891289600000001 7.637869800000001 0.20417553000000002 -1.1745 -0.974038 -1.017494
13180 2.8313622 1.5648421500000003 1.99834605 -0.611274 -1.366524 -1.389071
13200 3.8124210600000006 -2.7394523100000003 -0.01781496 -0.802743 -0.599306 -0.746185
13220 5.36663898 -2.43648027 -3.3151521600000002 -1.480356 1.85297 -0.16226600000000002
13240 3.36276009 2.49157323 -2.7361561500000002 -1.554076 3.0579970000000003 0.117686
13260 2.0594133 4.37659416 4.462068690000001 -1.185767 3.77936 0.5541
13280 -1.52054019 10.027644660000002 -2.07842508 -0.005045 5.4876190000000005 0.440518
13300 6.934031730000001 24.547307940000003 -4.1195819700000005 3.434863 1.998181 -0.244555
13320 -0.8909442000000001 46.62608634 4.43393361 -0.912269 4.157792 -3.205684
13340 -9.995016600000001 20.068621110000002 -1.99475559 -2.187203 3.17244 -1.576811
13360 -8.50082607 21.771774450000002 -7.54940322 -2.695468 2.095655 -0.657105
13380 -0.60803361 17.2082115 -6.8374817100000005 -3.2216720000000003 0.093589 -1.428403
13400 0.79859286 18.27758979 -7.13536236 -3.687377 -0.468263 -3.306734
13420 5.785172820000001 13.80339594 -6.149212110000001 -3.907584 -1.349465 -3.859414
13440 4.1529654 1.5790666500000001 -4.71608883 -3.239032 -2.989014 -2.553685
13460 4.91248503 -7.10512794 -3.30706872 -3.816178 -2.385494 -2.197431
13480 2.7704421 -6.869511360000001 -1.8332339400000002 -2.089884 -0.786892 -2.267538
13500 -1.63429695 -3.5470213200000003 0.1963962 -1.569402 0.926473 -1.222445
13520 -3.2841721800000006 -5.619462300000001 1.3769904600000002 0.022253 1.384368 -0.960882
13540 -4.31792055 -5.95970253 2.42600319 0.766497 0.889518 -0.400642
13560 -4.8788073 -3.4355012400000002 1.29735288 1.342063 0.248954 0.514324
13580 -0.79170624 0.021552570000000004 0.22184334 2.13401 -0.23232600000000006 1.634628
13600 -0.43514217000000005 1.72800207 4.40818236 3.11994 -0.97366 1.820858
13620 -4.511766150000001 7.351211790000001 -3.1434673500000003 3.781182 -1.467297 1.617806
13640 -4.25011383 26.428895370000003 -6.8804397 4.363611 -2.491664 1.804785
13660 0.19594493999999998 47.90398599 2.2709267100000003 6.211945 -3.813703 1.808707
13680 16.27476057 12.41068986 -2.09714256 6.688115 -4.0489120000000005 0.544355
13700 14.066549190000002 2.55204207 -1.81302534 5.404786 -1.416772 1.960231
13720 10.584185580000002 4.3354314 2.2878391500000004 3.098961 0.241989 1.530734
13740 8.932220820000001 10.892249009999999 2.09638719 2.063488 0.7616569999999999 1.941578
13760 5.82198975 20.71497258 -0.29967588 0.882826 1.022863 2.112458
13780 0.7381142100000001 20.131336440000002 1.2960089099999998 -0.975132 -1.851622 1.951476
13800 -3.7203640200000003 9.52244928 -4.01135805 -1.958396 -1.857611 1.372048
13820 -3.7254554100000004 12.120598350000002 -5.44193073 -2.59029 -0.7105600000000001 0.917511
13840 -4.54679766 12.217746779999999 -1.58879817 -1.421567 -0.205671 -0.347224
13860 0.7381142100000001 5.23655838 2.6541347400000004 -0.618857 -0.79578 -0.789514
13880 3.79445895 -0.20761884 0.30431601 -0.6682899999999999 -0.545639 -0.697245
13900 5.592671190000001 -3.6705194100000003 -2.0249900100000002 -0.942865 0.723605 -0.052379
13920 5.65239447 0.33619851000000006 -3.3407562600000005 -1.088957 2.30771 0.330199
13940 3.0725116199999998 2.5257022200000003 -1.11891879 -1.031628 3.634028 0.533999
13960 1.00740852 4.847964660000001 2.24203626 -0.30391 5.1288550000000015 0.108809
13980 -1.4461411500000003 8.90318322 -1.34226306 2.195694 3.434682 -0.362942
14000 6.290819460000001 26.628126660000003 -3.2939037000000004 -0.575693 6.047456 -2.133259
14020 0.9488722500000001 47.620624140000004 3.1246027200000004 -1.856887 4.072008 -2.247568
14040 -6.780603330000001 16.72696233 -4.35204954 -2.279804 1.908159 -0.749033
14060 -6.3580277700000005 16.88892543 -10.67280912 -2.73294 0.996578 -1.494513
14080 -0.28994436 17.036673840000002 -7.16126076 -3.124769 0.5897180000000001 -3.036036
14100 0.393381 15.36584445 -6.08693823 -3.866273000000001 0.268455 -3.836629
14120 2.6918541900000004 11.064993300000001 -6.14053026 -3.191063 -2.395709 -3.379846
14140 2.63541726 -0.182466 -6.54378993 -3.683317 -2.134209 -2.54827
14160 4.16074473 -7.1200980000000005 -4.796471970000001 -2.520962 -0.906507 -2.6165
14180 1.4135130900000004 -4.5873620100000005 -3.0861279000000006 -1.6820580000000005 0.16567 -1.607885
14200 -2.47405257 -2.44845828 1.1091970800000002 -0.584607 1.116207 -1.0395530000000002
14220 -3.5774127 -3.54747258 1.8901221300000002 0.540035 0.598276 -0.631518
14240 -3.18851487 -1.4245885800000002 1.9805310900000002 1.118154 -0.157462 0.31245500000000004
14260 -2.36178693 -0.41598324 0.98165727 2.094437 -0.166602 1.483648
14280 -1.74597399 -0.045204480000000005 1.4012407800000002 3.016845 -1.248703 1.6944400000000002
14300 -5.3431342200000005 2.32002576 5.03403093 3.656592 -1.522778 1.7473299999999998
14320 -3.33940248 10.54227726 -7.02608877 4.165618 -2.017478 1.941663
14340 -13.3848621 51.47047035000001 -2.1664404000000004 5.273151 -2.612836 2.280243
14360 13.33831365 28.531570770000002 4.44829545 6.927206 -2.969762 1.12896
14380 16.246017269999996 6.26910993 -4.1356017000000005 6.1145260000000015 -1.914167 2.121787
14400 13.96700712 1.4088729600000003 1.16457453 3.950404 -0.651716 1.576282
14420 8.84974815 7.173827370000001 1.21472325 2.317533 0.831865 1.7467099999999998
14440 7.3904321699999995 11.83648113 -0.58079124 1.584915 1.350355 2.189581
14460 4.56985116 23.009404050000004 -1.9107721800000002 0.035605 -0.8779239999999999 2.131408
14480 1.5453889200000002 19.50998085 -0.19474812000000002 -1.324125 -2.416876 1.885669
14500 -1.02312414 9.689650920000002 -4.3963613100000005 -2.157141 -2.040637 1.49374
14520 -2.9530552500000002 12.90795876 -4.38213681 -1.460068 -0.796164 0.034619
14540 -1.10051523 10.55469672 -1.0591955100000001 -0.673397 -0.652688 -1.094522
14560 2.0956416300000003 3.19091832 2.13845247 -0.96512 -0.89718 -1.23832
14580 4.591550880000001 -2.32361622 0.48559500000000005 -1.538894 0.570982 -0.5285
14600 5.561239949999999 -3.7474592400000004 -2.5509924 -1.600735 2.363673 -0.166966
14620 3.2718998700000004 0.63258804 -2.66445486 -1.24402 3.34504 0.260489
14640 1.65211191 1.76662404 0.76475817 -0.924255 4.454095 0.489901
14660 -1.3500423900000003 5.86884231 -0.13561344 0.355648 5.1648489999999985 -0.139798
14680 -0.43948800000000005 10.57042215 -3.43924866 3.467917 1.351055 -0.413342
14700 4.98703122 37.890860130000014 -1.1241671400000002 -2.014438 4.708051 -4.789715
14720 -0.91265373 34.173782460000005 1.5655975200000003 -2.210217 2.985784 -0.434803
14740 -5.5759058999999995 15.842453490000002 -7.6907064599999995 -3.653243 1.754741 -0.353574
14760 -2.9207214900000005 18.15738786 -8.514746460000001 -3.354389 -0.001818 -1.430276
14780 -1.91961099 19.355797080000002 -7.98693903 -3.731646 0.088012 -3.584426
14800 1.48326219 16.07910993 -7.9185339 -3.497584 -2.092765 -3.48172
14820 1.97948142 8.78972076 -5.490431370000001 -3.4378040000000003 -2.8103700000000003 -2.301066
14840 3.0261103200000004 -2.16180027 -5.39717751 -3.459032 -1.891805 -2.35687
14860 5.30617014 -6.35922459 -2.03860629 -2.001769 -0.402552 -2.0217240000000003
14880 -0.40416219000000003 -5.194797210000001 -0.6843750300000001 -1.609049 1.02407 -1.086115
14900 -2.5384257900000002 -5.70419127 0.99976653 -0.028716 1.075166 -0.848678
14920 -2.7149076900000004 -5.339543760000001 2.31777927 0.7447050000000001 0.467126 -0.246429
14940 -3.15349317 -2.41837101 1.91661894 1.445716 0.524602 0.755045
14960 -1.5313115700000002 0.01586277 -0.18231885 2.228464 -0.143022 1.5977860000000002
14980 -0.37661571000000005 0.9484308 1.24660575 3.1816 -0.80548 1.800777
15000 -3.8981898900000003 2.7117586800000004 5.5103456699999995 3.790575 -1.62974 1.739857
15020 -2.09908494 13.620027420000001 -15.21016956 4.49859 -2.620757 2.2684330000000004
15040 -15.30432594 54.68158746 -0.8906499 6.711765 -4.032267 1.953484
15060 11.00197386 25.430168700000003 0.9861502500000001 6.331857 -4.60694 1.872518
15080 15.592779180000003 5.34238866 -6.068230560000001 4.658729 -1.133611 1.59253
15100 13.18458114 2.0872638900000005 1.21847067 2.694234 0.249534 1.859046
15120 11.88318654 7.814802960000001 0.7165616400000001 1.638526 1.515924 2.296566
15140 10.489734900000002 14.24212857 -0.08801532 0.258834 1.348868 2.644997
15160 3.4995703500000004 22.7465451 -1.30947804 -1.5908790000000002 -1.576942 2.258744
15180 -2.19099483 14.647046130000001 -1.96122501 -1.97112 -1.0905 1.886928
15200 -2.55024684 9.37964511 -5.56303518 -1.849614 -0.29827 0.8014479999999999
15220 -5.42172213 11.16992106 -3.49388055 -0.960604 0.202008 -0.666062
15240 -2.19099483 7.3685754900000004 1.8788896800000001 -1.13412 -0.981858 -1.227641
15260 1.84850811 1.6304121900000001 2.8484217900000006 -1.550018 0.027381 -0.97333
15280 3.9999784500000004 -2.62943316 -0.8780734800000001 -1.783209 1.741575 -0.546662
15300 6.001316550000001 -2.24802036 -4.41581454 -1.522025 2.751186 -0.439309
15320 4.8386844 2.39606307 -2.6479936800000003 -0.313369 3.3260730000000005 -0.065203
15340 3.22249671 3.5215741800000004 3.70988694 2.096351 2.955046 0.852615
15360 -1.4349185100000001 7.86120426 -1.84162149 0.404256 3.087907 0.263786
15380 5.0091822 14.80556592 -3.45931011 -2.046662 5.928232 -3.275697
15400 7.008273810000001 47.07829791 2.15775855 -2.90571 2.237114 -1.217435
15420 -3.4480776600000005 24.67184589 3.175497 -3.586004 2.154718 -1.866219
15440 -9.65477637 18.16247925 -9.51436584 -3.350052 1.368472 -3.648563
15460 -3.010689 17.39098161 -9.33608871 -3.238921 -1.147477 -4.068646
15480 -2.7822631500000004 17.17049205 -3.7753000200000004 -3.152211 -2.7736810000000003 -2.665518
15500 1.69611957 14.177470860000001 -8.320145490000002 -3.437471 -1.790777 -2.066293
15520 2.61056853 5.7842703 -4.511619 -1.821361 -0.92393 -2.32958
15540 4.2366447 -5.01442074 -3.58370091 -1.447718 0.8995790000000001 -1.262153
15560 4.76998497 -7.48084113 -1.7691746400000001 0.064054 1.423543 -1.203126
15580 -1.57996917 -3.8580768000000005 -0.27333603 0.7500600000000001 0.768124 -0.664452
15600 -3.07041228 -6.313117590000001 2.05163397 1.202659 0.085302 0.268937
15620 -3.0202733700000004 -5.06337264 3.248091 2.080072 -0.442746 1.555473
15640 -3.36664485 -2.41746849 2.48064489 3.133033 -0.995619 1.972665
15660 -2.36657421 0.86909733 2.65353633 3.724298 -1.400559 1.7604650000000002
15680 -2.98045458 7.757022060000001 -0.33365772000000005 4.34197 -1.699725 1.713888
15700 -2.1125540700000003 14.21279667 -3.3184483200000003 6.439117 -3.0806720000000003 1.847811
15720 -9.346418640000001 32.15373669 -1.4088729600000003 6.4641980000000006 -4.104252 0.458473
15740 6.8752011600000005 32.63034573 1.63624914 5.540317 -0.644065 2.013599
15760 12.81425364 7.444916910000001 -2.17587762 2.943809 1.47966 1.443675
15780 12.351113730000002 3.5043674400000002 2.35444905 1.977663 2.1200240000000004 1.980899
15800 10.25202879 9.62318817 2.04145119 1.257826 2.14435 2.647751
15820 12.693453300000002 18.023422500000002 -0.10403505 -0.320644 -2.157643 2.254473
15840 6.28737615 21.818931120000002 -1.1126403900000001 -1.171629 -2.109042 1.495371
15860 -3.83128569 12.46847076 -3.32787573 -1.448555 -1.319993 0.7510789999999999
15880 -3.68833437 11.128307040000001 -4.62448305 -1.137664 -0.297914 -0.701909
15900 -3.2259400200000004 11.983925430000001 -2.04714099 -1.175141 -0.8698950000000001 -1.485513
15920 0.35416062000000004 4.9253557500000005 1.2159200700000001 -1.277478 -0.744266 -1.378498
15940 4.102071120000001 -1.14347322 1.7872839 -1.538506 0.993388 -0.667908
15960 5.5184291100000005 -4.8068019 -0.38844657000000005 -1.319304 2.360371 -0.117994
15980 6.18439077 -2.0392047 -3.3835671 -0.961311 3.139488 0.536192
16000 2.4584841 2.6222424300000005 -3.7363837500000003 -1.061095 4.001709 1.051409
16020 1.2470570100000002 3.43355886 1.4049783900000001 -1.153025 5.499978 0.210293
16040 -1.9097323200000003 7.644452310000001 0.04460607 4.087067 0.605676 -0.761644
16060 1.9978947900000001 22.956410430000002 -8.17480053 -3.005296 4.56489 -5.956542
16080 2.36268945 59.84824959 5.8627110600000005 -2.046393 3.54247 1.664684
16100 -6.716387070000001 14.42610531 -3.49927605 -3.435942 0.984045 0.381731
16120 -8.93746917 18.27894357 -10.645713900000002 -2.009137 -1.493447 -1.470243
16140 -0.15507648000000004 17.07798375 -7.114104090000001 -3.089077 0.510124 -3.940469
16160 1.05994107 18.28014039 -12.42476721 -3.226792 -0.976347 -3.984392
16180 4.3604370900000005 13.505368140000002 -4.74138882 -3.505246 -2.032325 -3.138952
16200 3.4383461400000006 2.25416142 -3.36276009 -3.966185 -1.5171290000000002 -2.37478
16220 5.251979700000001 -5.46393456 -1.4901488100000002 -1.638128 0.307532 -2.223056
16240 1.55167713 -7.27965765 -1.6913322899999998 -1.114613 1.307962 -1.37999
16260 -1.90658331 -5.58683424 0.4197306600000001 0.385811 1.551472 -0.973512
16280 -2.77209018 -6.39889623 1.7323479000000002 0.803507 0.8381649999999999 -0.377885
16300 -2.7111602700000006 -4.191587370000001 2.30835186 1.53903 0.253211 0.610766
16320 -2.84992272 -1.07536239 0.18396693 2.158416 -0.5921 1.541256
16340 -0.004188870000000001 1.5239835 -1.0867419900000002 3.06074 -1.109728 1.800323
16360 0.7511418900000002 0.04161402 0.9777627 3.575445 -1.334864 1.711271
16380 -4.67327799 1.0747639800000002 8.836122060000001 4.186197 -1.778658 1.874203
16400 -3.68893278 14.206508460000002 -18.71557686 6.053668 -3.0042720000000003 1.9902990000000005
16420 -10.97622261 66.90906576 7.02099738 6.462041 -3.991581 1.054381
16440 16.782800849999997 18.74941155 -0.36568737 4.714728 -1.497782 2.303755
16460 14.076879120000001 2.8737217800000003 -3.2061826800000004 2.632371 0.12987 1.734853
16480 11.940673140000001 3.0276014399999998 -0.8720893800000001 1.903192 1.584991 2.111387
16500 11.191473629999999 9.215288370000001 0.63407916 1.182894 0.630989 2.613916
16520 7.785461250000001 14.27596326 0.94199544 -0.797778 -1.911213 2.31385
16540 0.029341710000000003 23.21312832 1.21187835 -1.6890889999999998 -1.7689099999999998 1.600279
16560 -1.6088498100000002 15.02904753 -1.8802434600000002 -1.722648 -0.736681 0.8370790000000001
16580 -0.56821482 10.32373008 -4.783002840000001 -1.098282 0.231089 -0.626468
16600 -4.229758080000002 11.81148525 -4.85126082 -0.992377 -0.6601600000000001 -1.346704
16620 -1.44973161 7.8023736900000005 1.53551025 -1.272806 -0.46923 -1.431161
16640 2.57674365 1.31725737 1.64253735 -1.617752 1.29769 -0.773537
16660 4.10057019 -2.9966214600000005 -0.86639958 -1.399041 2.687468 -0.32941
16680 6.03664236 -3.38177187 -2.1749751 -0.8402209999999999 3.5477 0.11243
16700 4.66310502 -0.03697389 -2.7500765400000002 -0.242821 5.296528 0.215843
16720 2.23679772 1.3657580100000002 -0.37302525000000003 1.6526740000000002 3.199035 -0.369638
16740 0.17394111 4.36896198 2.97326385 -0.7747029999999999 4.063999 -3.046506
16760 0.01047708 11.44610199 -2.60503569 -1.903678 2.886976 -1.563782
16780 9.02877084 48.09872430000001 -0.9202859100000002 -2.5612220000000003 1.518386 -0.002744
16800 -2.34293211 33.48940743 0.79050942 -3.208311 0.5841149999999999 -1.298616
16820 -11.412120150000002 13.79172204 -11.093883750000002 -3.456043 0.036544 -3.473476
16840 -3.22564572 18.288822240000002 -9.01709694 -3.842713 -1.283986 -3.5076
16860 -0.72225144 17.37691407 -7.08341841 -3.5617019999999995 -2.292621 -2.4660330000000004
16880 4.99736115 14.91633063 -6.27255324 -3.628111 -0.794189 -2.572034
16900 2.9835937800000005 5.691163590000001 -4.52673621 -1.5749030000000002 0.518592 -2.311547
16920 4.45204287 -4.26044376 -3.2967486000000004 -1.19416 1.085955 -1.469992
16940 2.3755601700000004 -5.923336860000001 -1.6880361300000002 0.178492 1.255976 -0.956421
16960 -2.74379814 -3.3196451400000004 -0.5236087500000001 0.8620909999999999 0.340594 -0.140761
16980 -3.7450656 -5.43219921 2.0622582 1.381566 -0.313054 0.8977440000000001
17000 -3.1262508 -4.312534860000001 2.76879402 2.330287 -0.791856 1.795881
17020 -2.46612609 -1.8059915700000002 0.7643069100000002 3.356188 -1.787419 1.85453
17040 -0.6397689599999999 0.74829699 -0.54216927 3.911117 -2.165762 1.682634
17060 -0.78975405 1.63369854 2.94587433 4.490054 -2.256178 1.680384
17080 -4.8716165700000005 4.79153754 -0.35116857000000007 6.012463 -3.151248 1.751986
17100 -3.43460853 27.99299196 -9.10690749 6.7437179999999985 -3.112455 0.742233
17120 -1.67951124 46.00009062 6.890475330000001 5.268166000000001 -0.004698 2.198886
17140 15.46150176 10.51353396 -3.18267792 3.292693 1.010992 1.926344
17160 14.10217911 1.26831528 -1.7479163700000002 2.21917 1.592542 2.08047
17180 10.194846300000002 5.4923737500000005 3.3958394100000002 1.908787 0.515305 2.4097630000000003
17200 5.32053198 12.402312120000001 1.5829612199999998 -0.157951 -2.38172 1.673716
17220 3.22519446 22.31514054 -3.07236447 -1.744457 -2.096362 1.484944
17240 -0.08876088000000001 18.94206033 -0.6742020599999999 -2.419976 -1.596891 1.307601
17260 0.27977139 11.364963480000002 -2.4020569800000002 -1.925714 -0.8883459999999999 0.047508
17280 -0.5623778700000001 13.151354670000002 -5.423674320000001 -0.8145789999999999 -0.978132 -1.1047049999999998
17300 0.45594918 10.64750913 -1.84581036 -0.541309 -1.257776 -0.940068
17320 2.9701246500000003 4.447854 1.5491265300000001 -1.080742 0.28683800000000004 -0.19806
17340 4.77791145 -1.2982455900000003 0.5695686 -1.5068290000000002 1.949901 0.12905
17360 5.82872922 -3.75179526 -1.4756300100000002 -1.365128 2.990921 0.742933
17380 4.72956777 -0.64635147 -2.3936694300000005 -1.144277 4.555655000000002 1.122758
17400 1.5521185800000001 1.1216165400000002 -2.40055605 -0.366338 5.84125 0.231374
17420 -0.33679692000000006 3.61513215 2.37765951 3.5928120000000003 0.923317 -0.380943
17440 -3.0883743900000002 8.05490271 -1.12132224 -2.289489 5.235856 -5.738757
17460 3.6600423300000005 26.022486690000004 -7.333396830000001 -2.478841 3.293335 -0.6560590000000001
17480 -1.54223991 57.93058098 4.36192821 -3.290115 1.348413 -1.085454
17500 -8.39064996 13.79696058 -7.04928942 -2.817821 0.311993 -2.049704
17520 -6.586002360000001 18.130743900000002 -9.61974486 -3.725335 0.495008 -3.871187
17540 1.2338821800000002 19.04190651 -7.63442649 -3.602175 -2.0489330000000003 -3.430164
17560 2.6807787000000003 17.83885716 -8.271497700000001 -4.1475550000000005 -2.389268 -2.298017
17580 3.20483871 11.666444400000001 -8.01118935 -3.206584 -1.174119 -2.4981
17600 4.48886961 -0.05568156 -6.25324716 -1.6888720000000002 0.399589 -1.757784
17620 4.261483620000002 -6.108343649999999 -4.716687240000001 -0.883482 1.283474 -1.317456
17640 2.83765041 -6.884030159999999 -2.88599409 0.528085 1.3286129999999998 -1.042735
17660 -1.28312838 -3.04676037 1.22220828 0.912341 0.5738260000000001 -0.168483
17680 -2.5825806 -5.56378074 2.8433402100000005 1.382559 -0.001297 0.989218
17700 -3.07939824 -3.94070643 2.84049531 2.291915 -0.359971 1.983067
17720 -3.13598232 -0.7318260000000001 0.5204695500000001 3.193271 -1.313472 2.020495
17740 -0.1562733 0.93855213 -0.41014629 3.6648 -1.562355 1.7805529999999998
17760 -0.84664224 0.8123562900000001 5.72918715 4.188153 -1.59761 1.618679
17780 -5.6995511400000005 5.20318476 -2.96113869 5.469592 -2.148055 1.764
17800 -7.285945860000001 34.388592030000005 -7.47096246 6.708073 -4.025918 0.637401
17820 -2.5882704000000003 39.275031510000005 3.412899 5.3882010000000005 -1.865711 2.354865
17840 15.40312245 13.21242192 -2.5270461900000005 3.220844 0.653356 1.648562
17860 13.515845220000003 3.669921 -0.43499502 2.0215490000000003 1.6862669999999995 1.990307
17880 10.54108044 7.38309429 3.3169572 1.192382 0.944584 2.238634
17900 8.66547711 12.41054271 -0.22034241 -0.13383499999999998 -1.751945 2.401605
17920 6.517293120000001 22.59146862 -1.8257489100000002 -1.445193 -2.45935 1.956449
17940 0.52929855 19.53273024 0.46388547 -1.795785 -1.596882 1.297006
17960 -2.3346917100000004 9.21573963 -4.185446310000001 -1.34123 -0.567249 -0.304539
17980 -1.64792304 11.08639872 -5.54447466 -0.596355 -1.088717 -1.344457
18000 -2.1764760300000003 11.14521948 -1.71977148 -0.764414 -0.940308 -1.548783
18020 1.42143957 5.14689498 1.73279916 -1.343004 0.5909310000000001 -0.8914209999999999
18040 4.056866640000001 -0.7038380700000001 1.4735404799999998 -1.426198 2.103905 -0.091706
18060 5.226228450000001 -3.9330742499999998 -1.51499754 -1.234885 3.269368 0.527705
18080 5.99503815 -1.15514712 -2.9912259600000004 -0.92552 4.526179 0.845517
18100 2.4848337600000003 1.34674623 -2.9849475600000006 0.433726 4.9283660000000005 0.056535
18120 0.7343766 2.0749817700000004 -1.5849035999999999 1.519948 2.540663 0.019112
18140 0.20133063 4.68016461 3.7729063800000002 -2.550502 7.305617 -4.697443
18160 -1.10829456 13.526920710000002 -4.13605296 -1.644479 1.867384 -0.427282
18180 6.24381975 54.45855710999999 1.4528806200000002 -3.093797 1.216394 -0.742082
18200 -0.84813336 25.872197490000005 1.04168466 -2.401137 -0.354905 -2.13567
18220 -10.60618941 14.68281339 -10.20098736 -3.493231 0.195743 -3.825385
18240 -2.61056853 17.14534902 -10.00908414 -3.512086 -1.903578 -3.627342
18260 -0.49966254000000004 17.06257224 -6.8912208900000005 -3.806392 -2.953952 -2.57158
18280 2.7960363900000003 15.389643509999999 -5.801182740000001 -3.567279 -1.7191419999999995 -2.551196
18300 3.94444404 6.067033739999999 -6.382278090000002 -1.913222 -0.105892 -1.960597
18320 5.23506726 -2.8969224300000005 -5.923484010000001 -1.237421 0.960493 -1.226579
18340 4.372709400000001 -5.30272683 -2.58587676 0.346893 1.109884 -1.065085
18360 -1.3415076900000003 -3.2933052900000006 0.17064495 0.977317 0.464114 -0.493696
18380 -1.9547896500000002 -4.354747290000001 2.0755801799999998 1.319613 0.035839 0.548624
18400 -3.39942987 -3.95388126 1.8764960400000001 1.926221 -0.14968 1.659777
18420 -2.46013218 -0.3468325500000001 0.65832948 2.99054 -0.7964060000000001 1.828273
18440 -1.53116442 1.08255312 -1.1407754700000001 3.617153 -1.312639 1.711534
18460 -2.0181033900000003 -0.0287433 2.0251371600000003 4.151087 -2.042421 2.064439
18480 -6.29411562 2.2248197100000002 4.190832 6.081057 -3.52117 2.026404
18500 -2.1112101 14.30769861 -7.82961606 6.031903 -3.311643 0.8219059999999999
18520 -10.82578626 62.60655672000002 1.4373121500000001 5.057225 -0.678276 1.930152
18540 16.367416019999997 20.45391867 -1.4651529300000001 3.159966 0.636533 1.646022
18560 16.10695071 3.62635479 -2.89811925 2.267759 1.832676 2.1926650000000003
18580 12.469520430000001 2.59964019 1.77485463 1.675325 1.374417 2.753135
18600 9.53277921 8.256380490000002 1.55361951 -0.07586 -2.353193 2.193409
18620 7.16709771 13.74621345 -0.08801532 -1.605201 -2.69018 1.4792
18640 3.78532584 23.728506480000004 1.9562807700000002 -2.205266 -1.858516 0.747552
18660 -0.11884815000000001 14.04275013 -1.96002819 -1.255394 -1.093263 -0.702781
18680 -0.97627158 9.138495690000001 -4.859648370000001 -0.673921 -1.573778 -1.187349
18700 -4.78929105 13.6216755 -4.35145113 -1.048016 -1.282483 -0.982032
18720 -2.33005158 8.99748675 0.6560829899999999 -1.543612 0.682002 -0.316099
18740 1.7929737 2.38678281 2.6113239 -1.349459 2.446165 0.031236
18760 3.4483817700000006 -2.90815488 0.20013381 -0.949305 3.634006 0.7343310000000001
18780 4.844521350000001 -4.53287727 -2.32301781 -0.14410599999999998 5.464652 0.975823
18800 3.7441630800000003 0.14041053 -2.9071052100000006 1.343261 3.202654 0.5906640000000001
18820 1.62996093 2.1323114100000007 0.27453285000000005 -0.155197 3.989083 -1.368179
18840 -0.65399346 5.40002241 0.35416062000000004 -1.884357 4.114565 -2.742401
18860 0.5566880700000002 10.68553269 -3.9189969000000002 -2.337237 1.637962 -1.061009
18880 6.18199713 40.27120758 -0.94962762 -2.695571 1.092806 -1.881072
18900 -3.21007725 34.05792636 2.6569796400000003 -2.759459 0.521884 -3.438254
18920 -7.87706703 16.267873950000002 -8.52522354 -3.583257 -0.216087 -4.387371
18940 -1.00590759 19.5565293 -7.707618900000001 -3.327128 -2.268533 -3.363868
18960 0.29697813 18.70270614 -3.8740965300000005 -4.163689 -1.795602 -2.626835
18980 3.9609150300000002 17.701585830000003 -8.44049457 -2.939124 -1.03975 -2.765596
19000 5.34089754 9.29552436 -6.2167245300000005 -1.883294 -0.059154 -1.686983
19020 4.7083095 -1.94939415 -6.14053026 -0.988875 0.5810350000000001 -1.120739
19040 3.8956491000000004 -6.441550110000001 -3.36799863 0.721754 0.411328 -0.657783
19060 -0.8095212000000002 -5.051698740000001 -0.82418715 1.18212 -0.030515 0.212327
19080 -2.40564744 -5.647901490000001 2.29173372 1.637707 0.328994 1.286475
19100 -2.74813416 -5.3766648 2.6159640299999998 2.354453 -0.423152 2.011359
19120 -2.54754909 -1.4169564000000001 1.08688914 3.185002 -1.145676 1.890967
19140 -2.31598404 0.46718163 -1.1951130600000002 3.656918 -1.658078 2.015629
19160 -1.9742428800000003 1.4129146799999999 1.90164888 4.574683 -2.692644 2.597001
19180 -4.845423870000001 3.8815815600000003 2.2132929600000004 6.967841 -4.302412 2.155376
19200 -3.14705781 13.87584279 -3.60854964 6.320627 -3.95064 2.65781
19220 -9.047184210000001 59.207725260000004 1.85868108 4.21017 -0.347654 1.768919
19240 13.382772570000002 19.996762860000004 -2.7268758900000005 2.143514 1.3045129999999998 2.246953
19260 13.6216755 3.4747216200000004 -2.7854121600000004 1.432795 1.280412 2.4962560000000003
19280 11.41016796 2.46252582 2.83854312 0.495485 -0.486904 2.515475
19300 7.77947715 10.23571476 0.7309332900000001 -1.1032 -2.422769 2.101932
19320 8.864865360000001 17.739609390000002 -2.27467413 -1.634394 -1.191989 1.401232
19340 5.29029756 23.6981151 1.9284399900000002 -1.683282 -0.8783559999999999 0.003255
19360 -0.03652263 11.21947137 -3.5970228900000003 -0.745943 -1.199694 -1.168035
19380 2.1487824000000004 9.94412232 -3.7383261300000004 -0.7121029999999999 -1.871585 -1.537611
19400 -1.93517946 12.009676680000002 -4.229306820000001 -1.1778620000000002 -0.090681 -0.8092779999999999
19420 -2.33813502 8.729850330000001 0.28156662 -1.477386 1.871852 -0.091767
19440 0.26001405 3.38326299 2.29727637 -1.089498 3.224452 0.17947000000000002
19460 2.89976733 -1.9205037 -0.3013239600000001 -0.610858 4.343592 0.6791699999999999
19480 4.99840101 -2.7876488400000006 -3.24719829 -0.062831 5.337954 0.089929
19500 4.571646390000001 0.9831582000000001 -2.9582937900000004 1.457259 2.880523 0.064172
19520 3.22938333 2.0507314500000002 1.7630335800000003 -2.33613 7.443036999999999 -6.2129970000000005
19540 -0.58213521 6.53226318 -0.7463448 -1.802627 1.800541 -1.15576
19560 3.1849244100000007 12.784166370000001 -2.43932517 -3.121939 1.481165 -0.8633270000000001
19580 7.838445060000001 43.03595988000001 1.31830704 -2.720502 1.020394 -1.866198
19600 -3.79640133 32.44099311 3.5310114 -3.3522510000000003 0.522176 -3.529989
19620 -11.10331116 18.93218166 -8.81442234 -3.540218 -1.569833 -3.681377
19640 -3.5425381500000004 19.389180510000003 -9.69204456 -3.528468 -2.548187 -2.519952
19660 -2.4709133700000003 18.12430854 -5.6775473100000005 -3.4315839999999995 -1.540016 -2.1766
19680 2.0014852500000004 14.58446814 -5.7667594499999995 -1.74209 -0.162227 -1.873872
19700 5.12055513 5.930969040000001 -5.598655290000001 -1.248301 1.442881 -1.171726
19720 5.370082290000001 -4.25385144 -6.8394240900000005 0.117695 1.370789 -0.84483
19740 4.09848066 -7.57693989 -2.7069714000000005 0.647393 0.392041 -0.033368
19760 -1.2970487700000002 -3.16741356 1.02626334 1.312729 -0.328056 1.245523
19780 -3.2070852 -4.26044376 3.80868345 2.378471 -0.902104 1.885022
19800 -3.8202102 -4.54574799 2.61880893 3.2800300000000004 -1.535109 1.960496
19820 -3.2707030500000003 -1.88682597 0.5697157500000001 3.834561 -1.607395 1.708089
19840 -1.9320304500000003 0.1935513 -0.75413394 4.614534 -2.336385 1.916365
19860 -2.12527764 1.13269203 2.42959365 7.4050449999999985 -4.4010050000000005 1.391573
19880 -6.78718584 3.9751297200000004 0.13127742 6.415491 -4.460548 1.6881130000000002
19900 -4.255352370000001 15.23172213 -3.3465932100000004 4.4867300000000006 0.297312 1.411102
19920 -9.85909905 67.55331789000002 5.7899601 2.670018 2.393212 1.794173
19940 14.493764880000002 20.952982799999997 -2.6855659800000002 2.186024 2.740162 2.295617
19960 14.42909736 3.5167869000000005 -1.18089837 1.290505 1.071755 2.851248
19980 12.23750412 2.89916892 3.1022947800000003 -0.757185 -1.962236 2.251174
20000 10.20876669 8.74975482 1.09212768 -1.645091 -1.5440120000000002 1.530864
20020 8.00625492 14.525647379999999 -1.67516541 -1.275074 -1.351959 0.336793
20040 3.5950707000000004 23.86411992 1.07461683 -0.504065 -1.051314 -1.1879
20060 -2.6840650500000005 13.456867500000001 -3.2754903300000002 -0.8459399999999999 -1.7582369999999998 -1.795064
20080 -1.79955621 9.4920579 -6.03125667 -1.545089 -0.094061 -1.2434
20100 -3.10678776 12.32461692 -3.5088506100000005 -2.153939 2.395541 -0.7295510000000001
20120 -0.18231885 7.80806349 -0.18621342 -1.844027 3.433428 -0.276858
20140 3.53669139 0.5277976200000001 1.72740366 -0.926963 3.874502 0.513057
20160 5.4660339 -4.38603138 -0.60234381 -1.33872 5.097827 0.772464
20180 6.568040250000001 -2.49920541 -3.39897861 1.348535 3.760859 -0.744223
20200 2.90007144 1.84147434 -3.29015628 1.310322 1.386313 -3.891634
20220 1.55436507 3.5390948399999997 1.98547533 -2.390466 4.6893400000000005 -1.121907
20240 -1.5632038799999999 7.91119602 -0.88316487 -2.82151 2.504882 0.741929
20260 4.84872003 23.82984378 -8.19306675 -2.573704 -0.105355 -0.990993
20280 2.9621883600000003 56.381905710000005 5.10228891 -2.543985 -0.397073 -2.920688
20300 -8.08139952 18.271154430000003 -1.2424168800000002 -3.3687400000000003 0.91818 -3.978197
20320 -10.80737289 19.37466171 -8.75933919 -2.996008 -1.902669 -4.035004
20340 -1.6190325900000002 17.66970333 -7.65882396 -3.677351 -2.208154 -3.24141
20360 0.19938825000000002 17.12378664 -5.927378580000001 -2.496477 -0.301025 -2.472894
20380 3.9707937 15.21136638 -8.26596486 -1.204658 1.149913 -1.205228
20400 5.206618260000001 1.7221651200000003 -5.18596821 0.630875 1.941736 -0.746905
20420 7.068605310000001 -7.281904140000001 -1.2927127500000002 1.286562 1.066398 -0.329938
20440 1.3481000100000002 -7.22098404 -1.50856218 1.305646 -0.162498 0.6096689999999999
20460 -2.39681844 -5.858963640000001 2.2312648800000003 1.803873 -1.086439 1.594961
20480 -3.64926114 -8.955872730000001 3.60704871 2.634852 -1.717225 1.709464
20500 -4.470004980000001 -5.08417965 3.0798495000000004 3.258674 -2.055786 1.918286
20520 -4.14233136 -0.6976970100000001 0.20911977 3.894384 -2.584064 2.14132
20540 -0.11511054 2.3474152800000003 -0.38305107000000005 5.005278 -2.976748 2.409161
20560 0.18891117000000002 2.5113305699999997 2.19743019 7.381875999999999 -3.723953 1.527276
20580 -6.354731610000001 3.7567395 3.71213343 5.194382 -1.193324 2.473358
20600 -3.89490354 32.868797400000005 -12.80033325 2.771481 -0.216756 2.249016
20620 -1.9610680500000002 44.04995091000001 7.68950964 2.313854 -0.14105299999999998 1.830184
20640 13.99035492 12.69135396 0.9017253900000001 1.730935 -0.277096 2.25678
20660 13.3037334 1.4436003599999998 -3.58160157 -0.112313 -1.976897 1.895706
20680 11.081601630000002 3.94159914 1.4995860300000001 -1.560641 -2.231469 1.280234
20700 8.45112861 7.66032489 2.8605469500000003 -2.222897 -1.414613 0.841931
20720 3.19121262 12.656930670000001 -0.30955455000000004 -1.266818 -0.760851 -0.438367
20740 -0.7626686400000001 27.804532050000002 0.7906565700000001 -0.287266 -1.216108 -0.92446
20760 -1.2871701 16.66783746 -1.74282498 -0.281512 -1.566618 -0.654779
20780 0.65055015 11.6118027 -8.702451 -0.8527389999999999 0.088639 0.15095899999999998
20800 -1.6208278200000001 11.89890216 -2.8698370200000003 -0.941847 2.133195 0.421181
20820 2.13321393 5.122948770000001 1.0779129900000002 -0.8977930000000001 3.3786120000000004 0.887774
20840 4.8678789600000005 -1.24421211 1.22251239 -1.33749 4.502121 1.091566
20860 6.202352879999999 -4.73615028 -1.29929526 -0.652925 4.741722 -0.011705
20880 6.35773347 -2.9660829300000007 -1.65750741 3.289689 0.318642 -0.484835
20900 3.16875753 0.025751250000000003 -0.8818209 -2.074025 6.34667 -5.326342
20920 0.8825664599999999 2.53812168 2.8478233800000003 -2.810497 3.485381 -0.974815
20940 -1.6714278 6.903346050000001 -0.72718587 -3.574011 1.573178 -0.8377610000000001
20960 3.20752665 16.40573388 -5.6414661299999995 -2.62422 0.634306 -1.83512
20980 2.9401845300000002 54.57994605000002 0.7801794900000001 -3.404904 0.605734 -3.600967
21000 -5.60764125 21.57343587 -6.09592419 -3.509822 -1.317061 -3.78297
21020 -6.05117097 18.36995094 -8.87908986 -3.905219 -2.598992 -2.541747
21040 -0.12498921000000002 20.566037160000004 -6.03424872 -3.725752 -2.138091 -2.606245
21060 1.32684174 16.930843559999996 -7.43803029 -1.901553 -0.135701 -1.975432
21080 2.8737217800000003 10.92547548 -7.16754897 -1.30223 1.7457759999999998 -1.214151
21100 2.07513873 0.32976315 -5.964499620000001 0.140382 1.597799 -1.156883
21120 3.33401679 -6.0820038 -5.639975010000001 0.586828 0.747582 -0.447649
21140 1.32863697 -4.1444307 -3.61932102 1.196646 0.227001 0.8017569999999999
21160 -1.4498885700000002 -2.80935837 1.75704948 2.412298 -0.423145 1.95942
21180 -1.9121259600000002 -5.5759058999999995 3.6209691 3.503584 -1.194791 2.175266
21200 -0.29997999 -2.57299623 2.3623853400000003 3.931394 -1.719254 1.891575
21220 -0.68497344 0.45790137000000003 -0.7315317000000001 4.619262 -2.141828 2.009084
21240 0.13247424000000002 0.9123496200000001 -1.19541717 6.8778130000000015 -3.5390870000000003 1.820484
21260 -2.5188156 -0.34503732000000004 5.9201878500000005 6.595567 -4.535974 0.948121
21280 -8.81112618 2.6417054700000002 -5.444922780000001 5.3657879999999984 -0.705665 1.852225
21300 -11.57617278 27.84435084 1.2509515800000002 3.174245 0.643324 1.799937
21320 -4.271067990000001 48.38942403 -2.54366433 2.429744 0.643111 2.23164
21340 16.741785240000002 15.176187720000001 -1.57248414 1.491175 -0.381888 2.562887
21360 14.476244220000002 4.43093175 -0.58872753 -0.564128 -2.026721 1.959912
21380 12.08691081 8.182883970000002 2.0899518300000004 -1.769621 -2.273068 1.208325
21400 10.475363250000001 11.75565654 -0.6417113400000001 -2.116158 -1.551808 0.6933020000000001
21420 8.181088740000002 20.4326604 -2.22811587 -1.528418 -0.6880930000000001 -0.557792
21440 2.16480213 21.91847319 1.8479097000000002 -0.957323 -0.95516 -1.131369
21460 -3.1903199100000004 10.39513707 -3.4450856100000005 -0.963986 -0.370866 -0.7241029999999999
21480 -3.03823548 10.96754076 -5.64895116 -1.52456 1.386198 0.187332
21500 -5.585333310000001 11.35223991 -2.14923366 -1.315525 2.934985 0.569231
21520 0.36613863 4.59035406 1.97708778 -0.6856770000000001 3.953717 1.27201
21540 5.079088260000001 -1.23987609 0.56357469 -0.488661 5.566797 1.304434
21560 6.45292971 -5.154380010000001 -1.5666373800000002 1.813727 3.587822 0.032641
21580 7.14538818 -1.12431429 -4.30414731 0.828642 3.532767 -1.859582
21600 2.5379745300000005 2.82268035 -2.59874748 -1.89003 4.453695 -2.564482
21620 0.8330161500000001 3.2061826800000004 2.24143785 -2.569392 2.858025 -0.408306
21640 -1.26846243 6.98672124 -1.2907703700000002 -3.051946 1.4443629999999998 -1.044389
21660 4.249515420000001 22.885758810000002 -6.19052202 -2.8863 0.541747 -2.968079
21680 4.06435167 55.92835017000001 3.4669422900000004 -3.912113 0.5229600000000001 -4.305157
21700 -4.866230879999999 17.13906081 -3.38237028 -3.242194 -2.421033 -3.662181
21720 -7.0781798700000005 18.82680264 -10.751838480000002 -4.255729 -2.1445 -2.675101
21740 -0.29173959000000005 18.84536316 -8.28871425 -2.818388 -1.235127 -2.762366
21760 0.8157996000000001 17.48020356 -6.9030419400000005 -1.754592 -0.021754 -1.56115
21780 1.5498819000000004 12.17702547 -5.33116602 -0.5483859999999999 1.014177 -1.129968
21800 2.58407172 1.18657836 -2.92207527 0.923086 0.8216950000000001 -0.890843
21820 1.91197881 -5.65837857 -2.58093252 1.273723 0.376132 -0.061019
21840 0.16930098000000005 -7.3428340500000004 -2.2371018300000003 1.833685 0.229237 1.021984
21860 -2.65368348 -4.44021201 1.0204263900000001 2.501745 -0.82562 1.832374
21880 -3.26111868 -5.557639679999999 2.2499725500000007 3.32286 -1.361225 1.862296
21900 -2.32990443 -3.2921084700000005 2.0907072 3.792268 -1.61953 1.848815
21920 -2.31748497 0.29548701 -0.006141059999999999 4.558089 -1.906503 2.0874040000000003
21940 0.8684891100000001 1.75344921 -0.8176046400000001 6.387392 -3.058561 2.223435
21960 -0.8491830300000001 1.3040923500000001 5.560484580000001 6.585042999999999 -3.959466 1.972802
21980 -6.65411319 4.79302866 -4.44950208 4.497699 -0.653089 2.775447
22000 -7.83949473 37.59626583 -3.64416975 2.384948 -0.168062 2.128749
22020 2.96473896 38.296513440000005 3.6860878800000005 1.524694 0.360552 2.016309
22040 14.598094230000001 10.80976653 -4.24592496 0.367025 -0.405366 2.216439
22060 13.47887133 1.05201459 -0.53618517 -1.529405 -2.6721470000000003 1.964679
22080 11.53770777 6.277350330000001 1.14197229 -2.440563 -1.57482 1.400365
22100 9.412871580000001 10.67999004 -0.00748503 -2.411197 -0.360554 0.347883
22120 8.79885387 21.056860890000003 -1.49733954 -1.096203 0.395379 -0.687553
22140 2.6668583100000003 21.343361940000005 2.4062458500000004 -0.648595 -1.061868 -1.087415
22160 -0.71625753 10.13198382 -4.721180220000001 -0.96039 -0.709937 -0.914855
22180 -0.9636951600000001 10.88626491 -6.0174834299999995 -0.917507 0.620269 -0.33942100000000003
22200 -4.2471217800000005 12.39871185 -1.8037450800000001 -0.616981 1.6827849999999998 0.089674
22220 -0.5170262400000001 6.60606381 2.0839677300000004 -0.588309 2.681705 0.407993
22240 3.0419730900000004 0.21285737999999998 1.4994290700000001 -1.572463 3.865044 0.507492
22260 4.43288394 -3.5346018600000004 -1.2666672 -1.232168 5.505058999999998 -0.457905
22280 5.4965724300000005 -1.73952882 -2.50249176 3.213623 0.14323 -1.306604
22300 4.2685272 0.00913311 -2.287692 -3.008638 6.537152 -6.328697
22320 2.1863547000000003 0.9774684000000001 -0.49232466 -2.556121 3.899786 1.7279639999999998
22340 0.6192660600000001 3.8079280800000004 3.83741694 -4.368963 1.76227 1.046129
22360 0.09805095000000001 11.569894380000001 -2.27676366 -2.991041 0.050104 -0.079709
22380 7.973018639999999 43.847864910000006 -3.13313742 -2.867858 -0.230972 -2.619788
22400 -1.5459873300000002 38.92296042 0.9291149100000001 -3.237028 -1.816865 -3.971636
22420 -9.850417199999999 13.13339256 -11.73260304 -3.725445 -2.318189 -2.855976
22440 -2.97565749 18.329386590000002 -9.652078620000001 -3.2915620000000003 -1.050523 -2.696473
22460 -0.32841918 18.13688496 -7.16559678 -1.404692 1.113519 -2.318598
22480 2.52449559 13.514344290000002 -6.959027610000001 -0.507988 1.513315 -1.311923
22500 3.38027094 4.64813496 -6.06913308 0.401864 1.561119 -0.736267
22520 3.7829322000000003 -4.22151768 -7.4266605000000006 0.928872 1.070788 0.213419
22540 3.8943051300000002 -7.66301283 -3.92633478 1.519144 0.224352 1.450287
22560 -0.46613196000000007 -2.96937909 -0.27886887000000005 2.740247 -0.582847 2.185173
22580 -2.94886638 -4.15206288 2.9008170000000004 3.711182 -1.352939 2.117099
22600 -2.11075884 -2.6785322099999997 2.3912757900000003 4.22432 -2.537117 2.36896
22620 -1.33941816 0.03053853 0.16121754000000002 6.153317 -4.102673 2.461352
22640 -1.09437417 1.5994224000000004 -0.5312409300000001 6.603936 -4.343158 0.940455
22660 -0.81416133 0.30821058 0.5599842300000001 5.4044089999999985 -1.996523 1.22283
22680 -3.4961270400000006 -1.83502917 5.204224620000001 3.681257 -0.02018 1.320425
22700 -9.21199221 3.1774393800000005 -2.443671 3.060669 0.657077 1.921972
22720 -16.283285460000002 55.23004494 3.2427053100000007 2.488439 1.966618 2.604232
22740 4.50083781 31.190335830000002 1.74896604 0.565611 -1.052921 2.011421
22760 18.06712605 11.81897028 -4.68181269 -1.42356 -1.750005 1.171616
22780 12.6527418 0.45879408 -1.0792569600000002 -2.371573 -1.572632 0.5281060000000001
22800 12.334652550000001 2.9792577600000003 0.20926692000000002 -1.930428 -1.265602 -0.709411
22820 13.98406671 11.319464700000003 2.8487259 -0.671342 -1.33276 -1.521993
22840 4.50743013 20.974829670000002 0.58887468 -0.405707 -1.400326 -1.106649
22860 -1.2454089300000002 18.70016535 -1.03060917 -1.163415 0.532702 -0.072902
22880 -3.58758567 12.18077289 -1.5308701200000001 -1.662589 2.603697 0.068372
22900 -4.66744104 13.866562530000001 -3.3555693600000005 -1.256137 3.837999 0.602672
22920 -0.66596166 10.00429686 0.27078543 -1.050353 4.6496830000000005 0.970537
22940 3.76152678 2.9102444100000002 1.34105643 -1.7652990000000002 5.603007 0.283864
22960 4.50907821 -2.15461935 -1.15155666 2.063601 3.342468 -1.694751
22980 5.62904667 -3.6136312200000003 -2.3942678400000004 0.6227020000000001 -0.667572 -4.884047
23000 4.932693629999999 0.64455624 -1.65390714 -2.472801 5.855803 -1.579039
23020 2.03800788 5.0903108999999995 1.0041123600000001 -2.840414 2.755721 1.165559
23040 0.32631984 10.2150549 -2.42286399 -3.118769 -0.666316 -0.628749
23060 9.680066550000001 27.45470745 -2.8557596700000003 -2.910305 -0.5169819999999999 -2.7201310000000003
23080 1.5021268200000002 48.5208486 2.7493309800000003 -3.338964 -0.076687 -3.76307
23100 -8.27778591 17.921928240000003 -2.9274609600000003 -3.020066 -2.092701 -3.3790400000000003
23120 -6.0071535 20.61557766 -8.03962854 -4.292016 -2.304598 -2.833246
23140 0.8646043500000001 20.147503320000002 -5.085523620000001 -2.723067 -0.595671 -2.917412
23160 2.5912624500000003 18.20110122 -7.2069165 -1.568874 1.179135 -1.80281
23180 4.804261110000001 12.21789393 -4.86697644 -0.154641 1.532431 -1.337253
23200 2.5134201000000003 -0.41897529 -5.29957782 0.585468 0.7821199999999999 -0.824785
23220 2.72493351 -7.57949049 -4.74184008 0.873257 -0.353414 0.243698
23240 2.1806649 -7.28984043 -2.9913829200000004 1.515206 -0.9854 1.353533
23260 -2.0299244400000003 -3.91690737 0.25207776000000004 2.526878 -1.74357 1.7311759999999998
23280 -3.62336274 -6.83508807 2.7258360300000004 3.387925 -2.30426 1.872505
23300 -2.40160572 -4.65786648 2.76205455 3.847686 -2.706759 1.962758
23320 -2.8129488300000003 -0.82299033 0.51283737 5.168715 -3.607153 2.208148
23340 -0.37422207 1.1768566500000002 -0.46508229 6.6731820000000015 -5.128414 0.651388
23360 0.6843750300000001 0.8180460900000001 1.89206451 5.746848 -2.858514 2.036039
23380 -2.9523096900000003 0.31045707000000006 7.1278773300000005 3.579324 1.171789 1.6931310000000002
23400 -7.066505970000001 6.571483560000001 -12.4329978 2.873423 1.1662 1.837759
23420 -13.621224240000002 66.78601893000001 1.79476893 2.471305 0.7913560000000001 2.152692
23440 14.838193980000002 27.19649844 1.9911553200000003 0.754536 -1.167027 1.878291
23460 16.642390320000004 8.073316080000001 -3.1563380700000003 -1.47973 -1.635947 1.202056
23480 11.6698779 0.32167971 -3.4154496000000005 -2.086644 -1.0114459999999998 0.6009479999999999
23500 8.23437666 5.74624674 1.20049875 -1.2913629999999998 -1.017426 -0.45637
23520 7.53428601 12.89912976 2.0622582 -0.632309 -0.954512 -1.042574
23540 3.27219417 23.07885885 0.13890960000000002 -0.8090510000000001 -1.03198 -0.963592
23560 -0.38919213 18.16008561 -0.07753824000000002 -1.371432 0.6595979999999999 -0.190954
23580 -0.8408052900000001 12.43703952 -4.42420209 -1.2700790000000002 2.099543 0.064282
23600 -2.2432330800000004 13.91326794 -6.55038225 -0.667983 3.123664 0.775406
23620 -0.00104967 10.087073640000002 -1.1741589000000001 0.208816 4.7581 1.270818
23640 3.6908751600000005 3.19974732 2.1625556400000003 1.011437 3.942028 0.8597959999999999
23660 5.282361270000001 -1.9375731 -0.44382402 0.841899 3.07045 -0.277928
23680 6.16447647 -4.83913566 -2.14519194 -1.894737 5.313547 -4.4659830000000005
23700 5.376066389999999 -0.89229798 -1.9805310900000002 -1.980685 1.612292 -1.609688
23720 2.7689411700000006 1.40483124 -0.25896438000000005 -2.991968 1.7845080000000002 -1.70884
23740 -0.18022932 5.210512830000001 2.37690414 -3.241035 0.404795 -2.512115
23760 0.33859215 12.455148779999998 -2.7116115300000003 -3.855392 -0.584005 -3.786323
23780 8.415949950000002 51.4734624 2.0291788800000004 -3.964739 -2.384478 -2.8543580000000004
23800 -2.21120343 28.63066158 5.43489696 -4.539463 -2.080537 -1.909113
23820 -12.328815600000002 18.478469160000003 -2.0806715700000002 -3.246856 -1.6456669999999998 -2.555461
23840 -0.15777423000000002 20.84775093 -6.513849810000001 -1.976598 -0.514324 -1.798146
23860 -0.8104139100000001 16.67771613 -5.2935937200000005 -1.221629 0.705609 -1.435514
23880 3.24091008 13.182638760000001 -7.281609840000001 0.096174 0.722536 -1.216959
23900 2.92760811 7.671841830000001 -7.33205286 0.727014 0.48244 -0.330962
23920 1.2614286599999998 -0.85920885 -6.03125667 1.359742 0.347266 0.954429
23940 2.2818550500000003 -6.514752330000001 -2.18171457 2.500829 -0.361933 2.026189
23960 -0.31344912 -5.599852110000001 -0.20118348 3.56856 -1.218561 1.936469
23980 -2.2050623700000003 -5.58099729 1.91676609 4.0209220000000006 -1.614716 1.778835
24000 -2.1197448 -5.716757879999999 2.23619931 4.474097 -2.443552 2.197532
24020 -2.46851973 -1.1687732100000001 0.5550498 6.875064 -4.506935 1.700996
24040 -1.2404745000000001 1.7917768800000002 -1.2513930300000002 6.495282 -4.196103 1.288816
24060 -0.41463927 3.00739284 1.7025549300000002 4.67669 -0.673682 1.378422
24080 -3.5055642600000003 5.29658577 -0.85037985 2.897096 0.673149 1.774462
24100 -3.97289304 12.036320640000001 -6.08529996 2.812878 1.187979 2.038133
24120 -7.2618525 53.52374259 2.23529679 1.917523 -0.012707 2.311156
24140 12.56815998 19.438877970000004 -3.2045346 -0.552497 -1.736466 1.559038
24160 12.231510210000001 3.6836942400000003 -2.27451717 -2.2139740000000003 -1.312441 0.857886
24180 11.33413065 3.23162982 2.0450514600000003 -2.3612990000000003 -0.6378689999999999 0.124261
24200 8.33750919 11.64907089 1.17056844 -1.412732 -0.670263 -1.11996
24220 11.75250753 19.582878960000002 -1.9549368000000003 -0.7944 -1.27006 -1.377655
24240 6.373292129999999 22.47321888 1.20634551 -0.811537 -0.733192 -0.8229870000000001
24260 -1.06249167 11.34250839 -3.9508794000000003 -0.991909 0.525506 -0.020421
24280 -1.33537644 11.556866700000002 -2.6595204300000006 -0.623922 1.715328 0.481621
24300 -4.51431675 12.52804689 -2.7084723299999998 -0.306266 2.903145 1.26212
24320 -1.68578964 9.0061686 1.30109049 -0.66967 5.121394 1.49068
24340 2.380651560000001 2.52974394 2.27646936 1.349886 2.198387 0.246962
24360 3.4605069300000006 -1.9220046300000002 -1.05350571 -0.254106 2.4526380000000003 -2.267412
24380 4.95634554 -1.80285237 -4.154015070000001 -1.569279 4.384118 -3.024692
24400 3.92035068 1.48282074 -2.45804265 -2.906164 2.194706 -0.203642
24420 1.5947822700000003 2.63960613 1.8905733900000001 -3.605686 1.603292 -0.881818
24440 -1.68578964 6.286777740000001 -0.80038809 -3.0994490000000003 1.948928 -3.037601
24460 2.36972322 13.13563905 -4.32495432 -3.687511 0.551323 -4.399764
24480 6.94600974 46.579537890000005 1.8814402799999999 -3.41539 -1.508508 -3.1422
24500 -1.9586744100000002 27.70947315 1.49614272 -4.3595739999999985 -1.686323 -2.61232
24520 -9.683961120000001 17.70997338 -9.56346489 -3.127054 -0.88221 -2.572694
24540 -2.92057434 19.13815242 -5.87513052 -1.883285 0.511456 -1.592642
24560 -1.40392872 17.9078607 -4.3673139 -0.950735 0.721668 -1.158041
24580 3.3205476600000003 14.70676941 -6.45682428 0.662626 0.322009 -0.6474
24600 2.8746243000000002 4.19202882 -6.277350330000001 1.149083 -0.129993 0.342546
24620 2.2721235300000004 -3.78068571 -5.23327203 1.8561330000000005 0.113767 1.373734
24640 2.1923388000000004 -6.88523679 -3.4753200300000002 2.654704 -0.601928 1.969888
24660 -1.8827842500000003 -5.172047820000001 -1.8381781799999999 3.477474 -1.318337 1.925278
24680 -2.18305854 -5.1442070399999995 0.43724151 3.957034 -1.513586 1.851966
24700 -0.6373753200000001 -4.33334187 2.27137797 4.775276 -2.157954 2.176838
24720 -0.24638796000000002 -0.32452461 -0.04879494 7.708555 -4.821432 1.571557
24740 1.64507814 2.42720001 -2.29921875 6.505026 -5.022503 2.813228
24760 1.37130066 1.27384812 0.84933018 3.886283 -0.92405 1.803715
24780 -3.5923827600000005 1.66304025 8.27928684 2.208314 0.126868 2.319417
24800 -5.03613027 9.099579420000001 -11.39760135 1.293343 1.232367 2.377839
24820 -14.793136650000001 65.0026296 0.9984225600000001 0.09949 -0.22267 2.580736
24840 5.527110960000001 21.65860629 -0.93555027 -1.582155 -1.704015 2.327334
24860 11.796966450000001 2.78121348 -3.8044847700000006 -2.173263 -0.427445 1.948759
24880 10.691369640000001 2.5836302700000005 3.7356283800000005 -1.7112619999999998 0.259547 0.246224
24900 9.699833700000001 11.454028470000003 -0.057329639999999994 -0.727642 0.173843 -1.016912
24920 10.84749579 17.73063324 -1.63998675 -0.6949930000000001 -1.09316 -1.4797360000000002
24940 6.55980966 24.455692350000003 0.057329639999999994 -1.2647700000000002 -0.197025 -1.045825
24960 0.1155618 12.227174190000001 -2.4656748299999998 -1.326155 1.2811709999999998 -0.6251329999999999
24980 2.27332035 9.844727400000002 -3.70075383 -0.7999 2.168495 -0.27008000000000004
25000 -0.79574796 10.447071209999999 -4.87835604 -0.35490900000000003 3.041087 0.11006
25020 -2.0242444500000003 9.42455529 -0.05223825 0.126664 4.8596949999999985 0.17945999999999998
25040 0.9723770100000001 4.5137183400000005 2.46821562 1.349315 3.622888 -0.341321
25060 1.93681773 -0.53603802 -0.30641535000000003 -0.263985 4.694704 -3.770138
25080 3.2516912700000002 -2.37974904 -3.08329281 -1.849689 2.476021 -1.404782
25100 4.26733038 0.30701375999999997 -2.33425026 -3.248181 1.993647 -0.5091479999999999
25120 2.99856384 1.5488322300000001 -1.8814402799999999 -3.255674 1.91364 -1.538864
25140 1.8021068100000002 3.8037392100000003 3.38177187 -3.324668 0.391546 -3.387556
25160 0.73137474 11.013343650000001 -1.0571059800000002 -3.929324 -1.248953 -3.668483
25180 10.855422270000002 37.3801221 -2.30012127 -3.913784 -1.90531 -2.315164
25200 5.793403410000001 46.694795580000005 3.6268060500000003 -3.360345 -0.722039 -2.731558
25220 -13.03129989 17.975971530000002 -8.52791148 -1.4719209999999998 0.722338 -2.470254
25240 -10.045606770000001 19.08456039 -9.76913154 -1.140503 1.1920389999999998 -1.671647
25260 -3.88696725 18.43835607 -6.981178590000001 0.282248 1.284393 -1.225993
25280 -0.5258552400000001 14.54525757 -5.48129826 0.979587 0.311553 -0.439005
25300 1.76093424 5.65150176 -5.18686092 1.2740049999999998 -0.384655 0.781716
25320 2.48902263 -3.28207284 -5.215300110000001 2.11712 -0.66679 1.873281
25340 4.27092084 -8.63045541 -2.4996566700000002 3.214237 -1.638434 2.015717
25360 -0.09894366 -4.44709863 -1.5064628400000002 3.829352 -2.3696900000000003 1.868195
25380 -2.38184838 -5.834713320000001 2.31538563 4.2559239999999985 -3.2864370000000003 2.183202
25400 -2.89827621 -5.304522060000001 2.85411159 6.4512550000000015 -5.006157 1.970004
25420 -3.17070972 -2.4599850300000004 1.6199351100000001 6.367262 -4.727949 1.468065
25440 -1.95642792 0.79005816 -0.14610033 4.845768 -0.626912 1.78974
25460 -0.5557953599999998 2.26523691 0.5273561700000001 2.977338 0.681669 1.971565
25480 -2.54754909 3.6627302700000004 3.4214337000000006 2.324662 1.974973 2.255905
25500 -3.79445895 10.793001240000002 -6.61384314 1.668945 0.046735000000000006 2.845591
25520 -9.45928269 60.47828702999999 -0.6709058999999999 -0.6515380000000001 -2.683737 2.236813
25540 4.84332453 22.11351561 1.80718839 -1.9818830000000005 -2.5574790000000003 1.387736
25560 11.10750003 4.4400648600000014 -4.072278150000001 -2.516617 -1.85303 0.711187
25580 10.687779180000001 0.12962933999999998 2.17572066 -1.255162 -0.988127 -0.887716
25600 9.53801775 9.46720917 2.0910015 -0.347694 -1.480805 -1.277056
25620 11.8432206 17.010922590000003 0.74530494 -0.462481 -0.7384850000000001 -0.8675440000000001
25640 5.071907340000001 24.837399450000003 0.86699799 -1.033515 1.050522 -0.209391
25660 -2.79513387 13.743672660000001 -4.42913652 -0.941652 2.715424 0.008103
25680 0.78212187 13.031152740000001 -4.86952704 -0.556925 3.606969 0.761676
25700 -1.8489593700000002 15.781680540000002 -4.47254577 -0.338049 4.992542 0.925935
25720 1.52891793 8.753492430000001 -0.75098493 1.303885 4.4380760000000015 -0.099129
25740 4.58691075 1.2555917100000002 2.34980892 0.93766 3.255234 -0.74965
25760 5.897585610000001 -3.62740446 -0.03637548 -2.560563 5.902189 -4.573938
25780 7.06440663 -4.34935179 -3.31949799 -1.8631830000000005 1.893505 -0.642487
25800 4.38184251 0.7689470400000001 -2.9238705 -3.323518 1.0969950000000002 -0.787331
25820 2.27242764 2.42585604 2.6798761800000004 -2.950757 0.13883 -2.319603
25840 -1.46395611 7.27082865 -1.52652429 -3.705033 0.182078 -3.953965
25860 3.9736386 13.414802220000002 -4.03950294 -3.472224 -1.903371 -3.71359
25880 6.353093340000001 50.741636400000004 2.05013304 -4.394392 -2.141868 -2.680345
25900 -6.526573379999999 25.56518373 2.56955292 -3.382137 -1.367241 -2.801386
25920 -10.58059512 17.88884892 -8.18003907 -1.944003 0.5052760000000001 -1.859046
25940 -1.9637658 20.06322561 -6.176307330000001 -0.950479 1.269046 -1.380931
25960 -0.53379153 19.44531333 -7.4504595600000005 0.6746479999999999 0.8692639999999999 -1.115898
25980 3.94564086 15.86999997 -7.10497098 1.150197 0.295072 -0.195306
26000 2.5836302700000005 4.0899459600000005 -5.90028336 1.614756 0.453566 1.0564870000000002
26020 2.63886057 -6.66294219 -4.74932511 2.247383 -0.585454 1.932838
26040 3.19271355 -7.638468210000001 -3.7959598800000003 3.157664 -1.242726 1.942175
26060 -1.21053438 -2.9117453400000004 0.16899687000000005 3.630949 -1.830195 1.923802
26080 -2.15985789 -4.798424160000001 2.97551034 4.179428 -2.703503 2.45859
26100 -2.16270279 -3.5067610800000004 2.06435754 6.472668 -3.982732 2.027594
26120 -2.86503993 -0.81684927 0.20896281000000003 6.0563379999999984 -4.355819 2.182193
26140 -1.05021936 1.61199882 -1.2274468200000002 4.500542 -1.213737 2.052999
26160 -0.90097983 1.5694822800000003 1.2810388499999998 2.650501 -0.292152 2.028214
26180 -5.069808000000001 2.02528431 6.56639217 1.853651 0.079948 2.372548
26200 -4.937628060000001 8.323137540000001 -12.05308593 0.922003 -0.963818 2.32999
26220 -12.251718810000002 59.07943989 -0.6797349 -0.6251260000000001 -2.252668 1.7739049999999998
26240 17.375265990000003 26.169479730000006 1.90179603 -1.568388 -1.124439 1.500951
26260 15.1547823 5.184918540000001 -4.56835023 -1.511544 -0.492666 0.637416
26280 11.18728476 2.2538671200000002 1.23493185 -0.462429 -0.111603 -0.726273
26300 7.70941413 9.39595914 0.61896195 -0.5069819999999999 -1.312901 -1.036966
26320 8.34469992 15.078744990000002 -1.25619012 -0.953164 -0.12037 -0.506432
26340 5.90102892 25.545877650000005 0.40430934 -1.444841 1.895671 0.050504
26360 0.27288477000000005 14.45648688 -1.9026887399999999 -1.175362 3.10663 0.41403
26380 -0.38828961 10.20727557 -5.325623370000001 -1.019224 3.850074 0.8403879999999999
26400 -3.96644787 11.92420215 -4.5229986 -1.4060979999999998 5.000193 0.471948
26420 -1.2832853400000002 8.20369098 1.90179603 2.4777150000000003 1.187801 -0.5535770000000001
26440 2.43348822 1.9622648700000003 2.9175822900000004 -1.014638 4.218563 -3.3955519999999995
26460 4.708907910000001 -2.95934346 -0.6753988800000001 -2.414206 5.141252 -2.755963
26480 6.038888850000001 -2.92910904 -2.49021945 -3.471943 1.775486 0.16147999999999998
26500 4.77506655 0.84439575 -3.0214701900000005 -3.0873 0.944839 -1.036518
26520 2.9015625600000003 1.5771242700000003 1.41021693 -3.020526 0.886049 -2.9064330000000003
26540 -0.8182030499999999 5.280124590000001 -1.04677605 -3.4494050000000005 -0.403475 -3.730307
26560 2.82777174 10.75288815 -1.5603589800000002 -3.497931 -2.016354 -2.611219
26580 7.50643542 40.74781662 -0.59710527 -3.722833 -1.701546 -2.8204290000000003
26600 0.69156576 33.66574218 2.8539644400000004 -1.9483 0.197356 -2.639551
26620 -8.371196730000001 18.55122012 -7.458543 -1.567351 1.4882879999999998 -1.593824
26640 -2.9645820000000005 21.152361239999998 -7.872132600000001 -0.190566 1.455523 -1.254084
26660 -3.3579630000000003 19.01181924 -5.9374044 0.495445 0.41200000000000003 -0.629455
26680 0.22663062000000003 14.71200795 -5.75508555 1.058326 -0.24528200000000006 0.480929
26700 1.32369273 7.04869101 -6.926242590000001 1.917895 -0.7878609999999999 1.687242
26720 1.3668076800000002 -1.44120672 -6.68329794 3.095319 -1.477298 2.0488630000000003
26740 3.32743428 -5.98859298 -2.4002617500000003 3.875556 -2.004682 1.923597
26760 -1.81019025 -4.18080618 -1.1666738700000001 4.333533 -2.819375 1.998343
26780 -3.20244507 -5.170399740000001 2.19174039 6.495911 -4.4062470000000005 1.891567
26800 -1.2808818900000003 -6.48466506 2.79873414 6.853117 -6.098362 1.430486
26820 -0.38364948 -2.86938576 0.8937891 5.653672 -1.743096 1.566077
26840 1.00141461 0.43693740000000003 -0.06615864 3.806626 0.47748 1.6998810000000002
26860 0.62629983 0.14684589 1.3720462199999999 2.924132 1.210247 2.233298
26880 -5.10603633 1.33567074 6.689890260000001 2.023593 0.6621229999999999 2.8900080000000004
26900 -3.7571907600000003 8.93746917 -14.615457930000002 -0.091851 -1.22879 2.605258
26920 -16.2882297 64.01033829 4.56026679 -1.990092 -1.494252 1.906541
26940 9.0784683 26.48502819 0.029783160000000003 -2.638099 -0.636897 1.185207
26960 12.82652595 3.4480776600000005 -3.3585614100000005 -1.651918 -0.496561 -0.662518
26980 11.42140041 1.72516698 2.08890216 -0.994803 -1.463373 -1.611679
27000 11.84427027 12.040656660000002 0.47151765 -1.050359 -1.089886 -1.457654
27020 12.43314495 18.25214265 -0.7018858800000001 -1.258436 0.334455 -0.496328
27040 2.8142928000000005 22.27337937 0.98405091 -0.940723 1.50619 -0.222145
27060 -2.01645531 12.8585556 -3.14765622 -0.548701 2.607416 0.303679
27080 0.35431757999999997 11.29655835 -5.15737206 -0.5639850000000001 3.728312 0.792449
27100 -3.0123370800000004 12.163252230000001 -4.46101902 0.15896400000000002 5.466412 0.007992
27120 0.50265459 7.53383475 0.14295132 2.963121 2.8957740000000003 -0.259683
27140 4.7600964900000005 1.02506652 1.9279887300000003 -2.099345 5.486132 -4.823352
27160 6.203098440000001 -3.3608079 -0.36359784 -2.386672 2.685025 0.071755
27180 7.35840252 -2.47031496 -3.3419530800000006 -3.821573 2.17888 0.018584
27200 4.12436925 1.9546326900000002 -3.3154562700000003 -2.774203 0.015085 -1.365357
27220 2.05957026 2.9102444100000002 2.09504322 -3.148962 -0.443089 -3.674747
27240 -0.97761555 8.49079044 -0.20058507 -3.4850260000000004 -1.841788 -3.651801
27260 5.3271243 19.23006231 -6.25833855 -3.852317 -2.532727 -2.375888
27280 8.27704035 57.506220000000006 5.11515963 -3.909797 -1.286275 -2.34584
27300 -5.149288620000001 19.39891203 3.9609150300000002 -2.200851 0.259307 -1.929959
27320 -10.17778671 20.70060093 -7.0718916599999995 -1.708857 1.224204 -1.231278
27340 -2.41552611 17.64755235 -7.71271029 0.035695 1.144154 -1.106827
27360 -3.1570836300000003 17.38499751 -7.56901341 0.95515 0.297935 -0.475478
27380 2.53108791 15.25537404 -6.951542580000001 1.5986280000000002 0.021683 0.649935
27400 3.4326661500000006 3.37996683 -7.512880590000001 2.260904 -0.55409 1.803638
27420 2.42929935 -6.533764110000001 -3.7486560600000005 3.256418 -1.261523 2.028347
27440 3.6968592600000005 -9.104513850000002 -3.31739865 3.806478 -1.954334 1.913436
27460 -0.40985199 -4.9590334799999995 0.14414814 4.434111 -2.868053 2.362303
27480 -2.04445305 -6.04053693 2.9949733800000002 6.741947 -4.547416 2.082542
27500 -2.08830375 -4.58975565 1.5783210900000002 6.4215620000000015 -4.430096 1.792802
27520 -2.8891431 -0.94154418 -0.14729715000000002 4.872579 -0.9821 1.879045
27540 -1.9519447500000002 1.15844328 -1.68998832 2.8026560000000003 0.179835 1.879121
27560 -0.83691072 1.0782072900000002 0.283509 2.350121 1.066862 2.091672
27580 -4.687051230000001 2.4772015800000005 8.15549445 1.411054 0.407248 2.424584
27600 -5.52590433 10.82953368 -12.386145240000001 -0.8543350000000001 -1.3553879999999998 2.158919
27620 -16.20246087 66.7033893 -3.76826625 -2.105396 -0.791975 1.675167
27640 15.30282501 24.41842416 2.80875996 -2.27336 -0.38291 0.7569359999999999
27660 17.272584719999998 4.0487832 -3.7773993600000004 -1.224397 -0.098643 -0.908937
27680 12.59077203 1.3156092899999998 1.38790899 -0.754538 -1.327147 -1.521513
27700 10.02015963 7.35405669 1.16397612 -0.79214 -0.827625 -1.199813
27720 8.86740615 16.0568118 0.83047536 -0.915321 0.5746859999999999 -0.397031
27740 4.68166554 24.173233019999998 -0.5686660799999999 -0.585218 2.23173 -0.019766
27760 0.49217751000000004 14.198277870000002 -1.91466675 -0.592114 3.575168 0.486938
27780 -0.33889626 9.66030921 -4.90739364 -0.710447 5.409264 0.40044
27800 -3.40945569 11.98482795 -4.97115864 2.097644 2.717034 -0.630831
27820 -0.8870594400000001 8.63000415 0.86205375 0.205096 5.2167900000000005 -3.4032660000000003
27840 2.17408239 2.55802617 2.6716455900000002 -2.058364 6.3781690000000015 -2.830906
27860 3.93262299 -2.54890287 -0.51822306 -3.376611 3.008787 -0.115036
27880 6.0757155900000015 -3.4636461300000003 -2.5080344100000005 -3.034215 2.5703970000000003 -0.537234
27900 4.97071719 1.10844171 -3.4444872 -2.930671 1.941429 -2.3751830000000003
27920 2.71325961 2.57808762 1.8497049300000001 -3.451105 0.170594 -3.966064
27940 -0.7963463700000001 6.57657495 -1.43372169 -3.008781 -2.04752 -3.232672
27960 3.0600823500000005 11.85699384 -3.57561747 -3.966881 -1.455366 -2.634442
27980 7.56092997 46.62084780000001 1.50990615 -2.354232 -0.954677 -2.968855
28000 -3.7326363300000005 29.854517940000004 3.3093152100000003 -1.580327 0.25796 -1.598747
28020 -9.8128449 15.96399939 -9.31602726 -0.560448 1.421135 -1.125232
28040 -1.62801855 19.49156748 -7.763310270000001 0.515985 0.912635 -0.902349
28060 -1.5892494300000002 17.0633178 -5.84145279 0.977608 0.236584 -0.07145499999999999
28080 3.21636546 14.750031510000001 -7.00602732 1.748363 0.028078 1.051556
28100 3.0756508200000003 5.8207929300000005 -7.519315949999999 2.775535 -0.895893 1.852536
28120 2.7782214300000003 -4.73794551 -6.193366920000001 3.553157 -1.447992 2.048819
28140 4.30400016 -8.537201549999999 -4.4936568900000005 3.858167 -1.839499 1.922196
28160 -0.66057597 -2.8797156900000003 -0.71835687 4.713451 -2.530946 2.266614
28180 -2.29548114 -4.29622083 2.8288214100000006 7.530861 -4.7672300000000005 1.7571849999999998
28200 -2.10821805 -4.05806346 1.9865151900000002 6.403864 -4.412339 2.4282470000000003
28220 -1.50197967 -1.16502579 0.6921641700000001 4.145688 -0.479412 1.740864
28240 -0.88316487 0.9023238000000001 -0.33919056000000003 2.48369 1.077193 2.0562720000000003
28260 -1.4615624699999998 0.76236453 2.6021907900000003 2.032841 1.218257 2.334953
28280 -6.8136826500000005 3.22908903 3.73698216 0.792287 -0.525838 2.670353
28300 -4.7502178200000005 15.639778890000002 -5.923336860000001 -1.089969 -1.969493 2.223221
28320 -13.50596655 58.161106170000004 2.2371018300000003 -1.856711 -1.504464 1.415035
28340 13.00376322 24.40838853 -1.8483609600000002 -1.890692 -1.288522 -0.07458
28360 14.474301840000003 3.0030568200000003 -0.32407335000000004 -0.976321 -1.186208 -1.410011
28380 12.36878154 2.4201662400000004 2.96563167 -0.552922 -1.581341 -1.5315299999999998
28400 11.804902740000001 10.56518361 -1.45901187 -0.8552719999999999 -0.304497 -0.63263
28420 13.251043890000002 16.614853650000004 -0.38410074000000005 -1.046843 1.521077 0.142426
28440 8.984017620000001 22.451666310000004 2.4658219800000003 -0.757478 3.090025 0.474654
28460 1.34449974 12.425807070000001 -4.25056509 -0.818654 4.1316 1.125575
28480 0.6493533300000001 11.068279650000001 -4.679114940000001 -0.912549 5.5835599999999985 0.67761
28500 -3.67800444 13.854437370000001 -3.85463349 3.255884 1.855798 -0.446449
28520 -2.36807514 9.51810345 -0.56732211 -0.648898 6.7422710000000015 -3.197542
28540 2.25700632 2.42645445 2.36463183 -2.420448 5.474026 -3.650535
28560 5.55135147 -3.4308611100000004 -0.00164808 -2.768803 2.250224 -0.087385
28580 7.07084199 -3.78144108 -3.84774687 -2.790646 1.2950549999999998 -0.6962689999999999
28600 5.16246345 1.0767063600000002 -2.83944564 -2.608717 0.7797890000000001 -2.531679
28620 2.37001752 2.03381901 -1.79551449 -3.395726 -0.087402 -3.964278
28640 0.91519452 4.0978822500000005 3.8172083400000005 -3.045426 -1.6427470000000002 -3.458842
28660 -1.43581122 11.376195930000002 -2.6569796400000003 -3.889574 -2.245318 -2.821965
28680 8.88806601 39.79429443 -3.64327704 -3.0996080000000004 -1.266651 -2.893545
28700 0.6291447300000002 44.38225485 3.51199962 -1.932229 0.524367 -1.848306
28720 -9.65492352 12.72428613 -8.661435390000001 -0.729344 1.771343 -1.178136
28740 -3.6765035100000003 18.32609043 -8.999586090000001 0.538871 1.076271 -1.083997
28760 -1.07581365 16.41920301 -6.32674368 1.0825049999999998 0.601292 -0.258128
28780 2.42271684 17.07005727 -7.112014560000001 1.827795 0.5776140000000001 1.01936
28800 4.10580873 8.772955470000001 -6.736742820000001 2.709109 -0.83236 1.739827
28820 4.90904172 -4.5580203 -5.186262510000001 3.431704 -1.26291 1.956934
28840 3.9793284 -8.86771026 -3.81526596 3.756513 -2.025931 2.278511
28860 -0.57435588 -4.07961603 -0.74514798 4.5716480000000015 -2.670096 2.8212770000000003
28880 -2.48603058 -3.9505851000000005 3.0708635400000004 7.094469 -3.998749 2.296877
28900 -3.74311341 -4.46850405 3.2488463700000003 5.941867 -3.582449 2.552143
28920 -2.59350894 -1.21068153 0.6170195700000001 4.089183 -0.927766 1.7581349999999998
28940 -0.61896195 0.29997999 -1.4876080200000001 2.700451 0.038317 1.926658
28960 -0.15447807000000002 0.7550266499999999 -0.49576797 2.133772 0.46125 2.146484
28980 -4.29591672 1.17595413 7.2331092 0.651909 -0.8197969999999999 2.511653
29000 -6.260428080000001 5.313949470000001 -12.56502078 -1.4524 -2.1175580000000003 2.002962
29020 -13.961915730000001 38.008364310000005 2.78974818 -2.194619 -1.611249 1.23976
29040 7.81195806 41.91074307 0.9554645700000001 -2.11417 -1.098271 0.22699
29060 18.03674448 9.78993855 -2.66865354 -1.306043 -1.300542 -1.037222
29080 13.708346850000002 3.0966147900000003 1.02596904 -0.867625 -1.645895 -1.365934
29100 13.814471430000001 7.756570800000001 -1.6887915 -1.067124 -0.499529 -0.69368
29120 13.483805760000001 10.584636840000002 0.01482291 -1.154797 0.865793 0.004711
29140 8.291255040000001 17.87014125 -1.01279421 -0.736792 2.177126 0.180071
29160 1.1946618 19.67673123 0.8244814500000002 -0.558178 3.187929 0.8594120000000001
29180 -1.01069487 11.67721578 -3.58549614 -0.710624 4.84509 0.827382
29200 -3.54448053 12.286151910000003 -6.402339540000001 1.7629150000000002 3.253077 -0.393506
29220 -3.5296576200000005 11.99141046 -1.3558793400000002 0.321121 4.257982 -2.158885
29240 0.50340015 5.208423300000001 2.7985771800000006 -2.6392830000000003 6.7024740000000005 -1.911368
29260 4.64723244 -1.50227397 1.0238697 -3.408156 3.422038 0.197204
29280 5.6498536800000005 -5.10663474 -1.84775274 -2.9889650000000003 1.867406 -0.86503
29300 6.1608860100000005 -1.09691496 -3.2790807900000005 -2.046498 1.149894 -2.865785
29320 4.44515625 0.8598072600000001 -0.7595196300000001 -3.159767 1.032872 -4.069819
29340 0.8226862200000001 3.7652742000000003 0.53992278 -2.835716 -0.794682 -3.932754
29360 -0.61731387 7.956851760000001 -1.64493099 -3.68431 -1.967671 -2.636084
29380 8.02570815 24.478893 -5.99083947 -3.007441 -0.8400770000000001 -2.5569580000000003
