time Ax Ay Az Gx Gy Gz
20 7.69819149 18.460065600000004 -2.84078961 0.677556 0.488936 -1.910147
40 15.23696067 13.35253815 -3.46424454 1.692101 -1.583574 -1.587416
60 12.131673840000001 8.06373171 -3.48744519 1.706675 0.448825 0.298698
80 1.5194905200000002 4.13574885 -0.74050785 -1.2887110000000002 7.859841 2.386562
100 -3.6989586 3.2361228000000004 5.03613027 -3.050032 4.595857 0.980139
120 -5.05154178 -1.82530746 5.8086677700000005 1.499026 -1.518808 -2.962581
140 -7.723040220000001 -8.08379316 4.78675026 -1.861846 -0.051485 -1.2264389999999998
160 -13.21242192 -10.57430691 0.6240533400000001 -3.080087 0.382037 -2.022784
180 -9.9804978 -7.644452310000001 -2.0993890500000005 -2.968682 -1.843717 -3.883201
200 -1.3927060800000002 0.09116433 -3.82260384 -2.231864 -1.673909 -4.096189
220 3.95926695 6.28543377 -10.15279083 -3.91731 0.743055 -3.3985550000000004
240 12.366682200000001 11.82032406 -3.17789064 -2.812353 0.945294 -1.920154
260 21.337083540000002 11.1663306 13.15674036 -0.4531270000000001 1.324666 -1.601854
280 1.83803103 5.378469840000001 6.06987864 0.864259 1.458994 -1.171945
300 -23.8799925 36.95006151 -2.54605797 1.173746 2.61841 -0.740776
320 2.98538901 21.048777450000003 14.03436258 1.008549 2.609914 -0.072143
340 10.47746259 15.95427768 6.908584590000001 0.390136 0.717479 0.323341
360 10.112972039999999 23.28468246 -10.47028167 0.023212 -1.422137 0.7764449999999999
380 -1.8546393600000002 18.835925940000003 6.6581549099999995 0.441213 -2.787363 1.364364
400 -6.409971720000001 22.284906120000002 1.93712184 1.054303 -2.868011 2.085527
420 -3.1795387200000005 24.168887190000003 -3.42458271 2.198974 -2.851916 2.129821
440 2.77762302 17.732722770000002 -2.2728690900000004 3.297353 -2.591159 2.035678
460 7.01980056 10.638523170000001 -3.57291972 3.703401 -2.113385 2.61581
480 11.29177107 3.3843126600000004 -2.88959436 2.643703 -1.261884 4.2449010000000005
500 11.02517451 -1.0235754000000001 -2.35490031 3.3949480000000003 2.158277 2.640228
520 10.742263920000001 -5.2756316100000005 1.26307674 2.846681 2.7903 2.770185
540 7.800431310000001 -6.742874070000001 -0.24189498000000004 1.007007 3.074977 2.172652
560 6.15609873 -1.67875587 -3.3783285600000004 1.165694 0.767584 2.302768
580 4.54305024 3.90597903 -2.91997593 1.353397 -1.940781 1.98281
600 1.45886472 6.79287564 -2.09429766 0.599785 -4.272799 1.869439
620 -2.6705959200000002 4.98643281 0.63558009 -0.586431 -3.618683 1.290953
640 -4.3613298 12.320133750000002 4.15101321 -1.578716 -0.521151 0.360313
660 -0.8559225 27.69210945 4.75262127 -2.432088 0.8081619999999999 -0.725187
680 -5.5401288300000004 42.47327790000001 4.918626090000001 -2.583251 2.78411 -2.155919
700 -5.1659067599999995 24.12143622 -2.9147373900000004 -1.720015 2.776978 -2.1862
720 4.95335349 26.80087095 -4.151317320000001 -0.25009000000000003 0.746117 -2.01737
740 20.744461440000002 18.89206857 -3.8977484400000004 0.8207979999999999 0.612825 -1.847349
760 17.398172340000002 13.39743852 -3.0829887 2.1129 -0.609795 -1.183005
780 5.286108690000001 10.07884305 -0.041309910000000005 0.670139 8.931137 1.315695
800 0.15433092 8.67087261 4.947506730000001 -0.580008 6.255224 2.382887
820 -4.96981467 2.41971498 3.9341141100000003 -0.8291719999999999 -0.785406 -0.271841
840 -10.1051829 -4.709055060000001 2.55009969 0.235961 -0.86965 -3.30018
860 -13.197755970000001 -10.00578798 5.32203291 -2.283231 -1.9768 -5.559624
880 -15.470477910000003 -13.63080861 2.12677857 -3.109094 -1.456978 -4.304488
900 -10.32762465 -6.37464591 -3.8844264600000002 -3.3551580000000003 -2.275062 -3.305303
920 -2.59979715 0.66088008 -5.087466 -4.525235 -0.376651 -3.378934
940 4.88853882 6.433917930000001 -9.1795113 -2.930774 -0.315388 -2.234491
960 13.94335521 13.627365300000001 0.6328823400000001 -0.408134 -0.15722 -2.416831
980 20.230280099999998 22.33879245 9.79024266 0.7448229999999999 0.7371340000000001 -1.433569
1000 -2.32196814 36.24742026 -9.36078048 0.784417 1.809558 -0.8588950000000001
1020 -9.997714349999999 1.4894032499999998 1.5447905100000001 0.8522549999999999 2.065909 -0.024468
1040 -2.07918045 8.736884100000001 4.44979638 0.838829 1.059051 0.296127
1060 7.5715542 26.196123690000004 0.75248586 0.030451 -0.4849850000000001 0.5766060000000001
1080 9.86852646 26.834548680000005 2.2191397200000003 0.195405 -2.015022 1.041191
1100 7.27127991 17.482744349999997 3.91839849 0.790168 -2.2179 1.442984
1120 0.07514459999999999 23.251151880000002 -1.8190192500000002 1.667266 -2.201636 1.67662
1140 -6.07241943 20.27803518 -5.0584284 2.516735 -2.281728 1.788411
1160 -2.45070477 14.29871265 -2.76370263 3.017485 -2.31379 1.912659
1180 5.1651612 5.3510705100000004 -0.41583609000000005 4.002296 -1.285115 2.2194580000000004
1200 6.32000421 -0.9484308 -4.60293048 2.405637 0.4225930000000001 3.5841230000000004
1220 7.20706365 -2.6090774100000003 -0.88301772 2.245544 1.90382 4.131241
1240 6.8813422200000005 -5.61826548 1.5959790900000002 2.268321 3.523028 3.050421
1260 7.31454201 -3.8673570600000002 -0.7533785700000001 0.223905 3.64405 2.26473
1280 6.1986054600000005 0.98660151 -2.73675456 0.228479 1.649323 1.861393
1300 3.25647855 4.21823133 -2.4608777400000004 0.8998370000000001 -1.339559 0.943764
1320 -0.09430353000000001 5.60539476 -2.98270107 1.052045 -2.35663 0.479318
1340 -3.6136312200000003 3.50331777 -2.6515841399999998 0.372808 -3.068838 0.153951
1360 -3.58130727 2.8915367400000003 4.215386430000001 -0.6566420000000001 -1.105641 -0.524462
1380 -1.95687918 13.57766784 4.744537830000001 -1.833504 0.533349 -1.250492
1400 1.7735106600000001 36.617453460000014 5.80642128 -2.211177 2.586182 -2.531217
1420 -4.68046872 44.84209860000001 -0.36927783000000003 -0.882207 2.4411810000000003 -2.58691
1440 -9.23818491 22.347327150000005 -6.659204580000001 0.235464 0.508043 -2.0425150000000003
1460 7.05543048 18.437757660000003 -2.5765965 1.237397 -1.409457 -1.845052
1480 20.91151593 14.81274684 -4.97400354 1.849594 -1.891413 -0.134208
1500 17.924625990000003 8.813068560000001 -3.1663638900000004 -0.717256 4.616274 1.84244
1520 5.68053936 6.00939999 -1.36186344 -1.61789 5.750896 2.064362
1540 -2.8865925000000003 3.59028342 5.949382409999999 -2.382509 -2.99308 0.11431199999999997
1560 -6.4912475700000005 -0.59710527 5.24404341 -1.313176 1.343664 -1.079116
1580 -9.993819779999999 -8.80095321 4.4248005 -2.075452 0.608969 -2.899477
1600 -13.932878129999999 -12.36802617 2.04474735 -3.123339 -2.541282 -4.594823
1620 -8.545579290000001 -9.72528084 -1.22010894 -0.917528 -2.058375 -4.460393
1640 1.37623509 1.54852812 -2.6289819000000003 -3.0717 -1.50437 -3.408996
1660 6.6524651100000005 7.449557040000001 -8.11926612 -3.557399 0.447721 -2.582746
1680 15.30822051 11.48951124 -2.03232789 -1.958464 -0.005435 -2.001634
1700 12.44003157 10.26625329 2.0915999100000002 0.370286 0.179559 -1.266691
1720 1.5976271700000002 8.22284991 12.48014466 1.110409 2.0118240000000003 -0.308879
1740 -17.98630146 34.44786405 -17.18366688 1.298773 1.283442 0.25952800000000004
1760 -0.08622009 7.12967256 15.40506483 0.280921 -0.246398 0.6346649999999999
1780 4.131707130000001 17.45011629 7.2456856200000015 0.387412 -0.9351 0.941803
1800 10.48315239 30.58799202 -7.88964345 0.94405 -1.466178 1.666353
1820 6.336622350000001 21.094138890000004 1.49718258 1.699972 -2.317399 2.358523
1840 1.1533518900000002 14.439721590000001 4.145774670000001 2.412105 -2.692557 2.5851
1860 -2.3186817900000003 20.604207870000003 -2.71235709 3.796134 -2.2823740000000003 2.704269
1880 -1.3983958800000003 17.98570305 -1.9002951000000001 3.70825 -1.182491 3.182945
1900 3.8179637100000003 11.252099430000001 -3.248091 3.047213 -0.206869 4.063701999999998
1920 8.74226979 3.8711044800000005 -6.47897526 2.930617 1.883085 3.129788
1940 8.088433290000001 -1.6462749600000002 -1.8540409500000001 1.853593 2.784256 2.479109
1960 5.789057580000001 -7.73052525 1.2627726300000002 0.8521290000000001 1.755169 2.555685
1980 5.2459956000000005 -7.4341357200000004 0.8002311300000001 0.776301 0.323444 2.088041
2000 5.42606796 -0.08322804 -4.45173876 0.549249 -2.469405 1.144657
2020 4.4020413000000005 7.066505970000001 -3.8564287200000003 -0.13332 -3.302783 0.488274
2040 0.8135629200000001 8.42807511 -1.69881732 -0.975397 -1.062827 -0.299212
2060 0.02065986 7.9355934900000005 2.5912624500000003 -1.884018 0.639404 -0.822623
2080 -2.7137108700000003 20.764964340000002 -0.28680516 -2.60785 2.180866 -1.794259
2100 -2.6523297 46.17672948 0.8619066000000001 -1.534852 2.8902810000000003 -2.442493
2120 -6.71323806 30.76342425 -1.52547462 -0.256312 1.595835 -1.919157
2140 -3.54103722 21.68165979 -2.6485920899999997 0.749208 0.548255 -1.888359
2160 9.15286734 21.86218341 -3.8142162900000005 2.193531 -1.648982 -1.648991
2180 15.694410780000002 15.10912656 -6.21103473 0.925123 2.6163830000000003 -0.019323
2200 13.62272517 9.094635180000001 -5.263359300000001 -0.37749 6.325954 1.304238
2220 2.18216583 4.3049026800000005 2.5442627399999997 -2.033912 2.717522 0.429896
2240 -1.1437675200000001 -0.12589173 2.6948462400000004 0.023465 2.399627 -2.836904
2260 -4.49889543 -2.46851973 3.39868431 -2.046254 -0.341958 -2.749571
2280 -8.92114533 -8.6876379 4.01779341 -3.350968 -0.800351 -1.805243
2300 -13.831687980000002 -11.09867103 2.37675699 -1.883 -0.7509939999999999 -3.164513
2320 -7.907458409999999 -7.27397766 -0.6661186200000001 -2.42987 -2.566495 -3.4213120000000004
2340 -0.97911648 0.08412075 -3.2627667600000003 -4.209561 0.7514569999999999 -3.647366
2360 3.7529920800000003 6.65366193 -10.42701957 -2.85733 1.472184 -2.30784
2380 10.30038228 11.865969990000002 -3.4670894400000005 0.16353900000000002 0.839148 -1.133316
2400 12.58822143 11.7418833 5.99069232 1.224176 2.103904 -1.321945
2420 -0.81610371 6.28767045 5.1534873 0.924211 2.119867 -0.792086
2440 -20.10858705 21.56101641 -13.126054680000001 0.775732 0.7884720000000001 -0.181462
2460 -6.33168792 25.6097898 16.98263055 0.185381 -0.612637 0.397322
2480 14.40169803 23.561000730000004 5.22667971 0.208442 -1.941649 1.062552
2500 23.7237192 24.787250730000004 -15.403269600000002 0.871253 -2.543581 1.831732
2520 -1.2117312 13.77615357 8.65695222 1.672393 -2.816676 2.2980810000000003
2540 -4.681067130000001 24.071591610000002 1.06413975 2.879219 -3.361496 2.433259
2560 -6.06284487 26.44385562 -3.50241525 3.44181 -3.370572 2.350675
2580 0.43394535 18.78488451 -5.64670467 3.808939 -1.4188690000000002 3.333502
2600 10.47506895 11.89037727 -3.5708203800000002 2.811136 0.29225100000000004 4.391494000000002
2620 7.32471498 2.6912557800000005 -3.6280028700000004 3.00284 2.390655 3.474678
2640 9.71674614 -1.81512468 -2.07213687 1.061964 2.45184 2.378933
2660 10.798396740000001 -5.91884388 3.3027327000000004 0.419991 1.388785 2.912059
2680 10.22029344 -7.002888120000001 0.71341263 0.965876 -1.027623 1.998161
2700 9.0636552 -2.1775257 -3.48820056 1.063319 -2.713034 1.417752
2720 4.37899761 5.16501405 -3.4967254500000005 0.179877 -2.209551 1.21652
2740 0.25147935000000005 7.41797865 -2.9334450600000004 -0.510808 -2.824068 0.447636
2760 -2.7285239700000004 4.93673535 1.4455427399999998 -0.9000959999999999 -1.107207 -0.720577
2780 -3.9573245700000004 11.46076794 7.050790350000001 -1.723136 0.498271 -1.631031
2800 0.18097488 20.940553530000003 0.10642868999999999 -2.021258 2.1168970000000003 -2.288939
2820 -1.22699556 49.25881566 1.7148370499999999 -0.582621 2.778196 -2.677116
2840 -1.55960361 28.73783583 -1.96601229 1.00072 1.606317 -2.432751
2860 11.01814074 22.11126912 -4.01375169 2.117076 0.454376 -2.240811
2880 21.6213381 17.005389750000003 -1.4049783900000001 1.00882 4.220947 -0.422446
2900 15.82344171 13.0145346 -1.8425141999999999 -0.933502 7.310527 0.657091
2920 2.5884175500000004 9.76240188 -1.6512192 -2.1351720000000003 2.206009 -1.299607
2940 -5.529053340000001 7.24523436 0.48065076 -1.200638 0.789671 -2.228095
2960 -6.7818001500000005 2.69783829 5.097050370000001 -2.626058 -1.26111 -3.09107
2980 -8.08588269 -3.38864868 3.00440079 -2.52546 -3.2878870000000004 -3.288596
3000 -12.003839730000001 -9.70087356 3.1587317100000005 -2.702825 -3.445703 -3.628259
3020 -12.99747501 -12.68357463 1.8163215000000001 -3.416467 0.283602 -3.486335
3040 -6.984180449999999 -6.74542467 -1.3253408100000001 -2.716815 0.856469 -1.901213
3060 0.01721655 0.95816232 -3.4058652300000003 -0.213576 0.473962 -1.389719
3080 5.92557354 7.57275102 -11.749064220000001 0.540417 1.393715 -1.349312
3100 16.48372338 11.27470167 7.68726315 0.435746 2.162033 -0.790211
3120 0.8137100700000001 17.189650980000003 -3.98545965 0.530269 2.093743 -0.045981
3140 -10.661125410000002 42.46594002 18.14137794 -0.055728 0.229256 0.524882
3160 6.865626600000001 13.855192740000001 12.41518284 -0.467696 -2.284621 1.370189
3180 12.68911728 17.96997762 -7.484735700000001 0.383114 -2.501125 1.76097
3200 6.13484046 20.97228888 -0.09684432000000001 1.841515 -2.272801 2.005873
3220 -0.27138384000000004 19.12872501 8.80095321 3.220657 -2.898368 1.938328
3240 -6.7876371 26.2718667 -1.18882485 3.994165 -3.1450720000000003 1.690878
3260 -1.75449888 18.63459531 -6.2180685 3.656617 -2.28178 2.4106
3280 6.659351730000001 12.77787816 -2.8442329200000005 3.201141 0.145522 2.92026
3300 5.67709605 4.26269025 -1.71902592 3.617039 3.078289 2.810448
3320 4.81952547 -0.04819653 -2.9556058500000004 1.790623 3.048426 2.272164
3340 8.84315583 -1.6572033000000002 -0.56313324 0.851043 1.567358 2.371116
3360 10.127039580000002 -6.38137557 3.3153091199999998 1.289712 -0.720658 1.942346
3380 12.276273240000002 -4.36327218 -2.70352809 1.041305 -1.958344 1.850329
3400 6.3735962399999995 3.3293766600000003 -6.333179040000001 0.091138 -2.089407 1.617397
3420 1.09707192 8.6443758 -3.83981058 -0.698739 -1.924044 0.909846
3440 -3.8802277800000002 6.186186000000001 -3.5304129900000003 -1.376489 -0.318898 -0.043389
3460 -4.59289485 7.2489719699999995 6.871610700000001 -2.168229 1.17868 -0.904348
3480 -1.63654344 18.89685585 -4.29576957 -2.231075 2.434126 -2.05153
3500 -6.4475440200000005 55.30190319 4.99645863 -1.1833209999999998 2.184397 -2.313083
3520 -3.3934457700000005 26.537266440000003 0.34203546 -0.050973 0.721625 -2.1922040000000003
3540 2.58557265 23.97099987 -2.3384391300000003 0.8797950000000001 -0.056262 -1.874921
3560 16.258289580000003 18.56050038 -2.7973803600000005 1.716218 0.318861 -0.773564
3580 15.53948145 13.60864782 -3.3593167800000003 -0.8441799999999999 7.145824 1.27429
3600 5.74999416 9.69369264 -2.6529379200000003 -2.051733 4.423523 1.119793
3620 -0.4451778 6.346353870000001 0.22034241 0.855468 -4.2747 -1.867549
3640 -4.15266129 2.3992120800000003 4.983440760000001 -0.825624 -1.626375 -0.956537
3660 -5.803134930000001 -2.92177116 4.20640047 -2.430197 2.541372 -1.792412
3680 -9.47365434 -8.19246834 3.8112242400000005 -3.220194 -2.090329 -3.000154
3700 -12.57714594 -11.36077461 2.47345416 -1.85316 -2.770623 -3.755648
3720 -9.31497759 -8.067920580000001 -1.1931706800000002 -3.141375 -1.110054 -3.655679
3740 -2.3546060100000004 -1.0672789500000002 -3.67934841 -3.326175 0.319447 -2.406846
3760 3.51169551 4.384677600000001 -7.78875741 -1.688893 -0.086042 -1.525357
3780 9.301802760000001 9.437573160000001 -8.203386870000001 -0.068661 0.494299 -1.80534
3800 16.688791620000003 10.05069816 10.13557428 0.7019850000000001 1.221798 -1.387487
3820 5.11890705 5.1742943100000005 4.39081866 0.665568 1.830813 -0.743316
3840 -20.61856971 34.41657996000001 -42.001308990000005 0.619628 0.8872760000000001 -0.245705
3860 1.5194905200000002 23.969057490000004 16.33642623 -0.096223 -0.737869 0.257715
3880 13.11737283 14.055473700000002 3.93546789 0.267925 -1.870051 0.954985
3900 7.41363282 17.513135730000002 -6.7762575 1.023094 -2.442055 1.619018
3920 2.5216605000000003 23.963367690000002 6.060745530000001 1.6417700000000002 -2.628707 1.938704
3940 0.53468424 20.122350480000005 5.795345790000001 2.787086 -2.72758 1.961786
3960 -1.6085555100000002 21.85021521 -2.0510355600000003 3.37752 -2.361283 1.756069
3980 1.8661661100000002 18.805397220000003 -5.01831531 3.695818 -0.8452629999999999 2.245596
4000 3.26635722 13.213324440000001 -3.84505893 2.708281 -0.128155 3.588011
4020 4.66415469 7.47755478 -2.26418724 2.918241 2.588858 3.266598
4040 6.1092461700000005 2.8243284300000004 -3.5624426400000004 1.54546 3.80257 2.502357
4060 9.13505238 -1.49329782 0.02215098 0.499466 2.489537 2.230746
4080 8.39963592 -6.737488379999999 1.3070844000000001 0.964285 -0.235951 1.956543
4100 7.548049440000001 -6.023026080000001 -1.36950543 1.018252 -2.8276950000000003 1.3599
4120 4.099373370000001 1.19556432 -3.2340234600000004 0.341428 -2.222441 1.103365
4140 1.9520919 5.10962679 -3.7020978 -0.698002 -0.817416 0.425597
4160 -1.2732497100000002 6.83358714 -4.8557538 -1.271748 -0.498514 -0.503899
4180 -4.454740620000002 4.713243930000001 4.45728141 -2.306073 1.166969 -1.584685
4200 -3.5693292600000004 12.40455861 3.6124344 -2.355096 2.7320290000000003 -2.648846
4220 1.05890121 29.470868460000002 2.5975506600000005 -0.818403 1.369705 -2.4237900000000003
4240 -3.4777136700000004 43.678573740000004 2.17692729 0.676562 -0.542916 -2.009245
4260 -5.4706740300000005 25.47327384 -6.07825638 2.47385 -1.410304 -1.107887
4280 7.349122260000001 19.688110830000003 -2.79169056 -0.101714 7.4210410000000016 1.33574
4300 18.29615031 15.84140382 -2.5035414300000003 -1.45734 4.905289 1.33804
4320 15.54996834 11.37828546 -2.94991605 0.49124 0.735975 -1.988677
4340 3.65210604 7.826771160000001 -0.08741691000000001 -0.6459630000000001 -1.237559 -1.375591
4360 -4.30086096 4.09697973 0.7328756700000001 -1.48861 -0.529138 -3.575445
4380 -8.68254651 -0.76042215 4.74528339 -3.116965 -3.10619 -3.724522
4400 -8.406522540000001 -6.04189071 4.59169803 -2.900834 -1.811229 -3.276018
4420 -11.1142395 -10.61891298 3.03733296 -2.88279 -0.117606 -2.984302
4440 -9.37156167 -9.26947881 -1.18074141 -2.149217 0.561782 -1.958828
4460 -2.4189694200000003 -2.7846567900000005 -5.85971901 -0.552395 0.697182 -1.506672
4480 5.1566265 3.1166664300000004 -13.373041050000001 0.583796 1.278761 -1.144831
4500 17.933160690000005 9.45119925 3.9261876300000003 0.434767 1.515338 -0.505242
4520 15.59037573 9.823027680000001 8.20278846 0.3861 1.222411 0.063087
4540 -10.600058160000001 31.23015462 -28.01320056 0.321273 -0.4187 0.265563
4560 -8.02361862 25.677606330000003 9.70746588 0.237877 -1.44815 0.702134
4580 8.59976973 6.021378 3.9112175700000003 0.622504 -1.829462 1.152895
4600 7.15167639 18.647622990000002 1.19900763 1.421963 -1.617377 1.767094
4620 0.25686504 22.876478549999998 4.538262960000001 2.18203 -1.869801 1.895572
4640 -1.8405718200000003 20.18058264 4.01480136 3.000885 -2.246469 1.875069
4660 -1.7970154200000001 22.31933922 -2.70443061 3.9419 -2.002505 2.120611
4680 3.15289476 17.915345730000002 -6.24351564 2.211347 -1.218506 3.629734
4700 5.079088260000001 10.20488193 -2.1305161800000003 2.557818 1.451302 3.273015
4720 4.259394090000002 4.21044219 -0.74545209 1.880644 4.1834190000000016 2.607828
4740 6.11883054 1.3232512800000003 -3.0558934800000004 0.30493400000000004 3.614012 2.247174
4760 7.33669299 -0.86505561 -3.46799196 0.315751 1.560985 2.297951
4780 7.55957619 -4.47569478 1.6116947100000003 0.5712079999999999 -0.921359 1.607503
4800 6.580165409999999 -3.23447472 -1.2364327800000001 0.457 -2.0188200000000003 1.2310299999999998
4820 3.34583784 0.7282355400000001 -4.1299119 -0.415788 -2.310921 0.710425
4840 2.104029180000001 5.507500770000001 -3.8926570500000004 -1.160923 -1.194598 -0.219154
4860 -1.2633710399999998 5.32233702 -3.3678416700000002 -1.82079 -0.052121 -1.103306
4880 -1.8452119500000002 3.73488282 3.6582471000000005 -2.217484 1.5788799999999998 -2.371874
4900 -2.64081276 14.46487443 1.1482605000000001 -0.921956 1.816471 -2.437904
4920 0.79350147 40.39829613000001 4.90994424 0.561718 0.6011479999999999 -1.89935
4940 -6.73434918 35.55541305 3.3687441899999997 2.036927 -0.13355799999999998 -1.131803
4960 -5.87752416 19.53332865 -4.45144446 -0.673921 5.325869 0.976573
4980 10.457401140000002 18.647475840000002 -1.5834026700000001 -0.876582 3.495244 1.272333
5000 18.3675573 15.052248180000001 -2.94003738 -0.112941 0.969411 -0.968772
5020 12.170894220000003 10.41114699 -3.2955517800000003 -0.528247 -0.02865 -1.432934
5040 1.43252487 7.331748750000001 -0.56043549 -1.714317 -0.753817 -3.669669
5060 -2.64364785 4.83524109 3.32518779 -2.398316 -1.827082 -4.008493
5080 -6.4098245700000005 -1.8516473100000002 2.52779175 -2.023152 -1.951692 -3.808092
5100 -9.20900016 -9.12232881 2.55294459 -3.125772 -1.419109 -3.638083
5120 -11.284737300000002 -11.522139300000001 0.9874942200000001 -2.907756 -0.269516 -2.802684
5140 -7.374716550000001 -8.797058640000001 -2.7006831900000003 -0.986965 -0.09748 -2.469021
5160 1.344951 -0.43813422 -6.2105834699999996 -0.002321 0.451909 -1.652066
5180 9.78036399 4.26193488 -4.935832830000001 0.18633 0.534171 -0.810163
5200 14.9350383 7.70807016 7.72394274 0.450174 1.172375 -0.0004940000000000001
5220 -1.18942326 16.127316269999994 -6.38706537 0.549338 0.335394 0.364466
5240 -9.70971237 44.73985878 13.5089586 0.11956 -0.922664 0.7284079999999999
5260 1.86647022 8.24515785 5.17353894 0.469358 -1.83157 1.280014
5280 5.71436424 16.88504067 -0.6298902900000001 1.521199 -2.2327630000000003 1.861511
5300 5.40600651 24.004236150000004 0.02080701 2.197173 -2.286426 1.907962
5320 3.4121534400000004 16.54344666 3.1563380700000003 3.174251 -2.404578 1.836958
5340 1.4934449699999999 18.66438828 1.5606532800000001 3.924783 -2.041745 2.091699
5360 3.7931149800000004 20.42517537 -1.98412155 2.663319 -1.834527 3.577065
5380 2.8565052300000002 15.40102311 -3.83921217 3.022689 2.044541 3.698518
5400 1.64478384 9.08071479 -2.7647523000000005 2.318338 3.886229 2.489489
5420 2.9570969700000003 3.09870432 -0.98510058 0.43269 4.356545 1.861487
5440 5.061126150000001 -0.5171733900000002 -2.30235795 -0.103706 2.169075 2.706575
5460 6.30593667 -3.6235197 0.44966097000000005 0.316204 -0.729509 1.803097
5480 6.840777870000001 -5.55330366 1.1451213 0.347372 -2.733104 0.931009
5500 5.07639051 -1.8672157800000002 -3.21172533 -0.453495 -2.005875 0.382894
5520 2.1609075600000005 3.898494 -5.0823844199999995 -1.030904 -1.379791 -0.372901
5540 -0.9457330500000001 6.9581349 -3.8815815600000003 -1.369648 -0.7866489999999999 -1.0896
5560 -2.5135770600000003 5.376517649999999 0.5837832900000002 -1.957796 0.990053 -1.866173
5580 -2.7939370500000003 9.71809011 7.66600488 -1.279931 2.277466 -2.326696
5600 -2.2444299 23.739130709999998 -3.4765168500000003 0.241443 1.562907 -1.841931
5620 -6.323300370000001 49.14460764000002 3.0786526800000003 1.118405 0.551483 -1.417903
5640 -5.76989865 25.34589099 -2.8307637900000002 2.338112 -1.299596 -0.704121
5660 2.85126669 20.233272150000005 -3.5096059800000003 -1.059109 6.489921 1.915631
5680 15.46837857 17.00044551 -3.18163806 -2.9212130000000003 5.246293 0.980206
5700 17.4248163 12.50439498 -4.71264552 0.5792930000000001 1.292984 -2.032573
5720 7.620947550000001 7.78591251 -2.51925705 -0.509779 -2.505804 0.7762479999999999
5740 -0.26839179 4.84886718 0.08846658 -2.000476 0.4425020000000001 -2.893399
5760 -3.4712783100000006 2.42735697 3.21007725 -2.4006990000000004 -2.880655 -4.534861
5780 -4.26956706 -2.5914096 4.22795304 -1.995378 -3.153221 -3.591645
5800 -8.00565651 -8.28257319 4.31373168 -3.621782 -0.28543 -2.998862
5820 -11.674518030000002 -9.87227388 1.2284964900000002 -2.892974 1.215482 -1.752285
5840 -8.398439100000001 -6.6430377 -2.6467968600000003 -0.794908 0.571471 -1.560548
5860 -0.6354329400000001 0.7744896900000001 -5.46513138 0.433354 1.035243 -1.388056
5880 5.51587851 6.66728802 -13.04402346 0.624514 1.603444 -0.857611
5900 18.68773608 9.386678880000002 11.873455020000002 0.8298770000000001 2.525097 -0.284791
5920 12.040656660000002 8.408916180000002 3.7309882500000002 0.7133619999999999 1.846805 0.276081
5940 -17.505493740000002 47.82061080000002 -13.82075964 0.25339 -0.8273299999999999 0.4813939999999999
5960 -2.51836434 13.55910732 12.222534060000001 0.266834 -2.081208 0.748013
5980 15.38605305 11.50836606 0.43334694 0.742967 -2.425922 1.291233
6000 8.028553050000001 18.567838260000002 -1.7904231000000002 1.795548 -2.610121 1.686586
6020 -2.09145276 24.186555000000002 4.95919044 2.426915 -2.669814 1.681458
6040 -4.35130398 19.658621970000002 6.18812838 3.133955 -2.69069 1.494144
6060 -3.2515343100000003 17.30595834 -1.7289045900000002 3.613832 -1.02542 1.549841
6080 0.0023936400000000003 18.07776009 -4.05177525 2.058944 1.0600040000000002 3.258282
6100 3.2497390800000003 12.359344320000002 -3.23672121 2.242816 3.274196 3.493874
6120 5.50001574 4.947810840000001 -2.5334815500000003 1.61998 4.021903 2.998251
6140 8.35023276 0.58528422 -1.0523088900000002 -0.002527 3.01375 2.641038
6160 8.856183510000001 -1.43850897 -1.5871500900000002 -0.203765 1.264808 2.22313
6180 8.333467470000002 -5.129835389999999 -0.26121087000000004 -0.043522000000000005 -1.063593 1.745465
6200 7.188199020000001 -4.29426864 -0.7306291800000001 -0.076312 -1.504603 1.2383959999999998
6220 3.6036054 -0.20372427 -4.3364810700000005 -0.320058 -2.4050990000000003 0.203809
6240 2.20701456 4.05581697 -4.1257230300000005 -0.681022 -1.23804 -0.693242
6260 -1.67815746 4.922216550000001 -2.9681822700000002 -1.23532 -0.379155 -1.611544
6280 -3.39374007 4.15700712 -2.1245320800000003 -1.625131 1.558773 -2.917845
6300 -3.49777512 6.76996929 6.41925198 -0.688379 1.939407 -3.01327
6320 -1.02566493 19.701579960000004 -2.9177294400000005 0.5371779999999999 0.525791 -2.213482
6340 2.9328466500000006 63.28824381000002 1.08629073 1.915473 -1.5458040000000002 -1.636111
6360 -3.13298046 25.545877650000005 -3.1293900000000003 0.574856 4.272255 1.239815
6380 -1.7053998300000002 21.09354048 -3.6158777100000004 -2.449253 6.996506 2.1766
6400 11.785890960000001 19.35265788 -2.30295636 -1.607299 -2.130802 0.12396300000000003
6420 15.967295550000001 13.270349970000002 -5.84040312 0.5319659999999999 -3.05276 1.321541
6440 7.9556549400000005 7.10647191 -4.78764297 -0.809136 -0.077698 -1.17846
6460 2.32256655 5.07399687 0.52556094 -2.593721 -0.8051590000000001 -6.048267
6480 -3.95447967 2.89632402 5.9040209699999995 -2.05871 -2.325246 -3.866613
6500 -6.28692489 -2.95799949 4.13679852 -2.539034 -1.05928 -3.023423
6520 -11.018287890000002 -9.41616774 2.94587433 -3.829189 1.812808 -2.464616
6540 -13.643826480000001 -10.95212925 0.46194309 -1.769324 1.368801 -1.641015
6560 -6.093981810000001 -7.05961935 -2.9044074600000003 0.000208 1.075796 -1.829105
6580 2.95874505 2.186649 -6.758001090000001 0.428665 1.055042 -1.273815
6600 9.81418887 7.025186250000001 -8.85768444 0.74436 1.834752 -0.465033
6620 18.70645356 10.563829830000001 12.665465370000001 1.098694 1.565636 0.192607
6640 4.01884308 13.25418309 5.13507393 0.566183 0.06691799999999999 0.62237
6660 -16.8262101 70.91502831 -13.92928767 0.552719 -1.372644 0.993725
6680 0.26614530000000003 -2.8551612600000005 7.122334680000001 1.161109 -1.728461 1.534678
6700 10.890002520000001 5.0726529 3.85702713 1.885155 -2.008011 1.817831
6720 4.35668967 26.7722748 1.80718839 2.391929 -2.00022 1.827771
6740 -0.28336185 28.86118677 2.09324799 3.245315 -1.59704 2.026563
6760 -0.31045707000000006 16.332982920000003 4.59573975 2.608761 -0.8866940000000001 2.891807
6780 3.5067610800000004 18.69012972 -2.47524939 1.999364 -0.169751 3.41647
6800 1.26351819 17.01182511 -3.8586752100000004 1.705675 2.393708 2.239294
6820 1.5012243 9.32800527 -3.0042536400000004 0.735843 2.103259 2.188027
6840 6.465653280000001 3.1183145100000003 -2.498607 0.476189 0.783509 2.381252
6860 8.052204960000001 0.50834439 -2.5379745300000005 0.759865 -0.8839799999999999 1.686754
6880 9.27740529 -2.20850568 1.6935787800000002 0.642732 -2.117945 1.349958
6900 6.95319066 -4.3185189600000005 2.08157409 -0.090548 -1.64058 1.422205
6920 3.76032996 -2.74379814 -2.40999327 -0.8778790000000001 -1.056822 1.043148
6940 0.8689403700000001 1.3867121699999998 -4.22256735 -1.389245 -0.8786950000000001 0.099312
6960 0.063765 4.9491548100000005 -2.4956149499999998 -1.874968 0.854045 -0.960636
6980 -2.00642949 4.50398682 -3.45407157 -1.593786 1.828847 -2.020665
7000 -2.17932093 9.5293359 3.18193236 -0.547271 1.188738 -2.158881
7020 -0.70697727 23.49005481 -1.1560496400000002 0.316094 -0.512783 -1.7735880000000002
7040 -1.17356049 48.06475227000001 2.42451207 1.068114 -1.380641 -1.179701
7060 0.29907747 27.05518539 -4.922667810000001 1.404658 1.538902 0.219348
7080 6.82490529 22.9429413 -6.554571120000001 -0.367697 6.762163 1.700058
7100 11.93632731 17.076786929999997 -2.36104137 -2.605364 0.32839 0.322143
7120 13.75819146 11.602522440000001 -1.3639627800000003 0.913673 -0.389959 -0.242014
7140 6.1194289500000005 9.39970656 0.8476919100000001 -0.645602 -0.339412 -0.075645
7160 -3.19659831 7.3052617500000006 1.00561329 -2.344807 -0.17685399999999998 -3.817954
7180 -6.506070480000001 5.091507720000001 1.58610042 -1.576439 -3.794663 -3.917978
7200 -6.8969106899999995 0.38500326000000007 3.04885971 -2.781532 -1.991123 -3.4138230000000003
7220 -7.5098787300000005 -4.4262916200000015 1.1892761100000002 -4.082335 0.692272 -2.811052
7240 -9.4889187 -7.644158010000001 0.8834591700000001 -2.963622 1.314192 -1.601217
7260 -6.5909466000000005 -6.996148649999999 -1.2427111800000001 -1.251387 1.345164 -1.773031
7280 -0.55744344 -2.98464345 -4.2487600500000005 0.756092 1.53496 -1.959009
7300 5.523667649999999 2.35085859 -7.959402360000001 0.510189 1.965166 -1.17293
7320 11.67976638 6.36072552 -1.91856132 1.135481 2.216878 -0.460654
7340 10.62161073 5.72184927 6.4080293400000015 1.022884 1.614652 0.25504
7360 -11.633355270000001 19.13516037 -21.64618683 0.14613800000000002 -0.452925 0.983297
7380 -7.9501221000000015 48.74852889000002 26.26198803 0.602495 -1.791914 1.370624
7400 8.48959362 6.24021948 0.27003987 1.371148 -2.146071 1.624274
7420 14.27402088 18.766628100000002 -2.1023811 2.156382 -2.125451 1.647893
7440 -2.97356796 20.472479190000005 6.35533002 2.681371 -1.377401 1.6687610000000002
7460 -0.7144623 22.072647150000005 6.716387070000001 3.203457 -1.035221 1.692266
7480 -3.2055842700000006 20.267106840000004 -0.16660323000000002 3.685604 -0.049506 1.989199
7500 0.9909375300000001 20.65465089 -4.6565127 1.721018 0.462394 3.548312
7520 2.1495279600000003 17.57599821 -3.77245512 1.243349 2.301323 3.8962
7540 6.34845321 9.707613030000001 -1.83114441 0.243647 3.4095730000000004 3.340867
7560 5.81990022 3.12774192 -5.41858293 -0.547355 1.5735370000000002 2.304724
7580 8.87235039 -0.5116405499999999 -1.34734464 0.407546 -0.325106 1.824582
7600 10.486438740000002 -5.26724406 1.58310837 0.856641 -2.370733 0.977899
7620 7.7863539600000005 -7.63696728 -0.34757811 0.4868020000000001 -2.162331 0.8639530000000001
7640 4.08755232 -2.01032406 -3.77260227 -0.665104 -3.564378 0.567148
7660 0.23860863000000002 3.4908885 -3.83337522 -1.52481 -2.041662 0.138312
7680 -0.18022932 5.1452469 -2.6626596300000003 -2.232278 0.196599 -1.406669
7700 -2.95455618 3.8757446100000004 -1.22220828 -2.307278 1.869532 -2.518151
7720 -2.23365852 2.7683427600000003 1.4141115 -1.4134209999999998 2.334781 -2.956884
7740 0.06975891000000001 8.753492430000001 5.18312331 -0.101415 0.89649 -2.188507
7760 2.31703371 24.01156422 1.281186 0.817948 0.15289 -1.910873
7780 3.92678604 53.448902100000005 -0.07439904 1.833491 -1.502602 -0.914621
7800 -6.83044794 26.09194149 -6.92743941 0.359297 4.058857 1.512047
7820 3.1431632400000002 20.79760221 -5.52590433 -0.20763 6.499053 2.62232
7840 19.793185740000006 17.89453872 -3.1934591100000005 -2.604102 4.4703620000000015 1.340201
7860 22.50091251 12.262195890000001 -1.2290949000000002 0.177468 -11.567751 -0.970974
7880 7.74654498 8.96007141 -0.19683765 0.015346 -1.280509 0.530518
7900 -1.58684598 7.144191360000001 3.9555293400000004 -0.151003 1.93006 -0.08044
7920 -7.94128329 4.99376088 3.1780377900000003 -2.536541 -1.51626 -3.56334
7940 -8.14636134 -0.62015877 1.12132224 -2.152673 -1.0622049999999998 -4.489525
7960 -13.68873666 -7.166048040000001 2.7210389399999997 -2.118897 -0.52344 -3.388643
7980 -14.022835830000002 -10.887912990000002 0.33425613 -3.890884 0.44833 -2.446207
8000 -8.37149103 -8.24874831 -3.14974575 -3.043805 1.173209 -1.706282
8020 -0.39532338 -0.032785020000000005 -3.2945021100000003 -1.356574 0.144455 -1.646177
8040 6.54424119 5.156479350000001 -7.11111204 -0.10826600000000003 0.287533 -1.7455310000000002
8060 15.62450472 9.462726 -0.9211884300000001 0.394991 0.927412 -1.029264
8080 16.618738410000002 9.3212658 3.84101721 0.8126939999999999 1.927821 -0.621704
8100 11.179505429999999 1.35513378 11.4438555 0.966951 2.322754 0.113805
8120 -13.949496270000001 6.37254657 -24.125036490000003 0.783808 0.5359510000000001 0.62222
8140 -10.36130238 59.21535744 20.840560200000002 0.7037720000000001 -1.538021 0.927694
8160 17.828380080000002 11.414660940000001 3.3528814200000006 1.1785 -1.87147 1.319202
8180 -3.5075066400000003 5.60973078 1.06024518 1.989461 -2.486999 1.631167
8200 -2.98389789 23.08514706 1.87575048 2.474298 -2.476484 1.777682
8220 -3.98232045 27.72759222 0.34638129 3.229483 -2.485626 1.810742
8240 5.094951030000001 17.77792725 3.98067237 3.70115 -0.968251 2.361158
8260 6.27135642 15.50027088 -1.39165641 1.471739 1.178818 4.422663
8280 3.4902900900000002 19.19877822 -3.23507313 1.752953 2.944721 3.196045
8300 1.55916216 14.024336760000002 -2.5128216900000004 0.93413 2.882053 2.529177
8320 2.66521023 7.691010570000001 -2.5770379500000002 0.065028 2.42295 2.209637
8340 6.4692437400000005 3.76961022 -2.11195566 0.285508 0.441728 1.971229
8360 8.63404587 -0.11181438 -1.21682259 0.566762 -0.421145 1.195566
8380 8.229883680000002 -3.6585414000000003 0.5258552400000001 0.224712 -3.361606 0.768588
8400 5.7031416 -5.65643619 -2.32062417 -0.57402 -3.618341000000001 0.662925
8420 2.18291139 -2.3947191 -2.5611751800000007 -1.622729 -1.777032 0.11272
8440 1.31830704 1.6826504400000002 -4.81982958 -2.248484 0.227571 -0.614202
8460 -0.38155995000000004 4.14038898 -1.6257720600000003 -2.205544 1.351232 -1.930323
8480 -2.8747714500000003 3.1469106600000005 -0.09236115 -1.363866 2.0678810000000003 -2.854715
8500 -0.25970994000000003 5.71511961 6.474639240000001 0.018835 1.02301 -2.230559
8520 -1.88921961 19.50264297 -4.665351510000001 0.837255 -0.363467 -1.737024
8540 -0.45355554 47.548324439999995 0.41029344 1.86169 -1.722978 -1.238881
8560 -3.33791136 21.654564570000005 -5.664225330000001 0.510812 4.363588 1.099313
8580 1.71139374 21.88209771 -3.7541889 -0.66946 7.076573 2.454917
8600 15.552803429999999 21.66579702 -3.1100839200000006 -2.853101 -0.174703 0.341354
8620 18.49644108 15.49563075 -2.1721302000000002 -0.013037 -1.736046 0.45506
8640 13.90952052 10.316392200000001 -3.0573944100000006 -0.6535489999999999 -0.497385 -1.321045
8660 3.2129221500000003 8.85288735 2.9961702000000003 -2.636126 -1.560068 -4.2423
8680 -0.99737289 5.76331614 2.5146169200000004 -1.711584 -1.681968 -3.065983
8700 -5.37861699 1.55421792 -1.09602225 -2.353181 -1.7204119999999998 -3.019141
8720 -8.02570815 -1.9535830200000002 0.01018278 -3.591997 0.627694 -2.538353
8740 -9.11694312 -4.8118932899999995 0.65937915 -2.425079 0.516686 -1.631685
8760 -11.0248704 -5.97003246 0.40280841 -0.577304 0.341611 -1.54271
8780 -5.338346939999999 -3.8884681800000003 -2.8605469500000003 0.278883 0.337108 -1.425628
8800 1.46530008 0.11675862 -6.11328789 0.568465 0.923135 -1.175461
8820 9.06514632 6.00955695 -7.8638922 0.470467 1.51141 -0.619287
8840 17.955007560000002 8.868004560000001 8.1584865 0.7377199999999999 1.698971 -0.07073099999999999
8860 7.90042464 10.79330535 0.21735036 0.371206 0.345595 0.365345
8880 -11.40793128 50.27340509999999 -10.00040229 0.191589 -1.481248 0.760606
8900 -1.8538938000000003 7.72363863 7.75776762 0.635686 -2.12391 1.2495040000000002
8920 4.62627828 5.976026370000001 4.24457118 1.429346 -2.258107 1.619483
8940 7.8622539300000005 27.02270448 -3.4108094700000002 2.286935 -2.226241 1.698072
8960 -0.40236696 20.03449212 4.06539153 3.431417 -2.181777 1.574618
8980 0.8027817300000001 18.961964820000002 4.31866611 3.716902 -1.245344 2.377647
9000 2.73227139 18.072963 -0.22857300000000003 2.306922 -1.085441 4.102386
9020 3.3175556100000003 18.15005979 -1.58954373 2.39574 3.777527 2.965527
9040 1.34270451 14.4144216 -2.51492103 1.554708 3.586213 3.31882
9060 3.3319174499999997 8.9424036 -2.1782712600000003 0.123407 3.524427 2.429755
9080 5.879476350000001 3.67141212 -1.42908156 0.514559 1.220149 2.112837
9100 5.924533680000001 -0.77374413 -1.60436664 0.920797 -2.143774 1.174609
9120 6.625222740000001 -2.122884 -0.2282787 0.5068739999999999 -2.788243 0.995219
9140 6.11343504 -4.47239862 -1.52218827 -0.19023 -3.949795 0.6350520000000001
9160 5.463640260000001 -2.99272689 -1.45901187 -1.063516 -1.92843 -0.073324
9180 3.5708203800000002 1.0418318100000001 -2.21838435 -1.6855830000000005 -0.584083 -0.857057
9200 3.0888256500000004 4.02183513 -4.219428150000001 -2.176916 1.242533 -2.476913
9220 -0.17348985 4.84467831 -3.69417132 -1.590148 1.889157 -3.251309
9240 -1.10126079 5.019208020000001 2.26344168 -0.283606 1.6892599999999998 -2.879799
9260 -4.177362870000001 15.450573420000001 1.0389869100000002 0.581703 0.83944 -1.834354
9280 -3.0566390400000003 44.70708357 7.631130330000001 0.785488 -0.444093 -0.977777
9300 -8.34738786 25.43421042 5.11426692 0.7495310000000001 2.074919 1.006705
9320 -4.70022606 25.020169560000003 -5.71047948 0.538506 5.59242 3.0613240000000004
9340 7.741149480000001 22.451509350000002 -3.78398187 -0.382338 -0.276431 3.38822
9360 20.797896509999998 17.721500130000003 -4.3152228 1.742384 -1.16091 -0.238442
9380 19.28485116 12.209663340000002 -4.57853301 -0.879685 -0.302316 -3.28413
9400 5.62275846 8.36161236 -1.4668010100000002 -3.110425 -0.791879 -5.725017
9420 1.17550287 6.71383647 4.56925275 -1.788354 -1.546477 -1.985652
9440 -4.13694567 3.9775331700000005 3.2985438300000003 -3.413399 -1.142161 -1.787082
9460 -6.767281350000001 -1.59074055 2.5685130600000003 -3.524181 -0.7441800000000001 -2.3812290000000003
9480 -9.89308089 -6.55636635 2.83360869 -3.083733 -1.448659 -1.615607
9500 -12.49661565 -8.97743511 0.50804028 -1.614319 -1.121611 -1.825816
9520 -9.89232552 -7.73366445 -0.8129547 -0.326065 0.712336 -1.762552
9540 -1.96302024 1.7788963500000001 -1.43700804 0.747508 1.304192 -0.986692
9560 5.340740580000001 6.473138310000001 -7.60223988 1.214888 1.715482 -0.350498
9580 14.2436295 9.43577793 -6.5985787799999995 1.301727 1.600342 0.394806
9600 15.912065250000001 11.471245020000001 10.82234295 0.560258 -0.389493 1.0117459999999998
9620 2.3822996400000003 34.45984206 -14.42625246 0.980601 -1.6920509999999995 1.37741
9640 -11.157197490000001 19.371669660000002 8.403520680000002 1.75952 -2.622509 1.619052
9660 -1.76752656 -6.819970860000001 6.31282329 2.170881 -2.927684 1.655431
9680 4.65352065 17.2716822 -0.95890788 2.827657 -2.268607 1.700835
9700 3.38041809 39.58638129 1.27415223 3.541764 -1.694751 1.962529
9720 12.80557179 17.868944430000003 5.93785566 1.896706 -0.680792 3.432431
9740 9.00647271 11.0422341 -0.11630736000000001 2.687882 3.0965700000000003 3.040011
9760 -0.44217594000000005 14.130019890000002 -2.8370520000000004 1.916463 4.367177 2.178417
9780 -5.532643800000001 18.4139586 -1.27819395 0.5190060000000001 3.912873 1.91607
9800 -8.95138956 12.743150759999999 -1.65675204 0.285598 1.54906 2.109748
9820 -0.51687909 7.850570220000001 -1.9143724500000001 0.614021 -0.347818 1.199007
9840 7.716153600000001 3.11023107 -0.22034241 0.539063 -1.617607 0.460901
9860 9.1072116 -2.09009898 0.11945637 -0.184482 -1.139313 0.026877
9880 6.52837842 -4.62658239 -2.38438917 -0.739738 -1.2017950000000002 -0.648833
9900 4.14218421 -4.23469251 -5.52800367 -1.146377 -0.21338 -1.054592
9920 1.9059849 1.7700673500000002 -2.98284822 -1.574404 0.930923 -1.531202
9940 0.9798620400000001 3.4178432400000003 -0.64381068 -1.315666 1.702382 -2.070903
9960 -0.28530423000000005 4.297859100000001 -0.46478799 0.175823 1.023882 -1.7861509999999998
9980 0.11750418000000001 8.10519858 4.70426778 1.87943 -0.716829 -0.854418
10000 -4.38423615 18.76737366 -6.39095994 0.663219 3.3236790000000003 1.283308
10020 -7.948474020000001 48.92366682000001 1.98232632 -1.365672 4.665871 2.787496
10040 -7.79055264 20.465886870000002 -1.5058644300000001 -0.985717 0.538683 1.471912
10060 0.33739533 17.720303310000002 -2.88000999 1.340855 -3.0209330000000003 0.122196
10080 11.136841740000001 18.07716168 -2.5191099 -0.683818 -1.543347 -1.32953
10100 15.47167473 11.88782667 -3.72904587 -1.370663 -1.44698 -2.719935
10120 10.49482629 7.9357504500000005 -2.8484217900000006 -0.332229 -2.009312 -3.120022
10140 3.35961108 5.02520193 -0.40954788000000003 -1.834319 -0.7881060000000001 -1.919647
10160 -3.26052027 2.61176535 1.17011718 -2.365942 1.154335 -1.570132
10180 -4.268674350000001 2.12303115 2.1454862400000003 -2.117157 1.629822 -1.612801
10200 -3.0789469800000004 -0.68078457 0.57136383 -1.851956 1.3569870000000002 -1.5454370000000002
10220 -3.8420570700000005 -3.20962599 -1.15005573 -1.734436 1.051264 -1.649978
10240 -4.07528001 -3.6973105200000003 -3.10065651 -1.627442 0.5739310000000001 -1.72019
10260 1.91781576 -1.51080867 -5.94697896 -0.911354 0.155823 -1.94432
10280 8.36221077 2.10716838 -4.5731375100000005 -0.160609 0.116834 -1.902707
10300 16.109648460000003 5.74819893 4.15461348 0.362443 0.527044 -1.3109879999999998
10320 5.84415054 22.502256480000003 -8.30997252 1.017418 1.567541 -0.478807
10340 -5.09076216 56.17053945 5.961056310000001 1.262242 2.0522400000000003 0.373655
10360 0.022906350000000002 5.7868208999999995 3.7938605400000003 0.909491 1.297971 0.958612
10380 3.07715175 3.87393957 -2.23665057 1.437574 -0.471599 1.336309
10400 -5.952521610000001 16.7075091 2.46312423 1.868292 -2.693801 2.03651
10420 -3.90283002 22.951770300000003 0.56477151 1.818421 -4.449098 3.074586
10440 3.4033244399999996 14.63476401 3.03957945 2.762981 -0.736913 1.00194
10460 4.891825170000001 10.5939171 0.10148445 1.334142 2.482179 0.951515
10480 2.7683427600000003 9.854753220000003 -0.13037490000000002 1.533898 2.505375 1.636542
10500 2.3246658900000003 9.700275150000001 0.29728224000000003 1.947098 2.08439 1.86109
10520 2.9585979000000004 9.01740105 -0.56462436 1.475451 1.6648459999999998 1.693827
10540 3.68384139 7.61706279 -3.47787063 1.064334 0.8641559999999999 1.684504
10560 1.33372836 3.9252851100000004 -2.77941825 0.685383 0.15039 1.488355
10580 1.69447149 1.56529341 -1.9785887100000001 0.377958 -0.152133 1.218472
10600 2.4146334 1.2094847100000001 -2.31014709 0.09108 0.306992 0.937073
10620 3.99519117 2.39786811 -0.26554689 -0.166078 0.877174 0.562805
10640 4.09039722 2.08830375 1.0225257300000001 -0.437662 1.246381 0.110714
10660 2.87103384 2.95111287 0.25222491 -0.7529359999999999 1.448256 -0.282716
10680 1.96601229 3.74311341 0.29938158000000004 -1.102693 1.862037 -0.625384
10700 0.48139632000000004 18.38432259 -8.963956170000001 -1.343394 2.283074 -1.012165
10720 -11.107804139999999 46.58851404 -0.9050215500000001 -1.256687 2.439842 -1.39632
10740 -14.15935179 11.722577220000002 11.26991439 -0.61343 1.7523490000000002 -1.589635
10760 -4.827314610000001 16.473393450000003 -1.46290644 0.470903 1.191375 -1.038686
10780 1.13388885 23.11268373 -6.24366279 0.012479 2.573633 0.273459
10800 2.29697226 17.443376820000005 -2.6158070700000002 -0.710116 3.798032 1.33186
10820 3.77170956 11.789187120000003 -1.8622813500000002 -1.631866 3.84265 1.362752
10840 1.07057511 10.13691825 -1.50856218 -2.10467 0.349221 0.273271
10860 -0.60025428 8.63045541 -0.95695569 -1.399242 -2.211605 1.234334
10880 -0.8975365200000001 6.111639810000001 -0.27527841000000003 0.022885 0.258827 1.58507
10900 -1.0334540700000001 4.5523305 -0.36793386 1.667943 -0.22357 0.649666
10920 -0.92657412 3.29075469 -0.43499502 1.088716 -0.015451 -1.074484
10940 -1.2249060300000003 1.30543632 -0.72569475 0.137849 1.098562 -2.047158
10960 -1.4030360100000001 -0.2718351 -1.08284742 -0.243908 1.891456 -1.532753
10980 -1.5919373700000001 -0.6785380799999999 -1.7125905600000002 -1.162776 2.721874 -0.879006
11000 -1.2656175300000003 0.0344331 -1.9902626100000003 -1.433915 3.084375 -0.7211310000000001
11020 -0.11616021000000001 3.43341171 -1.9772349300000003 -0.72996 2.011752 -0.559947
11040 2.55623094 7.82123832 -2.3574509100000003 -0.130394 1.320322 -0.530304
11060 7.312148370000001 10.89045378 -0.7168559400000001 0.101335 1.727977 -0.644576
11080 13.269751560000001 9.99022932 1.81407501 0.264945 2.546512 -0.620981
11100 13.926138660000001 7.3467188100000005 0.7982887500000001 0.239125 2.830759 -0.287172
11120 8.42762385 7.320977370000001 -0.58753071 0.124534 3.1204240000000003 0.100489
11140 -1.06518942 20.453016150000003 -5.0448121200000005 0.050055 3.5824 0.519188
11160 -2.5852783500000003 31.830860160000004 3.5114012100000003 0.237545 3.774599 0.776624
11180 7.38639045 13.073963580000001 -0.55744344 0.5719890000000001 3.255387 0.8586739999999999
11200 -3.4055709300000006 13.181284980000001 -5.879476350000001 0.8532190000000001 2.819235 0.994725
11220 -7.70088924 11.828701800000001 1.8955078200000002 1.132623 2.638004 1.318444
11240 -5.187459330000001 10.636580790000002 3.61348407 1.32508 2.466043 1.530448
11260 -1.80090018 15.728539770000001 4.3439661 1.488394 2.51955 1.328558
11280 1.2500490600000003 14.50768527 5.5383336000000005 1.971596 2.554701 0.911009
11300 2.6613156600000005 10.127039580000002 4.96892196 2.3243150000000004 2.217823 0.6682130000000001
11320 3.06113202 9.11275425 2.30580126 2.796563 2.152072 0.451543
11340 0.8220878100000001 9.290276010000001 0.71790561 2.868347 2.335537 0.330032
11360 -1.3040923500000001 8.395594200000001 1.09138212 3.039412 2.08604 0.237543
11380 -1.0285098300000002 7.2971783100000005 1.29495924 2.794388 2.079786 0.149313
11400 -0.33994593000000006 7.28624997 1.02521367 1.986788 1.909677 -0.033435
11420 0.85951296 7.486383780000001 2.9286577800000004 1.219052 1.8003650000000002 -0.003406
11440 2.41298532 7.93455363 4.33184094 1.026188 1.122536 -0.024181
11460 3.28656582 8.743613759999999 3.5657388000000005 0.91407 0.666718 -0.223069
11480 3.57382224 7.89533325 1.32040638 0.970666 0.927355 -0.449471
11500 3.2391148500000004 7.423217190000001 1.76946894 1.122232 1.160092 -0.70722
11520 3.35781585 7.381299060000001 1.6229271600000001 1.375444 1.253855 -0.930966
11540 3.30991362 7.8261727500000005 -0.25042968 1.454366 1.421085 -0.994723
11560 3.38237028 8.05864032 0.0015009300000000001 1.28157 1.6465439999999998 -1.016515
11580 3.9365175600000004 9.310935870000002 -2.26958274 1.034695 1.803943 -1.003486
11600 1.80075303 13.052558160000002 -2.03636961 0.7913399999999999 1.825915 -0.95928
11620 0.65219823 15.230231009999999 -0.47541222 0.51153 1.767216 -0.955818
11640 1.2970487700000002 12.673244700000001 -0.6084848700000001 0.254634 1.596535 -0.940303
11660 2.2598512200000003 13.210175430000001 -0.41329530000000003 0.118925 1.333795 -0.918481
11680 2.20266873 15.27977151 0.1038879 0.018434 1.329718 -0.877517
11700 3.2070852 15.18337845 -1.10380158 -0.367768 1.634408 -0.814375
11720 4.56026679 14.37730056 -2.3613356700000003 -1.055017 1.869952 -0.781022
11740 3.43924866 12.497361210000001 -1.09033245 -1.7955470000000002 2.137569 -0.7299220000000001
11760 1.6661892600000001 9.111547620000001 -1.0731159000000003 -0.733549 1.278265 -1.210648
11780 1.6205335200000002 7.343873909999999 -0.8824193100000001 -0.138003 1.511312 -0.068062
11800 0.68841675 6.6523179599999995 -1.9842785100000002 -0.95152 3.236065 0.352402
11820 0.49098069000000005 6.59992275 -2.27063241 -1.420374 3.432153 -0.059185
11840 0.86130819 6.93567981 -1.5649991100000002 -1.621126 2.725003 -0.731592
11860 1.1304455400000002 6.265372320000001 -0.8515766700000001 -1.36207 1.684362 -1.255083
11880 1.0415375100000002 5.38160904 -0.9982754100000001 -1.128786 1.242066 -1.139655
11900 1.4063223599999999 5.117111820000001 -1.38656502 -1.397918 1.474053 -0.845935
11920 2.1604563000000003 5.558395050000001 -2.38857804 -1.551206 1.601152 -0.795894
11940 3.34269864 5.721554970000001 -3.33087759 -1.396753 1.6353 -0.94441
11960 4.390367400000001 5.95326717 -3.91735863 -0.980265 1.701056 -0.966154
11980 4.59888876 5.583243780000001 -3.5199261 -0.772315 1.654736 -0.752066
12000 4.78405251 4.27824891 -2.8433402100000005 -0.5925 1.715214 -0.58104
12020 5.63533488 3.19974732 -2.47435668 -0.489321 1.773996 -0.452208
12040 6.63330618 3.15828045 -0.00942741 -0.295796 1.477894 -0.365019
12060 0.62061003 8.45261973 -2.14129737 -0.139168 0.960677 -0.361126
12080 -0.17064495 25.836126120000003 -10.842551550000001 -0.089937 0.6859529999999999 -0.433069
12100 1.90329696 17.36942904 -1.3066331400000002 -0.186163 0.795277 -0.516134
12120 -0.50265459 8.68389048 -1.4126105700000002 -0.481449 1.336351 -0.505003
12140 -1.78578297 9.80626239 2.95845075 -0.73941 1.940942 -0.426395
12160 -2.11135725 12.04186329 2.02977729 -0.513911 1.563113 -0.17544
12180 0.00045126000000000004 13.6968201 1.1862840600000002 -0.014186 0.6393340000000001 0.236227
12200 3.03493932 13.645621710000002 1.5501762000000001 0.399216 0.061718 0.73551
12220 3.7880235900000003 11.82825054 0.80038809 0.442638 -0.8834200000000001 1.289295
12240 1.48296789 9.496854990000001 0.8523320400000001 1.189464 -1.342975 1.546133
12260 -0.28845324000000006 8.90334018 1.2886710300000002 2.092773 -1.167002 2.043599
12280 0.04505733 8.820857700000001 1.5962832 3.569303 -0.329841 2.663863
12300 1.2769971300000003 9.107957160000002 1.1843416800000002 3.332835 -0.668309 1.998211
12320 2.6976911400000003 10.13302368 -0.24683922000000003 2.76453 0.015653999999999998 1.412252
12340 3.63115188 9.342818370000002 -0.24968412 1.859194 1.497804 1.8419999999999999
12360 3.46484295 8.498579580000001 0.42616602000000003 1.867729 1.392954 2.213935
12380 2.79364275 8.91351315 1.14871176 2.080132 -0.329056 1.895022
12400 2.42899524 9.35075466 1.27654587 1.43728 -0.946863 1.640291
12420 2.39950638 10.47552021 0.86116104 0.689385 -0.8551469999999999 1.7300209999999998
12440 4.924306080000001 11.001669750000001 0.05927202000000001 0.097811 -0.677646 1.544064
12460 5.328615419999999 10.050099750000001 -0.71072469 -0.288583 -2.111349 1.573112
12480 6.6362982299999995 9.38084193 -3.70195065 -0.28841300000000003 -0.414682 0.8541629999999999
12500 8.41624425 8.63464428 -3.51903339 -0.531104 1.013899 0.254569
12520 7.89368517 6.36581691 -1.19585862 -0.8453 1.6727459999999998 -0.397949
12540 5.586382980000001 6.26686344 -3.02835681 -1.130924 2.866765 -1.175935
12560 2.9924227800000005 6.6798546299999995 -3.64956525 -0.985576 3.71262 -1.57445
12580 0.24758478 9.27261801 -4.64215086 -0.282241 2.49504 -1.6587759999999998
12600 -2.49995097 24.49101816 -6.349345919999999 1.296269 1.0129709999999998 -1.361704
12620 -5.508697590000001 26.10152586 0.9322639200000001 -0.028963 4.007531 -0.23180100000000006
12640 -2.4816847500000003 22.622458410000004 4.89421881 -0.82704 3.3357910000000004 -0.18524
12660 4.57568811 22.15917135 -1.1241671400000002 -0.430186 -0.186726 -0.615925
12680 7.820787060000001 21.696031440000002 -3.97558098 -0.834249 2.327551 -2.450765
12700 5.5482122700000005 18.01878237 -3.1551412500000002 -1.068028 0.783454 -1.588364
12720 1.9447540200000002 14.90375421 -2.23409997 -0.506811 -1.158496 -2.352144
12740 -1.4867055 11.798310420000002 -2.7744838200000004 -1.189637 -1.494818 -3.167263
12760 -1.6898313600000001 7.902062910000001 -3.8833767900000002 -2.700102 -0.239815 -2.684835
12780 -0.47151765 6.6244771799999995 0.7036909200000001 -3.160104 0.235787 -2.408783
12800 -0.11720988 1.8021068100000002 0.48634056000000003 -1.816772 -0.61575 -1.614234
12820 -4.13410077 -1.5296733000000002 1.29240864 -0.306603 -0.617237 -1.486179
12840 -6.48511632 -8.50052196 3.2921084700000005 0.331227 0.562136 -0.736548
12860 -9.06604884 -13.282632090000002 3.80897775 0.8708969999999999 2.343108 -0.097332
12880 -6.324801300000001 -8.07495435 1.48700961 0.728638 2.993564 0.398632
12900 1.44898605 -1.3257920699999999 -1.16232804 0.175119 0.465305 0.435393
12920 7.767047880000001 3.07370844 -4.691240100000001 -0.026496 -1.83738 0.499961
12940 13.75115769 6.16418217 4.85156493 0.245522 -2.705607 1.069131
12960 4.7806092 7.43998248 0.9342063 0.8901319999999999 -2.537679 1.671623
12980 -3.6736586100000004 16.671879179999998 -23.206987260000002 1.6945419999999998 -2.282671 1.937561
13000 -4.02542559 38.6098056 19.762951320000003 2.259084 -1.817867 1.894975
13020 3.21261804 19.705474530000004 3.06308421 3.661187 -0.976193 1.984875
13040 5.9112117 15.17379408 -7.06366107 3.910028 -0.707226 2.438127
13060 3.61513215 20.96570637 4.77132894 2.664841 -1.974178 3.334768
13080 2.16824544 19.08441324 5.748346080000001 1.955845 1.987372 2.670988
13100 1.41770196 15.405967350000001 1.7368408800000001 0.573159 2.736455 2.223467
13120 2.34157833 22.52171952 -2.6538306300000003 0.777366 2.254653 2.120825
13140 4.80904839 20.20453866 -4.92176529 0.945675 -0.783569 1.989161
13160 8.26281585 10.47671703 -4.830600960000001 0.805009 -2.484131 1.674164
13180 6.89421294 3.46993434 -1.2338821800000002 0.154245 -1.593369 1.12582
13200 5.54895783 2.0594133 -1.3009433400000001 -0.577465 -1.385055 0.8149310000000001
13220 7.0440508799999995 -2.25176778 -3.2994365400000003 -0.950442 -0.709227 -0.036708
13240 7.06605471 -4.7464802100000005 -0.8473878 -1.237844 -0.171429 -1.076649
13260 6.050866860000001 -2.42495352 0.49098069000000005 -1.662157 1.649695 -2.181147
13280 2.9831425200000004 0.7595196300000001 -2.8607039100000002 -1.079006 2.607052 -2.072546
13300 1.7938664100000001 4.32435591 -3.49298784 -0.142582 1.883543 -1.772385
13320 0.84244356 4.30115526 -2.02199796 1.327294 1.255909 -1.1364040000000002
13340 -0.41808258000000004 3.8757446100000004 0.24339591000000002 -0.328403 3.926457 0.321687
13360 -1.22879079 14.141988090000002 0.00928026 -0.300134 3.2706150000000003 0.7371949999999999
13380 1.9202094 35.13074796 2.8533660300000006 -0.13733199999999998 2.704557 -1.16665
13400 -6.5622033 40.34260476000001 3.48325632 -0.162216 1.33224 -2.94686
13420 -5.71496265 23.02033239 -5.06292138 -1.7302400000000002 -0.464988 -3.158472
13440 6.693029460000001 19.803368520000003 -5.75044542 -1.81127 -0.087159 -3.268481
13460 13.15838844 17.29847331 -4.173625260000001 -1.954314 -1.119717 -3.334386
13480 14.706916560000002 12.68656668 0.18262296000000003 -3.03115 -0.886999 -2.789936
13500 6.68329794 5.7749900400000005 -1.7583934500000002 -2.2197150000000003 -0.8294299999999999 -1.907331
13520 -0.38155995000000004 5.858816490000001 -0.40744854 -0.814477 -0.734337 -1.598535
13540 -4.67552448 2.8291157100000004 2.27975571 0.142258 0.09053 -1.182712
13560 -8.083489049999999 -2.2758709500000003 3.5521127100000003 0.43677 0.680531 -0.59923
13580 -9.4482072 -8.85169053 3.4076604600000002 0.258174 1.81678 -0.07850499999999999
13600 -10.003992750000002 -11.79562248 0.69156576 0.387078 1.056921 0.155173
13620 -4.23828297 -5.09345991 -2.82073797 -0.026425 -1.124759 0.24588
13640 2.1356075700000003 1.41590673 -4.820123880000001 0.076165 -2.378307 0.618875
13660 10.092910589999999 5.11546374 3.2705460900000003 0.560984 -2.320906 1.2941
13680 9.23205366 9.44355726 -0.10942074000000002 1.4157959999999998 -2.232202 1.812704
13700 -2.69993763 21.078717570000006 -22.12413984 2.277979 -2.1554990000000003 1.863493
13720 -9.318126600000001 39.59311095 10.70933175 3.35766 -2.527316 1.735847
13740 2.1844123200000003 16.36801443 4.631065560000001 4.2476980000000015 -1.753853 1.7453459999999998
13760 7.22053278 16.30693737 0.01482291 2.544897 -0.37197 2.8981790000000003
13780 6.4036835100000005 21.01599243 2.3635821600000004 2.59088 2.239285 3.590567
13800 6.69886641 19.29966426 2.8674335699999998 1.856655 3.994182 2.533127
13820 6.066435330000001 18.26441496 0.51133644 0.287021 2.959962 2.2553650000000003
13840 5.138811540000001 18.65600073 -2.4818417100000003 0.104865 1.6966740000000002 2.114706
13860 3.19869765 13.218562980000002 -4.2348396600000004 0.437924 -0.627038 1.646788
13880 4.1128425 5.943094200000001 -2.14938081 0.526567 -3.114446 1.035299
13900 3.68652933 1.68923295 -1.9577817000000002 -0.411101 -2.147278 0.5425369999999999
13920 5.116660560000001 0.6316855199999999 -2.17662318 -1.299327 -1.229932 -0.320489
13940 6.1011627299999995 -2.6840650500000005 -2.0658584700000002 -1.789915 -0.427772 -1.227591
13960 6.14157993 -4.810245210000001 2.00373174 -1.952921 1.500485 -2.443632
13980 6.386319810000001 -3.0326928300000002 0.27977139 -0.925242 2.610553 -2.813891
14000 3.3087168000000005 2.2614993 -3.78847485 0.145507 0.964066 -1.986044
14020 0.8761311 5.9621059800000005 -3.0726587700000003 1.233061 -0.459279 -1.829208
14040 -2.3005627200000003 5.16501405 -5.20482303 1.953428 1.7185560000000002 -0.161609
14060 -3.23132571 4.02303195 2.2529646000000003 -2.237739 4.970149 1.511967
14080 -2.4878258100000004 14.374612620000002 4.585861080000002 -1.845831 1.427836 0.974451
14100 -1.7588447100000002 40.75305516 8.62326468 0.833001 1.087359 -1.7132759999999998
14120 -5.362146 38.44964754 -1.0891356300000001 -0.5182140000000001 -0.529093 -2.032563
14140 -5.97946968 21.761895780000003 -4.61190663 -2.075034 -1.573006 -2.561256
14160 10.40485878 21.652327890000002 -2.8626462900000007 -2.0960650000000003 -1.635477 -3.170209
14180 16.25619024 16.20964179 -5.69086929 -2.262529 -1.472591 -3.000665
14200 16.240925880000002 10.15952049 -3.8227509900000003 -3.861841000000001 0.065309 -3.122766
14220 6.583912830000001 4.36582278 0.5728549500000001 -3.400691 1.469655 -2.003984
14240 -0.71341263 4.00731633 1.6576545599999999 -0.718867 0.6498729999999999 -1.785512
14260 -3.74102388 -0.22812174000000002 2.9379380400000006 0.35930500000000004 0.6300279999999999 -1.2214120000000002
14280 -7.13969838 -5.772743550000001 5.02998921 0.8956299999999999 1.276995 -0.973872
14300 -12.04469838 -9.67438656 4.232298870000001 0.7380479999999999 2.255962 -0.30004200000000003
14320 -10.79959356 -9.08655174 -0.8231374800000001 0.231644 2.029309 0.341917
14340 -3.2081250600000004 -2.40744267 -5.56287822 -0.462015 -0.096789 0.628216
14360 4.30954281 4.77806841 -12.79643868 -0.321333 -2.00199 0.894423
14380 16.46965584 8.012533320000001 3.3419530800000006 0.329723 -2.771537 1.499229
14400 14.888489850000001 7.6791797100000005 7.80911316 1.440608 -2.977493 1.956974
14420 -3.62606049 6.28902423 -12.367584720000002 2.687808 -2.410155 2.054689
14440 -10.773548009999999 29.521762740000003 16.8173811 3.842594 -2.180377 2.199193
14460 -5.1980933700000005 18.18058851 12.50305101 2.583904 -2.782033 2.966702
14480 8.291255040000001 19.48258152 -3.25528173 3.4322480000000004 1.755038 2.482909
14500 2.9271666600000006 23.381978040000003 1.46994021 2.682277 4.06205 2.161725
14520 -1.37998251 17.04251079 4.80995091 1.3813950000000002 4.1552760000000015 2.087357
14540 -2.27975571 22.52096415 2.4804879300000002 1.227902 1.851571 2.364838
14560 2.49949971 20.97004239 -0.3924882900000001 1.401191 -0.554111 1.754904
14580 4.56670215 18.929483910000002 -5.05423953 0.939188 -1.80409 1.459517
14600 2.8551612600000005 11.990664900000002 -4.8879306 0.52408 -2.36495 1.151825
14620 5.045410530000001 5.86555596 0.55549125 -0.317335 -1.917582 0.562125
14640 6.602473350000001 -0.64515465 0.39397941000000003 -1.199522 -0.5136890000000001 0.030736000000000006
14660 8.500374810000002 -3.0561975900000005 -0.56282913 -2.227754 1.087946 -0.806371
14680 8.43585444 -4.918920389999999 -2.03202378 -2.428594 2.546089 -1.907775
14700 8.37627831 -2.9870370900000003 -1.8166256100000002 -1.081187 2.140394 -2.053803
14720 5.503900500000001 1.02970665 -2.88883899 0.463461 0.545164 -1.933079
14740 2.93989023 5.70388716 -5.28655995 1.751211 0.464858 -0.817304
14760 -0.57136383 7.162751879999999 0.66775689 -0.669402 4.624022 0.930502
14780 -3.7961070300000004 14.207852429999999 -0.42107463000000006 -0.74839 2.3229740000000003 1.0119479999999998
14800 -4.57059672 25.09636383 0.55833615 0.636273 1.92235 -1.496734
14820 -12.45409911 35.12790306 8.648711819999999 -0.522124 0.175636 -1.642525
14840 -3.0837342600000004 26.77706208 -1.68279759 -1.717723 -0.17362 -3.040185
14860 6.20804268 25.144560360000003 -1.27744839 -1.788161 -2.377398 -3.58051
14880 16.162190820000003 18.498383460000003 -1.96211772 -2.169221 -1.5086620000000002 -3.384527
14900 12.64973994 13.92628581 -2.70322398 -3.135271 -1.111183 -3.112979
14920 6.20025354 10.40501574 -3.14091675 -2.655432 -0.547568 -2.485439
14940 0.21001248 7.441326450000001 0.14818986 -0.968288 -0.6917409999999999 -1.993838
14960 -1.99430433 3.5723213100000004 2.9949733800000002 0.053265 -0.232208 -1.6475970000000002
14980 -4.5693999 -1.40992263 3.21172533 0.193535 0.36415 -0.922059
15000 -8.155190339999999 -8.16477471 2.5038455400000004 0.196965 1.644756 -0.163102
15020 -10.471919940000001 -11.51659665 1.94879574 0.435111 1.288073 0.382744
15040 -7.60867524 -9.41302854 -1.58879817 0.041391 -0.579101 0.6601239999999999
15060 -0.30147111000000004 -1.6413405300000004 -5.12998254 0.117917 -1.894507 1.07361
15080 7.801176870000001 3.6643783500000002 -8.335713960000001 0.816108 -2.007612 1.579628
15100 17.4566988 6.84197469 9.167837400000002 2.1042240000000003 -1.930891 2.05534
15120 8.65619685 10.463689350000001 0.64381068 3.097468 -1.959831 2.037746
15140 -9.691750260000001 36.54680184 -18.417549060000002 3.769922 -2.39774 2.007753
15160 -6.9322365 28.8225648 15.30298197 2.689782 -1.903879 3.315624
15180 2.1623986800000004 9.85909905 1.92858714 2.666742 0.607 3.595325
15200 5.634432360000001 19.58587101 -2.25880155 2.142505 3.746017 2.540783
15220 2.6834666400000002 21.793631129999998 2.64081276 0.529514 3.752591 2.02958
15240 2.56447134 16.595390610000003 4.35235365 0.650438 2.288014 2.146601
15260 6.508768230000001 22.16036817 1.12371588 1.169332 -1.235619 1.622766
15280 3.7520993700000003 17.57180934 -2.9562042600000003 1.111151 -3.403854 1.240578
15300 3.7422207 12.456649709999999 -4.66055442 0.186552 -2.795847 1.043197
15320 3.3108161400000005 6.51190743 -2.6339261400000002 -0.7421449999999999 -1.681902 0.600517
15340 2.8539644400000004 1.60436664 -1.44015705 -1.3396629999999998 -0.214664 -0.300707
15360 5.22503163 0.22558095000000003 -2.27616525 -2.060436 1.305333 -1.500893
15380 5.94474228 -3.74086692 0.40640868 -1.8013689999999998 3.073774 -2.543935
15400 6.367455179999999 -4.72028751 0.6914088 -0.649832 2.212292 -2.292301
15420 4.956943949999999 -1.2629197800000003 -4.01240772 0.418056 0.6178899999999999 -1.965536
15440 2.6039860200000002 4.1561046 -6.9177177 1.824039 -0.351791 -0.984528
15460 -0.57361032 6.687045360000001 -4.69573308 -0.8006800000000001 4.6256010000000005 1.181684
15480 -2.7345178800000003 4.1936769 4.9154770800000005 -0.952246 3.851971 1.3728280000000002
15500 -3.97064655 12.58717176 1.06158915 0.007992 0.612093 -0.6950729999999999
15520 -0.60833772 37.166666310000004 6.61099824 -0.436796 0.905915 -1.857577
15540 -5.11771023 36.96293223 2.6605701 -1.617088 -0.388825 -2.8565400000000003
15560 -4.59499419 21.7659375 -5.634138060000001 -3.070544 -1.494637 -3.180401
15580 9.35269704 21.15685422 -3.0861279000000006 -1.473063 -2.024851 -3.306364
15600 16.69942566 15.954424830000002 -4.73000922 -2.992881 -1.722048 -3.1208150000000003
15620 14.084658450000001 12.22612452 -0.26284914 -3.099104 -0.3477 -2.798579
15640 6.15729555 7.48743345 0.02140542 -1.18416 -0.168673 -2.343188
15660 -1.17026433 5.272482600000001 0.65055015 0.06308899999999999 0.3724 -1.805332
15680 -6.03829044 1.9865151900000002 2.65547871 0.469501 0.654431 -1.026257
15700 -9.143135820000001 -3.9454937100000005 3.5025624000000004 0.39554 1.4786700000000002 -0.359123
15720 -11.3863689 -8.91770202 4.10925204 0.41608 1.140814 0.195861
15740 -9.63261558 -10.320590880000001 0.56641959 0.026160000000000003 -0.530614 0.536042
15760 -2.81070234 -3.81856212 -3.69162072 0.040844 -2.098182 0.925918
15780 4.226157810000001 2.47794714 -6.7555976399999995 0.685014 -2.648727 1.381912
15800 12.18092004 6.202205730000001 -0.94094577 1.58314 -2.699547 1.856132
15820 13.05315657 9.15451542 7.97616765 2.791984 -2.375951 1.935732
15840 -1.5209914500000001 13.445193600000001 -7.650142110000001 3.664756 -2.656805 1.883436
15860 -9.560472840000001 29.49316659 9.956993040000002 3.062294 -2.393085 2.787947
15880 -1.24031754 11.044480590000001 11.156451930000001 2.98118 -0.570571 3.433456
15900 7.41602646 18.158143230000007 0.5126804100000001 2.792753 3.200357 2.835512
15920 12.757071150000002 26.88005727 -1.00456362 1.392079 3.70136 2.105105
15940 1.8197648100000001 15.690526020000002 2.86623675 0.761325 2.182527 2.056712
15960 -0.56627244 19.44755982 3.01891959 1.076575 0.74478 1.6900830000000002
15980 -0.38020617 20.95507233 -0.01511721 1.021296 -2.225523 1.284374
16000 1.9203565500000002 18.2055942 -3.0400307100000004 0.405565 -2.727373 1.045708
16020 3.6529987500000005 11.35957779 -4.81159899 -0.688495 -1.619217 0.5954699999999999
16040 6.47837685 4.08155841 -0.6740451000000001 -1.4140549999999998 -0.036959 -0.187155
16060 6.72925779 0.7367702399999999 -1.32818571 -1.867647 1.085079 -0.934175
16080 7.450008300000001 -2.4060987 -0.8678907000000001 -1.99046 1.886753 -1.7724779999999998
16100 6.983425080000001 -5.281468560000001 0.40176855 -0.86001 1.768787 -2.02294
16120 6.452478450000001 -3.66497676 -1.8498520800000002 0.623966 0.532513 -1.57302
16140 3.06308421 1.82455209 -3.91361121 2.219538 0.210788 -0.8233209999999999
16160 2.17258146 5.872884030000001 -4.56880149 -0.4202770000000001 5.282303 0.995492
16180 -1.14017706 6.626870820000001 -0.94603716 -1.013064 3.613342 0.895214
16200 -4.09353642 10.229279400000001 3.85029747 0.890086 2.601993 -1.981873
16220 -1.4994290700000001 21.654123120000005 -3.1214635200000003 -0.296106 0.476765 -2.018414
16240 -5.947577370000001 45.990516060000004 3.62441241 -1.6658560000000002 -0.853943 -2.916105
16260 -7.34807259 26.22680937 -1.9730460600000002 -1.986977 -1.073505 -3.141326
16280 0.43125741 22.85657406 -3.2212998900000005 -2.442186 -1.528684 -3.202674
16300 14.090799509999998 19.16793558 -1.9435572 -3.744559 -1.239656 -3.223892
16320 15.883321950000003 13.31375922 -3.73758057 -3.574797 -0.16756600000000002 -2.412231
16340 8.58240603 10.67774355 -0.97761555 -1.505584 -0.420009 -1.816342
16360 2.44845828 6.63944724 0.67165146 -0.057845000000000014 0.350204 -1.744191
16380 -1.5780169800000001 3.09107214 1.34899272 0.447562 1.143827 -1.1157
16400 -4.913829000000001 -1.16981307 2.44666305 0.589869 2.165336 -0.418466
16420 -7.009323480000001 -5.3501778 2.9457271800000004 0.274223 1.446802 0.255367
16440 -9.043593750000001 -8.508006990000002 1.36126503 -0.061505 -0.481664 0.625097
16460 -8.1670212 -7.66884978 -2.4656748299999998 0.170539 -2.2061 1.160903
16480 -2.02364604 -2.5646184900000004 -5.956416180000001 0.97423 -2.31968 1.694364
16500 6.223758300000001 3.18657249 -7.1087184 2.161379 -2.611382 1.950857
16520 14.4605286 7.24628403 7.070694840000001 2.97482 -2.350767 1.872884
16540 4.752768420000001 10.98026433 -1.88727723 4.037728 -2.201526 1.725225
16560 -8.56399266 34.11106713000001 -1.79881065 3.016202 -1.586129 2.692587
16580 -6.45921792 25.36460847 15.10823385 2.967781 0.54871 3.259944
16600 6.29875575 13.012140960000002 1.23583437 2.971412 3.481121 2.531957
16620 11.49399441 21.123029340000002 -4.37899761 1.2080229999999998 2.943108 1.942421
16640 3.6875790000000004 16.0479828 5.3551122300000005 0.7631359999999999 1.671156 2.330845
16660 1.70121096 17.227978650000004 5.32817397 1.036983 -0.118408 1.803076
16680 3.9113647200000004 21.60951705 -0.01466595 0.721532 -2.600892 1.375697
16700 1.6842985200000002 19.06540146 -3.67291305 -0.096886 -2.439219 1.082421
16720 2.48512806 13.40282421 -4.59349326 -1.023903 -1.129508 0.699322
16740 2.35415475 8.19740277 -1.3455494099999998 -1.64437 -0.190838 -0.13408699999999998
16760 3.6992529 1.61663895 0.4784042700000001 -2.172469 0.8552219999999999 -0.996898
16780 6.84181773 -1.8200689200000002 -2.0291788800000004 -2.247416 2.088104 -2.085383
16800 7.804924290000001 -4.35549285 -1.6507679400000002 -1.050315 1.85906 -2.321351
16820 8.244108180000001 -3.7622723400000004 -1.66753323 0.41804 0.354856 -1.987632
16840 5.64191739 0.33904341000000005 -3.3179970600000006 1.86931 -0.756731 -1.256089
16860 1.7009166599999999 5.44597245 -5.87527767 0.103469 4.961145 0.935469
16880 -1.53819819 6.20938665 -2.6081748900000004 -1.66599 5.4812699999999985 1.3358450000000002
16900 -2.9340532800000005 5.10887142 3.62651175 -1.481203 -0.5948640000000001 -1.001962
16920 -3.1196584800000005 15.661782720000001 -3.0689211600000004 -0.124702 0.078513 -1.142901
16940 -2.5542885600000003 45.67991184 5.729481450000001 -1.57507 0.501904 -1.33624
16960 -6.597381960000001 28.55147526 2.25939996 -1.948076 -1.104812 -2.805592
16980 -0.30880899 23.034998339999998 -4.59499419 -1.873473 -1.158628 -3.796312
17000 11.64443076 20.545230150000002 -3.5423811900000004 -3.2002490000000003 -0.8543219999999999 -3.3551800000000003
17020 13.436354790000001 14.668893 -4.394713230000001 -3.319812 0.302414 -2.415325
17040 10.258022700000001 11.013343650000001 -2.48572647 -1.541786 0.140173 -1.7468099999999998
17060 3.78398187 6.961274100000001 0.78226902 -0.188434 0.006729000000000001 -1.517132
17080 -1.32504651 4.10865363 1.0484241300000001 0.366996 0.937782 -1.200388
17100 -3.61663308 0.37632141 2.39382639 0.5856210000000001 2.015767 -0.573196
17120 -6.7818001500000005 -4.168082610000002 3.3202435500000003 0.805502 2.536157 0.166883
17140 -10.27014786 -9.640404720000001 2.70907074 0.593733 1.40923 0.582386
17160 -9.89622009 -10.170595980000002 -0.23950134000000003 0.071127 -1.220906 0.761567
17180 -4.11913071 -4.56236613 -4.0917411900000005 0.377503 -2.171926 0.96041
17200 2.88615105 1.90957536 -8.00190909 1.07116 -2.2259450000000003 1.34668
17220 11.24296632 6.408627750000001 -1.01114613 2.34228 -2.132232 1.5840379999999998
17240 14.42385882 8.61922296 7.800725610000001 3.025096 -2.10701 1.611208
17260 -3.08433267 12.791651400000001 -9.632174130000001 3.879507 -2.475003 1.521508
17280 -10.67609547 41.76779175 19.8226746 1.97377 -1.842419 2.686703
17300 1.44838764 17.870886810000002 11.809395720000001 2.499665 1.502793 2.9681
17320 7.5300873300000015 13.126800240000003 -4.3185189600000005 2.175722 3.5274620000000003 2.289195
17340 -0.09415638000000001 18.424288530000002 0.93585438 0.494493 3.669168 2.142674
17360 -0.027095220000000003 19.10851641 4.312829160000001 0.343866 1.576185 2.467975
17380 -1.6796583900000002 20.703592980000003 4.66954038 0.801784 0.302977 1.856441
17400 3.81961179 22.558693410000004 -1.0268617500000001 0.824318 -3.238259 1.369754
17420 3.66617358 16.60376835 -5.162767560000001 0.13256500000000002 -3.618183 1.075921
17440 4.24592496 10.50470496 -3.5310114 -0.649704 -2.1673310000000003 0.43621
17460 5.06906244 4.04847909 -1.41904593 -1.4579950000000002 -0.536607 -0.406875
17480 6.61324473 -0.22663062000000003 -2.3135904000000003 -1.976258 0.8383219999999999 -1.4687290000000002
17500 8.57925702 -1.16308341 -0.33036156 -1.925913 3.102043 -2.579024
17520 8.127800820000001 -4.09308516 1.16308341 -0.722647 2.124244 -2.321539
17540 6.7338979199999995 -3.04062912 -0.51477975 0.087851 0.629059 -2.074679
17560 3.5591464800000003 0.31598991000000004 -2.40729552 1.204384 -0.432213 -1.114803
17580 2.65143699 3.8405659500000002 -5.683678560000001 -0.328588 4.898062 1.1013110000000002
17600 -0.5498112600000001 4.50233874 -4.35070557 -1.05827 5.410784 1.120126
17620 -2.06421039 3.59986779 0.91954035 -0.234635 -1.790821 -1.103886
17640 -3.0490068600000004 12.02389137 5.58204696 0.239669 0.143749 -0.723833
17660 -2.02603968 34.330212720000006 6.56774595 -1.153824 0.14623599999999998 -0.936532
17680 -5.5411785 36.86518539 4.11883641 -2.352409 -1.8003619999999998 -3.272202
17700 -1.88428518 21.497094450000002 -5.480699850000001 -1.752698 -2.430452 -3.929503
17720 8.97803352 22.70164473 -3.9285812700000005 -2.85205 -2.141414 -3.0648150000000003
17740 14.61380985 18.73264626 -3.3353607600000004 -3.709949 0.127951 -2.669927
17760 12.44317077 11.29282074 -4.46895531 -2.237284 0.052504 -1.863719
17780 6.31581534 10.01192904 1.35438822 -0.504101 0.166875 -1.864578
17800 1.39779747 6.438116610000001 2.1927900600000005 0.5863430000000001 0.724434 -1.317155
17820 -2.9168367300000004 3.0719132100000004 2.1335180400000002 0.8795040000000001 1.933595 -0.525104
17840 -8.53883982 -2.6229978000000003 3.4995703500000004 0.961123 2.28626 0.187518
17860 -11.3889195 -8.540036640000002 5.29314246 0.338085 1.031919 0.588561
17880 -13.240115549999999 -12.609774000000002 2.17332702 -0.210822 -1.266871 0.778885
17900 -6.7041049500000005 -7.653732570000001 -3.8375739 0.319722 -2.392455 1.014769
17920 1.98771201 0.58184091 -6.314618520000001 1.354632 -2.884711 1.473418
17940 7.53892614 5.3235338400000005 -9.97270866 2.148989 -2.824233 1.644464
17960 17.71775271 8.550817830000002 9.99636057 3.061269 -2.519739 1.696379
17980 7.67872845 8.8467561 0.48902850000000003 3.013932 -2.371058 2.64978
18000 -8.646318180000002 33.89880816 -16.723823130000003 2.285302 -1.598082 3.649965
18020 -0.27722079 25.185428820000006 16.60721166 2.876572 3.076466 2.576679
18040 8.15953617 7.7585131800000005 0.31314501 1.812406 3.27262 2.398079
18060 7.585925850000001 17.655930090000002 -4.213287090000001 0.64313 3.124987 2.236276
18080 1.52278668 23.90139792 4.66175124 0.8513120000000001 1.080815 2.299102
18100 -0.44951382000000006 15.31375335 6.04876752 1.143844 -0.609761 1.509623
18120 -2.0279820600000003 18.60795135 0.92657412 0.654209 -2.679269 1.320848
18140 -1.0816506000000001 20.025653310000003 -3.1196584800000005 -0.176064 -3.244231 0.8008890000000001
18160 0.8693916300000001 14.643445860000002 -4.59080532 -1.137428 -0.872114 0.099995
18180 4.540205340000002 8.76711852 -2.20955535 -1.489082 0.169454 -0.857718
18200 7.15691493 2.4128283600000002 -0.69814827 -1.845654 1.196557 -1.923338
18220 8.90229051 -0.7438040100000001 -0.32722236 -1.250838 2.334915 -2.332975
18240 8.19874674 -3.5833968 -0.23351724 -0.047777 0.886065 -2.02575
18260 7.647601320000001 -4.7325598200000005 -2.01855465 0.8419200000000001 0.24567 -1.69077
18280 5.407350480000001 -0.8138572199999999 -3.4934391 2.087184 1.20832 -0.285003
18300 2.59889463 3.31710435 -5.50944315 0.114216 6.561905 1.811571
18320 -0.07663572 4.85066241 0.1966905 -2.097222 1.822693 1.281973
18340 -1.47637557 5.594760720000001 5.24449467 0.083315 0.8693850000000001 -0.102013
18360 -3.45675951 14.846277420000002 -3.0976546500000004 -0.6147630000000001 0.158598 -2.894038
18380 -3.37548366 36.602032140000006 5.504950170000001 -2.21962 -2.763773 -4.3510800000000005
18400 -9.67453371 28.00017288 4.11104727 -1.853875 -1.580188 -3.353391
18420 -1.41710355 25.64587098 -3.12310179 -2.764987 -1.440879 -2.5042880000000003
18440 9.32784831 21.74213844 -1.55840679 -2.877036 0.437762 -2.281015
18460 16.965865259999998 16.78773528 -2.03771358 -1.993637 0.127343 -1.876
18480 10.61891298 12.26788569 -3.56258979 -0.846666 0.116101 -1.657534
18500 3.84819813 10.06506981 -1.43671374 -0.140542 0.464701 -1.2684879999999998
18520 0.6908103900000001 7.5637748700000005 2.90351475 -0.033526 1.323816 -0.954785
18540 -3.1948030800000002 0.86669388 0.5017520700000001 0.257303 1.989683 -0.425905
18560 -6.71069727 -3.8863688400000003 1.9267919100000002 0.616125 0.976143 -0.088814
18580 -8.29828881 -8.540036640000002 3.60944235 0.07370399999999999 -0.898302 0.270858
18600 -10.220744700000001 -11.03010894 1.5959790900000002 0.234868 -1.78621 0.79655
18620 -5.804478899999999 -6.2989029 -3.44793051 1.03181 -1.572337 1.4983229999999998
18640 1.6357978800000001 0.25147935000000005 -6.19127739 2.221121 -2.115371 1.7348580000000002
18660 8.510851890000001 6.13783251 -9.03760965 3.119385 -2.278752 1.587518
18680 16.30933101 12.414584430000001 6.070624200000001 4.212708 -1.923081 2.003828
18700 4.34516292 32.618966130000004 -5.2980867 2.474659 -1.443371 3.690614
18720 -9.47065248 27.58703454 6.4912475700000005 2.916255 2.03888 3.874039
18740 -3.8125682100000002 5.0843267999999995 6.9153240600000006 1.7458919999999998 4.456601999999998 3.670486
18760 0.97791966 16.02447804 3.07520937 0.191156 4.266092 2.5788290000000003
18780 0.8716381200000001 26.513016120000003 -1.7143857900000001 0.399598 1.222279 3.010406
18800 6.06119679 19.88270199 2.42690571 1.1713049999999998 -0.405332 1.777677
18820 2.5878191400000006 16.502136750000002 2.39247261 0.725873 -3.992224 1.392465
18840 2.07708111 18.79865775 -2.6059284 -0.295213 -4.094953 1.061793
18860 1.35977391 13.75893702 -3.5054073000000003 -1.506784 -1.412867 0.318161
18880 3.1012549200000006 8.919654210000001 -2.7225398700000003 -2.3278220000000003 -0.183 -0.701824
18900 4.75935093 3.89295135 -2.7078641100000005 -3.140792 1.6781279999999998 -2.41477
18920 5.78441745 2.41657578 -2.97536319 -1.620637 2.265261 -2.974266
18940 7.03222983 0.02784078 -0.9660888000000001 0.331716 0.659421 -2.419119
18960 7.3847423700000006 -4.18095333 -0.19429686000000002 1.953757 -0.8123779999999999 -2.064072
18980 6.81188742 -4.49755146 -0.26839179 2.554564 2.27901 -0.179493
19000 3.7985006700000006 0.01241946 -4.02812334 -1.094098 6.214268 1.35065
19020 1.64193894 5.40196479 -5.817202470000001 -2.107661 0.422192 -0.6551279999999999
19040 -1.30349394 4.80515382 -1.09841589 -0.5794560000000001 0.714232 -0.686488
19060 -1.30005063 4.92820065 6.781348889999999 -1.1355309999999998 -1.655462 -0.873207
19080 -1.75210524 18.70779753 -3.37443399 -2.690326 -1.95384 -3.492282
19100 -1.29091752 47.60849898 3.9264819300000005 -1.940154 -2.263784 -3.356322
19120 -7.04091168 26.631118710000003 0.34038738 -2.826928 -1.88868 -3.4185449999999995
19140 -4.63271364 24.481590750000002 -5.2458386400000006 -3.915163 0.314741 -3.115981
19160 15.573168990000001 19.26883143 -3.08808009 -2.687297 0.992919 -1.684333
19180 20.236568310000003 14.756162760000002 -2.38154427 -0.392759 0.885975 -1.704488
19200 11.940074730000001 8.729546220000001 -4.08126411 0.536636 1.196925 -1.417452
19220 4.03500996 7.112456010000001 3.2985438300000003 0.6767810000000001 1.676462 -0.781496
19240 0.15478218000000002 3.25707696 2.08022031 0.733558 2.197533 -0.07033099999999999
19260 -9.47873592 -2.2418891100000002 1.7283061800000001 0.4343010000000001 0.764497 0.5148
19280 -7.122638790000001 -6.536010600000001 3.0053033100000004 -0.093414 -1.559852 0.950996
19300 -12.83580621 -10.466534249999999 1.68399441 1.023058 -1.76125 1.595713
19320 -10.9090143 -8.66114109 -2.21464674 2.187219 -2.463784 2.0469880000000003
19340 -2.23814169 -0.8827136099999999 -5.344939260000001 2.59168 -2.597716 1.889752
19360 5.47995429 5.0840325 -15.044311890000001 3.686865 -1.940234 1.954243
19380 17.524652670000002 9.01051443 6.85574793 3.508842 -0.674986 2.715157
19400 7.32442068 11.6522199 -2.18829708 2.448531 1.04523 3.684038
19420 -10.021356449999999 46.010126250000006 4.4938040400000006 2.081208 3.428666 2.568535
19440 -1.39045959 16.23463767 16.67936421 0.939697 3.809966 1.977892
19460 6.9190616700000005 7.03147446 -1.32908823 0.474771 2.106679 2.3581830000000004
19480 12.84134886 22.926470310000003 -3.8017968300000002 0.6713100000000001 0.332859 1.955904
19500 -2.4291522000000003 15.88287069 7.44192486 0.790296 -2.872098 1.472665
19520 -4.132158390000001 16.99551108 3.3410505600000007 0.440439 -3.076753 1.007943
19540 -1.7360855100000003 19.33110531 -1.02297699 -0.474329 -2.011719 0.26418400000000003
19560 2.0700473400000003 18.6018201 -2.15028333 -1.220522 -0.14971700000000002 -0.39503
19580 1.7398329300000002 13.56074559 -3.08927691 -1.839597 0.708603 -1.38215
19600 2.8345014000000006 7.99667055 -2.76879402 -1.772027 2.2269520000000003 -2.321523
19620 6.73763553 2.4789968100000004 -0.6794406000000001 -0.556454 2.094913 -2.057557
19640 9.170829450000001 -1.29630321 -0.11915226000000001 0.569575 0.8858159999999999 -1.699902
19660 8.42163975 -4.37390622 0.40356378000000004 1.34552 1.5777370000000002 -0.116537
19680 7.052134320000001 -4.74423372 -3.5956691100000002 -1.48843 4.230792 1.40919
19700 3.39763464 0.43843833 -6.44739687 0.423505 -0.257733 0.947597
19720 0.50190903 4.768788150000001 -2.56447134 1.32615 1.280248 -1.094782
19740 -1.84117023 4.621186890000001 -1.15949295 -1.291561 2.884276 -2.217528
19760 0.02185668 8.3583162 4.13155998 -1.670914 -0.464725 -3.541549
19780 -1.39464846 19.14967917 -7.67140038 -1.360963 -2.173822 -3.711314
19800 -4.54888719 53.96832198 3.7878764400000002 -1.741284 -1.396519 -3.295156
19820 -2.99302119 22.910607539999997 -1.96302024 -2.429044 -1.239834 -2.98824
19840 3.0072456900000004 18.794164770000002 -3.7753000200000004 -2.2844 -0.936015 -2.1031310000000003
19860 12.25755576 17.88361038 -2.8886918400000003 -1.243337 -0.838922 -1.712492
19880 13.068577890000002 12.513979350000001 -3.62426526 0.064835 -0.436 -1.5767520000000002
19900 9.076221810000002 10.643918670000001 -1.33941816 -0.154836 0.3361 -1.064393
19920 1.13015124 5.8944464100000005 0.84873177 0.477997 1.479609 -0.6651279999999999
19940 -2.72703285 3.32727732 2.0360655000000003 0.86072 -0.212347 -0.390026
19960 -6.932982060000001 -2.28275757 1.58789565 0.350405 -1.389953 0.170871
19980 -9.36706869 -7.657774290000001 2.4903665999999998 0.929599 -1.156208 1.153109
20000 -10.75408497 -11.94201711 1.56349818 1.728435 -0.957409 1.893371
20020 -5.285961540000001 -7.66196316 -2.32616682 2.195309 -1.377225 2.045653
20040 2.24862858 0.26135802 -4.95185256 3.212157 -1.813227 2.305414
20060 11.4959466 3.89026341 -0.6502460400000001 3.656718 -1.574001 3.099766
20080 13.88272941 9.074877840000001 8.501571629999999 1.879794 -0.6872560000000001 5.06136
20100 -2.79214182 19.371816810000002 -22.432203270000002 1.902836 2.073281 3.875462
20120 -12.0137184 46.55722995 9.712557270000001 0.447394 3.2592380000000003 3.197205
20140 5.044360860000001 10.296634860000001 5.54536737 -0.281512 2.103392 3.035498
20160 6.931785240000001 12.728484810000001 2.47120767 0.156687 1.0694709999999998 2.541024
20180 4.62822066 19.66625415 -2.88046125 0.690574 -2.831881 1.624672
20200 7.994571210000001 20.315607480000004 2.04594417 0.695368 -4.673846 0.848332
20220 7.692648840000001 16.66649349 1.5343134299999999 -0.619508 -2.945596 0.297481
20240 5.942790090000001 18.27894357 -2.18096901 -1.313061 -2.2300720000000003 -0.879051
20260 2.8987176600000004 13.758338610000001 -3.8859175800000005 -1.316794 -1.392261 -2.065877
20280 1.2467529000000002 9.28144701 -2.61087264 -1.791842 1.173009 -3.006109
20300 0.5138772300000001 2.92492017 -3.9562749 -1.033841 2.589909 -2.885125
20320 3.0151819800000004 2.336791050000001 -3.24629577 0.211193 1.849881 -2.185409
20340 5.08851567 -2.18006649 -0.46478799 1.187571 1.072767 -1.568707
20360 6.00640794 -6.777003060000001 1.9044937800000001 2.115891 1.883882 0.17794
20380 5.80672539 -4.26044376 -1.7112367800000001 -1.1144459999999998 8.143799000000001 2.3532330000000004
20400 2.5960497300000003 2.4055002900000004 -5.65373844 -1.2304190000000002 2.7910470000000003 2.389192
20420 0.15582204 5.29223994 -3.1055909400000004 -0.266484 -0.6104069999999999 0.763768
20440 0.5072947200000001 5.37966666 -1.34630478 -0.192186 -0.8345020000000001 -3.194257
20460 -0.12005478000000001 11.32604721 7.760014110000001 -2.948947 -2.080895 -6.388807
20480 1.28388375 29.81275677 2.0528307900000007 -0.925229 -1.80805 -3.918111
20500 2.36747673 42.48959193 3.1829820300000002 -2.457718 -2.450847 -3.280649
20520 -2.21374422 21.08874339 -2.79843003 -3.5668900000000003 -0.170495 -2.751867
20540 8.917260570000002 22.33385802 -3.3015358800000003 -2.018153 -1.127391 -2.426834
20560 13.84470585 17.391138570000003 -3.7709541900000003 -0.77485 -0.861878 -2.23796
20580 18.046476 12.830871779999999 -2.19054357 -0.015747999999999998 0.334797 -1.391364
20600 8.53584777 11.43173034 4.11704118 0.473996 1.165913 -0.8014859999999999
20620 -2.38349646 6.657850800000001 -1.9697499 0.801136 0.609955 -0.315652
20640 -5.57440497 1.34345988 0.9156457800000001 0.300664 -0.871869 0.123926
20660 -10.764414900000002 -2.6942478300000006 2.9816514 0.132701 -1.446217 0.842403
20680 -10.84465089 -8.11926612 3.9716864100000007 0.830675 -2.020943 1.171686
20700 -10.41339348 -10.73222829 1.49389623 1.526861 -2.011067 1.295109
20720 -5.15497842 -6.554119860000001 -2.47825125 2.083478 -2.150027 1.463681
20740 0.6212084400000001 -0.01406754 -5.5759058999999995 2.740932 -2.000255 1.800298
20760 5.538932010000001 5.827532400000001 -13.0347432 2.580108 -2.002088 2.9293560000000003
20780 17.06630985 13.155994799999998 9.012162510000001 2.384051 -2.088812 3.739946
20800 9.31213269 38.31088509 14.21983044 2.508634 1.112808 2.71763
20820 -1.35528093 18.16472574 -12.20786811 1.687389 1.569783 2.637601
20840 0.62898777 -4.4340807600000005 9.043593750000001 0.710742 1.945925 2.39422
20860 2.2703283 15.16481793 2.39591592 0.457892 0.554362 2.425215
20880 0.90457029 35.20034991000001 -2.9015625600000003 0.539528 -0.473214 1.984858
20900 6.793169939999999 21.28648356 5.47531416 -0.173967 -1.177982 1.693426
20920 3.41769609 16.001130240000002 1.27205289 -0.33807600000000004 -2.750054 1.500946
20940 2.7250806600000006 19.03605975 -1.3540841099999998 -0.6622060000000001 -1.035364 0.552177
20960 -0.69245847 15.82149933 -3.2945021100000003 -0.982897 -0.344856 -0.286298
20980 0.16211025 12.43209528 -1.9278415800000002 -1.255072 -0.348697 -1.219684
21000 4.69932354 2.7211959000000006 -2.55713346 -1.085376 0.8711110000000001 -1.915474
21020 6.784193790000001 2.36657421 -4.20041637 -0.146221 0.8723549999999999 -1.975145
21040 8.93850903 -3.7592802900000004 0.95531742 0.639329 0.429923 -1.77147
21060 7.412887260000001 -7.37052768 1.2049917300000001 1.523107 -0.02742 -1.121641
21080 4.67807508 -3.3072256800000006 -3.9164561100000004 -0.200178 5.438635 0.604792
21100 1.32863697 2.89063422 -4.14517626 -1.092103 2.65567 0.429076
21120 -0.0047872800000000005 4.221370530000001 -0.51552531 0.975998 0.41604 -0.72438
21140 -0.26135802 4.0080618900000005 0.2282787 -1.426165 -0.8417100000000001 -1.390094
21160 -0.3793134600000001 9.79517709 2.99422782 -3.000352 -1.901443 -3.539381
21180 -0.049246200000000004 22.75238205 -1.3937557500000002 -3.635394 -2.095741 -3.683504
21200 -8.75783826 38.83823145 3.20932188 -2.679404 -1.417845 -3.010057
21220 -4.78001079 30.851743680000002 0.55713933 -3.602581 -0.098435 -2.094184
21240 2.7470844899999998 27.73342917 -1.4867055 -2.344676 0.8032229999999999 -1.429596
21260 10.261309050000001 19.711311480000003 -3.15364032 -0.8277709999999999 1.185876 -1.467561
21280 12.29289138 15.4667403 -2.19757734 0.219482 2.022903 -1.240197
21300 5.0983943400000005 12.192299640000002 -2.84812749 0.196067 2.301126 -0.734379
21320 1.40572395 7.96987944 0.20312586 0.062058 2.254547 -0.159484
21340 -0.0691605 5.409449820000001 2.26703214 0.096341 -0.051928 0.11503900000000003
21360 -3.4796658600000003 -0.83870595 0.8243343 -0.227596 -1.968605 0.723051
21380 -7.2015210000000005 -4.58241777 1.6039153800000001 0.242484 -2.692718 1.045592
21400 -10.34348742 -10.41518871 2.6815242599999998 1.204784 -2.140124 1.613491
21420 -9.63306684 -11.57692815 -0.10882233000000001 2.641677 -1.939572 1.62968
21440 -4.43093175 -5.672603070000001 -3.67141212 3.904805 -2.925012 1.615197
21460 1.96406991 1.00635885 -4.79871846 3.018793 -3.040555 3.037369
21480 8.78283414 5.46558264 -3.1043941200000003 3.037154 -1.139537 3.944118
21500 12.1381092 11.260486980000001 -1.4160538800000002 3.316379 4.3043190000000005 2.56429
21520 0.6412698900000001 38.66010147000001 -19.66864779 1.784607 4.085064 2.512211
21540 -9.075024990000001 34.55220321000001 10.402170840000002 0.584028 3.336906 2.305026
21560 -2.9069580600000005 1.08988119 10.017020430000002 0.93754 1.577739 2.364229
21580 4.13605296 12.075541020000001 -1.95178779 1.038508 -0.351317 1.705109
21600 2.14488783 27.532098540000003 1.46829213 0.10849 -3.784997 1.520347
21620 2.80651347 22.8444489 6.11508312 -0.668562 -2.1126270000000003 0.891071
21640 1.44405162 20.29539888 -2.02243941 -1.230744 -0.526564 0.08073999999999999
21660 -0.6319896300000001 18.27265536 -4.41072315 -1.716305 0.21142600000000006 -1.299467
21680 1.78384059 12.35740194 -2.8050125400000003 -1.776571 1.995314 -2.731455
21700 3.94953543 6.50757141 -0.86834196 -0.756171 1.809902 -2.537151
21720 6.324644340000001 1.72815903 -2.3397831 -0.008740000000000001 1.299112 -1.989687
21740 8.48076462 0.96788403 -5.129384129999999 1.205968 0.0019760000000000003 -1.271309
21760 9.688002840000001 -2.93779089 0.39981636000000004 0.159323 4.73562 1.341004
21780 9.767189160000001 -4.47330114 1.4956914600000002 -1.2027 6.090814 1.415212
21800 6.57552528 -1.8453591 -3.4142527800000004 -1.008269 -3.037358 -0.659039
21820 2.2320104400000003 4.631222520000001 -5.30871093 0.781967 0.300974 -1.3504969999999998
21840 -1.20484458 7.58652426 -3.82155417 -1.349365 -0.977363 -0.567921
21860 -4.05102969 6.21837261 5.90701302 -1.666357 -0.935976 -2.64788
21880 -4.37659416 16.63251165 -3.7341372600000002 -1.201242 -3.066414 -3.3447910000000003
21900 -4.86323883 50.16503403 7.4721592800000005 -3.744121 -1.7240349999999998 -3.57044
21920 -8.49602898 26.940673260000004 3.4299684000000004 -3.873968 0.332048 -3.4831830000000004
21940 -3.8752933500000006 23.944061610000006 -3.3277285800000005 -2.747934 0.970897 -1.984899
21960 8.97803352 18.39989106 -1.93652343 -0.286294 0.621216 -1.920254
21980 16.352740259999997 13.970901690000002 -3.13373583 0.59025 1.119417 -1.794061
22000 11.769125670000001 10.95856461 -5.82139134 0.688699 1.6702169999999998 -0.828406
22020 5.779483020000001 11.565695700000001 -0.08517042 0.930728 1.986697 0.002887
22040 0.23321313 6.98222826 3.2013954000000004 0.420104 0.978467 0.564634
22060 -6.846163560000001 -0.36943479 3.4196384699999998 -0.069475 -1.089604 1.080883
22080 -10.680137190000002 -7.84533168 5.062018860000001 0.543758 -2.02083 1.391872
22100 -13.08070305 -11.70371259 3.9881574000000004 1.515575 -2.633952 1.761573
22120 -11.270512799999999 -10.50590178 -1.76647689 2.56966 -3.122275 1.753538
22140 -2.57883318 -2.6008370100000002 -4.93434171 3.119216 -3.506999 1.583749
22160 4.5075772800000005 4.233799800000001 -10.68433587 3.874575 -1.990809 1.918232
22180 14.234653350000002 7.25511303 3.86706276 2.188456 -1.077856 3.641145
22200 15.429609450000001 9.06380235 9.82526436 2.671075 2.992885 2.876589
22220 -4.95469746 6.663540600000001 -22.504650120000004 1.789887 3.325646 2.476902
22240 -10.572060420000001 36.440824410000005 25.68987864 0.474655 2.626031 1.951592
22260 5.50226223 17.959657500000002 8.058041910000002 0.483098 0.4698810000000001 1.952277
22280 23.2352793 16.90300278 -8.158937759999999 0.632764 -0.721549 1.403647
22300 -1.7275606200000002 12.469373280000001 5.100787980000001 0.309394 -2.34437 0.986861
22320 -2.44022769 17.17304265 6.50217591 -0.291152 -2.4897720000000003 0.573724
22340 -6.37629399 20.91945222 3.76542135 -1.159814 -1.350206 0.331187
22360 -1.1454156 19.786603230000004 -2.4830385300000004 -2.024267 0.571335 -1.260418
22380 3.9501338400000003 19.2237741 -4.694987520000001 -2.165406 1.338843 -2.329542
22400 5.34882402 12.4127892 -2.24218341 -1.250265 2.021258 -3.0151630000000003
22420 3.91406247 3.68623503 -0.95231556 0.199914 0.543608 -2.646354
22440 7.93649601 -0.8057737800000001 -0.05239521 1.501484 -1.3940629999999998 -2.193604
22460 9.84922038 -3.4311652200000005 0.12993344999999998 2.549951 0.959373 -0.235518
22480 8.48585601 -5.17608954 -1.53775674 -0.516588 7.553332000000001 1.911648
22500 6.65860617 -2.9969157600000003 -3.4982263800000006 -1.8164240000000005 -0.012981 0.8237469999999999
22520 4.13051031 2.09473911 -4.54904415 1.657025 0.8203540000000001 -0.393265
22540 1.12355892 5.530701420000001 -5.17279338 -0.356543 0.754232 -1.823707
22560 -2.5114777200000002 4.92670953 1.6238198700000002 -3.990514 -0.018531 -2.824455
22580 -3.15184509 10.25936667 8.59333437 -2.825533 -0.7980079999999999 -3.111216
22600 -2.57943159 22.01261976 -3.5096059800000003 -1.477553 -1.914581 -2.907022
22620 -3.8877128100000005 51.63138378 4.563562950000001 -2.9045970000000003 0.432493 -2.803561
22640 -5.719004370000001 23.49094752 -5.06531502 -2.626127 0.632285 -2.1267560000000003
22660 0.6939594 20.97618345 -3.51903339 -0.8043399999999999 0.465446 -1.943969
22680 12.21220413 18.10081359 -1.76468166 -0.01764 0.7423350000000001 -1.2743950000000002
22700 14.99581125 12.670703910000002 -2.8381016700000004 0.370607 0.6477470000000001 -0.8677739999999999
22720 7.974970830000001 8.74810674 -4.42121004 0.571233 1.230756 -0.053135
22740 3.7610755200000003 7.820787060000001 2.5018933500000005 0.827609 0.650331 0.4856470000000001
22760 -2.42870094 3.27803112 0.18486945000000002 0.38133 -0.660104 0.908293
22780 -2.19922542 -0.3924882900000001 0.96474483 0.553942 -1.774302 1.270918
22800 -8.93013129 -6.306839190000001 2.7596609100000005 1.200493 -2.007505 1.75216
22820 -10.640926620000002 -9.29282661 2.68212267 2.330157 -2.383775 1.895129
22840 -6.37285068 -7.767047880000001 -1.53895356 2.808217 -2.46811 1.791754
22860 0.19190322 -2.31344325 -6.430925879999999 3.83986 -1.936029 2.101653
22880 7.19807769 5.581742850000001 -13.01752665 2.3086740000000003 -1.10309 3.45401
22900 19.61865603 11.76283746 6.49648611 2.489773 1.858114 3.628805
22920 8.076602430000001 13.12111044 -1.82650428 1.863619 2.8176 2.656461
22940 -19.26493686 47.442042900000004 -24.916134510000003 0.206817 2.667345 2.241293
22960 1.63624914 5.21216091 16.308585450000002 0.090709 1.010435 2.4434310000000004
22980 1.56050613 10.200536099999999 8.99360199 0.630173 -0.70062 1.765729
23000 5.843248020000001 30.158833950000005 -4.438416780000001 0.688566 -1.598578 1.165879
23020 2.18320569 18.974992500000003 0.6515998200000002 -0.340615 -3.334068 0.765672
23040 0.7372215 16.2683154 4.1330511 -1.100619 -1.668252 -0.103827
23060 -0.7375158 17.563127490000003 -0.57121668 -1.753511 0.7824949999999999 -0.7556649999999999
23080 2.22437826 16.35738039 -2.15656173 -2.150415 2.092043 -1.822997
23100 3.5224767000000003 12.3142968 -2.88734787 -1.1868459999999998 2.863896 -2.273386
23120 3.0955651200000003 7.199725770000001 -2.6008370100000002 -0.031983 1.317543 -1.7837060000000002
23140 7.681877460000001 1.4322207599999999 -1.55287395 1.268371 -0.549168 -1.226369
23160 7.403450040000001 0.24968412 -2.90620269 0.140825 3.676808 1.07304
23180 7.54940322 -2.77463097 0.24354306000000003 -0.985476 5.246622 1.6165
23200 5.836959810000001 -3.9471417900000003 0.36449055 -0.423227 -0.267297 0.610546
23220 2.86474563 -1.25184429 -3.5110971 0.486033 -0.8797729999999999 -1.254911
23240 2.0330734500000003 3.8673570600000002 -6.113886300000001 -0.542776 -0.854975 -2.832416
23260 -1.0343467800000004 5.807618100000001 -0.99273276 -2.692063 -1.6353959999999998 -3.738394
23280 -1.53250839 4.597839090000001 1.05216174 -1.7372009999999998 -1.565288 -3.184884
23300 -0.5768966700000001 11.81103399 5.238804870000001 -2.700828 -1.130533 -3.179354
23320 -1.03974228 31.91543217 1.9477460700000002 -3.654827 0.340485 -2.853549
23340 -4.62343338 39.175185330000005 2.16315405 -2.5426040000000003 0.112594 -2.239806
23360 -5.14660068 23.23363122 -5.84384643 -0.842384 -0.061089 -1.838875
23380 7.39926117 22.8185505 -3.32413812 0.247556 0.480107 -1.195295
23400 14.678173260000001 17.63662401 -3.25782252 0.614481 1.581874 -0.782878
23420 11.0072124 12.847185810000001 -3.43250919 0.494713 2.080823 0.018949
23440 3.77604558 8.17525179 -2.19728304 0.159446 1.162516 0.58501
23460 -0.5911211700000002 7.09674039 3.03748011 -0.192992 -1.2693290000000002 0.845242
23480 -2.36314071 2.21285151 2.16360531 0.15224200000000002 -2.543469 1.096046
23500 -8.18812251 -4.35324636 0.45654759 1.1932200000000002 -2.863209 1.56413
23520 -11.440108080000002 -8.1152244 0.8448470100000001 2.272249 -2.662882 1.6803689999999998
23540 -8.987608080000001 -8.734039200000002 -0.9789595200000001 3.143134 -2.212805 1.591872
23560 -0.6342263100000001 -3.8405659500000002 -4.8819465 3.561584 -1.987841 2.246122
23580 5.276377169999999 2.26853307 -9.61824393 2.488213 -2.711163 3.441301
23600 15.828238800000001 6.25459113 8.440651529999998 3.218412 2.477588 2.594789
23620 11.15045802 10.611133650000001 1.82904507 1.976986 3.112085 2.175107
23640 -1.6591456800000002 26.03206125 -19.24068654 0.8934860000000001 2.674037 2.104007
23660 -8.3437974 23.06882322 7.94352978 0.874426 1.336008 2.3972130000000003
23680 0.18486945000000002 11.20315734 6.91501995 1.083036 -0.621108 1.7356759999999998
23700 7.31722995 21.81757734 1.4615624699999998 0.700378 -1.3714959999999998 1.377178
23720 2.15775855 17.94153843 1.88338266 -0.127646 -1.888618 0.8796069999999999
23740 1.60571061 16.539856200000003 4.0231791 -0.915277 -1.672343 -0.04057
23760 1.2966073200000001 16.06803444 1.55466918 -1.451276 -0.304314 -0.960465
23780 -0.44338257000000003 20.86990191 -1.4563239300000002 -2.153046 1.2750709999999998 -1.578414
23800 -0.80307603 18.958678470000002 -4.20490935 -1.900569 2.362748 -2.070494
23820 4.86592677 12.49661565 -2.3095486800000007 -0.548249 1.531415 -2.072801
23840 8.90707779 3.2099202900000003 0.6140275199999999 0.6474300000000001 0.286381 -1.580018
23860 7.847283870000001 -0.6152243399999999 -0.5884234200000001 1.570159 0.665349 -0.44922
23880 8.23946805 -3.05529507 -1.35258318 -0.525241 5.143311 0.946867
23900 8.15399352 -4.06239948 -2.3414311800000007 -1.940436 2.832481 0.637636
23920 6.81637059 -0.6780868200000001 -2.7783685800000004 -0.087937 -0.912045 -2.009839
23940 3.36575214 2.18305854 -5.129236980000001 -0.461684 -0.998129 0.125173
23960 0.99722574 5.1262351200000005 -1.8979014600000002 -1.542884 1.355107 -0.279569
23980 -1.5925357800000002 4.77596907 2.4532455600000005 -2.376446 -1.305513 -3.125589
24000 -4.184102340000002 13.609246230000002 1.00485792 -1.58751 -1.818035 -3.5114589999999994
24020 -2.7934956000000004 28.089541980000003 0.6982954200000001 -2.911973 -0.6842 -2.992325
24040 -11.2562883 35.22490434 7.4366863200000015 -3.3032470000000003 0.650759 -2.429543
24060 -4.13605296 24.8921883 -3.47307354 -2.034204 0.220939 -1.537777
24080 5.256168570000001 23.647672080000003 -3.24719829 -0.482758 0.07471599999999999 -1.480819
24100 13.007500830000001 19.30520691 -2.42870094 0.488628 0.8662780000000001 -1.273154
24120 12.6328275 14.2609932 -3.0975075 0.723517 1.71325 -0.6978949999999999
24140 4.14293958 9.43668045 -1.8378740700000002 0.739417 2.203395 0.056821
24160 -0.16016787000000002 6.86367441 -1.18133982 0.28420500000000004 0.812 0.486986
24180 -2.37900348 2.8812068100000006 1.7911784700000002 0.033183 -1.30301 0.81375
24200 -2.9859874200000007 -2.17392543 3.0397266000000003 0.53379 -2.028659 1.227306
24220 -5.5958103900000005 -6.57282753 3.2998878000000005 1.45912 -2.456597 1.680834
24240 -7.777829070000001 -9.711654750000001 1.8582396300000001 2.51341 -2.349732 1.747882
24260 -6.20609049 -8.205034950000002 -2.23065666 3.200294 -2.265396 1.640409
24280 0.059428980000000006 -2.62883475 -5.7946002299999995 3.661269 -1.293143 2.125219
24300 6.53481378 2.8327061700000007 -8.65410732 2.4565360000000003 -1.120968 3.534114
24320 15.238010340000002 6.7560489 6.75470493 2.640853 2.909702 2.393648
24340 9.95010642 6.66578709 0.89873334 1.6509509999999998 2.94183 2.144206
24360 -11.28907332 23.17914648 -32.73722568 0.449541 2.826978 1.804813
24380 -5.214103290000001 41.353907850000006 24.744292740000002 0.701666 0.781771 1.822013
24400 6.61354884 8.533905390000001 9.31198554 1.173706 -0.6801189999999999 0.96406
24420 6.317159310000001 11.01663981 -6.63899598 0.572328 -1.563223 0.950309
24440 0.10358379000000001 21.72058587 2.5113305699999997 -0.296038 -2.417098 0.785104
24460 -1.1931706800000002 18.09092511 5.14180359 -1.21245 -1.751402 0.007662
24480 -1.23418629 19.291884930000002 3.58893945 -1.802438 0.201587 -0.8962680000000001
24500 1.8067469400000002 18.2519955 -2.56491279 -2.218888 1.919275 -1.7153630000000002
24520 2.7065201400000003 17.014964309999996 -3.5992693800000004 -1.746529 2.807762 -2.668193
24540 5.126686380000001 11.36556189 -2.5532388900000003 -0.229773 1.475622 -2.248898
24560 5.7946002299999995 5.57006895 -0.09460764 1.0400120000000002 -0.21983200000000006 -1.602264
24580 7.080877620000001 -0.00987867 0.0577809 1.477961 1.008084 0.233358
24600 7.93185588 -1.60346412 -0.2402469 -0.933073 6.000598 1.630855
24620 7.6312774800000005 -4.14248832 -2.0796219000000002 -1.472101 4.343492 1.4497520000000002
24640 5.951471939999999 -2.7056274300000003 -2.77463097 0.451486 -6.721299 -1.070342
24660 2.99841669 1.0449808200000001 -3.3934457700000005 1.003115 2.143737 -1.234878
24680 0.66896352 4.76758152 -4.0799201400000005 -1.070077 0.106644 0.099211
24700 -1.90553364 4.87805193 -1.2261028499999997 -2.015841 0.795378 -2.681382
24720 -2.06809515 8.712928080000001 6.36790644 -0.789624 -2.360878 -3.781859
24740 -0.9093575700000001 19.06450875 -6.0968169 -2.295002 -1.837771 -3.024993
24760 -4.59678942 50.936678820000004 4.9774468500000015 -3.3566620000000005 0.518038 -3.024746
24780 -7.6631599800000005 24.584428980000006 -3.0270030300000004 -2.947134 0.367309 -2.184206
24800 -0.7939527300000001 21.13394787 -4.19443227 -1.036743 -0.220681 -1.720387
24820 12.54541059 19.435287510000002 -2.9059083900000005 0.096501 -0.380181 -1.444143
24840 15.756978960000001 16.021485990000002 -3.28013046 0.622924 0.206186 -0.951972
24860 10.009986660000001 11.442658680000001 -2.23380567 0.771594 1.130027 -0.344299
24880 2.47510224 9.3036078 -0.33919056000000003 0.607424 1.54037 0.276802
24900 -2.00942154 4.54754322 2.21718753 0.193275 0.110041 0.551343
24920 -2.6672997600000006 1.3115773800000001 1.9284399900000002 0.091264 -1.746075 0.741016
24940 -5.282518230000001 -2.6310812400000003 2.44097325 0.7218140000000001 -2.244361 1.193644
24960 -7.78127238 -5.81165982 2.7523230300000003 1.7883490000000002 -2.64593 1.590441
24980 -8.179587810000001 -6.37539147 -0.01197801 2.67628 -2.503407 1.675509
25000 -3.3780244500000003 -4.2450224400000005 -4.462225650000001 2.844025 -2.568166 2.272832
25020 3.41530245 1.8214128900000002 -9.21947724 2.161635 -2.4704490000000003 3.467553
25040 13.29639552 5.844896100000001 3.3962906700000004 2.597433 0.959936 2.509075
25060 13.96311255 5.83995186 8.22270276 1.703153 2.601108 2.057413
25080 3.1292428500000002 3.6215675100000007 -5.3245737 0.8617370000000001 2.5683860000000003 2.178696
25100 -13.670921700000001 27.451568250000005 -18.91900683 0.597494 1.575996 2.295626
25120 0.33590421000000004 29.204419050000002 18.77935167 0.645483 0.077158 1.98703
25140 9.29746674 15.594721560000002 5.27548446 0.16095 -0.923737 1.492478
25160 11.176209270000001 18.623225520000002 -10.30980969 0.084332 -2.996793 1.034195
25180 -2.52779175 16.26667713 7.01590599 -0.199431 -1.934589 0.18482
25200 -0.6890151600000001 16.43491863 5.55719823 -0.835677 -0.300924 -0.477606
25220 -0.10508471999999999 15.4553607 2.56686498 -1.097002 0.365695 -1.254746
25240 6.207287310000001 19.45653597 -1.7292087000000003 -1.123317 1.56629 -2.037339
25260 4.9311926999999995 17.481998790000002 -3.2497390800000003 -0.553874 1.6965830000000002 -2.08053
25280 4.39261389 10.99044711 -3.7664710200000004 0.290663 0.8916850000000001 -1.593968
25300 4.5810738 5.0548379400000005 -0.30746502000000003 1.721939 0.264123 -0.676246
25320 5.122801620000001 -0.49621923000000007 0.27468 -0.632757 3.443981 1.093572
25340 6.22435671 -2.18485377 -0.5321434500000001 -0.695969 1.902137 1.511713
25360 5.8407072300000005 -3.9285812700000005 -1.7648288100000002 -0.30430300000000005 1.269774 -1.058088
25380 5.68667061 -2.79259308 -3.05799282 -0.118808 -0.821473 -1.456832
25400 3.80928186 1.09287324 -4.2749625600000005 -2.409635 -0.965136 -3.235216
25420 1.6328058300000001 4.87221498 -4.19233293 -2.600476 -1.376977 -3.441119
25440 -0.94707702 6.020475480000001 2.9433335400000002 -2.501053 -1.309129 -3.178798
25460 -2.08411488 13.75355133 -1.3873105800000003 -3.890689 0.168507 -2.532373
25480 1.10695059 28.086697080000004 1.81991196 -3.086827 1.189916 -1.850814
25500 -8.46474489 33.67636641 6.224209560000001 -1.135139 0.7848390000000001 -1.610199
25520 -1.1859799500000001 24.42770442 -2.2998171600000004 0.204032 1.014872 -1.422747
25540 6.014942639999999 22.180125510000003 -2.2731732 0.671898 1.187977 -0.896272
25560 11.81956869 17.62779501 -2.08126998 0.701458 1.995862 -0.491176
25580 8.697065310000001 14.105465460000001 -3.2037890400000006 0.664519 1.428196 0.041268
25600 3.9281300100000003 10.45665558 -3.7522465200000004 0.321038 -0.369042 0.368047
25620 0.09864936 8.342747730000001 2.54635227 0.238489 -1.975659 0.750885
25640 -0.9006757200000001 4.4250948 2.5394656500000004 0.790223 -2.176581 1.233559
25660 -4.76384391 -1.9652667300000002 0.9292718700000001 1.757316 -2.477315 1.541939
25680 -6.994059120000001 -5.81570154 2.02932603 2.720544 -2.030106 1.557708
25700 -7.82243514 -8.93372175 0.8476919100000001 4.105338 -1.956534 1.405985
25720 -5.971082129999999 -9.4282929 -2.98464345 2.680308 -1.433082 2.805413
25740 -0.20402838 -4.32001989 -5.054985090000001 2.4069 0.41958 3.537134
25760 6.47344242 1.6847497800000002 -8.002811610000002 2.82321 4.6079620000000014 2.449361
25780 16.26338097 5.307808410000001 6.71009886 1.185604 3.608205 2.1368970000000003
25800 8.05669794 11.97344835 -3.4578091800000004 0.265395 1.6839380000000002 2.230143
25820 0.5203224 39.84309918 7.235806950000001 0.884863 -0.5395439999999999 1.75662
25840 -9.60148845 23.252643 9.43951554 1.031634 -0.624501 1.29735
25860 -0.03726819 5.035080600000001 1.43506566 0.346882 -3.393157 1.093153
25880 5.00828949 23.927894730000002 -0.38245266 -1.050717 -2.329101 0.47955
25900 3.16891449 19.006129440000006 3.0994498800000003 -1.849071 -1.131845 -0.397094
25920 2.2230244800000003 17.07858216 3.74086692 -2.472474 0.774162 -1.510568
25940 1.76961609 20.84415066 -1.9604696400000001 -2.120556 2.463794 -2.639386
25960 -0.33335360999999997 17.79588936 -3.3151521600000002 -0.653238 1.588469 -2.396211
25980 2.16135882 12.249776429999999 -3.5425381500000004 0.446176 0.23862 -1.715958
26000 4.78704456 6.61414725 -1.2862773900000002 1.63459 -1.424868 -0.7345119999999999
26020 7.04674863 1.20544299 -0.63558009 0.325852 5.106586 1.932419
26040 7.297472610000001 -0.16151184 -1.21307517 -0.8063060000000001 6.614198 2.052902
26060 7.526202570000001 -2.5896143700000005 -0.71850402 -1.315781 -0.972671 -0.438438
26080 7.447614659999999 -3.4955286300000004 -2.4460646400000003 0.518035 -0.226093 -0.118937
26100 4.163138370000001 0.28006569000000003 -2.71505484 -0.729425 -0.677387 -0.996605
26120 1.72680525 3.8378682000000004 -4.0499800200000005 -2.766747 -1.029008 -4.799369
26140 -0.69455781 4.84272612 -2.86219503 -1.42124 -2.126341 -3.545154
26160 -2.6756873100000003 4.2370861500000006 3.0338896500000003 -2.686238 -1.53587 -2.793104
26180 -4.712498370000001 14.522949630000001 1.9267919100000002 -3.631883 0.47362 -2.601459
26200 -3.05349984 42.85632897000001 5.93365698 -1.938331 0.39214 -1.809723
26220 -9.612259830000001 29.80795968 5.936805990000001 -0.372361 0.150008 -1.756814
26240 -2.2676305500000007 22.055283450000005 -4.05266796 0.419049 0.488706 -1.3628870000000002
26260 11.626919910000002 21.668789070000003 -3.0964578300000003 0.67489 0.979933 -0.820141
26280 18.26037324 16.85105883 -2.67927777 0.789277 1.631306 0.022651
26300 12.975019920000001 11.22964434 -2.72538477 0.7468130000000001 1.069855 0.604186
26320 5.55464763 6.570590850000001 -1.60271856 0.261405 -1.229614 0.909254
26340 -1.86542055 5.34657753 2.9570969700000003 0.337516 -2.582633 1.139051
26360 -4.30804188 1.42712937 2.6955918000000003 1.539559 -2.7046650000000003 1.57596
26380 -7.35376239 -4.4776371600000004 3.63144618 2.4573 -2.59307 1.6441849999999998
26400 -10.36549125 -8.29305027 3.26425788 3.419731 -2.923959 1.77204
26420 -10.90841589 -9.08850393 -0.030391380000000003 2.469571 -3.466874 3.03301
26440 -4.63226238 -4.72103307 -3.6229114800000004 2.82744 -1.354949 3.384249
26460 2.86279344 2.47794714 -8.479116540000001 2.850525 3.4184300000000003 2.06438
26480 10.16999757 6.32120103 -6.27494688 1.7157939999999998 2.977468 2.233276
26500 19.736611470000003 10.5617403 9.42051357 0.8682690000000001 3.003164 1.870537
26520 4.63586265 12.87113202 -6.78000492 0.674488 1.604426 2.046164
26540 -12.03227892 43.38188991 5.87782827 0.424248 0.628865 1.672857
26560 -2.38110282 9.863739180000001 10.81740852 0.330621 -2.2246490000000003 1.132134
26580 3.1985505 8.760830310000001 3.0505077900000006 -0.417747 -1.856976 0.411795
26600 10.07315325 29.823832260000003 -2.8602526500000005 -1.1830040000000002 -0.438064 -0.246984
26620 0.55893456 15.927780870000003 3.42413145 -1.6822689999999998 0.653544 -1.070128
26640 0.43693740000000003 16.6295196 4.948262100000001 -1.7083529999999998 1.619862 -2.13977
26660 2.49935256 19.21569066 -1.08509391 -0.589989 1.437966 -2.376348
26680 -0.8189486100000001 17.82118935 -3.42263052 0.476807 0.008109 -1.639605
26700 2.2501197 12.72264786 -3.0551479200000005 1.425504 -1.247994 -0.5631470000000001
26720 5.513779169999999 7.39672038 -1.1921210100000001 -0.365574 3.853121 1.641844
26740 7.48743345 0.6257014200000001 -0.53992278 -1.446972 5.555271 1.820116
26760 7.91119602 -0.31928607000000003 -1.2995993700000001 -1.477554 -3.12154 -0.778645
26780 8.5493169 -3.73189077 0.04011309 1.566182 -1.051053 0.146883
26800 7.1994314699999995 -3.19405752 -2.6250873300000004 -0.6047060000000001 -1.049893 -0.391711
26820 3.6137881800000002 -0.14309847 -4.485720600000001 -3.232953 -0.56126 -3.620703
26840 1.64747178 4.475096370000001 -4.99047453 -1.0361 -2.316653 -3.971645
26860 -1.33941816 5.1898529700000005 2.25640791 -2.81592 -1.952592 -2.365119
26880 -2.2360521600000003 10.825639110000001 4.4259973200000005 -3.919757 1.548195 -2.280107
26900 1.5935854500000002 24.890687370000002 -1.6060147200000001 -2.381444 1.183374 -1.891812
26920 -9.18759474 41.2239744 6.33033414 -0.841974 0.104901 -1.525027
26940 -8.14950054 22.521415410000003 -2.38379076 0.373102 0.615061 -1.220228
26960 -0.19863287999999998 22.738020210000002 -3.31351389 0.646799 1.395521 -0.5623600000000001
26980 9.53532 17.857113570000003 -2.2080544200000003 0.811408 2.01485 -0.007595999999999999
27000 14.43058848 13.602663720000002 -2.93315076 0.846126 1.264599 0.302324
27020 7.97825718 10.70514288 -4.239783900000001 0.3387 -0.8584309999999999 0.459597
27040 2.9386934100000004 7.94352978 1.30273857 0.4431850000000001 -1.790934 0.7317819999999999
27060 -0.5300441100000001 4.644985950000001 0.87792633 1.019461 -2.004669 1.200757
27080 -3.3979387500000002 -0.36015453000000003 0.83660661 2.110721 -2.502709 1.458982
27100 -6.406381260000001 -5.5160256599999995 2.28395439 2.390628 -2.91267 1.440098
27120 -8.912620440000001 -8.28781173 1.55885805 3.159987 -2.8121970000000003 1.754059
27140 -7.99576803 -7.858359360000001 -2.84169213 1.40462 -1.591334 3.525232
27160 -0.41179437 -3.3885015300000005 -5.600303370000001 2.35165 1.19078 3.067879
27180 8.04367026 2.3028092100000004 -7.4471634 1.7305970000000002 3.916802 2.0142580000000003
27200 18.66528099 6.564449790000001 9.743684400000001 0.558802 3.825176 2.233722
27220 11.58037146 7.228017810000001 -1.00231713 0.188486 2.7742880000000003 2.153433
27240 -9.57872925 36.50563908 -26.965826100000005 0.589484 0.807375 1.6438720000000002
27260 -3.93472233 25.272992880000004 19.778666940000004 0.7318 -1.081738 1.083266
27280 5.596261650000001 10.395882630000001 4.23424125 0.253247 -3.5793440000000003 0.849183
27300 9.21318903 16.528476599999998 -4.866230879999999 -0.4139310000000001 -3.235091 0.320653
27320 -4.53661488 19.339031790000003 5.006641409999999 -0.934767 -1.437314 -0.456545
27340 -2.44321974 21.619994130000002 6.68689821 -1.387031 0.342447 -1.316563
27360 2.39786811 15.72869673 2.26374579 -1.589057 2.0073830000000004 -2.183231
27380 3.3962906700000004 19.76969079 -3.93741027 -0.8226690000000001 2.395385 -2.10894
27400 2.0847132900000003 16.65346581 -3.30168303 0.113854 0.7886920000000001 -1.525636
27420 4.42869507 10.253078460000001 -3.39074802 1.227503 -0.082368 -0.445315
27440 5.5580909400000005 4.34546703 -2.71534914 -0.29327800000000004 4.158839 1.05123
27460 6.98581872 0.7226928900000001 -1.6727717700000002 0.189027 2.782821 1.086273
27480 8.136776970000001 -2.85037398 -0.49681764000000006 -0.118474 1.229308 -0.42435
27500 8.11477314 -4.82311593 -1.6134899400000002 0.46563 -0.783895 -0.174136
27520 5.294790540000001 -3.1871709000000004 -2.66251248 -1.306206 -0.166613 -2.486117
27540 2.8940775300000006 0.8720893800000001 -3.50092413 -2.479108 -1.191109 -3.673382
27560 0.8931906900000001 3.8598720300000005 -4.36252662 -1.051127 -1.654397 -2.808237
27580 -0.73137474 3.72590667 2.03501583 -2.796871 -0.648416 -2.451047
27600 -0.58662819 8.80110036 6.6963256200000005 -2.794476 1.308488 -2.451401
27620 1.04108625 24.118895430000002 -5.33475648 -1.692655 0.481732 -1.783553
27640 -5.04990351 51.76789974 3.53654424 -0.654341 0.319509 -1.277232
27660 -7.294029300000001 22.579196310000004 -3.0181740300000004 0.226111 0.658443 -0.753429
27680 -2.06526006 21.98029581 -4.78988946 0.682589 1.193592 -0.179428
27700 10.84060917 18.561854160000003 -1.84745844 0.777039 1.417856 0.397785
27720 18.79596 14.437023840000002 -3.17055276 0.71129 0.645513 0.725191
27740 11.30942907 11.039389200000002 -3.48310917 0.518274 -0.903099 0.8176939999999999
