time Ax Ay Az Gx Gy Gz
20 1.01308851 12.40664814 1.46081691 5.207658 -0.982026 2.102507
40 -0.50250744 0.9746235 5.20512714 4.243243 3.250691 2.045481
60 -1.3515433200000002 -8.15504319 -13.352685300000001 2.708172 4.5379559999999985 1.14328
80 8.22060342 -0.8240400000000001 -14.42475153 2.397672 0.659814 1.546664
100 7.403450040000001 2.29711941 -7.4621334599999996 3.812962 -4.415157 0.852686
120 1.19795796 1.19242512 -2.22871428 4.373026 -3.861619 0.469192
140 -3.0485556 2.4887283300000003 -1.32684174 2.558047 -4.466307 0.61325
160 -6.43511475 7.662561570000001 -10.136172690000002 0.8907280000000001 -3.335351 0.02011
180 -1.36501245 9.040896 -4.54888719 -0.851611 0.231489 -0.673884
200 3.49313499 14.342573159999999 0.6236020800000001 -2.215596 4.438465 -0.873605
220 7.77408165 31.85765127 -1.6805511 -3.13526 5.037938 -0.274047
240 5.15932425 36.023634539999996 -0.76775022 -4.208729 2.282192 0.092659
260 -6.7539593700000005 44.19484461 1.5786153900000002 -3.955856 1.014522 1.20166
280 -14.850613440000002 30.18877407 1.3154621400000002 -1.15741 0.589214 1.504831
300 -5.579045100000001 18.93263292 -1.3301379000000002 -0.493758 3.166304 -0.446546
320 7.3027111499999995 16.57323963 7.70807016 1.831495 5.327993 0.6714680000000001
340 11.39191155 16.513359389999998 6.95618271 -0.6356609999999999 -0.741781 0.637444
360 -9.19313739 1.77066576 4.82162481 -2.782269 2.2467650000000003 -4.0003720000000005
380 -8.89734627 -3.7368252 8.14815657 -1.535587 1.324975 -3.135905
400 -4.296063870000001 -12.450057390000001 12.59166474 -2.084943 -3.844091 -3.105345
420 -3.3280326900000006 -17.23425705 16.832792610000002 -2.211562 -6.436928 -2.208805
440 -6.36985863 -13.50281754 11.81552697 -2.7529630000000003 -7.871428999999999 -2.112472
460 -4.6747789200000005 -1.05500664 2.04295212 -10.500083 -4.783407 -0.140921
480 0.6231508200000001 5.85956205 -4.64619258 -3.98906 6.707292 3.374374
500 15.938405100000002 26.81957862 -33.98292891 -0.333916 0.502843 2.409068
520 11.83588272 19.91713509 -4.3704629100000005 -3.319497 1.892841 0.7841
540 1.3873105800000003 -0.8072747100000001 9.661810140000002 -2.192502 -0.741059 0.208893
560 -4.98598155 2.74798701 10.87608213 0.709544 -3.982828 -0.673602
580 -12.62220327 29.53238697 9.23354478 1.3870129999999998 0.4549470000000001 -1.21935
600 -17.44711443 16.56365526 10.17613863 2.075268 3.061745 -0.768161
620 -14.60153754 5.35855554 6.89810751 1.908184 0.854044 0.02078
640 -9.08850393 10.248889590000001 11.17307007 2.293889 -2.648596 -0.043608
660 -3.6389312100000004 22.37007654 14.50079865 4.722731 -2.60483 -0.8385469999999999
680 6.78104478 51.41837925 -9.17262468 5.296359 -2.00588 -0.869491
700 8.16806106 41.664659220000004 -21.8237184 4.935231 -0.947705 -0.645838
720 -1.07086941 21.671781120000002 -26.502539040000002 4.858443 2.3469740000000003 0.273415
740 -3.2744406600000002 10.6633719 -1.28762136 4.88783 4.4287519999999985 1.520773
760 -6.708450780000001 -0.38020617 -0.17603064 3.086398 5.258613 1.7474759999999998
780 0.31749084 -5.556894120000001 -14.07956706 2.810495 3.884916000000001 2.657434
800 6.96845502 0.8502327000000002 -13.970303280000001 3.13238 -0.526392 2.113065
820 3.75973155 3.07849572 -2.28350313 6.859724000000001 -8.473025999999999 0.66766
840 1.509759 1.1719124099999998 -2.2758709500000003 4.83512 -7.129472 0.497972
860 -2.50413984 2.53707201 -7.250472899999999 2.596186 -5.777643 0.309685
880 -1.66378581 5.1522904800000004 -7.9896367800000005 0.722025 -3.160038 -0.251553
900 0.04340925 6.77371671 -5.75882316 -1.725222 1.178424 -0.957869
920 0.42765714000000005 8.936115390000001 -4.229758080000002 -3.815784 4.513117 -0.838944
940 1.07550954 14.873225490000001 0.12364524000000002 -4.357722 5.855926 0.021878
960 0.83212344 39.01771521000001 1.43207361 -4.157677 4.728845 0.917753
980 -7.317985320000001 47.32169382 -0.19369845 -3.672019 2.464593 1.696371
1000 -5.73756489 29.42236782 -1.85913234 -1.260713 0.446721 1.7969849999999998
1020 -2.4035481 26.43038649 -4.2224202 -1.16525 3.397438 -0.12358800000000003
1040 7.21799199 19.50084774 2.5536901500000004 0.060421 4.230149 0.760917
1060 16.63640622 20.68758306 5.2474867199999995 -0.99671 2.252985 0.8810479999999999
1080 -6.801851790000001 3.96720324 6.231096180000001 -6.073632 2.0208470000000003 -3.525281
1100 -9.49520691 -1.94565654 9.65193147 -5.254995 4.8686440000000015 -4.312628
1120 -7.331748750000001 -10.18482048 12.12823053 -1.643471 -0.762573 -2.342431
1140 -4.53422124 -14.374612620000002 16.020583470000002 0.250897 -7.829908 -3.376614
1160 -5.46828039 -11.029814640000001 11.698326900000001 -0.367864 -11.453338 -2.734291
1180 -0.3529638 -3.4172448300000005 7.763153310000001 -9.498712 -2.628052 -0.019184
1200 3.7309882500000002 3.87589176 -0.5092371000000001 -8.475958 7.4844089999999985 2.603896
1220 4.40908488 11.11917393 -17.311795290000003 -0.0505 -0.346219 1.64088
1240 15.581997990000001 27.16581276 -23.91771195 -2.292306 2.019985 -0.465117
1260 1.7401272300000001 3.24241101 10.11565998 -1.689427 1.375436 -0.17486500000000002
1280 -1.2666672 -9.59833944 16.814830500000003 0.29639 -1.05234 -0.294615
1300 -11.85519861 12.0023388 -13.81925871 1.066312 -1.4531120000000002 -0.372045
1320 -13.161527640000001 22.708227240000003 11.647726920000002 2.217214 -0.7062689999999999 0.20653600000000005
1340 -18.082096110000002 13.14251586 6.45787395 2.426711 -1.212205 0.8057840000000001
1360 -7.96328712 10.400669910000001 5.961507570000001 2.759641 -2.6153 0.815248
1380 -1.0975133700000002 16.61125338 8.756043029999999 3.868926 -3.4216290000000003 -0.166212
1400 5.4922266 34.074387540000004 16.116535080000002 4.654195 -1.153178 -1.2318559999999998
1420 10.429707510000002 45.30583692 -3.05649189 5.1398769999999985 0.722788 -0.59207
1440 -7.516471050000001 30.3528267 -45.29999997 5.223659 -0.638972 1.015798
1460 -5.45285907 17.52570234 -13.684390830000002 4.382497 3.315943 0.793346
1480 -3.09631068 6.793768350000001 -0.35027586000000005 2.785774 5.40256 0.6438550000000001
1500 2.1749751 -3.77769366 -6.01314741 2.598853 2.592775 0.968753
1520 7.532186670000001 -2.66834943 -11.84621265 3.148334 -0.8751549999999999 0.341443
1540 9.08520777 1.16113122 -8.774897850000002 4.975501 -4.973585 -0.097741
1560 6.3191115 3.59911242 -3.4590060000000005 3.179504 -4.3227449999999985 0.403762
1580 -1.13239773 2.80441413 -2.4923187900000006 1.507433 -3.690551 0.133831
1600 -7.025343210000001 4.269419910000001 -6.60531825 -0.112545 -1.372686 -0.548093
1620 -8.140524390000001 7.22787066 -6.98193396 -1.604361 2.242025 -0.910318
1640 -1.8648221400000002 11.983631130000001 -2.07094005 -2.974826 5.079008 -0.56033
1660 2.06330787 23.726259990000003 -1.36022517 -4.099005 4.272185 -0.017015
1680 2.42959365 33.85180845 -0.53618517 -4.844039 2.205645 0.604271
1700 -7.4423761200000005 44.32253157 3.2992893899999998 -3.086807 1.747098 1.330705
1720 -14.638511430000003 29.938040280000003 -0.35326791 -1.391396 -0.15839 0.588688
1740 -6.204295259999999 19.988081010000002 -4.08336345 -1.021936 4.014757 0.419279
1760 4.760547750000001 17.97401934 4.44290976 1.215719 6.3665699999999985 1.753286
1780 12.57549786 17.22946977 4.4279397000000005 -0.001807 2.488867 1.235936
1800 -1.9959524100000001 6.098317830000001 4.79123343 -3.616766 2.054487 -3.67801
1820 -6.625222740000001 0.65473902 7.823033550000001 -2.201188 1.820993 -2.193677
1840 -4.25385144 -7.73232048 12.393777420000001 -2.244367 -4.482344 -2.929384
1860 -3.14091675 -16.41202209 16.29182016 -1.2125860000000002 -7.2334809999999985 -2.609935
1880 -4.22182179 -17.29892457 16.16503572 -0.675671 -6.787361 -2.218992
1900 -2.8238771700000003 -5.242101030000001 7.20811332 -11.59287 -4.0928879999999985 -0.579933
1920 0.8866081800000001 2.9307571200000004 0.29833191000000003 -6.095443 4.290342 1.9655240000000005
1940 5.00559174 12.171335670000001 -13.534258589999999 0.247948 1.052038 0.962852
1960 13.262423490000002 29.83385808 -29.05981965 -3.658233 5.084357 0.291603
1980 6.21387963 9.270518670000001 3.52936332 -2.053131 1.431123 0.333133
2000 1.06443405 -5.988897090000001 13.82315328 1.202369 -2.8740650000000003 -0.254974
2020 -8.08184097 6.39919053 7.0605218700000005 1.505633 -0.8462700000000001 -0.661378
2040 -16.486568280000004 33.44599818 10.244543759999999 2.381437 0.981337 0.012172
2060 -18.2144232 14.966479350000002 8.654254470000001 2.807983 -0.94178 0.514339
2080 -9.828109260000002 4.62732795 7.25511303 3.464797 -3.897044 0.258863
2100 -4.16224566 10.582243199999999 12.67534404 4.5979410000000005 -4.152667 -0.73275
2120 -0.33365772000000005 27.569366730000002 20.465739720000002 4.809979 0.083835 -1.423564
2140 5.510639970000001 53.941678020000005 -10.645713900000002 4.670244 1.451978 -0.054697
2160 -3.68384139 36.9987093 -34.64650674000001 5.402287 0.673793 1.041
2180 -4.34411325 19.793637 -24.779765700000002 4.167196 3.92758 0.40543
2200 -1.5081109199999998 8.689129020000001 5.088221370000001 3.019188 4.634028 1.356838
2220 2.2731732 -0.94169133 -6.45218415 2.020147 2.1459040000000003 1.33382
2240 6.67551861 -4.563562950000001 -15.62435757 4.324945 -4.4013480000000005 0.419342
2260 8.678200680000002 0.12080034 -9.9489096 4.8841730000000005 -4.935755 -0.15504400000000002
2280 6.117928020000001 3.13014537 -3.2645619900000002 2.639355 -3.893774 0.422941
2300 -0.23216346000000002 0.76925115 -3.16861038 0.6961430000000001 -2.259729 -0.000787
2320 -5.096147850000001 4.70771109 -6.34724658 -0.860355 0.450852 -0.6453840000000001
2340 -7.085066490000001 8.0400798 -7.55553447 -2.4881290000000003 3.678683 -0.577569
2360 -2.3126878800000004 11.88244098 -1.4310239400000002 -3.3593300000000004 5.103416 -0.204125
2380 2.09803527 22.72843584 -1.36994688 -4.507468 2.718966 -0.183452
2400 3.8769414300000005 38.07586692 -1.9669050000000001 -5.059173 0.892473 -0.08562
2420 -4.127969520000001 44.85960945 1.5208344900000001 -2.383719 2.214361 1.086122
2440 -11.594144700000001 30.425577660000002 2.10776679 -0.923271 -0.969448 0.544928
2460 -8.22883401 22.009784670000002 -1.9128715200000002 0.031475 3.40159 0.197755
2480 2.95785234 17.56762047 4.76070471 2.716293 7.202988 2.00625
2500 13.10060754 15.904128960000001 5.32442655 -0.03122 2.782624 -0.003784000000000001
2520 -2.4965076600000002 4.074230340000001 5.639975010000001 -2.435648 3.128429 -2.608255
2540 -6.4117669500000005 -2.4932115 9.44191899 -3.676559 -0.659991 -3.055381
2560 -5.32337688 -9.90310671 12.17403342 -2.659832 -4.766708 -3.117792
2580 -3.85073892 -15.67615437 17.144593650000004 -2.097395 -6.079132 -2.805602
2600 -4.941669780000001 -14.414725709999999 13.67795547 -1.499889 -5.869806 -2.125512
2620 -5.03118603 -6.696924030000001 8.112977910000001 -13.886779 -4.202673 -0.440923
2640 -2.7258360300000004 2.29711941 1.9655610300000002 -2.263907 5.527716000000002 1.959723
2660 2.2873977 8.44933338 -2.48468661 -0.219365 2.045358 1.246735
2680 14.8362516 32.43320397 -32.18936661 -3.300722 4.935402 -0.595538
2700 8.86052934 18.2258028 -12.85781004 -1.954062 -1.552136 -0.96131
2720 3.6845869500000004 0.02769363 10.849742280000001 0.290173 -5.673093 -0.924329
2740 -3.81856212 7.2573595200000005 7.56751248 2.155377 0.772993 -0.702712
2760 -13.15015785 23.703961860000003 8.10264798 2.547588 1.7397490000000002 -0.115826
2780 -15.794708220000002 10.03752333 8.84241027 2.4061060000000003 -2.587056 0.452752
2800 -14.674435650000001 5.32068894 10.90183338 3.49236 -3.590994 -0.109873
2820 -8.25353559 11.05481052 14.10741765 4.746724 -2.375271 -0.724374
2840 -2.9409300900000006 22.986046440000003 17.333651970000002 5.045445 0.231493 -0.7256279999999999
2860 0.13232709 50.86437912 5.037778350000001 4.304208 0.530121 1.424484
2880 6.70694985 41.01381477 -24.1925391 4.697865 -0.416077 1.674137
2900 -2.0719897200000004 20.033138340000004 -32.070655800000004 4.542492 3.197908 1.400297
2920 -2.9913829200000004 12.20412069 4.06255644 3.0234810000000003 4.42363 0.423511
2940 -2.2547598300000002 0.34353639 0.35102142000000003 2.719602 1.687083 1.448252
2960 3.93142617 -8.741072970000001 -16.358135760000003 2.69309 -2.368325 0.91488
2980 11.6869473 0.88914897 -15.8427576 5.207129 -5.902122 0.137939
3000 6.6186402300000005 3.3045279300000003 -3.01862529 2.833435 -3.537082 0.564844
3020 1.15290063 1.23134139 -5.2536277799999995 0.798623 -3.43508 -0.00177
3040 -3.73877739 3.26905497 -4.42525176 -0.853298 -1.238002 -0.819427
3060 -3.94085358 6.7620428100000005 -5.016372929999999 -2.036023 2.642625 -1.082625
3080 -1.21218246 9.16903422 -0.61896195 -2.96035 5.107194 -0.428874
3100 3.0482613 17.85082536 1.13104395 -4.2767040000000005 2.968842 -0.001631
3120 5.63758137 31.482232380000003 -3.1774393800000005 -5.166957 1.457167 0.249393
3140 2.6271866700000004 32.23606221000001 0.97522191 -0.77869 3.721726 1.55901
3160 -11.720772179999999 44.36384148 0.46882971 -0.938571 -0.552963 0.567788
3180 -15.63109704 27.46264374 -1.5649991100000002 0.6718350000000001 3.3392 0.326222
3200 -4.6548744300000005 18.37473822 2.4002617500000003 2.392088 5.169879 1.363521
3220 8.72865351 16.44555267 7.713455850000001 -0.353743 4.320087 -0.058213
3240 11.70581193 15.922983780000001 5.60300112 -2.391725 3.816048 -4.105409
3260 -8.518631220000001 -0.20926692000000002 5.86195569 -3.295523 -4.624074 -2.539166
3280 -7.34207868 -4.80755727 9.42245595 -2.489816 -7.674595 -2.545652
3300 -3.07370844 -13.57751088 14.7727809 -2.00115 -6.8860350000000015 -2.2345330000000003
3320 -2.43663723 -17.3351529 18.39674205 -3.048579 -3.871804 -0.93714
3340 -4.77566496 -13.68649017 12.259507950000001 -14.713522 -1.4820799999999998 0.837024
3360 -3.91061916 -1.6916364000000002 2.7593666100000003 -0.055325 2.947142 1.496689
3380 -0.6921641700000001 5.711676300000001 -4.6502343 -1.458759 4.185728 0.93196
3400 14.891933160000002 31.522649580000003 -35.03164734 -3.928837 6.85145 0.309881
3420 8.96246505 22.47530841 -15.58394037 -1.28424 -2.955013 0.298191
3440 6.364168830000001 0.97836111 8.39454453 1.140567 -7.232761999999999 -0.836274
3460 -0.44262720000000005 -8.715478680000002 16.37894277 2.250797 -3.459643 -1.243551
3480 -10.264605210000001 23.108494860000004 3.77903763 2.140419 0.979813 -0.728719
3500 -21.326302350000002 31.61829708 5.18910741 2.897786 0.809652 -0.390994
3520 -16.113690180000003 6.945254370000002 4.93284078 4.131563 -3.137296 -0.635828
3540 -6.812328870000001 6.01359867 11.77151931 5.322521 -2.1745 -1.87963
3560 -2.7381083399999997 16.438666050000002 18.84326382 5.560521 -0.006372 -1.626509
3580 -1.86197724 48.382086150000006 18.77530995 4.899104 -1.291184 1.362607
3600 5.148543060000001 49.25582361 -28.1750067 5.646963 1.0862120000000002 1.85403
3620 -5.546711340000001 24.12128907 -38.30070231 3.614995 6.040204 0.039943
3640 -0.44981793 13.02232374 -2.14474068 2.935029 4.208236 1.616373
3660 0.13890960000000002 1.4374593 1.6039153800000001 1.844035 1.145515 1.776115
3680 1.15170381 -9.12023928 -15.4411362 5.411779 -5.11808 0.493013
3700 8.21716011 -3.3389610300000006 -10.693164870000002 4.986106 -5.357436 0.246792
3720 8.37149103 2.59545132 -11.19567231 2.638417 -4.679315 0.797818
3740 -1.33881975 2.61716085 -5.18147523 0.579583 -2.745287 0.048159
3760 -4.19607054 0.64426194 -0.33066567 -1.467088 0.419299 -0.753199
3780 -3.5536136400000005 7.46587107 -4.54275594 -3.097109 3.772126 -0.773154
3800 0.04715667 11.31152841 -0.7810722000000001 -3.914362 4.868517 -0.387162
3820 3.8058385500000003 19.91278926 -1.9878689700000003 -5.257093 2.844157 0.32710300000000003
3840 5.3352077399999995 31.94851149 -4.92700383 -5.003871 2.745369 1.101323
3860 3.0934657800000003 31.631471910000002 0.23605803000000003 0.489486 0.114628 2.075623
3880 -13.31421048 52.198401780000005 1.0268617500000001 -0.792959 2.293417 0.450858
3900 -16.25395356 28.00196811 -2.8168434 2.421755 6.907813000000001 1.486483
3920 -3.27893364 18.20155248 2.4441222600000003 -0.15645599999999998 -0.5110399999999999 0.594562
3940 10.55784573 16.78684257 10.332559080000001 -1.688221 3.44277 -1.946481
3960 10.481053049999998 15.23906001 4.848563070000001 -3.776531 0.482793 -3.170775
3980 -8.75978064 1.5212857499999999 8.61488694 -4.0796480000000015 -4.3804690000000015 -2.306742
4000 -8.26566075 -5.95102068 9.90026181 -2.410788 -6.264319 -2.576818
4020 -4.54230468 -14.1539661 15.04566567 -1.584198 -5.960891 -2.450724
4040 -3.5103515400000007 -17.5116348 18.017281440000005 -14.78827 -6.848812 -0.725839
4060 -4.74363531 -12.31219746 13.362416819999998 -2.301186 6.3404120000000015 2.285297
4080 -2.0061253800000003 -0.47780586 6.1272082800000005 -0.604105 3.549002 1.71107
4100 1.40183919 7.74414153 -1.90194318 -3.309639 5.995987 0.317439
4120 13.831687980000002 32.10463764 -41.328607859999984 -1.665887 -0.905931 -0.574497
4140 14.049332640000001 25.31730465 -19.34906742 0.14861300000000002 -7.832476 -0.78475
4160 5.007082860000001 -1.8378740700000002 12.123884700000001 2.0029 -5.702896 -0.551269
4180 -6.4039876200000005 5.75283906 3.80433762 2.5853650000000004 1.018743 -0.460742
4200 -13.593383460000002 21.400544430000004 12.057578910000002 2.693597 2.2767060000000003 -0.256499
4220 -16.1871867 5.69670624 13.83872175 3.52207 -0.8954780000000001 -0.227419
4240 -15.69022191 6.343057710000001 15.20074215 4.567925 -4.19407 -0.74252
4260 -7.89458769 14.920676460000001 17.121393 4.766523 -3.376179 -1.386319
4280 -2.96892783 26.22845745 19.013457510000002 4.5437400000000014 0.8593959999999999 -1.469147
4300 -0.51837021 55.347558930000005 6.83882568 5.3805010000000015 1.871313 -0.041727
4320 1.7323479000000002 43.734255300000015 -43.99141464 5.345554 2.246637 1.231937
4340 -2.86099821 20.232379440000003 -21.621485250000003 4.05891 4.539246 0.183836
4360 -1.22010894 9.386982990000002 4.684657590000001 2.777138 3.772719 1.175721
4380 0.08786817 -2.42929935 -2.85022683 2.774842 -1.303201 0.8820389999999999
4400 5.300029080000001 -7.505689860000001 -14.79284235 5.508415 -6.488981 0.648201
4420 10.22748417 -1.7621310600000002 -15.067071089999999 3.334804 -4.314042 0.7562810000000001
4440 4.717442610000002 4.2861852 -6.7618858500000005 1.507683 -4.18432 0.536117
4460 -3.0508020900000004 0.06615864 -1.4751787500000002 -0.501308 -1.981348 -0.114194
4480 -5.16755484 2.744838 -4.9912200900000006 -2.698361 1.172242 -0.699739
4500 -5.7088314 7.3836927 -4.30010559 -4.008799 4.395254 -0.5015149999999999
4520 -2.41762545 8.92594242 -2.52494685 -4.2854 5.025144 0.192226
4540 0.47017368 13.36780251 -2.8578590100000003 -4.93387 3.683201 0.943581
4560 3.24435339 25.324789680000002 -1.49269941 -1.087718 2.3192310000000003 1.974187
4580 1.47173544 42.9765309 -3.1445072100000004 -0.914486 -0.745384 0.714549
4600 -9.12861702 43.9659675 2.1794680800000004 -0.473554 4.205956 0.6140760000000001
4620 -11.981531790000002 26.883049320000005 0.19025514000000002 2.455735 5.669906 1.471215
4640 -5.65837857 18.15843753 -1.31127327 -2.661295 -0.6567569999999999 -1.283591
4660 10.869195509999999 18.617535720000003 6.01644357 -3.971861 3.421282 -2.58411
4680 11.61270522 13.79411568 4.500386550000001 -4.540045 1.170348 -2.090608
4700 -7.7594157 -1.08524106 6.57822303 -2.7814 -3.423331 -2.496521
4720 -6.74542467 -4.73151015 9.311387130000002 -1.879054 -7.13241 -3.064441
4740 -3.8423611800000006 -13.53529845 12.147840720000001 -2.50412 -7.557788 -1.376199
4760 -1.79656416 -15.326329770000001 16.974252810000003 -14.751175 2.5431630000000003 0.17998699999999998
4780 -3.06188739 -11.93467923 14.0327145 -0.230607 4.343535 2.4924630000000003
4800 -0.96219423 1.58894532 6.151007340000001 -0.730954 3.249387 1.622974
4820 1.01728719 8.86052934 -3.64043214 -3.163864 4.7891 -0.09233
4840 10.25561925 29.667853260000005 -43.98961941 -1.047483 -3.188495 -0.392064
4860 11.471696280000002 19.715951610000005 -14.64539805 0.729979 -7.530175 -0.696687
4880 3.96046377 -3.0523030200000005 14.188095090000001 1.923639 -2.61255 -0.4778020000000001
4900 -6.03859455 7.259900310000001 9.92525769 2.381185 1.943115 0.319654
4920 -13.19251743 20.65285566 10.121653890000003 3.008006 -0.638677 0.46621
4940 -14.37385725 8.82040644 13.079496420000002 4.128171 -3.067211 -0.045214
4960 -13.97643453 9.0178425 12.99912309 4.718758 -4.854913 -0.780144
4980 -8.594825490000002 14.38119513 13.106748600000001 4.523968 -0.856031 -1.6347969999999998
5000 -3.78907326 23.64049116 16.296165990000002 4.586604 2.072033 -0.530366
5020 -0.37721412000000004 52.19945145 11.17111788 5.306516 1.999731 0.408381
5040 4.02513129 44.085571019999996 -35.18747919 4.490273 3.619659 0.139958
5060 -0.9225324 19.101325680000002 -30.89829213 3.3570620000000004 3.960946 0.755447
5080 0.57136383 9.77063247 6.687045360000001 2.589317 1.551507 1.100344
5100 -0.36075294 -1.79850654 -0.9080136000000001 4.650796 -4.1624 0.321967
5120 3.6323487 -7.65822555 -12.550050720000002 4.73224 -4.7922699999999985 0.324411
5140 8.951987970000001 -1.0449808200000001 -14.907952890000002 2.2722830000000003 -4.113025 0.691986
5160 7.063062660000001 4.15445652 -6.628813200000001 0.270533 -3.007875 0.182001
5180 0.00643536 2.0490931800000003 -5.22338355 -1.6776669999999998 0.268166 -0.338938
5200 -4.205350800000001 1.3882131 -2.1007330200000003 -3.498592 3.795613 -0.438431
5220 -4.67867349 7.29837513 -4.51281582 -4.353955 4.844658 -0.166944
5240 -5.23731375 9.744135660000001 -4.22660907 -5.190329 3.272902 0.143286
5260 -0.88376328 15.20223327 -2.47151178 -4.787841 3.223268 0.7507739999999999
5280 3.3015358800000003 32.344138980000004 -1.25349237 -0.26516100000000004 0.645717 1.253549
5300 -1.72800207 40.89735045 -0.98091171 -0.929074 2.614602 0.43454
5320 -10.877278950000001 42.77534742 1.27279845 2.548911 5.739928 1.462163
5340 -9.07982208 22.918239720000003 1.1805942600000001 0.4478140000000001 0.261324 0.327533
5360 -2.72777841 17.395925849999998 3.0728059200000004 -2.815289 2.894902 -1.689801
5380 9.57843495 16.57278837 7.35570477 -4.99619 1.51474 -2.570662
5400 8.4596535 13.63425192 6.04502991 -3.444681 -1.901084 -2.712476
5420 -7.89098742 -1.6268217299999999 6.649021800000001 -2.093083 -5.529833999999999 -2.979328
5440 -7.71271029 -6.38557425 10.329723990000002 -1.871385 -8.022738 -2.333651
5460 -3.7808328600000003 -15.130531979999999 15.025152960000002 -12.131839 -9.336621 -0.800236
5480 -2.7012816 -16.384328460000003 16.27550613 -4.100096 8.119447000000001 1.7085669999999995
5500 -2.5219548000000005 -10.703337840000001 13.667331240000001 0.260647 2.031099 1.731874
5520 -0.83780343 3.24091008 4.36402755 -2.792594 5.513203 -0.076778
5540 2.3246658900000003 9.81239364 -5.464238669999999 -1.7632169999999998 -0.14338399999999998 -0.708613
5560 12.633425910000001 32.005998090000006 -37.09616184 0.037610000000000005 -6.649767 -1.0177770000000002
5580 9.823626090000001 17.72104887 -13.142672820000001 1.358933 -4.552811 -0.688632
5600 3.7528449299999997 -1.3253408100000001 12.75393195 2.032233 1.033181 0.136785
5620 -9.43981965 12.628942740000001 -1.05620346 2.342236 1.242724 0.213457
5640 -12.76156413 18.06623334 12.03227892 3.1328270000000003 -1.397624 -0.056442999999999986
5660 -16.72831611 3.8458044900000004 15.73977222 4.4031400000000005 -2.897928 -0.525279
5680 -15.17349978 8.863815690000001 13.81776759 4.9453 -2.6079830000000004 -0.510113
5700 -8.55261306 16.22939913 13.03055433 4.2730169999999985 -2.111021 0.734374
5720 -4.2152392800000005 28.34985033 14.35739607 4.21406 -0.666632 0.816501
5740 0.9705817800000001 54.485044110000004 -8.88657489 3.960527 5.206101 -0.5270050000000001
5760 -1.9875648600000002 34.94063997000001 -35.36874837 3.696445 7.530522 0.502211
5780 -2.5872207300000003 18.30274263 -20.063676870000002 2.675165 3.994162 1.2975709999999998
5800 -0.46074627 8.367753420000001 5.14944558 2.453626 1.210595 1.755721
5820 -0.07199559 -3.2448046500000003 -2.7354105900000003 6.103335 -5.783936 0.972988
5840 6.82415973 -7.59999339 -13.63529178 4.743178 -5.62452 0.38217
5860 9.649233720000002 0.6970986 -12.242742660000001 2.806895 -5.8076089999999985 0.161644
5880 6.33168792 3.20962599 -6.6985721100000015 0.506322 -3.282536 -0.33302
5900 -2.16404676 0.7725473100000001 -5.182220790000001 -2.083517 0.838513 -0.625583
5920 -4.834201230000001 3.1433103900000003 -2.8753698599999997 -3.634857 3.917305 -0.382923
5940 -4.26358296 7.256309850000001 -2.3616397800000004 -4.392339 4.517288 0.214563
5960 -0.53408583 10.884018420000002 0.99288972 -4.924618 3.715747 1.054699
5980 0.48094506000000004 19.62254079 -0.6466555799999999 -3.129423 2.73795 1.597261
6000 0.5224119300000001 26.92914651 -4.51865277 -0.355177 -0.651605 0.753587
6020 -7.224574500000001 39.61661571000002 -0.48693897 -1.070583 2.536925 0.269145
6040 -15.581850840000001 41.3250174 -1.38462264 2.189492 7.148583 1.417254
6060 -11.400289290000002 23.171063040000003 -0.0779895 -1.401418 -0.329879 -0.205919
6080 -0.20522520000000002 18.371000610000003 6.29186913 -1.927859 6.9277320000000016 -2.116059
6100 13.774809600000001 21.046530960000002 6.9322365 -4.0979160000000014 1.369405 -2.702002
6120 10.28391129 13.153748310000001 3.4429862700000005 -3.473523 -3.12476 -2.502806
6140 -5.1880577400000005 1.18657836 7.036114590000001 -1.438133 -5.57052 -3.228937
6160 -6.11762391 -5.520969900000001 10.345881060000002 -0.439993 -7.387849 -3.036971
6180 -2.54635227 -14.037805890000003 16.098572970000003 -11.564259 -6.867331 -0.222596
6200 -2.73675456 -17.0920611 15.89245506 -2.815723 4.821109 2.25374
6220 -3.1829820300000002 -13.49533251 12.725041500000001 0.268095 0.991816 1.884945
6240 0.7716447900000001 1.70271189 5.244641820000001 -4.070049 5.147438 0.590953
6260 1.2331366200000002 7.471560870000001 -3.56139297 -3.491264 0.334934 -0.54504
6280 8.54423532 25.33900437 -35.58415635 0.281132 -7.674537 -0.436855
6300 8.76742263 20.43445563 -19.24742601 1.575676 -5.282217 -1.219226
6320 4.32645525 1.85808267 10.984904460000001 2.252929 2.239784 -0.763731
6340 -9.08625744 10.38330621 -0.1130112 2.413269 1.887792 0.008028
6360 -13.71747015 18.32279427 21.16628163 3.214668 -2.6230990000000003 -0.025459
6380 -11.76538806 6.16373091 13.25583117 4.499347 -3.512307 -0.945767
6400 -14.716500930000002 8.731341450000002 13.3384608 4.469342 -0.384947 -1.113422
6420 -8.12749671 12.43224243 14.35888719 4.646442 1.422901 -0.487455
6440 -2.20221747 18.08389134 16.30229724 4.95444 -0.5571 0.22332800000000005
6460 0.16600482 46.86155577 -1.75076127 4.91223 3.791397 -0.282467
6480 6.90573969 45.91327211999999 -19.69963758 4.120678 6.378792 -0.089418
6500 -3.8883112200000003 23.045181120000002 -27.85272858 3.165094 4.088997 0.867173
6520 -2.2589487 12.955105620000001 -1.6115475600000002 2.627456 -0.961621 0.3048
6540 -2.09504322 1.78893198 1.6266647700000003 5.35959 -5.627945 0.437754
6560 1.12176369 -7.3847423700000006 -14.07269025 3.278756 -3.704715 0.5414640000000001
6580 9.227266380000001 -2.27242764 -18.54044874 1.437246 -4.026224 0.222434
6600 8.183482380000001 4.30983711 -11.22650514 -0.371992 -2.616922 -0.32505300000000004
6620 -2.06540721 1.68130647 1.17909333 -2.392518 1.019249 -0.5339689999999999
6640 -6.0233203799999995 2.60443728 -6.32300607 -3.33885 4.483171 -0.158322
6660 -7.6628656799999995 4.885841070000001 -3.8692994400000003 -4.3292160000000015 3.908647 0.518091
6680 -4.12332939 7.53488442 -0.6484508099999999 -5.036534 2.5464900000000004 1.0479379999999998
6700 0.9843550200000001 18.25034742 1.40811759 -1.698164 3.648799 1.6787310000000002
6720 2.8569564900000004 36.029922750000004 -4.89796623 -0.571652 -1.2013120000000002 0.415221
6740 -1.05665472 37.177437690000005 -1.71468009 0.164693 2.258843 0.274925
6760 -12.23391366 43.942472550000005 0.99138879 3.027512 6.559831 1.669554
6780 -14.98279338 23.2002576 0.6081807600000001 -1.371236 0.693725 -0.200611
6800 -5.635177919999999 15.76926108 5.636227590000001 -2.497439 4.228139 -1.045151
6820 7.31454201 14.02403265 9.87256818 -5.726127 -1.58714 -2.787567
6840 17.91460017 16.96856301 5.68113777 -2.432272 -3.865475 -2.519153
6860 -2.44516212 1.87739856 4.45204287 -1.187517 -6.613904 -3.060275
6880 -6.53481378 -4.9114353600000005 8.689727430000001 -1.415745 -6.054621 -1.802084
6900 -3.27608874 -13.727358630000001 12.682377810000002 -14.215691 -4.24392 0.301383
6920 -0.93315663 -17.93929194 17.43948225 -1.394038 5.672601 2.268988
6940 -3.0819390300000005 -14.37101235 13.315113 -0.7851130000000001 3.949735 1.5544
6960 -1.8088364700000001 -1.9565848799999999 5.75642952 -3.632109 5.628697 0.006940999999999999
6980 -0.14459940000000002 6.185587590000001 -1.4471908199999999 -1.7318060000000002 -0.392299 -0.8255790000000001
7000 7.828723350000001 24.62289399 -34.0369722 -0.182901 -7.701734 -0.958149
7020 7.06680027 25.356525030000004 -22.86705114 1.298555 -8.388010000000001 -0.5847939999999999
7040 5.56662564 5.306611590000001 2.59186086 2.664834 0.481328 -0.400746
7060 -3.01772277 2.50100064 19.54979964 2.773374 2.292021 -0.425809
7080 -14.747029650000002 22.17578949 1.9754397000000001 4.052205000000002 -1.301659 -0.608824
7100 -9.44460693 9.238037760000001 11.675126250000002 5.2545480000000016 -2.661506 -1.244957
7120 -12.767096970000003 11.0277153 15.880771350000002 5.665788 -0.75049 -1.5788870000000002
7140 -7.132223160000001 10.631636550000001 18.72186507 5.039589 -0.207771 -0.095923
7160 -2.18889549 15.25881735 15.02395614 5.471346 1.748609 0.993104
7180 -4.03306758 33.765431400000004 15.23996253 4.427093 6.412936 -0.102276
7200 4.8645828 55.08754488000002 -34.14189996 3.107908 6.211772 0.996513
7220 -7.13536236 28.121424480000005 -41.47021521 2.629501 1.3514700000000002 0.7408899999999999
7240 -2.47524939 16.78189833 -2.1933884700000004 3.787893 -2.882095 0.8420000000000001
7260 1.21278087 3.9947399100000003 3.4886420100000004 5.5369150000000005 -6.6764160000000015 -0.187778
7280 0.77943393 -5.69386134 -5.826933990000001 2.959185 -4.820916 0.50007
7300 6.8355393300000005 -5.77424448 -14.21937918 0.676045 -3.506483 0.377752
7320 10.60664067 2.1603091500000002 -16.9506009 -1.524666 -0.7553 -0.271396
7340 0.35805518999999997 4.73105889 -4.52494098 -3.743487000000001 2.475435 -0.683072
7360 -5.129384129999999 0.84244356 -3.05349984 -4.591953 4.563292 -0.193883
7380 -7.6631599800000005 5.60584602 -5.99907006 -4.9088910000000014 3.90716 0.593092
7400 -4.100727150000001 9.938579670000001 -1.8646749900000001 -4.596702 3.865829 1.5994540000000002
7420 0.7665534 16.647334559999997 -2.0588148900000003 0.995679 0.629687 1.7708509999999995
7440 3.03224157 25.28930691 -6.559662510000001 -1.234622 1.0764280000000002 0.411944
7460 2.4903665999999998 32.104784790000004 -3.00380238 0.372316 5.316592 1.0576
7480 -11.46959694 47.52302445 0.8598072600000001 0.78425 4.975118 1.6452330000000002
7500 -17.195193630000002 29.566211850000002 -0.6375224700000001 -4.102988 2.54163 -2.536897
7520 -3.1382288100000006 19.1398005 -0.006582510000000001 -3.975384 3.5244690000000003 -1.214806
7540 8.593030259999999 18.1216206 8.095761360000001 -3.633678 -2.729837 -2.5567740000000003
7560 13.378279590000002 15.94543887 4.48452378 -1.663598 -7.366519 -3.0476810000000003
7580 -4.734806310000001 2.50908408 5.913605340000001 -1.520804 -9.050107 -2.792426
7600 -8.286320609999999 -4.54245183 7.713455850000001 -5.556244 -7.757238 0.262754
7620 -4.67223813 -12.773090880000002 11.545487099999999 -10.606983 10.582164 1.273264
7640 -1.5268284 -16.53282243 16.729660080000002 0.481088 2.042812 2.074161
7660 -2.18560914 -13.89710106 14.6802726 -1.265633 3.770222 0.510825
7680 -0.7168559400000001 -0.87448302 8.539143930000002 -3.204701 3.258386 -0.6108779999999999
7700 0.44173449000000004 9.787250610000001 -0.30641535000000003 -0.80297 -4.036693 -0.810148
7720 5.88905091 28.65670713 -38.0052153 1.1252030000000002 -4.513033 -1.109059
7740 9.38877822 24.043446720000002 -21.988977660000003 2.523755 0.167756 -0.183412
7760 5.59401516 -2.0022406200000002 12.687616349999999 2.558962 -0.009118 0.593658
7780 -1.94445972 -7.27651845 18.51185259 3.487801 -2.4987310000000003 0.33734899999999995
7800 -12.84239853 20.96690319 -10.046205180000001 4.03031 -3.782459 -0.114416
7820 -21.03935004 17.13576465 11.55162816 4.251532 -2.061974 -0.8542850000000001
7840 -11.106008910000002 9.55971747 6.149359260000001 4.225656 1.91775 -1.327447
7860 -6.056105400000001 11.70849987 12.84568488 5.1344059999999985 1.653919 -0.34120100000000003
7880 -0.26389881000000004 22.230127080000003 17.4131424 5.817947 0.031559 1.447446
7900 2.1862075500000007 39.3384924 14.487623820000001 4.047529 2.915126 0.619536
7920 7.838445060000001 47.705647410000005 -23.261923260000003 2.250188 4.774723000000002 1.20494
7940 -10.96454871 24.41572641 -50.035100580000005 1.924367 1.926932 1.29818
7960 -3.1469106600000005 15.366442860000001 -5.1275889 4.490285 -6.407324 0.557663
7980 -1.2783410999999998 1.9580760000000001 3.4747216200000004 3.640706 -3.4280699999999995 0.04371
8000 1.71708354 -7.1203923 -9.12622338 1.620853 -3.17405 0.341197
8020 9.50253498 -3.2150116800000004 -14.96752902 -0.558075 -1.926286 -0.248189
8040 10.859463990000002 3.27594159 -10.277780040000001 -2.347516 0.637413 -0.722241
8060 4.51925118 2.7009873000000004 -4.2388813800000005 -3.4270089999999995 3.747601 -0.747653
8080 -2.7104147100000002 1.1091970800000002 -3.67141212 -3.657184 3.724567 -0.116844
8100 -5.6414661299999995 6.020475480000001 -3.9410007300000003 -4.298004 2.016714 0.225904
8120 -7.8879953700000005 7.484588550000001 -4.77791145 -2.8328450000000003 3.027402 1.416296
8140 -2.11630149 12.519217890000002 -0.49471830000000006 -0.639011 -0.329172 1.085545
8160 3.72679938 23.90005395 -0.9657945 -1.110751 3.686029 0.385965
8180 4.30414731 45.05466168 -3.1424176800000003 1.726195 5.930344 1.443353
8200 -6.057606330000001 44.375819490000005 0.7018858800000001 -0.477545 2.621623 0.15247
8220 -11.381434470000002 29.069404020000004 2.40490188 -2.370193 2.803135 -2.302938
8240 -8.633594610000001 18.853289640000003 0.7173072 -3.054465 -0.650284 -2.825653
8260 -0.78182757 14.82606882 5.779934280000001 -2.7067490000000003 -5.158657 -2.56321
8280 16.355290860000004 16.53476481 9.17860878 -1.95827 -7.173533 -2.569287
8300 -3.0311919 1.2638223 4.6363041 -2.1253610000000003 -7.641005000000002 -1.938536
8320 -7.88590584 -5.6137725000000005 7.819737389999999 -10.976008 -4.1667809999999985 -0.218743
8340 -4.8800041200000015 -12.346326450000001 10.5939171 -5.270201 7.904233 1.66435
8360 -2.20461111 -15.34099572 15.08548446 0.441914 1.50858 1.708172
8380 -3.0620345400000004 -14.0295753 13.36899933 -2.950594 4.935851 0.319169
8400 -5.10528096 -4.32525843 5.7694572 -3.119396 2.557052 -0.589087
8420 -1.67831442 5.16770199 -0.5007122100000001 -0.642828 -3.905697 -0.940589
8440 8.26072632 23.32060668 -33.67067661 0.737422 -6.860105 -0.972027
8460 12.36159081 27.907664580000002 -23.33842164 2.3623540000000003 -1.842743 -0.228965
8480 7.97930685 2.18994516 10.23960933 2.380202 1.688662 0.283654
8500 -1.55152017 -2.78091918 17.488287 3.3401080000000003 0.253257 0.104191
8520 -10.85393115 21.53631483 -3.4458311700000004 4.280833 -3.787857 -0.313485
8540 -14.52489201 16.29810837 9.67902669 4.831283999999999 -3.02147 -1.43546
8560 -14.001734520000001 8.908725870000001 10.48569318 4.92978 -0.621654 -1.72413
8580 -8.07016707 11.335474620000001 14.41278333 5.159925 -1.028326 -0.393133
8600 -2.53198062 19.14653016 15.13891953 5.591136 2.377416 1.081797
8620 -2.39636718 34.21360125 13.91671125 3.921295 5.293565 -0.254994
8640 6.542593110000001 49.5418734 -24.47455698 4.1774830000000005 3.877228 0.201536
8660 -8.645425470000001 26.25151095 -42.04651347 2.572026 -0.926589 -0.148558
8680 -3.5530152299999997 17.20940832 -7.8799119300000005 4.977729 -5.42517 0.143203
8700 -0.05328792 5.15856888 4.23334854 3.620698 -3.532479 0.595975
8720 0.03248091 -4.796324820000001 -5.12519526 1.512748 -3.194037 0.637433
8740 6.97309515 -4.5693999 -12.42536562 -0.496578 -1.565148 -0.037783
8760 9.954295290000001 0.9505203300000001 -14.40349326 -2.5262290000000003 1.316373 -0.396415
8780 7.603887960000001 3.7003025700000003 -7.5676596300000005 -3.252928 4.1800440000000005 -0.35175
8800 -3.4012251000000004 2.2210821000000003 -4.881348090000001 -3.993673 4.0892870000000014 0.34181
8820 -4.44261546 4.52688336 -3.09241611 -5.161739 3.07336 0.46848
8840 -6.693176610000001 7.03118016 -3.15199224 -2.888332 3.771975 1.211992
8860 -2.30295636 14.20695972 -0.7168559400000001 -1.084259 -0.6376470000000001 1.091376
8880 3.0964578300000003 25.47896364 -3.00200715 -0.023347 3.284921 0.649379
8900 4.6886993100000005 34.440231870000005 -4.1396434200000005 2.244903 6.448504 1.683458
8920 -5.55045876 42.98356467 2.4676172100000002 -0.6529020000000001 3.387386 -0.185158
8940 -15.76147194 38.43063576 -0.01886463 -2.743118 3.491006 -2.437816
8960 -9.80191656 20.18926449 -0.16839846000000003 -3.917387 -3.596134 -2.254271
8980 -0.11420802000000001 15.12065331 6.219118170000001 -2.250232 -6.321704 -2.750811
9000 18.31950792 17.87971581 7.43025096 -1.672826 -6.790029 -2.551761
9020 0.45176031000000005 6.95783079 6.59767626 -2.313653 -5.479144 -1.081635
9040 -6.377932260000001 -1.2274468200000002 9.134758080000001 -13.144787 -2.018834 -0.025137
9060 -4.82177196 -9.71479395 10.77369516 -2.71281 5.654595 1.788714
9080 -2.3568525 -16.00531911 15.66702126 -0.368627 2.285645 1.226156
9100 -2.17332702 -14.52100725 16.244820450000002 -3.5548269999999995 5.528158 0.040725
9120 -1.60286571 -10.560543480000002 9.19852308 -1.578565 -0.5712109999999999 -0.43972
9140 -2.87955873 1.6908810300000003 1.8984998700000002 0.575505 -6.036308 -0.91653
9160 -0.13621185 12.2827086 -14.86514205 2.044739 -3.066488 -0.8160689999999999
9180 12.980856870000002 36.23036067 -31.85151021 2.294457 1.45614 -0.101207
9200 8.41774518 9.49385313 -0.08712261 2.421162 -0.138344 0.26278
9220 2.13515631 -7.2971783100000005 19.125281700000002 3.829142 -3.033767 -0.42336
9240 -8.406963990000001 15.63124419 5.104986660000001 4.5352 -4.361174 -0.750012
9260 -16.4732463 26.04733542 7.994424060000001 4.658501 -1.385518 -1.474014
9280 -15.60669957 8.58734046 6.69482469 4.747146 1.805618 -0.911327
9300 -8.570575170000001 7.9417345500000005 15.137418600000002 5.700629 0.6509739999999999 0.6286430000000001
9320 -2.53034235 13.873301999999999 15.692919660000003 5.651079 1.7541669999999998 1.843588
9340 -2.03981292 29.168043570000002 16.87860531 3.73033 4.907296 0.069975
9360 2.50549362 54.73622916 -15.53125086 3.2324610000000003 3.339206 1.0341790000000002
9380 -9.39490947 32.385753 -41.64999327 2.869925 -3.5060300000000004 1.025463
9400 -3.29314833 18.628758360000003 -15.10508484 5.721213 -5.8011300000000015 0.277064
9420 -0.023504760000000003 7.5857787000000005 4.27661064 3.335497 -4.699523 0.452337
9440 0.49307022000000006 -3.26081457 -6.374793060000001 1.260286 -3.86527 0.351314
9460 7.0440508799999995 -5.081933159999999 -14.41786491 -0.778257 -1.49427 -0.202211
9480 10.57715181 1.0036611 -13.323942 -2.763456 1.405766 -0.700493
9500 6.92175942 2.8243284300000004 -4.47359544 -3.902156 4.457442 -0.428211
9520 -1.89161325 0.90426618 -3.77634969 -4.1679080000000015 4.5411470000000005 -0.08513899999999999
9540 -3.86795547 4.02797619 -4.418365140000001 -4.940057 2.564382 0.486704
9560 -4.84332453 6.643488960000001 -3.45257064 -3.232294 4.483446 1.543032
9580 -2.65547871 9.683813970000001 -2.3192802 -1.335964 -0.364132 1.108495
9600 1.3036410900000002 17.7399135 -2.03981292 -0.042708 7.000861 0.601753
9620 4.904401590000001 35.21756646000001 -1.4738347800000002 2.619259 3.195148 0.8281860000000001
9640 0.36733545 37.482204960000004 -1.44838764 1.242921 5.122799 -1.047945
9660 -10.383453359999999 43.44804855 -0.29637972 -5.028685 0.239011 -1.5961040000000002
9680 -15.955621650000001 25.079294430000004 -1.6128915300000002 -5.02358 -0.6766399999999999 -1.988001
9700 -5.11142202 17.41583034 1.72591254 -2.23716 -0.672269 -3.097654
9720 18.337764330000002 19.62837774 9.21259062 -0.7861899999999999 -5.427797 -4.053507
9740 3.7178232300000005 8.74676277 4.7717802 -2.341255 -9.598229 -1.673685
9760 -7.0325241300000005 -0.5707654200000002 7.41004236 -14.296575 -0.350262 0.352445
9780 -6.38242524 -7.95281004 9.62917227 -0.457325 5.667539 2.988042
9800 -2.8009708200000003 -15.15253581 14.06205621 -0.258833 2.510438 2.190171
9820 -3.2135205600000005 -15.50535246 15.97702707 -3.783887 4.335095 -0.038395
9840 -5.1085771200000005 -10.738820610000001 11.16318159 -1.485126 -2.124589 -0.469123
9860 -1.9426644900000003 0.18935262 5.082982830000001 0.162821 -8.023095 -0.813249
9880 1.8302418900000001 8.781038910000001 -1.1000639700000001 1.064178 -8.177143 -1.165678
9900 11.47363866 33.259637610000006 -43.66869507 2.073778 0.009112 -0.87856
9920 10.082129400000001 22.53848481 -15.1863705 2.123878 1.6592759999999998 -0.402829
9940 0.93735531 13.50850734 8.18333523 2.920716 -0.345908 -0.476947
9960 -10.626702120000001 18.730399770000002 16.24107303 4.271872 -3.057937 -1.155173
9980 -9.80865603 6.80514795 10.130787 5.045077 -2.091996 -2.024816
10000 -14.562317160000001 -0.9683352900000001 12.71066985 4.9153660000000015 -1.08213 -1.110481
10020 -12.0746385 2.83959279 14.42430027 4.998639 -2.041379 0.538528
10040 -8.95423446 12.859310970000001 9.087307110000001 5.567086 1.579545 1.363594
10060 -8.08259634 27.919936890000002 14.162647950000002 3.5206160000000004 4.557136 -0.625386
10080 4.87505988 63.75856464000002 -19.08755244 2.658091 4.920772 0.559191
10100 9.24762213 42.174494730000006 -32.75339256 2.694975 -0.968791 0.706933
10120 -2.4551977500000004 17.72344251 -25.200840330000002 3.877644 -3.407267 0.762115
10140 0.47391129 7.56691407 8.33586111 3.259697 -3.190259 0.309936
10160 -4.15985202 -4.53317157 -0.6448603500000001 1.364216 -2.976551 0.191736
10180 2.38558599 -7.275920040000001 -9.9776529 -0.382592 -1.898851 -0.334593
10200 6.94300788 -1.32624333 -14.53701717 -2.115839 0.872296 -0.521166
10220 7.62918795 5.23341918 -9.640257570000001 -3.118201 3.826747 -0.29587600000000003
10240 -2.17004067 1.5025780800000001 -2.59350894 -3.730474 4.084901 0.410952
10260 -4.51147185 1.02147606 -3.63204459 -4.481383 2.533002 0.47713
10280 -4.33588266 5.026094639999999 -3.4232289300000005 -4.363208 3.149764 0.915136
10300 -2.9774625300000004 8.326580850000001 -2.121687180000001 -1.2185709999999998 0.018514 1.485907
10320 0.8652027600000002 15.108832260000002 -0.7429014899999999 -0.8697360000000001 3.974755000000001 0.700267
10340 3.86616024 31.24452627 -2.3287076100000004 2.60698 5.81133 1.67078
10360 5.3100549 33.71288904 -2.0013381 -0.546162 0.76886 0.274006
10380 -6.25130478 39.756879090000005 3.64012803 -1.685601 1.896905 -2.177354
10400 -15.894848700000002 35.07476229 0.16690734 -3.115733 -1.046748 -1.929335
10420 -13.395192030000002 16.54045461 0.86265216 -2.982558 -3.324588 -2.506598
10440 -0.33231375 16.67158488 5.70508398 -2.180519 -5.9036940000000016 -2.650447
10460 14.748824879999999 15.116768550000002 8.48495349 -1.921469 -6.585177000000002 -1.617998
10480 -0.08981055 5.01008472 5.1380659799999995 -12.304387 -4.380718 -0.178609
10500 -6.48901089 -3.08208618 7.27682256 -2.820665 6.8266350000000005 1.556791
10520 -3.60944235 -10.11955455 11.08564335 0.7065779999999999 2.342194 1.337212
10540 -2.13500916 -14.037511590000001 14.52878658 -2.049594 5.777659 0.8093560000000001
10560 -2.43932517 -12.85407243 15.127687080000001 -2.965537 3.970493 -0.41143
10580 -2.6803274400000006 -7.51736376 6.62956857 -1.966041 -4.557778 -0.82615
10600 -1.11173787 2.52449559 1.57442652 0.296931 -7.921036 -0.877605
10620 1.96646355 12.294382500000001 -17.037870660000003 2.572174 -5.017005 -0.475532
10640 14.54585598 32.950083060000004 -32.292499140000004 2.985872 -0.7543350000000001 -0.42683
10660 8.259970950000001 8.62925859 5.01187995 3.297677 0.6351479999999999 -0.521504
10680 -0.89273943 -4.06734372 16.35259311 4.064617 -1.713611 -0.696872
10700 -11.44235457 20.181033900000003 -7.50374748 4.672529 -3.503051 -1.012935
10720 -17.055685620000002 22.619466360000004 11.14447392 4.864907 -1.844879 -1.32991
10740 -12.102930540000001 4.454289360000001 9.330546060000001 4.552291 -0.027807 -0.455276
10760 -8.85977397 8.30098656 14.36083938 4.507173000000001 4.569998 0.895159
10780 -4.396204350000001 17.59935582 16.6238298 2.8904810000000003 5.926142 0.420657
10800 -3.8007471600000002 32.530352400000005 15.07425201 3.06145 4.11256 0.925171
10820 6.56010396 52.21815912 -27.835217730000004 3.036194 0.701019 0.280956
10840 -6.35922459 29.09949129 -40.84466094 4.321167 -4.033791000000001 0.6794899999999999
10860 -2.0474451 17.19010224 -8.42508306 4.5126620000000015 -4.468158 -0.350518
10880 2.38738122 4.99316247 4.38348078 2.31767 -3.607005000000001 0.116951
10900 1.17086274 -1.76363199 0.18037647 0.292493 -2.25452 -0.15423299999999998
10920 3.7845802800000006 -6.605916659999999 -13.013484930000002 -1.892264 0.278324 -0.295585
10940 7.17682923 -1.92664476 -9.84876912 -3.769379 2.781899 -0.310836
10960 8.11866771 0.89229798 -11.70536067 -4.656532 4.082704 0.165204
10980 -1.87111035 2.5771949100000002 -7.385644890000001 -5.17938 3.0644240000000003 0.5869409999999999
11000 -4.0797631800000005 3.06457533 -1.56813831 -4.320966 4.090123 1.480384
11020 -4.74722577 7.43683347 -1.33881975 -0.126351 -0.116136 1.178583
11040 -2.51985546 12.045002490000002 -0.19788732 -0.25977 4.93639 0.781276
11060 0.33919056000000003 20.73996846 -3.05813997 3.805278 2.333961 1.24243
11080 2.6460513000000003 29.798385120000003 -3.9784258800000005 2.190327 4.986375 0.011046
11100 -5.625152100000001 37.733831460000005 2.58093252 -4.741331 0.687983 -1.7014939999999998
11120 -16.44225651 42.11252496 -0.46867275 -7.629366 1.05432 -1.832164
11140 -11.995609140000003 20.40841008 -1.66214754 -4.322805000000002 0.451041 -2.48341
11160 -3.7729063800000002 15.229328490000002 3.1184616600000004 -1.123339 -4.972419 -3.355692
11180 9.45254322 16.451085510000002 7.831862550000001 -0.294358 -7.379386 -3.148128
11200 10.19380644 14.18450463 4.30938585 -14.015304 -6.847942 -1.080432
11220 -5.40585936 0.33844500000000005 4.44605877 -2.528317 9.334774 1.449865
11240 -6.11014869 -3.9324758400000004 7.6393609200000006 1.306839 0.100114 1.8004080000000002
11260 -1.9981989000000002 -12.48568731 12.44871342 -1.6253030000000002 4.372619 0.427424
11280 -1.3593226500000002 -16.162190820000003 14.7383478 -3.0075990000000004 3.153479 -0.6542319999999999
11300 -1.60331697 -14.321314890000002 14.928602940000001 -2.245062 -5.352846 -1.023633
11320 0.25402014 0.99153594 6.53465682 1.185459 -7.329286 -0.7129909999999999
11340 0.8617594500000001 7.6273927200000005 -1.6407421200000003 2.569148 -0.365347 -0.372555
11360 11.455225290000001 30.421683090000002 -43.61330781 2.329379 0.732486 -0.048761
11380 9.48846744 25.29215181 -18.931877550000003 3.31658 -2.000364 -0.000976
11400 -3.0108361500000003 15.403269600000002 3.76167393 4.931996 -2.324362 -0.8288989999999999
11420 -8.344248660000002 9.82122264 16.44704379 5.551886 -0.295649 -0.940401
11440 -11.77990686 4.21223742 9.90026181 4.583889 -2.676925 0.79175
11460 -18.48835764 0.79110783 16.98907572 4.126799 -1.490936 1.369218
11480 -17.158219740000003 9.2085489 14.10831036 3.792318 3.810863 0.6144689999999999
11500 -9.98782587 16.84731141 9.96492933 3.548341 5.9379089999999985 -0.427204
11520 -5.06337264 27.446172750000002 14.551094520000001 2.964376 3.573075 0.8568180000000001
11540 -0.69859953 50.851655550000004 1.8541979100000001 1.885854 0.16306700000000002 0.741491
11560 11.9354346 40.536754470000005 -20.79535572 4.631334 -4.223883 0.795132
11580 0.04685256 17.628393420000002 -29.7425466 3.9494 -4.340846 0.001103
11600 2.35281078 8.964711540000001 5.0725057499999995 2.031382 -3.726227 0.07664800000000001
11620 1.59807843 -1.5425440200000002 5.46184503 -0.093177 -2.173229 -0.434769
11640 2.1764760300000003 -5.56512471 -8.414007569999999 -2.151501 0.591909 -0.701585
11660 8.6068035 -2.44740861 -18.09617346 -3.293457 3.669963 -0.629117
11680 9.93214431 2.1158502300000004 -11.212133490000001 -4.1322519999999985 3.724995 0.187485
11700 0.57001005 3.25019034 -2.68092585 -5.047544 2.903346 0.5282479999999999
11720 -3.54493179 2.223927 -3.53264967 -3.038261 3.640536 1.443986
11740 -4.547690370000001 6.54738039 -4.935685680000001 -1.196045 0.091426 0.816196
11760 -0.93555027 10.84824135 4.352795100000002 0.68599 4.567394 0.065169
11780 -0.07514459999999999 22.40764884 -1.32624333 2.872074 4.458844 1.869849
11800 1.74162816 32.00494842 -4.07243511 -1.279664 1.133127 -0.6726880000000001
11820 -4.42300527 29.74285071 1.92349575 -2.96333 2.662769 -0.78789
11840 -16.43656671 44.10652518 -0.16765290000000002 -4.186064 -1.31062 -2.145844
11860 -15.118406820000002 21.251157750000004 0.41433516000000004 -1.344708 -3.17203 -2.384258
11880 -4.500386550000001 16.38732051 4.49410815 -1.531575 -5.411492 -2.69141
11900 6.202951290000001 16.1783577 7.86778677 -2.370355 -6.293938 -1.86613
11920 11.52752499 15.6520512 5.0247506699999995 -12.133055 -3.2980120000000004 -0.423423
11940 -3.9908551500000002 2.51551944 4.92894621 -1.69412 5.948594 1.176952
11960 -7.458543 -5.14375578 6.97998177 0.723004 1.228896 1.078107
11980 -3.08239029 -11.753105940000001 9.636814260000001 -2.0972060000000003 4.1598510000000015 0.764095
12000 -0.8232846300000001 -15.730335 14.388228900000001 -3.168687 4.221202 -0.061726
12020 -1.11623085 -14.65183341 14.224470570000001 -2.284569 -3.409742 -0.7337060000000001
12040 -1.4611112100000003 -3.4167935700000003 6.696619920000001 0.8387389999999999 -7.24743 -0.63647
12060 -2.09519037 4.83913566 -0.12139875000000001 3.007367 -4.219043 -0.603838
12080 6.6943832400000005 24.40120761 -37.60210278 2.973539 -0.159929 -0.411655
12100 10.05354306 26.29851066 -21.926399670000002 3.2783010000000004 0.5109239999999999 -0.608007
12120 0.81280755 3.3501836700000003 11.33922204 3.995544 -1.667503 -0.712368
12140 -5.729932710000001 12.11295636 7.07653179 4.425374 -1.194215 -1.160762
12160 -12.88789731 22.79444733 11.980482120000001 4.72032 -0.045114 -1.067239
12180 -7.397465940000001 7.25511303 11.19282741 5.109103 -1.876903 0.337195
12200 -9.385334910000001 7.25870349 17.09415063 5.056136 1.416943 1.177567
12220 -4.63450887 11.79876168 13.27649103 3.404831 3.67918 0.048978
12240 -3.88486791 19.03531419 11.68829127 2.884921 4.376596 0.583905
12260 -4.798571310000001 35.54298378 7.954762230000001 3.220909 1.012004 -0.392201
12280 5.55180273 44.26429941 -29.832210000000003 3.253893 -5.362831 -0.098586
12300 -4.04967591 22.413642749999998 -29.10547539 3.854981 -3.582703 0.166114
12320 -1.90194318 15.83182926 -5.1741373500000005 1.721442 -2.503904 0.232082
12340 1.98846738 1.56139884 5.087770110000001 -0.568258 -0.894848 -0.035937000000000004
12360 2.67358797 -2.6866156500000002 -2.81265453 -2.37826 0.760879 -0.403215
12380 5.12354718 -5.660183610000001 -14.109212880000001 -3.419677 2.925503 -0.827734
12400 7.390726470000001 -1.7771011200000002 -11.29550868 -3.718157 2.630116 -0.226963
12420 4.61804769 2.73705867 -9.58980474 -4.388284 1.694001 0.287644
12440 -3.96136629 1.2656175300000003 -3.73877739 -4.582251 3.4290550000000004 0.791471
12460 -3.8580768000000005 4.032616320000002 -3.14226072 -1.572938 0.197633 1.222556
12480 -5.200781310000001 6.224955120000001 -3.11606802 -0.069408 2.22541 0.579913
12500 -2.9370453300000006 11.760895080000001 -0.29952873 3.154737 3.468544 2.321746
12520 1.63235457 23.06104389 -0.9906432300000001 2.697887 4.476578 0.5183770000000001
12540 4.0163022900000005 43.701323130000006 -5.156479350000001 -1.611689 3.849051 -0.519323
12560 -3.39464259 38.364771420000004 2.6144631000000005 -5.19258 -1.790055 -2.057189
12580 -12.02105628 30.18098493 1.27594746 -2.246725 -3.121594 -2.227186
12600 -12.63746763 17.71521192 0.7626686400000001 -1.461626 -4.333655 -2.696576
12620 -5.505254280000001 13.902486750000001 1.9263406500000002 -1.69993 -5.4103900000000005 -2.022812
12640 5.04914814 17.248334400000005 8.374787190000001 -8.867637 -10.181052 -1.04875
12660 7.465576770000001 13.257479250000001 4.3783992000000005 -6.199587 6.625875 0.8796950000000001
12680 -6.56265456 -0.89574129 3.9130128 -0.0418 2.777245 1.880493
12700 -6.57313164 -8.007598889999999 8.46804105 -1.222595 3.021872 0.871007
12720 -1.70704791 -13.93273098 11.630961630000002 -2.667693 4.124637 -0.057034
12740 0.5095412100000001 -15.28112529 15.32138553 -1.663499 -1.655623 -0.907873
12760 -0.8348113800000001 -12.26159748 9.1911852 -0.555837 -7.382775 -0.745382
12780 -2.06959608 -0.67509477 2.7324185400000003 0.988801 -6.171798 -0.42636
12800 -1.0870362900000001 6.90648525 -6.396198480000001 2.407246 -1.544792 -0.186304
12820 10.315793789999999 33.62862114000001 -39.492676169999996 3.43805 0.657704 -0.157357
12840 7.46587107 18.916760340000003 -9.89816247 3.887313 -0.556164 -0.682502
12860 1.6001679600000003 19.53407421 10.47820815 4.602 -0.729582 -0.824702
12880 -7.9766091 18.662887350000002 14.060712239999999 5.024265 -0.97389 -0.302284
12900 -8.371196730000001 6.37165386 9.349410690000001 4.809916 -3.253972 0.247139
12920 -14.531631480000001 -1.2088863 14.54000922 4.325777 1.886187 0.349333
12940 -14.984588610000001 8.51309838 16.50317661 3.785928 5.813823 -0.238447
12960 -7.21649106 12.26953377 11.147465970000002 3.62947 4.922208 0.6898880000000001
12980 -5.20048701 18.82724409 10.90781748 2.396296 -0.345337 0.366489
13000 -3.5654346900000005 36.90725067 2.99302119 4.433109 -4.4871919999999985 0.481096
13020 11.55462021 43.37620011 -22.924380780000003 4.130781 -4.265075 0.07597999999999999
13040 -2.17976238 21.67103556 -28.996947360000004 2.029719 -4.358784 0.290023
13060 -1.64732463 14.17178106 -2.48572647 -0.237591 -2.283197 0.01729
13080 1.72261638 0.88630407 2.39502321 -2.292655 0.492484 -0.490936
13100 -0.06122421 -4.57449129 -4.56041394 -3.826804 3.350527 -0.73605
13120 3.9974376600000006 -5.350020840000001 -13.22844165 -4.0474120000000005 4.072036 0.173746
13140 7.409895210000001 0.76461102 -11.377539900000002 -4.799381 3.872599 0.8823209999999999
13160 6.143522310000001 3.0876288300000003 -9.61959771 -3.569068 2.954673 1.593913
13180 -3.37263876 2.41193565 -3.72889872 -0.5909939999999999 -1.31786 0.8062050000000001
13200 -6.04143945 4.782708540000001 -3.7332347400000003 0.004463 3.3082300000000004 0.657021
13220 -4.91787072 9.34701705 -0.29578131 2.983886 4.889768 1.635069
13240 -0.67434921 20.416493520000003 1.02761712 1.225136 4.464944999999998 -0.356086
13260 2.60832204 40.10894037 -5.29284816 -2.516496 1.564404 -0.8923200000000001
13280 -0.7656606900000001 33.733696050000006 1.4668010100000002 -5.836315 -1.506169 -2.162462
13300 -11.15166465 37.705686570000005 0.19594493999999998 -1.993454 -2.643698 -2.077546
13320 -14.4460098 20.896094610000002 0.7937957700000001 -1.231267 -4.937918 -2.5670740000000003
13340 -6.32524275 16.09512966 2.74559337 -1.732249 -5.954525 -1.784127
13360 6.136792649999999 17.26555095 7.73232048 -11.202579 -5.60441 -0.145844
13380 13.77720324 17.04415887 3.97139211 -6.010341 6.764898 1.6456849999999998
13400 -2.75756157 3.55675284 4.40848647 0.609287 1.171764 1.876416
13420 -7.0325241300000005 -3.7791945900000004 7.57080864 -2.529566 4.011401 0.43439
13440 -4.64215086 -12.219993270000002 9.40987953 -2.681727 3.125401 -0.30902
13460 0.46613196000000007 -14.026877550000002 16.49764377 -0.622297 -2.653879 -0.456009
13480 0.41598324 -12.256211790000002 13.277393550000001 0.832369 -5.932388 -0.753567
13500 -1.35558504 -4.898417490000001 4.845423870000001 1.951836 -3.100193 -0.83163
13520 -2.9111469300000006 4.204458090000001 -1.3162175100000002 2.30023 -0.523511 -0.28022800000000003
13540 6.96277503 28.643836410000002 -45.18369261 3.063242 -0.085895 -0.355575
13560 8.048163240000001 23.46879654 -18.47637963 3.796857 -1.965066 -0.718716
13580 1.9237998600000001 8.39679102 11.0504745 4.29632 -1.993401 -1.257848
13600 -9.68530509 22.68188739 2.1547665 4.582141 -0.203324 -1.342535
13620 -9.72377991 12.088117440000001 7.830518580000001 4.847314 -0.726144 -0.565552
13640 -9.22037976 2.0240874900000003 10.405908450000002 4.955078 1.673995 0.653103
13660 -13.36990185 6.634954260000001 20.670817770000003 3.944567 3.991047 -0.087588
13680 -5.1364179000000005 12.132566549999998 14.144087430000003 3.558382 4.353155 0.268173
13700 -1.6429788 17.120647440000003 12.64196061 2.746184 1.433846 0.020549
13720 -0.69350814 34.23590919 10.83446811 3.169379 -3.733695 0.158314
13740 9.36407664 47.930924250000004 -20.064275280000004 4.30187 -4.9631370000000015 0.004362
13760 -7.98634062 29.86589754 -42.62281173000001 2.523472 -3.919423 0.543941
13780 -3.4624493100000002 18.07371837 -8.20878237 0.793432 -2.592715 0.33574
13800 -0.72598905 5.657034600000001 -0.004640130000000001 -1.256214 -0.59532 -0.018694
13820 1.14751494 -2.8120561200000003 -3.5950707000000004 -3.274159 1.52572 -0.418999
13840 4.81309011 -5.71840596 -13.55431023 -3.35314 3.448803 -0.149619
13860 7.5137733 -0.34143705 -10.922787540000002 -3.651718 4.120529 0.490505
13880 5.46902595 2.46821562 -5.821097040000001 -4.381532 3.660846 0.993401
13900 -2.7445437000000004 1.4910513300000003 -3.4763697000000002 -0.555882 0.795967 1.7598
13920 -5.943094200000001 2.87806761 -3.8583809100000006 -0.044047 1.455033 0.337522
13940 -6.81413391 6.2563863600000005 -2.30041557 2.844822 4.421068 1.484079
13960 -2.67389208 13.55026851 -0.6837766200000001 -0.538441 2.0089360000000003 0.509616
13980 1.67860872 24.64953795 -2.15866107 -2.14721 3.082795 -1.305088
14000 4.10147271 34.154770680000006 -3.6416289600000002 -4.33108 1.034229 -1.000455
14020 -3.82499748 36.22677021000001 3.60974646 -4.067993 -1.882682 -1.447806
14040 -10.93041972 32.01571980000001 1.8363829500000002 -1.308404 -3.611275 -2.593882
14060 -8.84750166 18.81467748 -0.63378486 -1.514209 -6.162995 -2.319653
14080 -1.4154554700000002 15.962802570000001 1.6762150800000002 -4.378007 -7.127153999999999 -0.6175149999999999
14100 10.4783553 19.04190651 5.201085419999999 -12.386524 5.1359309999999985 0.555309
14120 7.666161840000001 13.4022258 3.7862283600000004 0.016316999999999998 2.76615 2.4727080000000004
14140 -6.960822840000001 0.31734369000000007 5.15273193 0.184975 -0.626355 1.429239
14160 -6.6202784999999995 -4.859648370000001 6.15894363 -3.189464 1.589889 0.508727
14180 -1.9050921900000002 -11.40148611 9.04224978 -2.202312 -0.427263 0.332336
14200 0.80847153 -15.07125996 13.2832305 0.522796 -4.605652 -0.33655
14220 -0.8559225 -11.04103728 11.9499534 1.7031900000000002 -3.694607 -1.416923
14240 -2.05029 -0.37661571000000005 4.54050945 1.669707 -1.767884 -1.297848
14260 -1.7793476099999999 6.6226819500000005 -4.327504920000001 2.159319 -1.7141650000000002 -0.505081
14280 8.805289230000001 29.992230720000002 -44.94778173000001 4.128114 -2.091901 -0.722649
14300 7.949670840000001 13.940216010000002 -5.625603360000001 4.423653 -1.586194 -1.169886
14320 0.48723327000000005 -1.02491937 19.447412670000002 4.277529 -0.139095 -1.1567379999999998
14340 -9.28953045 20.803135049999998 0.30117681 4.376208 0.936669 -0.669249
14360 -10.405614150000002 16.80405912 5.96524518 5.068325 0.363838 0.256058
14380 -8.17345656 6.949296090000001 8.437051259999999 4.901378 3.141421 0.298334
14400 -9.6508818 8.469983430000001 16.328489940000004 4.20731 6.0512690000000005 0.488447
14420 -5.0663646899999994 11.4640641 13.916858399999999 3.343582 1.366263 0.68497
14440 -3.86675865 18.400489470000004 11.095678979999999 3.4157040000000003 -2.423481 1.027888
14460 -2.87941158 37.391040630000006 8.61428853 4.096062 -5.153094 0.267019
14480 10.057731930000001 45.1224684 -17.68632147 2.614566 -4.66069 0.42375
14500 -3.17729223 24.762402 -40.73060007 0.980261 -3.261359 0.35285700000000003
14520 -1.7527036500000002 14.925758040000002 -6.73479063 -0.7241029999999999 -1.297451 -0.184993
14540 -1.9432629 2.4692652900000005 -0.053739180000000004 -2.555921 0.5920810000000001 -0.926601
14560 -1.73729214 -4.4506989 -5.43744756 -3.616929 3.4428970000000003 -0.574469
14580 2.96892783 -4.70785824 -12.604692420000001 -3.758029 4.92621 0.499412
14600 5.09899275 -0.12020193000000001 -7.18655094 -3.745381 4.219945 1.017425
14620 3.39464259 1.48505742 -2.5523461800000002 -1.33944 1.967909 1.60541
14640 -1.61245008 3.54073311 -4.8539585700000005 -0.906768 2.427809 0.507575
14660 -5.698354320000001 5.89160151 -7.01635725 1.163062 2.963805 0.8033560000000001
14680 -5.382511560000001 5.77633401 -3.7145270700000004 2.142918 2.6177740000000003 -0.356923
14700 0.25581537 12.89672631 -0.54591669 0.390022 4.4254190000000015 -0.935504
14720 4.421955600000001 21.10461597 -2.13411645 -5.591381 0.80766 -2.120987
14740 4.185897570000002 31.346010720000002 -2.6725383000000003 -5.621028 -0.8631969999999999 -1.703515
14760 -5.315891850000001 38.699321850000004 1.2162241800000002 -2.101518 -3.999124 -2.417327
14780 -12.25291563 30.703848120000004 2.35385064 -0.8585010000000001 -6.5943 -2.654214
14800 -7.994875320000001 19.48527927 -4.88733219 -3.439941 -7.236677 0.6486109999999999
14820 4.66055442 19.35086265 0.80547948 -15.322651 1.969169 1.425482
14840 12.56756157 18.87440076 4.39995177 -1.504443 5.783930000000002 2.495606
14860 0.8746301700000001 6.66189252 3.95343 0.533752 -0.255457 1.347879
14880 -7.25421051 0.21151341 3.9421975500000004 -2.346175 2.940546 0.338766
14900 -6.0378489900000005 -5.491628189999999 5.443284510000001 -2.621241 0.507541 -0.242218
14920 -3.1457040300000005 -11.580969870000002 8.65844334 -0.432113 -6.039272 -0.102102
14940 -0.55190079 -15.029498790000002 14.89881978 2.893677 -3.727204 -0.691788
14960 -1.8658718100000002 -8.87130072 10.85647194 2.939721 -0.28154 -0.606151
14980 -0.91504737 3.1626262800000005 2.41987194 2.476004 -0.624933 0.154828
15000 0.29697813 10.141862490000001 -12.68911728 3.3729690000000003 -2.679414 0.06758600000000001
15020 11.57722245 24.497757630000002 -28.0531665 4.71517 -3.26026 -0.760848
15040 6.286179330000001 12.92906007 -3.9830660100000004 4.13943 -0.751017 -1.190033
15060 -8.044121520000001 23.9582763 4.01315328 4.036646 0.084651 -1.223868
15080 -9.218731680000001 11.42140041 11.76852726 4.5777519999999985 1.005174 0.138578
15100 -7.37411814 -1.0985630400000002 7.4226187800000005 4.161921 4.20743 -0.04255
15120 -14.595396480000002 6.1929254700000005 13.96071891 3.878919 4.973992 0.311277
15140 -10.475216099999999 12.683721779999999 14.251860090000001 3.4221220000000003 0.377831 -0.21693
15160 -3.54163563 16.85060757 13.42139454 3.500103 -3.099639 0.083968
15180 -1.04063499 30.55670793 15.71791554 4.137834 -4.175393 0.020367
15200 6.77536479 48.89133306000001 -8.8385157 2.256351 -3.339871 0.498604
15220 -0.15732297 38.82296709 -31.856003190000006 0.628354 -2.491198 0.133632
15240 -3.59447229 19.14803109 -27.59676606 -1.331207 -0.177738 -0.48443
15260 0.07873506000000001 9.45149355 1.63086345 -3.128552 2.287987 -0.959479
15280 0.24653511000000003 0.32302368 -0.34533162 -3.745096 3.5026330000000003 -0.483574
15300 2.43767709 -6.5689427700000005 -13.40582607 -4.135438 3.401632 0.33636
15320 8.62087104 -2.37675699 -15.13083609 -4.1193019999999985 4.169969 1.318252
15340 5.377420170000001 2.18006649 -4.8478175100000005 -0.691619 2.013819 2.0830990000000003
15360 -0.45610614000000005 1.68998832 -2.52120924 -0.969131 3.461636 0.700231
15380 -3.2882139 3.6597382200000004 -2.98374093 2.7421 0.976324 0.951529
15400 -6.582559050000001 6.45412653 -6.10176114 2.880917 3.851431 -0.480467
15420 -2.5050423600000005 9.076525920000002 1.42908156 -1.997951 2.431271 -0.742394
15440 0.22363857000000004 20.085533549999997 -0.88914897 -7.528245 -0.46399 -2.112591
15460 2.05821648 34.07993019 -3.0542454 -5.880081 0.8611409999999999 -1.925451
15480 -3.63698883 36.294871230000005 1.55691567 -2.238779 -2.236973 -2.876674
15500 -9.1043667 33.42459276 2.2799126700000008 0.503216 -5.801699 -3.842127
15520 -11.06259966 19.52539236 0.6993450900000001 -7.146814 -8.581602 -1.326131
15540 -1.69207785 16.33417974 2.0550772800000003 -12.266293 7.138912 1.44982
15560 12.859605270000001 19.48752576 5.2913472299999995 0.494627 2.623057 3.209032
15580 4.6768782600000005 10.064020140000002 2.69798544 -2.388801 3.491617 1.358983
15600 -7.14329865 1.0532114099999998 4.41147852 -2.819989 1.395799 0.241296
15620 -6.464309310000001 -5.59087596 6.260428080000001 0.389624 -5.041827 -0.101913
15640 -1.8526969800000002 -12.907056240000001 10.246643100000002 1.327109 -4.61832 -0.795592
15660 -0.29233800000000004 -14.93684334 13.052254049999998 1.832569 0.706838 -0.396166
15680 -0.52076385 -9.06904089 10.015676460000002 2.189409 1.773413 0.5663600000000001
15700 1.1931706800000002 3.4317636300000003 3.3967321200000002 2.783851 -1.415494 0.185765
15720 1.73638962 9.877953869999999 -8.697663720000001 4.468238 -3.3267839999999995 -0.960109
15740 11.491904880000002 28.110348990000002 -35.257081140000004 5.1270370000000005 -2.491061 -1.6669459999999998
15760 6.3381232800000005 14.7844548 -3.7238073300000005 4.832976 -1.663161 -0.92551
15780 -5.819743260000001 19.765501920000002 7.1200980000000005 4.464139 -0.8666959999999999 0.28225700000000004
15800 -10.04306598 11.482624620000003 12.311294940000002 4.604674 4.303717 0.5351229999999999
15820 -11.62258389 1.6512192 11.86567569 3.855146 7.410792999999999 0.203303
15840 -17.59051701 5.67709605 14.21533746 4.115832 3.079364 0.780036
15860 -16.25888799 5.90671872 13.865816970000001 3.009807 -2.599686 0.955844
15880 -9.06949215 12.792102660000001 9.887842350000001 6.42464 -5.760823 0.24347
15900 -6.23139048 29.208460770000002 15.10598736 5.356616000000002 -6.712703 0.25111700000000003
15920 4.83569235 60.84352314000001 -6.35429016 3.289305 -4.947918 0.27287100000000003
15940 12.931904970000001 41.51616525 -30.693518190000006 0.869509 -1.611913 -0.183073
15960 0.86355468 16.96078368 -33.49749087 -1.994096 2.724788 -0.354979
15980 1.69207785 9.38203875 4.8937773600000005 -3.801648 4.630343 -0.06453500000000001
16000 -1.25723979 -2.5147738800000004 -2.75652171 -4.610329 4.4107949999999985 0.660762
16020 3.6241181100000004 -6.841670580000001 -12.524309279999999 -4.96506 3.82643 1.382219
16040 6.308477460000001 1.7973097200000003 -12.88026513 -3.362272 2.465842 1.382339
16060 3.8411643600000005 3.45032415 -3.73248918 -1.744474 1.277884 0.8236629999999999
16080 -0.21840003000000002 2.90275938 -4.87940571 0.600054 4.866482 0.735028
16100 -4.3602801300000005 4.810843620000002 -6.57567243 2.109351 0.569634 -0.15798
16120 -4.75785981 5.79474738 -3.8407131000000003 0.569743 4.01334 -1.934645
16140 -1.38895866 11.62362375 1.01009646 -5.779146 1.30816 -1.381594
16160 0.78915564 23.42089431 -4.321216710000001 -6.8990649999999984 -1.750323 -1.191081
16180 2.54979558 28.536662160000002 -3.89205864 -3.606224 -0.749104 -2.410637
16200 -4.065244379999999 33.929945100000005 0.64111293 -1.797207 -3.302364 -2.964092
16220 -12.148890390000002 37.19585106 0.8599642200000001 -2.201842 -6.237061 -1.318096
16240 -8.96530995 21.480329160000004 -3.47397606 -15.704995000000002 -0.5113270000000001 -0.504287
16260 5.206471110000001 18.1566423 4.27974984 -0.33562 5.228448 1.335847
16280 14.38987698 19.73765133 4.70396367 -0.549009 2.122808 1.078758
16300 3.51154836 14.02763292 4.61206359 -3.565874 4.777948 -0.151739
16320 -8.02929861 2.8038157200000002 10.14574725 -1.772691 -2.644836 -0.388212
16340 -6.090087240000001 -7.95235878 12.96753489 0.54113 -7.779706 -0.469087
16360 -4.10730966 -16.718280480000004 18.17041554 2.745777 -1.832989 -0.070339
16380 -3.0359889900000003 -16.62712596 15.0970014 2.963023 1.331797 0.5766020000000001
16400 1.55466918 -5.7829263300000004 10.2990285 3.5334769999999995 0.074898 0.583266
16420 2.22182766 3.83891787 2.21958117 4.100993 -4.886316000000001 0.14813900000000002
16440 0.8258352300000001 10.629694170000002 -11.46076794 4.950188 -3.530409 -1.3378370000000002
16460 13.99903677 27.053243010000003 -34.93150686 4.299564 -0.082426 -1.494214
16480 5.04331119 13.01587857 -1.793268 4.718568 0.8081699999999999 -0.533166
16500 -9.958641120000001 19.72343664 -2.5743500100000003 5.2566169999999985 2.322994 1.394656
16520 -9.889333470000002 13.0375881 12.76485048 4.28911 4.974189 0.439124
16540 -8.522378640000001 7.027432740000001 10.312056180000003 3.832795 2.869038 0.8755370000000001
16560 -14.687610480000002 3.49762797 15.888256380000001 3.244354 -1.000578 0.454438
16580 -10.63763046 8.85453543 15.684983370000001 5.176781 -6.940836 -0.084201
16600 -6.780603330000001 14.460675750000002 12.921732 3.456205 -3.696535 0.473259
16620 -5.36005647 34.417776780000004 16.299305190000002 1.610292 -3.177209 0.07514
16640 5.210659980000001 61.74330615 -11.89007316 -0.56142 -1.200052 -0.440355
16660 -0.88600977 31.35604635 -43.55328042000001 -2.894954 2.046609 -0.473634
16680 -0.9090632700000001 14.821575840000001 -12.70677528 -3.947456 4.476151 -0.538578
16700 1.2686095800000001 3.3715890900000005 9.05662143 -4.493258999999999 3.932571 0.006304
16720 1.50990615 -4.865779620000001 -4.2511635000000005 -5.362846 2.747013 0.735618
16740 8.053705890000002 -4.293974340000001 -15.700404690000001 -2.496207 4.393828 1.471376
16760 12.41233794 2.1921916500000003 -16.30679022 -0.608887 -0.653828 0.464466
16780 2.32376337 5.03941662 -5.40899856 -0.041338 3.3210800000000003 0.414199
16800 -2.6144631000000005 0.9485779500000001 1.26681435 3.327439 5.412506 1.6816650000000002
16820 -6.96067569 5.80926618 -9.73351143 1.426901 3.489837 -0.169693
16840 -5.788459169999999 8.86591503 -4.43917215 -1.621583 2.811164 -1.497621
16860 -0.26764623000000004 13.30552863 -0.26958861 -6.028727 -1.879415 -2.694234
16880 3.2717429100000004 27.816510060000002 -1.9002951000000001 -3.471381 -2.207428 -2.537082
16900 2.5276446 40.351139460000006 -1.2567885300000001 -1.875177 -5.525162 -3.2705040000000003
16920 -5.5917686699999996 41.852962170000005 1.5467328900000001 -1.239118 -5.328464 -2.3967810000000003
16940 -10.83925539 28.632908070000003 1.8612316800000002 -13.82699 -4.458434 -0.469019
16960 -6.16253409 17.40999339 -1.6197781500000001 -4.6732510000000005 8.555802 1.242533
16980 7.30062162 17.233060230000003 7.8317154 -0.5076649999999999 2.765397 1.784318
17000 12.82143456 15.367796640000002 5.868999270000001 -3.658979 4.793932 -0.07229400000000001
17020 -7.0480926 0.45056349000000007 7.3627385400000005 -1.024153 -3.2851449999999995 -0.218725
17040 -8.067469319999999 -6.227652870000001 11.014393320000002 0.834809 -7.153855 -0.856671
17060 -3.24420624 -13.46584365 15.236666370000002 1.6541709999999998 -0.316287 -0.658884
17080 -3.4777136700000004 -15.94993185 15.35132565 2.331705 3.416007 0.458426
17100 -4.02647526 -11.48951124 11.63126574 2.33362 -0.583386 0.5436810000000001
17120 -1.59238863 1.3424102100000002 4.618646100000001 3.935442 -4.620029 -0.498565
17140 1.07581365 7.740551070000001 -1.6913322899999998 5.270487 -3.713807 -1.57251
17160 11.887081109999999 27.43868772 -37.521876600000006 5.4526629999999985 -0.814137 -1.461722
17180 6.6515724 22.913452440000004 -18.18373752 4.946146 -1.532325 0.62083
17200 4.82715765 4.7834541 5.990093910000001 5.465488 -1.258257 1.428478
17220 -4.76159742 15.248340270000002 2.7403548300000002 4.988992 4.054429 0.471897
17240 -11.37335103 19.14353811 8.60590098 2.972368 5.938464 0.7309979999999999
17260 -10.50979635 1.8839810700000001 7.247628000000001 2.42406 1.7614150000000002 1.763354
17280 -17.13456783 5.306611590000001 17.30147517 4.527133999999998 -4.153069 1.025049
17300 -11.61868932 8.127643860000001 15.015872700000001 4.93227 -4.758765 -0.235051
17320 -6.449192100000001 16.172667900000004 16.81962759 3.079622 -4.779111 0.33101
17340 -3.43505979 44.14829616 20.0421243 0.8799040000000001 -3.245376 -0.093313
17360 13.40372673 59.10548544 -36.94931595 -1.261641 0.286717 -0.543291
17380 -3.95163477 29.513973600000003 -58.07443482 -3.016157 3.92239 -0.592252
17400 0.0113796 14.765590170000001 -1.2955576500000001 -3.866924 5.237914 -0.364871
17420 1.02461526 0.8408052900000001 1.8651262499999999 -4.969273 3.3243120000000004 0.149037
17440 2.8035214200000005 -7.990980750000001 -12.94642377 -5.060946 2.923017 0.6819529999999999
17460 9.34865532 -0.22228479 -16.66678779 -0.006514 1.4323860000000002 1.7040689999999998
17480 7.5637748700000005 4.47015213 -6.87984129 -1.333238 2.537659 0.313243
17500 0.6631167600000001 1.93681773 -4.01525262 1.879496 6.828593 0.989279
17520 -3.71797038 2.84618511 -5.70493683 0.738525 2.3585700000000003 0.412334
17540 -2.6363197800000004 6.43407489 -7.15152924 -1.7373299999999998 2.720587 -2.188385
17560 0.69905079 9.596995470000001 -1.0000706400000001 -4.008163 -0.428316 -2.629637
17580 2.89976733 18.312464340000002 0.28575549 -4.240817 -3.476432 -2.337868
17600 4.9849318799999995 33.54314661 -3.58983216 -2.6040400000000004 -5.69976 -2.932472
17620 1.10695059 33.33328128 1.1394315000000002 -2.476097 -5.8409559999999985 -2.100321
17640 -10.81112031 45.74248002000001 2.6783850600000005 -10.905815 -4.956828 -1.440354
17660 -14.300213580000001 25.93267614 0.8089129800000001 -4.244467 6.9845880000000005 1.120423
17680 -5.322935429999999 19.89932013 0.7367702399999999 0.25208600000000003 2.423567 1.893681
17700 8.61922296 17.653536450000004 7.74250326 -3.558264 6.2002 -0.185555
17720 8.53974234 10.290650759999998 5.47875747 -1.6979669999999998 -1.149806 -0.5647939999999999
17740 -6.93972153 -0.32796792 7.99576803 0.482686 -6.870667 -1.040023
17760 -7.02025182 -7.3805535 11.267667900000001 1.6742830000000002 -4.372875 -0.405717
17780 -3.66528087 -14.76768951 16.64418555 2.101344 0.712526 0.344914
17800 -4.350999870000002 -15.28531416 16.04977803 2.708471 0.7603439999999999 0.38114
17820 -4.358632050000001 -11.096424540000001 12.56502078 3.603301 -2.75671 0.016951
17840 -0.7198578 1.5443392500000002 5.1162093 4.719215 -3.740998 -0.955689
17860 1.3385156400000002 9.457036200000001 -3.17190654 4.915147 -1.423015 -1.643089
17880 13.95293958 30.40417224 -36.63496431 4.871511 -0.425426 -0.664044
17900 11.7245196 19.83794877 -11.12801274 5.317311 -0.713886 0.754833
17920 1.4316223499999998 -0.71281422 12.124041660000001 5.317696 2.804497 1.342122
17940 -6.86412567 12.970978200000003 1.8652734000000002 3.899781 5.139855000000002 0.10718
17960 -13.608206370000001 21.049974270000003 7.765998210000001 3.5766720000000003 2.477512 0.973594
17980 -14.028976890000001 4.5432072 10.06521696 3.1254 -3.235191 0.473562
18000 -12.513223980000001 5.22473733 15.270648210000001 4.406466 -4.3926440000000015 0.569451
18020 -7.14853719 15.26929443 16.42159665 2.53812 -3.144356 0.910519
18040 -3.8799334800000005 26.305544430000005 18.56858382 0.693004 -3.304207 0.128716
18060 -0.43529913000000003 55.69722657 6.62776353 -1.37628 -1.496099 -0.5578310000000001
18080 -1.25708283 39.63143862 -45.887530680000005 -2.726477 2.115752 -0.86031
18100 -1.12192065 17.61656256 -21.003720120000004 -3.212229 4.234154 -0.332307
18120 0.66267531 7.729779690000001 7.473061800000001 -4.369202 3.246481 0.443884
18140 1.07940411 -5.52022434 -5.09345991 -5.628845 3.2524490000000004 0.8420700000000001
18160 8.93327049 -5.87768112 -12.67788483 -0.908768 3.408303 1.463431
18180 11.428139880000002 0.18336852 -16.32161313 -0.902803 2.071029 0.216435
18200 6.505619220000001 4.64424039 -4.467905640000001 1.655107 7.11755 1.116596
18220 -2.08052442 1.73743929 -0.88750089 1.082598 2.323275 1.213812
18240 -6.436762830000001 4.19443227 -8.4565143 -1.173474 2.453233 -1.620083
18260 -6.3191115 8.00729478 -5.85357795 -4.382377 -1.231646 -2.543627
18280 -1.6890858000000002 11.330088929999999 -0.08861373 -3.659359 -2.29056 -2.0981810000000003
18300 2.3523595200000003 23.24785572 -2.08186839 -1.744521 -5.233398 -3.0873
18320 6.30219906 41.59729395 -3.2744406600000002 -1.429327 -5.151104 -2.629073
18340 -2.59650099 37.188071730000004 2.17123749 -11.494263 -9.874177 -1.720174
18360 -11.15824716 38.83195305 1.99011546 -3.889856 7.204405 1.252941
18380 -12.544812180000001 21.492454320000004 0.6974027100000001 -0.35128000000000004 3.658553 2.067345
18400 -3.0449651400000004 17.90367183 6.39215676 -3.663107 7.824375999999999 0.795463
18420 16.26278256 15.63813081 9.7032672 -2.668078 1.30842 -0.415555
18440 -0.54740781 4.38648264 4.490664840000002 -0.5566270000000001 -6.959402000000001 -0.8591620000000001
18460 -8.7630768 -4.15266129 7.47770193 1.186232 -9.816515 -0.761073
18480 -5.23072143 -10.60634637 11.328744960000002 2.316994 -2.404347 -0.670806
18500 -2.41358373 -15.02006157 16.0277742 2.617976 2.707523 -0.5684319999999999
18520 -2.7140051700000005 -14.51591586 15.72614613 3.022443 0.927792 -0.472527
18540 -3.5833968 -7.03627155 9.008415090000002 4.442604 -2.833571 -0.935283
18560 -2.12947632 3.9448953 2.5355808900000003 5.464685 -2.356077 -1.882678
18580 3.26411073 18.89176446 -24.80596821 5.221053 -1.795144 -0.7570560000000001
18600 13.763724300000002 33.334478100000005 -28.607460930000002 5.017219 -1.821311 0.8994340000000001
18620 7.12757322 5.78053269 5.6853266399999995 5.345139 2.936654 1.3026209999999998
18640 -2.45474649 7.742052 16.840130490000004 3.946004 5.109125 -0.23963
18660 -12.91513968 27.54407655 1.60915392 3.517964 3.51682 0.592634
18680 -9.95804271 8.05595238 8.9685963 3.435688 -0.534405 0.12723299999999998
18700 -15.531103710000002 2.47465098 17.38035738 4.822896 -5.844692 0.228117
18720 -9.73889712 7.803717659999999 16.78954032 3.173853 -3.649489 0.674189
18740 -6.584207129999999 18.18777924 15.036679710000001 1.518178 -3.5472839999999994 0.260841
18760 -8.287066170000001 41.02788231 14.524744860000002 -0.498965 -1.102033 -0.231741
18780 7.96583772 49.499513820000004 -39.28250673 -2.360154 1.533825 -0.5739270000000001
18800 -1.9597240800000002 24.38444232 -34.92717084 -3.640451 4.0507800000000005 -0.190853
18820 0.75982374 11.798310420000002 1.60361127 -4.556323 3.80346 0.379907
18840 1.5834026700000001 1.3594698 1.7548029900000002 -5.372503 2.891185 0.65418
18860 3.86001918 -6.20594334 -9.47244771 -1.2484 4.998949 1.710052
18880 9.5640633 -1.70435997 -12.82907655 -0.7434189999999999 -1.300339 0.553017
18900 10.82413818 2.91518865 -14.289285240000002 0.643273 4.697165 0.682136
18920 -2.39876082 1.5786153900000002 -2.7087666300000004 2.856923 6.628537 1.951353
18940 -4.68001746 0.02694807 -1.79132562 -0.663539 3.817565 -1.192048
18960 -4.6009782900000005 5.67889128 -6.70754826 -4.333149 0.847448 -1.441406
18980 -1.3208576400000003 8.93342745 -0.37391796 -5.108484 -2.136185 -1.885242
19000 1.78548867 15.917598089999998 -1.3675532400000001 -2.38658 -4.123839 -3.214984
19020 3.8636194500000003 31.10007402 -4.92461019 -1.553743 -5.22055 -3.2686490000000004
19040 3.8032879500000005 32.77479798 -1.16293626 -3.0579240000000003 -6.428532 -1.178552
19060 -8.89749342 42.69526839 2.4620843700000004 -14.214622 1.719593 0.8075640000000001
19080 -17.95291803 32.360757119999995 -1.5518242800000004 -0.263616 4.104873 1.999019
19100 -8.45022609 18.703304550000002 0.44157753 -2.494873 5.694198 1.287053
19120 3.5381923200000003 16.365767940000005 6.34350897 -3.04347 3.776773 -0.117966
19140 18.61693731 15.977174220000002 5.920786260000001 -0.291045 -4.441488 -0.457813
19160 -5.570667360000001 1.7479163700000002 7.27996176 0.550922 -8.313147 -0.809098
19180 -6.13079874 -3.60226143 10.2930444 1.820366 -2.467812 -0.619714
19200 -4.18110048 -11.739783959999999 13.23862443 2.406985 2.4393130000000003 -0.179661
19220 -1.8685597500000002 -16.2999036 16.75061424 2.656805 0.992041 -0.239087
19240 -1.4153083200000003 -15.57361044 14.86124748 3.900012 -2.99658 -0.726288
19260 -1.13149521 -1.57308255 6.24157326 4.9344199999999985 -3.168561 -1.503985
19280 -0.60803361 6.280940790000001 -0.67284828 5.176901 -0.195391 -1.444144
19300 8.495136270000001 27.69076548 -38.433176550000006 4.889424 -0.504609 0.738758
19320 6.901246710000001 27.307263150000004 -23.123013659999998 5.619726999999999 -0.925205 1.389604
19340 3.30916806 3.22938333 10.97801784 5.0343550000000015 2.798021 0.278339
19360 -2.8458810000000003 9.09793134 10.702141020000001 3.583171 4.24284 -0.13743699999999998
19380 -14.635666529999998 24.29223813 7.62783417 2.839871 2.204693 0.8406110000000001
19400 -14.590157940000001 4.4599791600000005 9.703718460000001 3.515207 -4.695372 0.5903189999999999
19420 -15.43245435 2.20252158 20.209473090000003 4.3078379999999985 -4.857335 0.446512
19440 -7.4182729499999995 11.018582190000002 14.396616450000002 2.469051 -3.844864 0.8596590000000001
19460 -4.59858465 22.628295360000003 17.54666631 0.529575 -2.881644 0.357769
19480 -2.3246658900000003 52.40826711 11.910428910000002 -1.430504 -0.682171 -0.25908200000000003
19500 8.367302160000001 45.19880982 -34.793499780000005 -3.126126 2.265115 -0.5706
19520 -3.26441484 21.70890216 -35.03928933 -3.449188 4.333553 -0.209107
19540 -0.08921214 11.08594746 4.40189415 -4.342452 3.833927 0.301245
19560 0.30790647 -1.14766209 -1.4424035400000002 -5.360624 3.470361 0.727229
19580 4.7114487 -7.181018100000001 -11.32320231 0.226767 1.939141 1.581136
19600 9.37545624 -1.78578297 -14.45813496 -0.461082 1.143918 0.71209
19620 6.31552104 5.478610320000001 -8.486003160000001 3.905609 6.4813839999999985 1.345707
19640 -3.3187524300000004 1.0412334 -3.2482479600000005 1.732891 4.818543 0.020885
19660 -4.70142288 1.55541474 -3.6473187600000005 -2.4089970000000003 4.545302 0.014736
19680 -3.1609782 6.962019659999999 -3.81646278 -7.5432190000000015 -1.088685 -2.255036
19700 -0.46986957000000007 8.61144363 -1.28312838 -5.285541 0.264324 -2.108541
19720 2.1055203 15.749199630000001 -1.4923952999999999 -1.887705 -2.558773 -3.6910000000000003
19740 4.712498370000001 31.314285180000002 -2.87986284 -0.132163 -7.340041999999999 -4.068921
19760 4.30789473 33.5223396 -2.13515631 -7.706484 -12.578887 -2.34507
19780 -8.835523649999999 45.74607048 1.19422035 -7.958774000000001 7.769996000000001 0.8029149999999999
19800 -15.664627620000001 31.55947632 0.07679268 -0.370434 2.431737 2.254654
19820 -5.7869680500000005 18.45827037 1.6093010700000001 -2.313527 4.373142 1.158621
19840 5.9360604299999995 14.93220321 7.471266570000001 -2.345584 1.700133 -0.085861
19860 16.788490650000004 13.94065746 6.7994581499999995 0.383524 -3.507245 -0.7747649999999999
19880 -5.73277761 -0.25356888000000005 7.619005169999999 1.120457 -5.0275940000000015 -0.564707
19900 -6.712492500000001 -5.168898810000001 10.0676106 1.728066 -0.507791 0.279777
19920 -4.20161319 -12.767999490000003 12.7136619 2.122183 1.117093 0.386202
19940 -3.4670894400000005 -15.87194235 14.94581949 2.885507 -1.272451 0.023922
19960 -2.8994730300000002 -12.92921703 13.768364430000002 4.416347 -4.444963 -0.738985
19980 -2.13935499 -3.25707696 6.21612612 5.002997 -4.084805 -1.536515
20000 -1.601973 5.50315494 -0.09564750000000001 5.049112 -1.204267 -1.318762
20020 9.10137465 29.457095220000003 -42.384360060000006 5.414377 -0.5535140000000001 -0.27232399999999995
20040 9.73440414 29.562778350000002 -23.4780768 5.944161 2.018856 1.465009
20060 5.250478770000001 10.10129814 11.71404252 4.690022 4.576721 -0.14402
20080 -6.41939913 14.80076883 8.077652100000002 3.842242 4.615467 0.756929
20100 -10.085278409999999 8.38541142 9.45493686 3.5738300000000005 -1.293561 0.443228
20120 -15.21855711 4.09279086 10.523265480000001 4.899192 -5.63556 0.077762
20140 -18.69866442 3.44434005 21.132309600000003 3.530529 -4.431 0.531335
20160 -11.22036408 13.84156665 12.325970700000001 1.718646 -4.205571 0.339997
20180 -7.03297539 20.74819905 12.09529836 -0.862915 -1.229168 -0.090978
20200 -5.56437915 48.808105020000006 14.00981796 -3.195255 1.5179790000000002 -0.4163020000000001
20220 15.12035901 52.349887800000005 -30.24340596 -3.688347 3.874812 -0.632138
20240 -3.19540149 22.72933836 -41.371114590000005 -3.989559 4.38812 0.199382
20260 -0.31943322 11.020083119999999 -2.8187857800000007 -4.771404 3.1632290000000003 0.832151
20280 -0.6475581 -1.28372679 -1.7438746500000002 -0.791466 4.829154 1.950607
20300 2.5903599300000004 -8.55366273 -9.596544210000001 -1.006875 1.542816 0.53151
20320 8.13782664 -1.40751918 -11.8081989 0.339799 5.566319 0.706676
20340 8.402775120000001 4.28184918 -11.05241688 1.227592 5.350537 1.417112
20360 2.38648851 2.53482552 -4.6093658400000015 -2.436715 2.209523 -1.3839709999999998
20380 -3.21127407 1.02162321 -2.56895451 -3.280059 1.994498 -1.492136
20400 -3.6594439199999997 5.67230877 -4.99645863 -3.528732 -2.62163 -2.534815
20420 -2.1576114 8.386755390000001 -3.24435339 -2.1494310000000003 -6.200751 -2.982066
20440 0.37362366 14.33793303 -1.5223354199999999 -2.527092 -7.475047999999999 -2.598511
20460 3.682193310000001 30.52631655 -2.78735454 -4.355933 -5.666007 -0.267789
20480 3.0485556 39.935450519999996 -2.8806084000000003 -12.145067 7.6352 0.845418
20500 -7.18146936 45.175462020000005 0.6842278800000001 0.704295 1.558531 1.776171
20520 -14.499444870000001 31.861094580000003 1.30154175 -2.23327 3.459663 0.425416
20540 -8.01792882 19.45713438 0.40880232000000005 -3.073826 2.542719 -0.7735529999999999
20560 6.5547182699999995 17.70188994 10.40786064 -0.35388200000000003 -4.94738 -1.229928
20580 15.05823228 14.34855726 6.195466260000001 1.193945 -4.167082 -1.102612
20600 -6.38617266 0.8918467200000001 6.59992275 2.275035 1.71457 -0.508666
20620 -8.571026430000002 -6.920562600000001 10.51428933 2.709579 1.576914 0.238028
20640 -4.40533746 -14.76035163 14.252615460000001 2.731664 -2.293415 -0.001481
20660 -2.08621422 -15.962959530000001 15.889610160000002 4.272259 -5.201635 -0.532855
20680 -3.4048155600000003 -10.536440310000001 12.729975930000002 4.9843980000000006 -3.572798 -1.157014
20700 -3.29615019 1.78458615 5.01427359 4.363188 0.040518 -0.328497
20720 -0.23351724 8.87369436 -2.4309474300000002 4.557593 0.682174 0.7434649999999999
20740 13.659100650000001 33.12267039 -45.492795900000004 5.480336 0.793782 1.602208
20760 8.530314930000001 14.343475680000001 -4.93059429 4.540987 3.694479 0.565369
20780 2.72014623 -5.132680290000001 16.405586730000003 3.143014 4.264537000000002 1.209693
20800 -7.3518102 12.839396670000001 5.84040312 1.898886 1.06508 1.59714
20820 -14.27282406 25.469830530000003 8.368950240000002 4.274649 -4.854357 -0.002377
20840 -12.86275428 4.466257560000001 7.40330289 3.785572 -5.582806 -0.16082
20860 -11.136694590000001 5.838912 14.25800115 1.926504 -3.945561 0.405209
20880 -5.121899100000001 14.896867590000001 15.710724810000002 -0.221486 -2.157011 -0.117356
20900 -1.01968083 30.00809349 17.938693530000002 -2.22423 0.863617 -0.388384
20920 4.022737650000001 56.00109132000001 2.68436916 -3.565453 2.939305 -0.423913
20940 -4.0487832 34.82388135 -44.30966085 -3.80436 3.035802 -0.106308
20960 -3.9817220400000006 17.14968504 -20.490137190000002 -4.705927 2.690366 0.74562
20980 -1.9805310900000002 6.22285578 5.08986945 -3.80378 4.112393 1.323734
21000 -2.79678195 -5.542826580000001 -2.59365609 -0.916588 1.277331 1.309078
21020 6.81817563 -4.33528425 -15.376625640000002 -0.116118 2.949057 0.539135
21040 10.98774936 4.1646393 -14.395409820000001 4.302306 5.784258 1.643132
21060 7.76809755 3.1494514500000004 -4.78225728 -0.195253 0.251798 -0.461022
21080 0.5762982600000002 -0.27018702 -2.67748254 -2.266873 2.428745 -1.208946
21100 -2.9059083900000005 2.7819688499999997 -3.9212433900000003 -4.804956 0.173011 -2.067679
21120 -3.07535652 7.162908840000001 -6.798261330000001 -3.33156 -3.595952 -2.274748
21140 -0.68587596 9.668245500000001 0.04460607 -2.548435 -6.334836 -2.405705
21160 1.6404380100000002 17.47540647 -0.7459033500000001 -1.956828 -6.791025 -1.791033
21180 5.03462934 32.000004180000005 -1.8381781799999999 -13.743147 -7.3489369999999985 -0.173105
21200 0.47795301 35.73069813 -0.07469334000000001 -1.980858 4.697536 1.531202
21220 -8.78118606 45.57198222 0.0068866199999999995 -0.97535 3.682728 1.358997
21240 -10.58898267 23.47613442 0.6908103900000001 -3.637756 6.199041 0.17281300000000002
21260 -2.85530841 18.17670375 0.72673461 -1.413664 -0.617933 -0.620106
21280 9.28907919 14.189743170000002 5.47801191 0.729038 -6.504614 -0.887084
21300 6.8889744 9.41346999 5.387750100000001 1.6622709999999998 -3.65723 -0.340489
21320 -8.697663720000001 -1.10530251 7.04390373 1.789432 0.932678 0.17260599999999998
21340 -7.06590756 -7.09060914 9.286989660000001 2.054818 -0.102526 0.14801199999999998
21360 -4.82251752 -12.339135720000002 14.29886961 3.4375910000000003 -2.406744 -0.51022
21380 -4.37151258 -13.089080790000002 14.888637000000001 4.420584 -3.761093 -0.99941
21400 -2.39711274 -7.34343246 14.53148433 4.858664 -1.295335 -1.290066
21420 2.66325804 3.0353905800000005 6.487961220000001 4.757118 -0.62449 -0.334508
21440 4.97999745 11.47918131 -7.2453815100000005 4.968661 -1.854632 0.749587
21460 17.624498850000002 36.74499327 -41.37830532000001 5.8194370000000015 3.167793 1.164632
21480 5.58788391 11.414808090000001 -2.2330601100000003 4.28686 5.426487 -0.512189
21500 -4.53257316 2.94512877 17.493221430000002 2.98711 2.567161 1.442583
21520 -14.50543878 22.869739080000002 -5.21694819 3.75547 -1.11018 1.04567
21540 -9.70476813 8.602163370000001 10.68433587 6.1425839999999985 -7.09143 -0.290906
21560 -11.99305854 0.76490532 16.53940494 3.47792 -5.133389 0.137694
21580 -11.96536491 9.33533334 16.325802 1.476522 -3.149524 0.193811
21600 -4.92760224 17.71296543 17.95231962 -0.7230810000000001 -0.249658 -0.076302
21620 -2.75861124 33.96601647 16.94925693 -3.058678 2.427423 -0.459242
21640 2.88419886 55.42209531 -12.3780618 -4.145411 4.598336 -0.28694899999999995
21660 -14.656924800000002 30.466142010000002 -45.04777506000001 -4.774331 4.710507 0.178532
21680 -4.69274103 16.46920458 -13.17425121 -4.884442 3.908166000000001 0.8528389999999999
21700 -0.04999176 4.07856636 2.8615966200000003 0.914587 1.637479 1.83095
21720 1.64672622 -6.421949730000001 -6.516998820000001 -0.5080399999999999 0.246786 0.5291779999999999
21740 8.60096655 -4.629427290000001 -14.33119356 1.148435 5.4163 1.290425
21760 8.566680600000002 3.29120595 -10.48045464 1.620776 3.076275 -0.278904
21780 5.316794370000001 3.01937085 -3.46918878 -1.5738450000000002 3.601093 -0.880868
21800 -2.8448313300000003 1.97319321 -5.48803773 -7.594397 -0.344824 -1.7532150000000002
21820 -5.04226152 2.19159324 -3.32847414 -5.8770370000000005 -0.069074 -1.870827
21840 -3.26635722 5.8107671100000005 -2.8288214100000006 -2.385368 -2.281515 -3.065648
21860 1.16172963 12.119401530000001 0.7312275899999999 -1.351603 -6.099835 -3.069558
21880 3.69985131 23.126005709999998 -1.17026433 -9.225525 -9.201695 -1.629345
21900 5.4022689 32.43320397 -5.852979540000001 -6.754981 9.532257 1.549343
21920 -2.0221451100000003 35.11398267 0.71761131 -0.09688 2.168478 2.849765
21940 -13.51045953 47.33606547000001 0.10673280000000002 -2.784329 4.946903 0.607668
21960 -13.9515858 21.6008352 0.89768367 -2.62987 0.8891209999999999 -0.55362
21980 1.74476736 18.77275935 4.49949384 -0.6464270000000001 -7.233944 -0.856232
22000 12.5659233 17.363140830000003 6.728355270000001 1.431404 -5.862817 -0.556124
22020 7.0856649 12.238700940000001 7.374716550000001 2.223321 0.8299690000000001 -0.092356
22040 -6.681061260000001 -0.5661252900000001 8.140524390000001 2.300012 1.455475 0.326121
22060 -6.26956119 -9.962977140000001 10.957662090000001 3.387246 -1.890258 -0.423639
22080 -3.75239367 -16.89656742 15.687975420000003 4.6287720000000006 -4.3429 -1.138215
22100 -2.5882704000000003 -16.73580114 15.462992880000002 5.066443 -2.472726 -1.936584
22120 -1.6214262300000002 -7.43204619 11.13878412 4.977938 0.343823 -0.786064
22140 -0.24040386000000002 3.80508318 2.33155251 5.235618 -0.608155 0.7584
22160 3.9893542200000005 15.33905334 -14.38927857 5.466723 2.6348700000000003 1.009027
22180 10.505754629999998 35.10454545 -37.18147941 4.048239 6.0819519999999985 -0.651428
22200 6.6783635100000005 8.80813413 2.6047315799999997 3.675812 3.803757 0.893539
22220 -3.9948968700000003 11.3516415 12.83955363 2.88499 -0.731581 1.160882
22240 -10.94988276 14.968725840000001 9.326651490000001 5.564911 -6.634579 0.5131180000000001
22260 -10.61457696 2.32077132 9.0289278 3.968229 -5.694324 0.395006
22280 -16.40154501 5.10678189 17.469873630000002 1.970773 -4.4468809999999985 0.260882
22300 -10.26041634 10.80348813 15.355220220000001 -0.321488 -1.7046400000000002 -0.204092
22320 -4.77087768 18.64133478 14.853164040000001 -2.721202 1.7730849999999998 -0.952769
22340 -1.08030663 42.86486367 14.649734070000001 -4.113473 5.197195 -0.623983
22360 17.00972577 59.690926620000006 -27.450214470000002 -4.47061 5.242505 0.075286
22380 -0.7888613400000001 26.55312921 -45.934981650000005 -4.656546 3.95793 0.997509
22400 -1.16577135 12.698240580000002 -4.46356962 -0.52023 1.90371 2.297013
22420 -0.43394535 0.9575541000000001 3.92783571 -1.634361 3.081705 0.917193
22440 2.45923947 -5.72184927 -11.51585109 2.070113 3.463636 1.028037
22460 9.97660323 -2.1794680800000004 -17.19579204 2.615755 3.68314 -0.522696
22480 9.72377991 3.8375739 -10.756184310000002 -2.000664 3.165713 -0.590598
22500 -1.0741655700000001 1.83203712 -3.36964671 -8.243722 0.31847600000000004 -1.897469
22520 -5.1882147 1.70465427 -4.928347800000001 -6.263747 2.098366 -1.969241
22540 -6.1290035099999995 4.899761460000001 -3.55046463 -2.165278 -1.055183 -3.57202
22560 -2.2010206500000002 8.38017288 -1.53551025 -0.13499 -6.549469 -3.834945
22580 1.3611178800000001 15.390693180000001 0.22588506000000003 -8.507757000000002 -12.168606 -1.688896
22600 4.287686129999999 30.06572724 -2.62285065 -9.360411 12.35114 0.5714739999999999
22620 2.9536536600000005 30.201791940000007 -1.21606722 0.125077 2.526257 2.961952
22640 -8.15698557 39.21141366 0.29548701 -1.426093 3.831094 1.14415
22660 -17.07559011 34.56103221000001 0.88001586 -3.458988 1.509266 -0.140395
22680 -7.728278760000001 18.30962925 -1.05694902 -0.12846300000000002 -7.870054 0.060462
22700 7.58757393 17.124237900000004 7.1437401000000005 2.178499 -5.126084 -0.827451
22720 21.72207699 19.69065162 4.01045553 2.417955 2.531633 -0.6315609999999999
22740 -6.6401928 2.86235199 8.041276620000001 2.128454 0.7466649999999999 0.042753
22760 -8.730448740000002 -3.46948308 8.69900769 3.141121 -2.892277 -0.311911
22780 -5.511238379999999 -13.06483047 12.44213091 4.86568 -4.202447 -0.7703399999999999
22800 -2.35774521 -17.304918480000005 17.70502914 5.196008 -3.13406 -1.035389
22820 -4.3664211900000005 -14.43837762 14.81259969 4.902828 -0.010563 -0.808567
22840 -1.23358788 -0.61297785 7.33803696 5.2360370000000005 0.622111 -0.008020000000000001
22860 2.34128403 7.88529762 -2.56880736 5.150221 2.163522 1.406935
22880 12.386596500000001 26.304200460000004 -42.69826044 4.45941 4.616742 0.170511
22900 13.110034950000001 24.598947780000003 -16.824709170000002 3.674642 4.131629 1.484905
22920 -4.09099563 16.18763796 0.6542877600000001 3.1236 -0.505797 1.23383
22940 -8.33631237 7.92766701 17.3610513 5.138733 -6.248608 0.531011
22960 -10.722800880000001 0.02769363 10.623405960000001 3.692455 -5.458501999999998 0.268864
22980 -17.39922201 4.943769120000001 17.9135505 1.799649 -4.90586 0.370302
23000 -15.2242371 9.73066653 14.753317860000001 -0.16484300000000002 -2.071071 0.186305
23020 -9.64324962 16.52923197 10.8799767 -2.531129 1.258532 -0.313054
23040 -6.00985125 32.967888210000005 15.43111038 -4.194049 3.962512 -0.5471199999999999
23060 5.286108690000001 64.89185508000001 -4.46431518 -4.6341800000000015 5.079378 -0.01431
23080 9.808803180000002 37.97498088000001 -27.13841343 -4.704121 4.520487 0.7496970000000001
23100 1.9502966700000002 16.44105969 -25.79076468 -1.290337 3.1238200000000003 1.807234
23120 2.58392457 7.9097048999999995 4.88703789 -0.951503 1.291289 0.780047
23140 0.43305264000000004 -2.69754399 -4.2685272 0.549129 5.628387 0.720878
23160 6.98013873 -6.5451437100000005 -19.86009975 0.379727 -0.369127 0.604534
23180 5.76884898 3.3838614000000002 -14.279700870000001 -0.589956 4.753493 -1.67557
23200 -0.22902426 2.22257322 -1.35872424 -5.393406 1.7119990000000005 -2.538438
23220 -2.5737516 2.00268207 -4.924904489999999 -6.237409 -0.469841 -2.567175
23240 -1.00770282 3.7679621400000003 -4.584065850000002 -1.632643 -1.981344 -3.125937
23260 1.89536067 6.27195483 -4.57194069 -1.572186 -6.925872 -2.766665
23280 2.1921916500000003 9.38742444 -1.56230136 -2.505528 -6.782711 -0.997983
23300 2.6577252000000002 16.76393622 0.54216927 -16.656563000000002 4.929242 1.598242
23320 4.4918616600000005 33.427584810000006 -1.2009500100000001 -0.13358299999999998 5.880726 2.14293
23340 -2.53108791 36.07468578 -1.83803103 -0.104637 3.718018 1.369306
23360 -11.94156585 41.749829640000016 -0.4573029600000001 -2.909542 4.122483 -0.373846
23380 -14.181355620000001 26.93782836 -0.6692578200000001 -1.043415 -3.492243 -0.891574
23400 -1.84640877 17.78526513 3.58983216 0.929666 -5.689896 -1.272354
23420 10.98655254 15.376478490000002 7.230862709999999 2.075287 -0.940503 -0.50025
23440 10.21940073 10.519527870000001 4.694987520000001 2.0784290000000003 1.452403 0.486947
23460 -7.3305519299999995 -0.23725485000000002 7.62215418 2.535346 -1.196101 0.148497
23480 -7.8658443899999995 -7.635770460000001 9.9864819 4.1059230000000015 -3.88704 -0.666024
23500 -3.72620097 -14.759606070000002 14.292277290000001 5.186351 -3.608234 -1.261312
23520 -3.13343172 -14.630722290000001 15.41554191 4.97169 -1.635931 -0.662862
23540 -3.58069905 -6.65007147 12.0399111 4.938375 0.239714 1.038316
23560 0.38335518 4.406681430000001 4.3439661 5.331928 0.690438 1.999751
23580 2.42705286 12.50319816 -9.84876912 4.281121 3.565612 1.048691
23600 14.666950620000001 32.43829536 -41.22801612 2.7001 3.962382 0.699581
23620 4.5972406800000005 8.071069589999999 3.2934524400000003 2.174712 1.635449 2.044853
23640 -8.56339425 6.93013716 5.15887299 3.450589 -4.058133 1.127435
23660 -11.74876992 17.06317065 14.85570483 3.750783 -3.831358 -0.164376
23680 -8.84615769 6.03260064 10.65753495 2.107259 -3.568287 0.207299
23700 -12.323125800000001 6.08529996 19.514316870000002 0.375227 -2.811095 -0.366586
23720 -7.98320142 15.22633644 20.57157 -1.315962 -0.460912 -1.076823
23740 -1.7745603300000001 18.779950080000003 15.63198975 -2.618696 2.850021 -1.559115
23760 1.03719168 35.84146284 16.25963355 -3.767525 3.92369 -0.5323399999999999
23780 7.51976721 53.256253320000006 -11.906092890000002 -4.948665 3.771114 0.284272
23800 -9.78529842 33.96512376 -50.9818833 -5.485599 4.5079970000000005 1.087153
23820 -2.77088355 17.43918795 -12.44840931 -1.34329 1.876206 1.897125
23840 2.36582865 4.52254734 6.236030610000001 -0.489772 3.554583 0.484474
23860 3.6407264400000003 -5.570814510000001 -7.241486940000001 3.0889900000000003 4.542102 1.640522
23880 9.229954320000001 -5.791304070000001 -14.7178449 2.209885 3.529567 0.138032
23900 9.602234010000002 2.03352471 -10.273885470000002 -0.120368 2.974741 -1.348476
23920 4.3581906 3.4290658800000005 -3.65060511 -5.343457 -4.310438 -3.5377050000000003
23940 -1.77785649 1.74776922 -6.787931400000001 -3.22301 -2.70046 -2.26766
23960 -2.7662434200000003 4.12018038 -5.85582444 -2.549629 -4.0877690000000015 -2.5047330000000003
23980 -0.7849667699999999 8.30637225 -5.863603770000001 -2.284307 -4.862757 -1.537282
24000 2.1171942 10.34872596 1.01339262 -11.395979 -4.924551 -0.829592
24020 4.5452967300000005 24.94636893 1.78144695 -4.284008999999998 8.059868 0.784415
24040 6.04667799 36.22316994 -3.87020196 -0.227317 4.658286 1.834058
24060 -3.71512548 35.203646070000005 2.30550696 -3.431699 5.225 0.354962
24080 -14.31862695 43.183698480000004 3.2242919400000005 -2.022296 -2.233429 -0.224908
24100 -11.195966610000001 21.21193737 0.7288339500000001 0.185075 -8.338098 -0.38006
24120 -0.18576216000000004 14.76859203 3.98112363 2.188904 -2.318018 -0.57033
24140 13.472730270000001 12.6385173 7.3229197500000005 2.321641 0.721771 0.239618
24160 -0.71835687 3.0801438000000005 3.5814544200000005 3.358699 -0.432327 0.506851
24180 -8.308775700000002 -1.50002748 6.74018613 3.679493 -4.419469 -0.08293500000000001
24200 -6.60067812 -8.88163065 10.15937334 4.885813 -3.870873000000001 -1.122069
24220 -4.31762625 -14.21758395 14.672336310000002 4.6316169999999985 0.083441 -0.904586
24240 -4.18664313 -14.85241848 15.04222236 5.299826 0.318351 -0.024277
24260 -2.5557894900000004 -8.18812251 9.16424694 5.785787 0.424948 1.399716
24280 -0.039965940000000005 4.36791231 2.4321442500000003 4.659408999999999 4.155901 -0.640418
24300 4.797227340000001 16.859436570000003 -19.827471690000003 3.894589 4.97247 0.145814
24320 15.426018990000003 34.782571440000005 -26.20824885 2.9809360000000003 0.364553 1.08644
24340 7.66915389 10.48179861 3.2841721800000006 5.300827 -4.818815 0.076316
24360 -3.62620764 18.195264270000003 5.294937689999999 4.28953 -4.670171 -0.520597
24380 -9.62722989 14.228208180000003 8.08678521 2.063101 -4.308867 0.032751
24400 -9.83798793 1.72366605 6.14876085 0.06445 -2.084895 -0.28423000000000004
24420 -19.61266212 7.81659819 18.329386590000002 -2.5503400000000003 1.335936 -0.472452
24440 -11.52887877 9.7784118 18.019233630000002 -4.311797 3.802361 -0.621444
24460 -5.47920873 15.03114687 15.696510120000001 -4.785475 4.99107 0.08943200000000001
24480 -4.74798114 36.32122089 15.971935680000001 -4.938234 4.150596 0.480412
24500 11.34011475 56.305260180000005 -39.297182490000004 -2.8107450000000003 4.490366000000002 1.046039
24520 -1.55571885 31.36966263 -45.42633315 -0.22227 -1.015334 0.490062
24540 1.42473573 15.553705950000001 -3.7004595300000003 -0.990132 2.189242 0.300063
24560 1.9968451200000001 3.8769414300000005 0.51882147 2.015376 6.22519 1.251647
24580 4.0900931100000015 -6.14786814 -11.85190245 -0.31886 1.893191 -0.038836
24600 10.692713610000002 -1.6572033000000002 -17.668055250000002 -3.772394 3.438481 -2.795315
24620 10.376419590000001 2.15102889 -11.06738694 -4.133158 1.893959 -1.450964
24640 0.32527017 2.8758211200000003 -4.418512290000001 -3.387881 -1.595594 -2.70072
24660 -3.0555991800000006 3.57382224 -1.8503033400000002 -2.310527 -6.807925 -3.117009
24680 -5.63533488 7.333848090000001 -8.56054935 -2.084539 -8.000469 -2.123661
24700 -1.61065485 9.84697389 0.07963758 -11.893818 0.083398 -0.420744
24720 2.7876488400000006 20.03134311 1.3621675500000001 -5.109352 8.294008999999999 2.351841
24740 5.31933516 38.10970161 -2.65248666 0.33467600000000003 1.693077 2.015903
24760 -3.4396999200000002 38.2710663 1.1418251400000001 -3.158857 3.930765 -0.165971
24780 -14.42984292 43.69474062 0.7933543200000001 -1.303906 -1.683024 -0.229141
24800 -15.95667132 21.215527830000003 -0.53603802 0.935735 -5.546869999999998 -0.815296
24820 -2.43468504 18.14930442 5.3130469499999995 1.7733150000000002 -1.257685 -0.5724560000000001
24840 13.447881540000001 16.10695071 8.306970660000001 1.956137 -0.091092 0.03835
24860 6.411168540000001 8.02690497 6.06404169 2.963278 -1.654564 0.14246
24880 -5.82963174 -1.4784749099999999 7.93754568 4.205032 -4.454685 -0.256544
24900 -5.2147017 -10.450965779999999 11.1259134 4.80765 -4.202728 -0.916023
24920 -2.38244679 -16.233744960000003 15.34070142 4.410775 -0.545917 -1.3005639999999998
24940 -1.2244547700000001 -15.67495755 15.36689412 4.87323 2.139457 -0.8563940000000001
24960 -0.6479995499999999 -5.807922210000001 11.19087522 5.230704 0.483575 0.8071729999999999
24980 1.0759608 5.17803192 2.53886724 4.82338 3.147003 0.5680430000000001
25000 2.66296374 12.94822881 -11.66733711 3.831757 5.017462 0.403827
25020 9.01080873 32.84021106 -34.39337931 2.709436 2.002467 1.17538
25040 6.98372919 10.59272028 -3.4637932800000004 2.732199 -1.940359 0.949856
25060 1.47098988 -5.18477139 18.24585444 4.668526 -5.530023 -0.007306
25080 -8.00909982 13.242214890000001 6.786734580000001 2.377293 -3.587054 0.403625
25100 -15.03383481 24.484729950000002 11.34011475 0.364793 -2.746971 0.122504
25120 -15.25687497 7.70821731 9.08206857 -1.52685 -0.832899 -0.576824
25140 -9.41422536 7.60223988 12.477152610000001 -2.802143 2.16892 -1.303151
25160 -4.45309254 13.88887047 13.295797109999999 -3.406889 3.4557290000000003 -0.7685029999999999
25180 1.0955709900000001 27.45560997 17.77928103 -4.0426410000000015 2.461567 0.112818
25200 10.2497823 55.86442821000002 -1.4274334800000001 -4.140397 3.42236 0.7507689999999999
25220 -2.2439884500000002 36.295626600000006 -40.84765299 -0.292539 1.973124 1.791109
25240 -2.0869597800000004 18.553770720000003 -20.683237230000003 -0.951624 2.383361 0.473135
25260 -1.3986901800000002 8.1092403 3.9146608800000005 1.645417 3.813788 0.6785180000000001
25280 -0.23980545000000003 -5.4049568400000005 -5.67948969 0.438184 1.953931 0.364821
25300 7.807465080000001 -4.440967379999999 -14.41382319 -2.810956 2.544298 -0.8635860000000001
25320 9.16124508 1.66827879 -11.688889679999999 -3.025288 1.231213 -0.777942
25340 5.7869680500000005 3.53669139 -5.55584445 -3.022178 -3.487865 -2.399844
25360 -1.0279114200000001 2.15088174 -1.71139374 -1.515146 -6.1639370000000016 -2.349568
25380 -4.47479226 4.52972826 -8.606656350000002 -2.539678 -6.603509 -1.293281
25400 -3.96166059 8.388560430000002 -6.43451634 -6.219455 -3.5673760000000003 0.803955
25420 0.00344331 11.4413049 0.99468495 -11.716946 10.882418 0.942523
25440 3.7946061 23.80035492 1.39060674 0.583817 1.6579130000000002 2.33495
25460 3.59133309 39.853576260000004 -3.49478307 -0.333581 1.806976 1.019779
25480 -4.06239948 40.29276015 1.78353648 -2.969278 2.976518 0.14208800000000002
25500 -11.71658331 34.23351555000001 2.375256060000001 -1.658133 -1.755021 -0.298821
25520 -9.0756234 20.243602080000002 0.7816706099999999 0.648325 -5.846399 -0.785941
25540 0.6291447300000002 15.758479890000002 5.86809675 2.265094 -2.505795 -1.096191
25560 14.778617850000002 14.24737692 6.289318530000001 2.671323 -0.720298 -0.673694
25580 -1.25289396 4.10760396 5.63263713 2.794496 -2.335005 0.221201
25600 -7.97092911 -2.4674700600000006 7.0006416300000005 4.157635 -3.194155 -0.558661
25620 -5.704485570000001 -10.065364109999999 9.747431820000001 4.6840160000000015 -1.947584 -1.063987
25640 -2.70921789 -15.64336935 14.980546890000001 4.204077 -1.95086 -0.628296
25660 -3.5923827600000005 -14.531631480000001 15.542483310000001 4.375881 -1.958417 0.311881
25680 -4.17107466 -4.50533079 8.082743490000002 5.434124 2.708399 0.499163
25700 -2.18829708 5.7507397199999994 0.13861530000000005 4.292733 5.210394 -1.088711
25720 4.16373678 19.349812980000006 -29.621903220000004 4.334217 2.103034 -0.604808
25740 13.061092860000002 28.12471083 -24.97541634 3.495652 -0.87628 -0.7425109999999999
25760 7.46392869 2.0651031 5.356760310000001 3.913005000000001 -2.829551 0.115348
25780 -3.55271112 0.73407249 19.80291726 3.668103 -4.441403 -0.182331
25800 -12.6069291 25.729697430000005 -13.633202250000002 1.522622 -3.204656 0.088449
25820 -10.671612300000001 13.97134314 12.23255988 -0.622016 -0.8282959999999999 -0.115447
25840 -5.0567803200000006 7.24672548 10.156979699999999 -2.061964 0.572318 -0.941285
25860 -4.32210942 10.86096492 11.47483548 -3.024616 3.014594 -0.80586
25880 -1.1683219500000002 14.81588604 12.54915801 -3.945539 3.944933 0.169279
25900 0.23980545000000003 26.445052439999998 14.26922379 -4.626227 3.269849 0.683477
25920 10.070014050000001 49.88212344000001 -4.55832441 -2.2604040000000003 4.4587010000000005 1.294547
25940 -2.0240874900000003 36.10102563 -45.4782771 -0.384969 0.48447 0.922839
25960 -1.8735039900000001 20.65300281 -11.6288721 2.745486 3.953299 0.800323
25980 -1.41575958 6.8021559 3.3519789 3.97989 2.357955 0.154033
26000 -0.72913806 -2.44037484 -3.54283245 -0.505532 3.399513 -0.680867
26020 1.48027014 -7.648199730000001 -14.08541382 -5.64417 -0.919165 -2.072141
26040 7.846832610000001 0.25866027 -15.419289330000002 -5.734904 -0.838366 -2.219225
26060 6.006555090000001 2.18111616 -4.8847914 -2.245363 -1.111824 -2.659177
26080 -0.58648104 1.42143957 -2.4709133700000003 -0.960312 -4.736239 -2.355
26100 -2.4055002900000004 6.9548387400000005 -5.700591 -4.082694999999998 -8.227761 0.235194
26120 -1.4694987600000002 12.21744267 -0.36554022 -17.369270999999998 9.300848 1.22233
26140 1.8029995200000002 21.52089351 0.71356959 1.044613 3.129085 1.929291
26160 1.4528806200000002 24.46422705 -4.18903677 0.714988 0.091366 0.772929
26180 -0.7852708800000001 23.58031662 -1.0343467800000004 -2.464093 4.124507 -0.732865
26200 -9.868379310000002 39.206469420000005 0.06002739000000001 -2.213402 1.288639 -1.19002
26220 -15.556845150000001 32.71746834 0.00329616 -1.642006 -6.232998 -1.487243
26240 -3.33386964 20.8579239 0.7656606900000001 2.078624 -3.575054 -1.270243
26260 8.86950549 17.87717502 4.950508590000001 3.054457 0.30096100000000003 -0.388179
26280 13.70205864 16.08494688 3.03015204 3.36407 -1.085564 0.557932
26300 -2.66894784 5.54851638 7.4422191600000005 3.844731 -3.472058 -0.055221000000000006
26320 -6.265372320000001 -2.8196883 7.21230219 4.758202 -4.107506 -0.976311
26340 -2.5012949399999997 -10.093813110000001 10.807971300000002 4.815567 -0.965589 -0.864569
26360 1.27444653 -13.998742470000002 14.30215596 4.94166 3.125134 0.340297
26380 -0.92073717 -15.58020276 16.43237784 4.273484 2.420693 2.322357
26400 -0.8469365400000001 -5.610182040000001 8.50695732 3.596796 3.410885 1.706407
26420 -0.97821396 4.208794110000001 0.9788123700000001 3.182798 3.158375 0.744576
26440 5.42068227 17.82657504 -27.33361281 3.214727 -0.551233 1.328529
26460 9.234447300000001 34.72823385 -34.63362621 2.926095 -2.203349 0.7485850000000001
26480 -3.1472049600000003 20.878436610000005 -0.32347494000000004 3.593631 -4.216133 -0.241892
26500 -4.64438754 8.398586250000001 21.307290570000003 1.91942 -3.915485 0.349573
26520 -8.1818343 3.56199138 11.26991439 0.251442 -2.911265 0.015101
26540 -11.437861589999999 0.2980278 13.977935460000001 -1.318558 -0.781411 -0.579708
26560 -12.352908959999999 5.66212599 20.450769660000002 -2.868398 2.07166 -0.899701
26580 -6.58210779 16.87620186 14.615909190000002 -3.700744 3.602867 -0.280431
26600 -2.75068476 27.89793306 16.385672430000003 -4.479539 2.496554 0.26675
26620 2.17602477 50.0855436 10.321787700000002 -4.396486 2.671402 0.957177
26640 10.60694478 45.2238057 -23.489897850000002 -0.345633 1.73905 1.499414
26660 -5.68203048 25.606797750000002 -57.147115140000004 -0.61973 1.050214 0.307314
26680 0.96144867 14.45633973 1.50078285 1.824936 4.453826 0.305074
26700 0.6149202300000001 0.8791231500000001 5.27443479 2.692259 3.200712 0.971831
26720 2.07662985 -5.229230310000001 -3.81646278 -1.946457 1.283231 -2.198686
26740 7.14329865 -5.702396040000001 -18.42113952 -2.426942 0.548655 -1.898794
26760 10.559189700000001 0.72105462 -14.831307360000002 -3.649027 -3.233584 -1.777502
26780 3.9609150300000002 3.3873047100000004 -4.34860623 -2.542398 -3.541698 -2.141118
26800 -2.7872073900000003 2.96653419 -2.88615105 -1.759886 -4.729641 -2.246294
26820 -4.55412573 5.99757894 -5.53144698 -7.247783 -7.431216 -1.210806
26840 -5.06172456 7.49791053 -6.489903600000001 -10.002259 9.243238 0.4524
26860 0.91624419 10.92937005 2.27467413 -0.921412 0.172049 1.993055
26880 5.5221667199999995 24.612564060000004 3.71722482 0.444738 0.171479 0.686549
26900 4.63436172 39.097195830000004 -4.340826900000001 -3.411122 4.846205 -0.571625
26920 -5.73487695 42.14785077 -1.7149842000000002 -2.21992 -1.06472 -1.143252
26940 -12.478055130000001 29.56876245 0.50235048 -0.446687 -5.02545 -1.073448
26960 -4.5002394 16.83893367 -1.36890702 1.984011 -1.690407 -0.16771
26980 4.782551580000001 16.025822010000002 6.014040120000001 2.761415 1.089557 0.324472
27000 8.623863089999999 13.33501749 5.088064409999999 2.991565 -0.356893 0.608876
27020 -3.8130194700000004 5.10513381 3.9627102600000006 3.3843980000000005 -3.708465 0.056166
27040 -9.30928779 -0.8116107300000001 7.88215842 4.318854 -4.179954 -0.8596459999999999
27060 -5.6875731300000005 -9.52199802 9.449551170000001 4.6699150000000005 -0.287924 -0.775656
27080 -1.7336918700000001 -16.236884160000002 14.7323637 4.776541 -0.25140500000000005 1.18523
27100 -2.0926495800000002 -16.77935754 15.761020680000003 4.9689260000000015 0.53656 1.901273
27120 -2.77268859 -2.9421269100000007 6.408470790000001 3.828121 3.890955 0.800487
27140 -1.19286657 6.524179740000001 -1.22565159 2.892799 4.880802 0.7606390000000001
27160 9.581122890000001 26.446857480000002 -36.04489281 2.8841360000000003 1.552924 1.023353
27180 7.8866514 25.95258063 -20.933068499999997 3.160321 -2.665075 0.395095
27200 4.01525262 1.2584366100000002 11.58725808 4.1559339999999985 -4.074803 -0.108891
27220 -3.7056980700000004 -0.65937915 17.92342917 2.647087 -3.94025 0.3173
27240 -12.256957350000002 26.68485789 -6.90678936 0.606139 -2.588454 0.231877
27260 -14.359044150000003 14.64494679 7.4613879 -1.55485 -0.455427 -0.377745
27280 -9.74143791 1.5721800300000002 7.24552866 -3.080431 2.400276 -1.109906
27300 -8.70185259 8.636292359999999 11.50597242 -3.698936 3.510044 -0.77809
27320 -6.1191248400000005 20.06561925 12.16834362 -4.475905 2.810876 0.247144
27340 -2.5563879 35.352287190000006 8.11132983 -3.512618 3.041286 1.463873
27360 14.8220271 44.594660970000014 0.39832524 -0.756179 0.49983 1.3987889999999998
27380 -1.7983593900000001 28.646377200000003 -41.29821648 -0.5948289999999999 3.4396940000000003 0.003188
27400 -2.0119623300000002 17.29607967 -12.5485596 3.276329 4.562692 0.326823
27420 -0.68348232 6.15280257 5.3850523500000005 -1.114704 -2.229666 -0.620225
27440 0.09475478999999999 -0.76925115 -2.7785255400000004 -1.878684 1.979513 -1.623333
27460 6.50382399 -5.0612733 -13.21586523 -3.009719 0.283405 -1.39512
27480 11.43157338 1.6178357700000001 -15.665373180000001 -3.301115 -3.678196 -2.246656
27500 6.901246710000001 3.4820595 -6.00311178 -1.909376 -5.0589879999999985 -2.072796
27520 -1.7527036500000002 0.8063721899999999 -3.7074933 -3.137798 -5.388671 -0.88134
27540 -5.3476272 2.46223152 -4.298310360000001 -11.716132 0.657195 -0.211935
27560 -5.557639679999999 7.687861560000001 -5.95551366 -7.526585000000002 12.027612 0.767364
27580 -1.4055768 14.18255244 0.10642868999999999 1.818078 -3.2526200000000003 1.967441
27600 3.9329172900000002 28.525135410000004 0.59621256 -1.4384940000000002 1.745046 0.150086
27620 3.88038474 30.48426108 -3.7910156400000004 -2.912767 1.759319 -1.073731
27640 -6.30997839 33.76588266 1.7631807300000002 -1.1813 -4.862265 -1.018968
27660 -15.26211351 36.243682650000004 3.25782252 1.966177 -2.890695 -0.487831
27680 -11.37559752 19.61745921 -0.6435163800000001 2.844436 1.191684 -0.244441
27700 0.5827336200000001 16.38447561 3.2275881000000006 2.952923 0.926927 -0.196342
27720 10.141705530000001 15.472125990000002 7.585925850000001 2.906996 -2.281078 -0.30792
27740 1.9431059400000001 8.3873538 3.81961179 3.539368 -3.583889 -0.594526
27760 -9.54160821 1.1192229 6.54065073 4.642077 -1.6432240000000002 -0.684383
27780 -7.21724643 -8.22344832 8.44169139 4.556662 -0.223145 1.234932
27800 -1.6591456800000002 -15.60909321 12.43374336 4.592747 -0.8022020000000001 1.88861
27820 -0.18531090000000003 -16.526387070000002 14.315634900000001 4.878517 2.061238 2.178561
27840 -0.55354887 -7.973764200000001 8.65186083 2.367117 5.480642 -0.13683499999999998
27860 -0.26225073 3.6646824600000003 1.3780303200000001 3.072773 2.780294 1.348905
27880 4.7662375500000005 16.41247335 -26.065150380000002 3.123599 -1.120336 0.138622
27900 9.67498497 28.986470280000002 -24.785014049999997 3.597395 -6.306634 0.394268
27920 4.36283073 6.3575765099999995 6.246811800000001 3.161412 -4.92804 0.739833
27940 -6.61594248 5.17608954 15.16121766 1.1975129999999998 -3.648452 0.5300590000000001
27960 -14.462176680000002 22.56108705 -1.06847577 -0.943307 -0.822968 0.162176
27980 -11.8429263 11.93393367 12.33689904 -2.659638 2.171636 -0.242482
28000 -8.61862455 4.465364850000001 9.724231170000001 -3.3606480000000003 4.570682 -0.44487
28020 -7.872731010000001 9.18161064 14.199768990000003 -3.801257 3.802374 -0.26857
28040 -4.45833108 18.145861110000002 16.00606467 -4.531925 1.308751 0.051057
28060 -1.75869756 32.981367150000004 11.91821805 -1.542338 1.84526 1.284752
28080 13.67436501 50.473087650000004 -10.81725156 -0.735058 2.382707 0.7149989999999999
28100 -0.2282787 33.3489969 -52.05035907 0.758169 5.611575 0.4820100000000001
28120 1.2584366100000002 16.082111790000003 -11.319307740000003 3.2705330000000004 2.040542 0.758371
28140 1.21247676 8.2857222 7.27996176 0.995629 1.832248 -0.589325
28160 -0.19803447000000002 -1.21966749 -3.33087759 -3.294883 -3.440377 -1.253471
28180 5.922885600000001 -6.05385891 -17.396073 -4.906685 -1.958715 -2.218414
28200 7.61855391 2.26898433 -14.48088435 -2.561518 0.35684 -2.297935
28220 0.17858124000000003 0.95261967 -3.52860795 -2.117261 -2.698591 -2.361419
28240 -2.6490433500000004 1.06608213 -2.10926772 -2.484136 -5.039537 -1.644205
28260 -2.54845161 3.75778917 -2.59784496 -16.024268 0.695353 -0.424742
28280 -0.6661186200000001 6.640938360000001 -3.46304772 -0.590079 8.277492 0.702048
28300 2.00073969 13.330681470000002 0.5116405499999999 1.963029 -0.8948889999999999 1.507165
28320 4.3188230700000005 24.700589190000006 -1.3500423900000003 -2.958181 2.988205 -0.657948
28340 2.16464517 23.916063870000002 -2.47495509 -2.558025 -3.783406 -0.5588810000000001
28360 -7.52948892 34.62046119 -0.004640130000000001 0.367797 -5.187545 -0.139266
28380 -18.233582130000002 43.151963130000006 1.7422265700000001 2.426569 1.329367 0.051566
28400 -7.25166972 19.24727886 -2.4641739000000005 2.696646 0.98385 -0.090315
28420 3.62620764 15.29834184 1.7024077800000001 2.548983 -1.733958 0.375745
28440 21.59215335 15.80937417 6.230792070000001 3.658752 -3.258454 0.234831
28460 -1.14945732 6.101466840000001 5.4663281999999995 5.476797 -2.964771 -0.191886
28480 -9.29522025 -0.23830452000000002 7.17967413 5.3062190000000005 -1.820306 0.930294
28500 -8.259970950000001 -6.6545644500000005 10.23421383 4.641217 -1.384233 1.678186
28520 -6.8195196000000005 -10.582243199999999 13.51149939 4.82669 1.525279 2.25473
28540 -6.633600480000001 -11.6408403 14.31982377 2.382032 4.923872 0.024216
28560 -4.45458366 -7.233854760000001 8.56968246 3.226422 3.546555 1.4002709999999998
28580 -1.4424035400000002 1.99459863 2.15207856 2.690435 0.75541 0.830742
28600 7.40495097 13.70220579 -19.637069400000005 3.19872 -2.600603 0.223297
28620 15.18367275 30.3929496 -27.12404178 4.169721 -5.882329 -0.7142970000000001
28640 4.83045381 12.434341770000001 -2.78436249 2.652918 -4.061733 0.322838
28660 -9.00721827 15.288904620000002 8.48750409 0.724426 -2.242258 0.133984
28680 -9.42410403 12.581481960000001 7.63876251 -1.21638 0.28495 -0.407308
28700 -9.54505152 4.04294625 8.020616760000001 -3.296767 2.518064 -0.808193
28720 -13.200895170000003 3.5143932600000003 22.025647440000004 -3.979012 3.201881 -0.727309
28740 -8.254134 7.340587560000001 15.163464150000001 -4.597285 2.528337 0.146246
28760 -4.89033405 15.323936130000002 13.070373120000001 -4.649757 2.488464 1.104125
28780 -3.4561611 35.86032747 16.730856900000003 0.176619 2.829275 1.999456
28800 8.415047430000001 57.29485374000001 -12.250227690000001 -0.909607 0.573318 0.471475
28820 2.91413898 36.369417420000005 -47.83303026 1.355008 5.589852 0.6015739999999999
28840 3.36754737 15.32962593 -14.856754500000001 1.849523 2.460296 0.915618
28860 1.63295298 5.42427273 11.66449221 -0.307834 1.588854 -0.663279
28880 -0.82493271 -4.90545126 -5.92258149 -3.077428 -0.489321 -2.300455
28900 7.4046566700000005 0.87013719 -19.93045707 -3.901438 -2.7224060000000003 -2.318304
28920 7.875418950000001 3.48879897 -10.26670455 -1.424082 -3.786236 -2.429959
28940 2.4060987 2.07722826 -2.7593666100000003 -2.021233 -5.660883 -2.23838
28960 -0.008230590000000001 1.00320984 -4.16194155 -3.950476 -5.652853 -0.977477
28980 -0.32946885000000004 5.58428364 -7.01575884 -14.74753 4.365479 0.003557
29000 -0.18891117000000002 9.74862864 -0.39412656000000007 -1.133903 6.179099 1.388873
29020 2.4966548100000003 17.05927608 1.9959524100000001 1.147927 0.8618610000000001 1.121069
29040 3.72455289 26.60851647 -2.3144831100000003 -2.853383 4.69679 -0.187251
29060 -1.15095825 24.9354504 -0.75293712 -2.415085 0.100572 -0.944215
29080 -10.85991525 44.35979976 -0.73213011 -0.20648 -5.157708 -1.24038
29100 -16.164437309999997 30.34040724 -2.37586428 2.325578 -0.82314 -0.7625029999999999
29120 -3.44553687 20.50570566 0.6969514500000001 2.273341 0.54014 -0.117272
29140 3.95133066 16.035102270000003 4.520448 2.133274 -1.615576 0.169727
29160 9.699980850000001 13.288763340000001 4.117933890000001 3.120043 -3.188834 -0.190969
29180 0.09894366 5.24478897 4.17078036 4.659783999999998 -2.713568 -0.232098
29200 -8.58120921 -0.38469915000000005 6.55502238 4.958596 -1.036461 0.4824810000000001
29220 -7.04046042 -8.18513046 9.134905230000001 4.7512620000000005 -0.004873 1.359926
29240 -2.8038157200000002 -14.057867340000001 13.62660993 4.3665059999999984 0.11681400000000003 1.631615
29260 -1.27819395 -15.095961540000001 14.005177830000001 4.479895 2.069857 0.903514
29280 -0.49906413000000005 -7.74085518 9.302401170000001 4.157133999999999 3.128051 -0.772932
29300 0.9018725400000001 2.34382482 3.7034515800000003 4.478527 2.613125 -0.15366400000000002
29320 2.6206041600000005 13.842616320000001 -16.15470579 2.420705 -1.463398 0.226019
