time Ax Ay Az Gx Gy Gz
20 -4.8847914 21.368661930000002 -1.2582796500000002 -1.815747 2.6546 -2.135437
40 -3.3781716000000004 25.5949767 -5.25647268 1.0351629999999998 -0.479734 -0.5401520000000001
60 5.047058610000001 19.14099732 -5.34657753 -0.606057 3.143868 1.262922
80 9.2720196 15.585588450000001 -4.26044376 -0.7033 3.763474 1.443047
100 7.792642170000001 13.446684720000002 -0.41957370000000005 -0.411633 1.1553129999999998 -0.31414000000000003
120 4.079017620000001 11.22215931 0.56402595 3.411822 -4.659827 -1.545824
140 1.0674261 8.31535821 0.6506973 0.587118 2.301338 -0.859835
160 -6.9208568999999995 -0.32916474 2.7113074200000002 -1.128876 2.931919 -2.284819
180 -5.957612999999999 -4.2968192400000005 3.71991276 -2.434441 -0.173999 -2.857184
200 -4.25071224 -7.27023024 7.613913780000001 -3.000221 -1.453148 -2.163016
220 -4.91473152 -10.143059310000002 7.904613510000001 -2.27061 -1.264717 -1.6998939999999998
240 -2.41342677 -5.933362679999999 0.32377905 -3.597824 -1.185624 -1.148449
260 4.63481298 5.89729131 -16.11548541 -3.104186 0.781559 -1.480807
280 15.04356633 24.45853725 -13.59637551 -2.262411 1.059475 -1.913255
300 9.24102981 12.26728728 4.08590424 -1.787732 1.385491 -1.802466
320 -8.84286153 3.95268444 11.144326770000001 -1.114012 2.117714 -1.416275
340 -11.70416385 27.50590584 -24.5079306 -0.677053 1.597387 -0.878445
360 -1.2660687899999998 4.9753573200000005 16.79612283 0.143835 0.012058 0.056537
380 -0.9497747700000001 4.73330538 5.00244273 0.162427 -1.702262 0.37933
400 1.6313049000000004 12.55394529 6.61608963 1.463489 -1.549909 1.376328
420 6.0555069900000005 27.41115105 3.5979156 2.699374 -1.397743 1.678527
440 11.800861020000001 20.202586470000004 -1.79790813 3.5069790000000003 -2.039297 1.044057
460 5.323680990000001 18.79267365 0.45714600000000005 3.380489 -2.968285 1.436401
480 0.30462012 20.61138879 -3.4030203300000004 3.861533 -1.620687 2.343887
500 -2.9870370900000003 19.1748222 -8.48959362 4.45804 1.786945 2.405644
520 0.64426194 13.911168600000002 -8.908127460000001 3.690366000000001 2.184629 2.454251
540 3.7308411 13.08788397 -3.7600356600000002 2.976485 1.979659 1.319348
560 4.2628374 4.110154560000001 -4.7066614200000005 2.850814 2.033671 2.039451
580 7.522308000000001 -2.3483178000000002 -7.37950383 2.134092 1.517859 2.18252
600 10.57475817 -0.48409407000000004 -6.25714173 0.865663 -1.196969 1.810739
620 7.42501242 -3.21471738 -2.17976238 0.077809 -2.26808 1.555576
640 0.42301701 3.63639042 -5.353621110000001 -0.285605 -3.173514 0.793624
660 -3.7194615 8.211774420000001 -4.241127870000001 -1.147835 -3.339709 -0.052876
680 -2.60862615 12.623694390000002 -2.24937414 -2.483099 -0.380214 -0.532809
700 2.92432176 20.726793630000003 -0.38200140000000005 -4.328461 2.321105 -1.008495
720 2.19788145 26.24163228 3.58279839 -3.896517 2.464397 -1.784396
740 -6.80709033 17.53573797 1.87470081 -2.207547 1.036455 -1.798542
760 -2.17692729 30.61688247 -6.9708584700000005 0.440442 -0.6658810000000001 -0.626321
780 4.0222863900000005 20.709881190000004 -5.21455455 0.8015939999999999 1.915505 1.133323
800 7.15691493 14.68505988 -1.6762150800000002 0.729913 2.327245 1.591631
820 7.0344763200000004 14.037511590000001 -3.2825241000000003 -1.513179 2.022225 0.429083
840 8.11537155 11.0248704 0.91160406 3.286372 -10.055094 -2.057875
860 6.28976979 9.986030640000001 0.96908085 1.939851 3.43905 -0.168182
880 -1.86212439 4.462225650000001 1.5343134299999999 -1.519005 2.412227 -1.455801
900 -4.4453034 -3.70120509 5.13447552 -2.08688 -0.904849 -2.342141
920 -4.23574218 -11.747268990000002 8.29665054 -2.849336 -1.966683 -2.541591
940 -5.84998749 -12.496311539999999 7.76809755 -2.660118 -0.990037 -2.120641
960 -5.58114444 -8.55680193 1.34226306 -2.778013 -2.3844540000000003 -1.4937
980 1.51559595 1.8887683500000003 -4.23858708 -3.621874 -0.577367 -1.123759
1000 8.61833025 15.229475640000002 -25.259523750000003 -1.974002 0.269834 -1.829043
1020 12.840593490000002 28.294757370000003 -12.15817065 -2.19532 1.0212629999999998 -1.207711
1040 -1.81273104 0.45400680000000004 19.707122610000003 -1.468165 2.672727 -1.110744
1060 -12.41997012 10.14755229 6.2149293000000005 -1.312062 2.388355 -0.993921
1080 -1.07985537 28.552220820000006 6.667582320000001 -0.691754 0.08139400000000001 -0.307243
1100 1.45137969 4.12721415 7.8624010800000015 0.050046 -1.151966 0.057373
1120 -0.99004482 0.24040386000000002 6.06313917 0.259931 -2.305612 0.395739
1140 1.9736444700000002 5.61152601 9.23564412 1.942613 -0.755848 1.918109
1160 3.94400259 37.07804277 4.16104884 2.849942 -0.873273 1.4599209999999998
1180 11.82810339 21.787038810000002 -3.2805817200000003 3.583911 -2.443595 0.8506959999999999
1200 4.32361035 15.985404810000002 -2.56670802 3.458686 -2.510141 1.349834
1220 -2.11211262 18.40917132 -2.8506682800000003 3.710675 -0.135684 2.738309
1240 -4.06763802 18.2084391 -8.51279427 4.075457 2.613683 2.183994
1260 1.4865583500000001 16.500488670000003 -4.14038898 3.622333 2.119196 2.093869
1280 4.5668493 12.46323222 -2.5679146500000005 2.785067 1.5302790000000002 1.443569
1300 3.6301022100000004 1.8995495400000002 -6.19022772 2.325078 2.600899 1.837431
1320 6.989860439999999 -2.2296168 -5.63562918 1.6594830000000005 1.2280879999999998 2.331264
1340 9.150473700000001 -1.9749884400000002 -5.30197146 0.949678 -0.705523 1.6493950000000002
1360 5.65554348 -3.7006066800000004 -0.89574129 0.263279 -1.771699 1.1385610000000002
1380 1.26920799 3.3882072300000003 -6.3141672600000005 -0.519722 -2.0651330000000003 0.340847
1400 -5.56751835 8.7861303 -7.829164800000001 -1.517828 -1.4125379999999998 -0.552517
1420 -4.547690370000001 9.18056097 -1.81378071 -2.882173 0.373671 -1.434937
1440 0.37706697 15.53663655 0.2314179 -3.918048 2.3283810000000003 -2.116589
1460 5.09210613 30.95338509 1.64103642 -2.69202 2.295522 -2.420972
1480 0.7518874500000001 26.80655094 2.45938662 -1.106173 0.267439 -1.450169
1500 -5.21500581 23.716087020000003 -5.37098481 1.539881 -2.074688 0.943836
1520 -1.4042328300000002 21.906642330000004 -5.3251721100000005 0.4215390000000001 5.094285 1.99506
1540 6.31072395 16.68146355 -1.5067669500000003 -0.190264 1.626533 0.998579
1560 7.12981971 14.0065218 -2.3635821600000004 1.155635 -8.132319 -1.531497
1580 6.70381065 10.489734900000002 0.08157996 1.457948 3.852579 -0.067392
1600 3.9505851000000005 7.003035270000001 0.59381892 -0.480156 4.135011 -1.083284
1620 -1.26831528 3.5443333800000003 0.6230036700000001 -1.0825 1.023051 -2.883458
1640 -4.973562090000001 -1.5962832 2.8853956800000002 -2.28965 -1.580604 -4.202466
1660 -4.70381652 -6.99241104 6.19771275 -3.3178160000000005 -3.509327 -2.63689
1680 -4.9308984 -11.07128151 9.074877840000001 -2.870536 -1.816558 -1.705514
1700 -2.49681177 -9.83379906 4.1412915 -3.247467 -0.443984 -0.971764
1720 3.1302925200000002 -0.6536893500000001 -5.344939260000001 -2.164893 0.260178 -1.380643
1740 12.66471 15.45835275 -25.019875260000003 -2.262763 0.974391 -1.681344
1760 11.255689890000001 26.208847260000002 -7.270975800000001 -1.554296 2.514023 -1.573682
1780 -6.991361370000001 6.81592914 17.94289221 -1.294547 2.442803 -1.038734
1800 -16.65706608 32.93571141 -54.595818630000004 -1.070086 0.954676 -0.716929
1820 2.00358459 3.80359206 29.306060460000005 0.038245 -0.7385189999999999 -0.228454
1840 -3.89579625 -3.31739865 4.6666954800000005 0.568789 -2.007121 0.340898
1860 -1.9309807800000003 4.24442403 8.931024 1.686062 -1.039968 1.265066
1880 -1.82051037 22.4601912 0.6843750300000001 2.731627 -0.252404 1.342931
1900 9.57963177 35.88592176 0.55983708 3.629418 -1.661388 1.003835
1920 12.586131900000002 16.73220087 -0.48708612000000007 3.4426910000000004 -2.995691 1.57574
1940 1.1268550800000001 16.71004989 -0.7816706099999999 3.6559 -1.145349 2.997729
1960 -5.4944730900000005 19.171977299999998 -7.168745790000001 3.748906 2.710451 2.775521
1980 0.51762465 18.09661491 -8.02675782 3.490394 1.014216 2.812208
2000 3.8736452700000004 14.82412644 -4.99496751 2.808735 1.143324 1.488027
2020 4.42405494 9.36916803 -4.15476063 2.234405 1.631904 1.814538
2040 3.9754338300000005 -1.7983593900000001 -6.770871810000001 1.630759 1.291921 2.3769150000000003
2060 9.06559758 -1.2433194000000003 -6.273750060000001 0.928505 -0.94147 2.330007
2080 8.13558015 -1.8226097100000003 -3.09915558 0.229493 -2.206793 1.815067
2100 5.072947200000001 -2.52449559 -1.8754463700000001 -0.4905060000000001 -2.60013 0.90469
2120 -1.7006125500000002 4.19831703 -6.50472651 -1.429388 -1.465777 -0.103178
2140 -3.99160071 7.33803696 -5.5212642 -2.823584 0.431851 -1.11734
2160 -1.23343092 11.92749831 -1.32818571 -4.14254 2.706481 -1.637942
2180 5.989191389999999 22.15138221 0.27258066000000003 -2.714625 2.334897 -1.859296
2200 4.21478802 28.28068983 4.74079041 -1.022648 0.151883 -1.396026
2220 -3.3585614100000005 23.894658450000005 -4.13754408 1.1196469999999998 -1.884699 0.151241
2240 -3.05813997 28.2356325 -4.59693657 -0.505959 5.482944 1.50952
2260 2.9779039800000002 19.530336600000002 -4.00387302 0.070497 2.94218 1.030761
2280 6.911282340000001 15.16721157 -2.0098728 0.175833 -1.023708 -1.221642
2300 8.01778167 12.97367595 -1.78683264 2.830738 -1.221353 -1.515833
2320 5.654640960000001 11.753557200000001 0.9755260200000001 0.302962 4.146213 -0.834274
2340 2.1314187 8.147254049999999 1.6965708300000002 -1.063954 1.957986 -2.273503
2360 -3.95716761 1.72022274 2.9326995 -2.764885 -0.523565 -2.798155
2380 -6.008056020000001 -4.242923100000001 4.5514377900000005 -3.041106 -0.566858 -2.388764
2400 -6.67941318 -8.90378163 9.1766664 -2.348212 -1.4127379999999998 -1.911754
2420 -6.42778668 -12.54182013 7.70103639 -3.1333 -0.347195 -1.831009
2440 -1.38866436 -5.57724987 -0.8439444899999999 -2.617136 1.046451 -1.812098
2460 3.34090341 4.467905640000001 -16.9711038 -1.963422 0.312049 -2.00528
2480 11.98976238 23.557115969999998 -14.37490692 -1.44553 1.598275 -1.765097
2500 7.29238122 16.862134320000003 0.94707702 -1.083341 2.095086 -1.378644
2520 -10.49018616 6.180044939999999 12.05338023 -0.900729 1.282533 -0.801624
2540 -17.629590240000002 24.44401845 -32.26330458 -0.117956 -0.661863 0.183758
2560 1.17610128 7.04794545 21.47164731 0.4652770000000001 -2.040625 0.550658
2580 2.70951219 2.6617669200000003 5.00334525 1.759003 -1.89036 1.277347
2600 1.83803103 11.07187992 6.7674285 2.74343 -0.383732 1.6732619999999998
2620 4.42525176 27.01208025 3.16831608 3.698614 -1.6584720000000002 1.279916
2640 9.238783320000001 23.760693090000004 -1.8977543100000003 3.777214 -3.639922 1.753022
2660 6.290515350000001 17.5722606 0.04161402 3.868882 -1.511318 2.958025
2680 1.89326133 19.09758807 -2.37974904 3.963678 1.778029 3.198027
2700 0.31000581 21.04428447 -9.66554775 3.412261 1.939351 3.559301
2720 1.8627228 16.33313988 -6.78239856 2.900962 1.865861 1.870169
2740 5.40959697 14.805261810000001 -3.3653008800000004 2.463386 1.462379 2.450879
2760 4.985530290000001 6.03080541 -3.9797698500000003 2.015012 0.916425 2.439901
2780 6.811132050000001 -3.2476495500000007 -7.36304265 1.19051 -2.055446 2.027753
2800 10.262662830000002 -1.2644207100000002 -6.5629488600000006 0.210961 -2.830842 1.514499
2820 7.65433098 -4.9772997000000005 -1.66184343 -0.360011 -2.674664 0.516864
2840 2.30416299 1.39555098 -3.0229613100000003 -1.962745 -1.741939 -0.641729
2860 -3.38565663 9.32530752 -6.733750770000001 -3.869833 0.577879 -1.296819
2880 -3.2983868700000003 10.85632479 -3.2955517800000003 -3.944737 3.007392 -1.6689919999999998
2900 2.06540721 16.54224984 -0.35521029 -1.820638 2.699684 -1.950727
2920 3.81900357 27.200540160000003 3.7308411 -0.366973 0.408078 -1.031784
2940 -4.52089926 23.08484295 2.28724074 1.149728 0.417949 0.510628
2960 -4.6997748 29.44601973 -5.351973030000001 -0.4442680000000001 5.788973 1.38244
2980 0.92447478 22.781429460000002 -4.09533165 -0.989909 -0.409147 -0.452907
3000 7.572152610000001 16.71124671 -2.34951462 2.705302 -4.615256 -1.689685
3020 8.318801520000001 15.084729090000002 -1.8691581600000002 0.8732540000000001 2.286956 -0.442279
3040 8.05655079 12.31848567 2.44531908 0.362907 2.723378 -2.309383
3060 3.5780111100000003 7.7251395600000015 2.02004577 -1.382067 -0.36200000000000004 -3.374089
3080 -4.23005238 0.64635147 0.6738979500000001 -3.707597 -1.848702 -2.7966330000000004
3100 -5.72184927 -5.796993870000001 2.90725236 -2.28456 0.137143 -1.943206
3120 -4.18559346 -7.540417260000001 7.18895439 -2.9505630000000003 -1.130148 -1.729385
3140 -4.80740031 -10.305473670000001 7.4329389 -3.254755 0.67575 -1.795781
3160 -2.01181518 -5.97153339 0.21465261000000002 -2.186807 0.554045 -2.388506
3180 1.03015791 2.1115044 -9.38413809 -2.062972 0.663075 -2.056632
3200 9.10212021 14.12627247 -14.57714007 -1.4615280000000002 1.428793 -1.45948
3220 9.970167870000001 18.02072475 -1.2998936700000001 -1.063234 1.983684 -0.97671
3240 -8.90229051 14.706318150000001 0.14265702 -0.643573 0.4431810000000001 0.018438
3260 -9.61091586 22.21740351 -2.85171795 0.138196 -1.368749 0.6457890000000001
3280 -2.4191165700000004 2.60293635 17.57494854 0.8627020000000001 -2.456999 0.96737
3300 -3.56558184 1.05426108 4.55682348 1.902253 -1.678292 1.665841
3320 -1.7449243200000002 13.48575795 4.70007891 2.922086 -0.633037 1.792334
3340 6.39889623 28.59907338 3.32458938 3.5819970000000003 -1.662493 1.586755
3360 13.376337209999999 20.00036313 -1.14332607 3.399043 -2.686594 2.103809
3380 4.99960764 18.4748787 0.30342330000000006 3.794006 -0.478358 2.846152
3400 0.51133644 19.965930030000003 -3.80538729 3.951395 2.076569 3.143079
3420 1.85344254 20.51304354 -8.03753901 3.157566 -0.058842999999999986 2.915944
3440 5.126990490000001 17.76072051 -7.265894220000001 2.876134 1.617524 1.923725
3460 5.771095470000001 13.2339843 -4.088297880000001 2.540011 1.857587 2.652802
3480 4.19831703 4.41880659 -5.529200490000001 1.833674 0.692152 2.206049
3500 6.49439658 -1.51095582 -7.33714425 1.057917 -1.7318650000000002 1.942022
3520 9.796079610000001 0.9554645700000001 -6.781348889999999 0.356341 -2.439802 1.367598
3540 6.82281576 -3.8052401400000004 -2.5860239100000006 -0.439875 -2.552344 0.366598
3560 2.40909075 -1.42428447 -2.24817732 -2.0304330000000004 -0.8576860000000001 -0.6016739999999999
3580 -3.0849310800000005 6.82894701 -5.07100482 -3.926052 1.637872 -1.259046
3600 -3.7892204100000004 10.365344100000002 -3.5154429300000003 -4.475151 3.897767 -1.693066
3620 0.18427104 16.3343367 -1.8004587300000001 -2.419477 2.6653 -2.156759
3640 3.7679621400000003 25.903785690000003 2.9324052000000003 -0.6736949999999999 -0.750783 -1.60394
3660 -2.25416142 21.03994845 2.06091423 1.0084540000000002 -0.268317 0.15800699999999998
3680 -5.015166300000001 25.96845321 -7.56182268 0.065573 5.374573000000002 1.475195
3700 1.5886510200000001 24.623345250000003 -2.44635894 -0.867662 -1.042843 0.203579
3720 5.4881848799999995 17.413436700000002 -3.63383982 1.241899 -1.904832 -0.247394
3740 5.773341960000001 15.4118043 -2.21015376 0.43085 1.579543 -0.041743
3760 9.58546872 12.43853064 0.29383893 -0.009794 2.287547 -1.953573
3780 5.675143860000001 10.73956617 1.4844590100000001 -1.151851 -0.426884 -3.86378
3800 -0.96219423 3.54328371 0.84559257 -2.433303 -1.850623 -2.888142
3820 -6.50652174 -3.6955152900000003 3.51049869 -2.002042 -0.374148 -1.932031
3840 -5.49612117 -6.9945005700000005 6.27211179 -3.09472 0.126875 -1.869803
3860 -6.671928149999999 -11.02682259 8.728496550000001 -3.085715 1.666234 -1.620681
3880 -5.20183098 -9.83798793 3.52876491 -1.944109 0.720348 -2.096467
3900 0.22304016000000004 -0.6846791400000001 -5.85657 -1.603218 1.40474 -2.246651
3920 9.59744673 9.8068608 -21.186038970000002 -1.090783 1.647502 -1.59604
3940 16.037947170000002 22.818844800000004 -4.1504148 -0.8340690000000001 1.678187 -1.234295
3960 -3.25617444 14.093497260000001 8.046515160000002 -0.437961 0.5067050000000001 -0.32738
3980 -11.53756062 21.664001790000004 -19.09833363 0.32868600000000003 -1.169638 0.238804
4000 -3.2467470300000003 4.39351641 16.738341929999997 1.105683 -2.229125 0.780768
4020 -4.0002825600000005 1.84551606 7.63876251 2.039439 -1.5201209999999998 1.6858240000000002
4040 -2.8445370300000006 12.201727049999999 2.45295126 3.147554 -0.905964 1.917104
4060 1.25229555 25.127343810000003 2.5485987600000004 2.8351040000000003 -2.474159 2.2149650000000003
4080 9.44176203 21.18574467 2.6402143500000004 3.562219 -3.104703 2.890627
4100 6.362373600000001 15.18337845 1.5952335300000002 3.881398 1.286003 2.970552
4120 1.72232208 19.064057490000003 -2.03860629 3.462142 1.695864 3.134809
4140 0.07394777999999999 21.74049036 -7.18640379 3.204462 -0.025205 2.721812
4160 5.30032338 19.19562921 -6.77716002 2.854611 2.469092 2.1051490000000004
4180 8.19410661 17.83601226 -5.19090264 2.51223 1.162907 2.440922
4200 7.18714935 10.21925358 -3.8549376 1.970525 -0.636741 2.476832
4220 6.42508893 1.4373121500000001 -5.87154006 1.204502 -2.327955 1.965175
4240 9.974660850000001 -0.17753157 -6.6861428400000005 0.448053 -2.863278 1.428602
4260 9.79758054 -2.8987176600000004 -5.96689326 -0.4960850000000001 -2.809565 0.271463
4280 5.1404596200000015 -2.89243926 -1.4142586500000003 -2.077283 -1.465177 -0.756115
4300 -1.5271227 4.34427021 -1.0469232 -3.516731 1.266053 -1.071976
4320 -1.05276015 12.74360202 -5.9439869100000005 -3.626333 3.439597 -1.33831
4340 2.3599917 19.16704287 -3.5919315 -2.26802 2.746652 -1.587512
4360 -2.0001412800000002 21.87954711 4.625385570000001 -0.738556 0.780339 -0.829758
4380 -5.27712273 16.454528820000004 0.32572143000000003 -0.461515 2.030939 0.26870700000000003
4400 -1.68130647 24.03042885 -6.48466506 -1.775076 3.078568 -0.305832
4420 2.75771853 27.969634350000003 0.8240400000000001 -3.541784 -1.137682 -1.464313
4440 6.30563256 15.899037569999999 -4.3499502 -1.004703 -4.8212160000000015 -1.579672
4460 8.03857887 15.69321396 -2.05462602 2.778102 3.3218870000000003 -1.164169
4480 7.070243580000001 15.04251666 0.21285737999999998 -0.200439 -1.795869 -0.405023
4500 3.45032415 10.730285910000001 1.1066464800000002 -2.072763 2.128077 -0.7799159999999999
4520 -0.8497814400000001 5.718111660000001 0.5450141700000001 -1.7725970000000002 -2.471402 -1.667095
4540 -3.1292428500000002 -1.83847248 1.63055934 -3.11637 2.836118 -2.178938
4560 -2.40758982 -5.82918048 3.83128569 -2.091008 0.636383 -2.017269
4580 -3.01578039 -7.53757236 6.50307843 -2.434561 0.217623 -1.959312
4600 -3.7913197500000004 -8.95467591 4.173625260000001 -2.203534 0.707303 -2.072625
4620 -1.79746668 -2.57105385 -2.30445729 -1.624161 0.5599810000000001 -2.229691
4640 2.39846652 3.3483884400000004 -9.72992097 -1.349169 2.68512 -2.180287
4660 7.21335186 11.508817320000002 1.68699627 -1.094301 2.364033 -1.759352
4680 -0.30311919 6.21013221 4.412528190000001 -0.712182 1.042892 -0.976257
4700 -4.133502360000001 0.5117877000000001 -5.3447823 -0.01963 -0.217818 -0.123772
4720 -10.73222829 17.30700801 -18.39405411 0.540503 -1.10291 0.417522
4740 4.44141864 37.631591639999996 15.32707533 1.717265 -1.16376 1.559204
4760 4.854556980000001 11.75654925 3.96809595 2.984309 -0.757084 1.591034
4780 2.50219746 -4.854252870000001 5.196739590000001 3.778554 -1.529266 1.665937
4800 -0.96639291 6.34380327 5.723644500000001 3.343253 -3.2879400000000003 2.284719
4820 -0.27977139 37.62830529 10.43135559 4.100233 -1.220492 3.288281
4840 8.83463094 19.01495844 -4.61759643 3.770132 1.89385 3.173026
4860 5.04809847 21.301306470000004 -3.4061693400000004 3.315995 1.022976 3.169902
4880 -0.41449212 19.67643693 -7.58023605 3.13916 1.520678 1.938505
4900 0.21015963000000001 19.451601540000002 -4.75681014 2.748652 2.221102 2.408102
4920 5.52890619 17.41119021 -3.68384139 1.999364 0.868209 2.789162
4940 7.07368689 7.01845659 -4.75785981 1.253452 -1.109581 2.264126
4960 8.83193319 -2.2179330900000003 -5.3968734 0.6981109999999999 -2.445749 1.7588259999999998
4980 11.9069856 -1.9333842300000001 -6.524483850000001 -0.111312 -2.478079 0.690333
5000 8.58224907 -3.4040700000000004 -4.617743580000001 -1.779182 -1.696902 -0.608457
5020 1.60915392 2.22257322 -4.40937918 -3.838333 0.605855 -1.393843
5040 -2.94497181 5.67290718 -4.901860800000001 -4.283965 2.478324 -1.734777
5060 -2.19293721 10.51578045 -3.38161491 -2.3700240000000004 2.225474 -1.966775
5080 2.6102742300000004 17.4188322 -2.0378607300000002 -0.906421 0.693268 -1.552937
5100 2.28948723 25.95557268 4.02677937 -0.328975 0.31347800000000003 -0.318893
5120 -3.4305668100000006 19.79767872 1.5825099599999999 -0.106327 4.9472510000000005 0.596463
5140 -2.68137711 25.40950884 -8.39768373 -1.93205 -1.502478 -0.34592399999999995
5160 0.61747083 26.13085776 0.24983127000000002 2.5438810000000003 -2.097984 -0.7582760000000001
5180 5.38041222 15.476314859999999 -3.3144066000000003 0.060336 1.29017 0.449558
5200 7.74265041 15.12320391 -2.0450514600000003 0.374283 2.188191 -0.61869
5220 6.83598078 13.80938004 0.07439904 -0.300672 0.8336379999999999 -2.547673
5240 3.3709906800000007 9.9138879 0.55414728 -2.04595 -1.32619 -3.568702
5260 -1.18822644 3.70015542 0.2951829 -2.642451 -1.081764 -2.107582
5280 -3.50660412 -4.55368428 2.2858967700000004 -2.32106 -0.14186700000000002 -1.934558
5300 -2.9794049100000004 -8.731341450000002 5.04795132 -3.281601 0.459352 -1.735871
5320 -3.55421205 -10.83761712 5.7959442 -2.413877 1.549777 -2.382822
5340 -3.0979587600000005 -6.56040807 3.39045372 -1.742937 0.324537 -2.388316
5360 -0.24533829000000001 0.40400523 -2.62883475 -1.31308 2.027335 -2.08412
5380 3.98067237 6.25040226 -7.23011715 -0.766958 1.914248 -1.450978
5400 7.63622172 12.651986430000001 -2.0700473400000003 -0.5965699999999999 1.172388 -0.693604
5420 -3.17714508 14.699735640000002 -8.681643990000001 0.028101 -0.360189 0.273054
5440 -4.1516214300000005 33.070579290000005 -21.67477317 0.6454 -1.822846 0.8112149999999999
5460 1.47892617 12.435842700000002 21.1559517 1.694433 -2.022088 1.507801
5480 -3.3919448400000003 -0.8090699400000001 6.3896159699999995 2.519633 -1.309505 1.879052
5500 -4.263435810000001 1.55481633 1.87275843 3.701153 -1.340771 1.747408
5520 -2.66521023 13.551916590000001 3.2180037300000004 3.356328 -2.924036 2.11236
5540 8.56877994 32.79979386 4.0983237 3.932753 -2.295421 2.917816
5560 11.25988857 14.4605286 1.21337928 4.076989 0.958004 3.0407040000000003
5580 3.6149850000000003 14.542255710000001 0.99124164 3.368091 1.040561 2.989713
5600 -2.5363264500000002 19.5098337 -6.17241276 3.211132 1.297102 1.843154
5620 -0.15777423000000002 20.41469829 -6.4635637500000005 2.751611 2.339599 2.342809
5640 6.83898264 19.95994593 -4.76982801 1.858887 1.977105 2.392586
5660 9.54355059 13.88512305 -4.0540217400000005 0.879078 -0.26937 2.129043
5680 7.3982115 3.27099735 -4.84752321 -0.057364 -2.004303 1.509429
5700 10.67370183 -0.45849978 -7.978855590000001 -0.903097 -2.1107 0.612761
5720 10.78013052 -0.72853965 -7.3946210400000005 -2.318975 -0.986556 -0.624889
5740 7.050790350000001 -3.05304858 -1.89400689 -4.206337 1.250901 -1.479493
5760 -0.35475903000000003 3.18671964 -3.5079579000000005 -4.198653 2.898885 -2.018867
5780 -2.63826216 7.359893639999999 -4.040101350000001 -2.161496 1.680045 -2.145149
5800 -1.5658918200000003 12.99298203 -4.3063938 -0.253183 -1.004622 -1.892302
5820 2.27901015 22.492829070000003 1.2290949000000002 0.777033 0.364601 0.056235
5840 -0.13890960000000002 26.90639712 4.7764203300000005 0.173958 6.208489 1.696005
5860 -5.7034359 23.145321600000003 -2.074089060000001 0.316176 -3.104902 -0.101703
5880 -3.6296509500000003 24.478598700000003 -3.3873047100000004 1.215657 -0.665758 -0.530108
5900 2.2866423300000003 18.4891032 -2.8818052200000004 0.08138300000000001 4.284259 -0.532623
5920 4.59633816 15.266606490000001 -3.0819390300000005 0.087701 2.4116 -2.15815
5940 9.46766043 12.112210800000001 -2.11285818 -0.7963060000000001 -2.012581 -4.5621550000000015
5960 6.878350169999999 9.47320308 0.29907747 -2.770979 -2.8539380000000003 -2.107277
5980 4.00537395 5.7749900400000005 0.46134468 -1.883647 -1.040242 -1.162299
6000 -2.26927863 -0.5276504700000001 1.40916726 -2.980714 -0.421758 -1.432469
6020 -3.7368252 -5.22772938 4.74798114 -3.101581 1.164666 -1.917115
6040 -4.68181269 -8.93237778 7.168294530000001 -2.1919880000000003 0.296595 -2.204478
6060 -5.658231420000001 -10.316843460000001 5.38175619 -1.704873 0.74839 -2.1236740000000003
6080 -0.27377748 -1.71587691 -2.7596609100000005 -1.216941 1.557518 -1.627784
6100 6.621181020000001 6.82071642 -14.6834118 -0.8742620000000001 1.563097 -1.189563
6120 15.078744990000002 19.74738285 -6.61324473 -0.494437 0.191001 -0.18316
6140 0.74739447 26.058263760000003 -8.37658242 0.15773199999999998 -0.676012 0.5521020000000001
6160 -11.902943880000002 15.3366597 -8.29305027 0.706549 -1.716549 1.081766
6180 -7.3389394800000005 0.86669388 14.98698225 1.838557 -1.272483 2.002434
6200 -5.252126850000001 -2.96982054 9.11933676 2.709162 -1.094163 1.942057
6220 -2.73077046 7.6513389300000005 2.7677443500000005 3.637613 -1.044216 1.700651
6240 5.02011054 32.95516464 0.24713352 3.780233 -1.259123 2.03948
6260 13.84919883 21.274064100000004 3.90103479 3.457189 -0.753606 2.973407
6280 9.19747341 11.25973161 0.80247762 3.3710480000000005 0.8241069999999999 3.304069
6300 -0.08471916 17.78990526 0.8180460900000001 2.974587 1.644736 3.555553
6320 -2.17332702 20.81766366 -6.301894949999999 2.812878 -0.009132 2.505412
6340 4.5551754 18.85254408 -6.856042230000001 2.469135 1.489144 2.146442
6360 7.0045362 16.20500166 -5.079235409999999 1.159019 1.641412 2.76521
6380 6.299197200000001 9.60627573 -3.73787487 0.12731099999999998 0.006157 2.076437
6400 4.599487170000001 2.0251371600000003 -5.29972497 -0.406877 -1.273283 0.95378
6420 9.517662 0.8783775899999999 -6.111786960000001 -0.987673 -1.619857 0.216299
6440 10.01223315 -0.36104724000000005 -6.705605879999999 -2.058625 -0.410576 -0.76695
6460 5.63832693 -3.00035907 -2.9271666600000006 -3.941083 2.050025 -2.017048
6480 -0.81715338 3.80209113 -4.18230711 -4.094592 3.967764 -2.742696
6500 -2.3294531700000007 6.411914100000001 -5.116062149999999 -2.072791 1.497272 -2.601494
6520 -3.01532913 7.555838580000001 -2.5738987500000006 -0.169916 -2.714441 -1.951486
6540 -0.30462012 13.505368140000002 -2.77986951 -0.197854 0.078555 -0.292039
6560 3.6473187600000005 26.360333280000003 2.3457672 0.215167 4.173529 0.932985
6580 1.38761469 30.42737289 2.0275308000000005 -1.466666 -1.053079 -0.179811
6600 -5.899233690000001 24.00976899 -6.9624709199999995 -1.058903 -5.901457 -1.519914
6620 3.3242852700000003 20.87095158 -3.07146195 2.561055 2.838623 -1.068925
6640 6.155951580000001 14.311436220000001 -2.1749751 -0.15003 -1.176072 0.397838
6660 7.719744060000001 13.1098878 -2.98344663 -1.39241 2.451889 -1.094977
6680 7.1406009 9.334440630000001 -0.34353639 -2.130557 -0.762574 -2.452656
6700 5.536538370000001 7.6115201400000005 -0.29938158000000004 -3.0059150000000003 0.720627 -2.045132
6720 1.75764789 3.68698059 0.9651960900000001 -2.329778 1.951222 -2.414796
6740 -5.01891372 -1.14032421 4.611465180000001 -2.5756810000000003 -0.26055 -2.13701
6760 -8.412359490000002 -7.01516043 7.476505110000001 -1.914206 0.8358110000000001 -2.225661
6780 -9.640404720000001 -9.936186029999998 7.17667227 -1.265943 1.261626 -2.181086
6800 -2.24682354 -6.758442540000001 -2.40265539 -0.6289819999999999 2.718836 -1.912517
6820 5.62216005 3.6675273600000002 -15.056437050000001 -0.713023 2.37071 -1.362524
6840 15.12589185 14.046487740000002 -4.679419050000001 -0.526654 0.406091 -0.397305
6860 9.17501832 13.472887230000001 0.10193571 0.06527899999999999 -1.099765 0.043526
6880 -6.86397852 3.0573944100000006 3.75255063 0.766074 -1.7469869999999998 0.384672
6900 -17.93196387 17.147742660000002 -33.344660880000006 2.053826 -1.061574 1.5539459999999998
6920 -0.38874087000000007 24.598349370000005 24.74204625 2.952092 -0.929042 1.464979
6940 4.608021870000002 11.051514359999999 7.942931370000001 4.023953 -1.171813 1.307203
6960 4.3146243900000005 2.32092828 3.73218507 3.50407 -2.174291 2.036588
6980 0.89797797 11.82211929 3.3542253900000003 3.571318 -0.912852 3.536293
7000 0.07020036 34.40430765000001 7.7706383400000005 3.604484 1.7022419999999998 3.281073
7020 5.5440234 18.532806750000002 -3.0867263100000004 3.174378 0.8360290000000001 3.157401
7040 6.537354570000001 19.36597986 -4.51790721 2.92321 1.910097 1.7111029999999998
7060 0.76386546 19.517760180000003 -7.7284259099999995 2.143933 2.606191 2.268789
7080 1.43611533 18.57951216 -5.7946002299999995 1.392208 1.121253 2.107344
7100 6.52343418 16.15860036 -3.40541397 0.755937 -1.43612 1.771823
7120 7.71465267 5.2676953200000005 -4.352952060000001 0.225601 -2.470743 1.226788
7140 10.355171130000002 -2.73211443 -5.96868849 -0.749901 -2.057727 0.286887
7160 11.65775274 -2.59695225 -5.81106141 -2.2717240000000003 -0.637703 -1.058704
7180 8.36879328 -4.2804954 -2.3156799300000004 -4.154335 1.625633 -1.995561
7200 1.36994688 2.25640791 -4.7199834 -3.532735 2.899698 -2.532304
7220 -4.08006729 7.738902990000001 -5.09121342 -1.316186 1.180015 -2.241153
7240 -5.0308917300000005 8.418794850000001 -1.5437408400000001 0.369449 -1.403548 -1.239031
7260 -1.0532114099999998 13.28457447 -2.34008721 0.107612 2.296978 0.91007
7280 4.43632725 29.438829000000002 -0.50370426 -0.355995 4.250617 1.330549
7300 -0.7126670700000001 30.599813070000003 2.66535738 -2.289373 -3.448182 -0.175011
7320 -7.84084851 22.659726600000003 -6.683150790000001 3.211592 -4.805242 -1.7702950000000002
7340 -1.9526903100000002 23.11792227 0.11406087000000001 1.5118120000000002 0.114126 -1.0781040000000002
7360 8.82190737 15.28096833 -4.527785880000001 -0.708896 2.971723 -1.6815950000000002
7380 8.351733690000001 13.96311255 -2.65428189 -1.207831 -0.247066 -1.899941
7400 7.978404330000001 12.26893536 -1.25483634 -3.791512 -3.337701 -1.989872
7420 4.65816078 8.66607552 0.9304686900000001 -3.398681 0.962814 -1.531167
7440 -0.94379067 3.9428057700000005 0.76236453 -3.131564 -0.53217 -1.927968
7460 -4.66399773 -2.95276095 2.333799 -3.036981 0.424712 -2.075948
7480 -4.31014122 -7.03627155 6.487657110000001 -1.892101 -0.073486 -2.356801
7500 -6.562056149999999 -11.48246766 8.036783640000001 -1.701819 1.07599 -2.000159
7520 -3.39000246 -8.47746846 2.4815376000000002 -1.00929 2.529903 -1.754698
7540 2.0092743900000003 0.76026519 -9.14538231 -0.8218639999999999 2.2162740000000003 -1.275492
7560 12.925920870000002 9.67482801 -9.80790066 -0.386644 0.458986 -0.16031800000000002
7580 12.79270107 15.469133940000003 -1.53326376 0.274554 -1.249837 0.095386
7600 -6.590348189999999 2.4489095400000003 2.61192231 1.067457 -1.954247 0.53873
7620 -16.46995014 16.439715720000002 -36.9696717 2.258737 -0.484087 1.881513
7640 4.64993019 27.172689570000003 28.070226090000002 3.2794300000000005 -0.690459 1.98932
7660 6.78718584 10.981461150000001 6.61519692 2.8327 -2.4063790000000003 2.58233
7680 2.8252211400000005 0.0634707 1.54403514 3.539757 -2.213651 3.321958
7700 2.4673229100000005 11.928989430000001 4.91697801 3.735618 1.864771 2.749806
7720 2.33588853 31.03107048 7.2355028400000005 3.232091 1.111452 2.69598
7740 2.77657335 19.289040030000002 -2.5174618200000003 2.667662 1.368638 2.006977
7760 1.5911918100000002 19.09039734 -0.41418801000000005 2.505053 2.0340580000000004 2.774109
7780 0.37108287 20.00709279 -8.75783826 1.79594 1.283536 1.933699
7800 0.60354063 17.64560997 -6.58929852 1.102035 0.147543 1.838441
7820 3.2879097900000005 16.030766250000003 -2.71086597 0.422313 -1.132406 1.7669669999999995
7840 4.35114702 8.95467591 -4.115991510000001 -0.374394 -1.443683 0.914701
7860 6.025566870000001 -1.1707155900000001 -6.06763215 -1.332234 -1.394016 -0.284189
7880 10.73686842 -1.47862206 -6.715033290000001 -2.666129 -0.007287 -1.458577
7900 8.76711852 -3.0451221000000004 -3.23746677 -3.799185 1.829906 -2.237965
7920 5.38789725 -1.9696027500000002 -2.31613119 -2.360051 2.152453 -2.361854
7940 -2.23469838 4.54694481 -3.0617304300000003 -0.604905 -1.039051 -1.7686650000000002
7960 -2.64978891 11.14881975 -6.11268948 0.438617 0.185216 -0.07835800000000001
7980 0.18561501000000002 20.24001162 -1.4721867000000002 0.651564 7.106974 1.966314
8000 -1.14407163 28.997251470000002 3.6597382200000004 -0.665795 -3.288288 0.5219239999999999
8020 -3.0093450300000004 24.340130550000005 -0.29697813 2.294419 -1.69918 -0.639821
8040 0.8928963900000001 26.11858545 -3.5308544400000006 0.332692 0.703818 -0.205813
8060 3.20123844 20.386857510000002 -1.6700740200000002 -0.641796 2.503595 -1.887762
8080 5.4458253 15.92642709 -1.9577817000000002 -1.323892 0.102584 -3.987437
8100 7.695650700000001 13.726152 0.52166637 -2.857549 -2.71968 -3.370692
8120 5.3513746200000005 11.869119 0.84528846 -2.069378 -1.057092 -2.114293
8140 1.2796850700000002 8.80963506 1.4874608700000003 -2.981406 -1.263641 -1.88539
8160 -3.96689913 2.5474019400000003 0.47526507 -2.954637 1.222256 -1.794385
8180 -5.861514240000001 -3.33655758 4.844521350000001 -1.916471 0.133645 -2.186321
8200 -2.89707939 -6.80290146 8.919948510000001 -1.750854 1.243727 -2.079765
8220 -4.321216710000001 -10.08917298 7.93754568 -1.140403 1.808353 -1.551727
8240 -3.2030434800000003 -8.85004245 -2.9762657100000003 -0.952109 1.812735 -0.946872
8260 3.7211095800000002 1.2323910599999999 -12.779820540000001 -0.23190500000000006 0.334564 0.183822
8280 16.47399186 15.85952289 -6.772215780000001 0.454672 -0.893071 0.496771
8300 10.898684370000002 20.563790670000003 -9.95729715 1.416041 -1.450787 0.8727370000000001
8320 -10.53029925 18.91137465 -4.83464268 2.168991 -0.193392 1.7245529999999998
8340 -5.444030070000001 11.565999810000001 12.350221020000001 3.2927760000000004 -0.087698 1.7579049999999998
8360 -6.43346667 -0.97716429 13.17276009 3.155807 -1.520129 2.317464
8380 -3.5082522000000003 10.237961250000001 6.13454616 3.037676 -3.149973 3.4766800000000004
8400 0.22019526000000003 19.195334910000003 0.7937957700000001 3.530497 1.048807 3.184185
8420 8.42059008 29.0164104 1.454823 3.041361 2.077409 2.65709
8440 9.302558130000001 17.48753163 0.55923867 2.557449 0.565036 2.464436
8460 1.9507479300000001 19.49470668 1.6284600000000002 2.346828 1.023398 2.307486
8480 -1.4894032499999998 18.87844248 -7.42965255 1.554676 1.7998900000000002 2.484691
8500 -0.41987781 17.327815020000003 -7.566011550000001 0.906387 -0.101258 2.155723
8520 3.6811436400000006 16.4242944 -3.67171623 0.29009 -1.45315 1.905323
8540 5.39882559 9.78964425 -3.2040833400000004 -0.320971 -1.83286 1.222153
8560 4.064498820000001 -1.2826869300000001 -5.78127825 -1.251749 -1.7722189999999998 0.185807
8580 7.707471750000001 -1.6085555100000002 -5.51917467 -2.5668 -0.197237 -1.195925
8600 9.96014205 -2.27123082 -5.24449467 -3.759776 1.977081 -2.3137220000000003
8620 6.700818600000001 -1.69223481 -1.77066576 -2.521526 2.115544 -2.315933
8640 -0.8243343 3.3400008900000002 -4.16478645 -0.7188939999999999 -0.438305 -1.918714
8660 -1.8702078300000002 5.66212599 -2.48348979 1.332676 -2.259332 -0.385175
8680 0.04371336 12.330012420000001 -5.974525440000001 0.278817 6.750350999999998 1.696043
8700 4.63166397 27.01402263 0.66222405 -0.5190859999999999 -2.1597310000000003 0.819536
8720 0.49067658000000003 31.446004050000003 5.52171546 2.309063 -1.6538689999999998 -0.5286810000000001
8740 -2.38034745 23.72386635 -3.62336274 -0.047144 2.560048 -0.006814
8760 0.10642868999999999 22.19538987 -4.65397191 -0.852672 2.764928 -0.992263
8780 3.4373062800000005 19.17392949 -2.57629239 -0.612492 -1.179947 -3.554604
8800 5.29149438 14.62323726 -1.0876347 -2.203041 -2.588252 -4.3031190000000015
8820 6.69153834 12.50769114 -0.1588239 -1.891089 -1.924961 -1.819242
8840 5.642221500000001 11.58336351 0.24414147 -2.703248 -1.378401 -1.932438
8860 1.0946782800000001 7.580687310000001 0.9196875 -2.920484 0.716376 -1.589467
8880 -4.84047963 1.58684598 1.8419157900000003 -1.9421 0.245118 -2.069139
8900 -6.64258644 -5.175638280000001 6.0116464800000005 -1.7785490000000002 0.941694 -1.916133
8920 -6.833891250000001 -9.302401170000001 9.77018121 -1.173943 1.3827 -1.636874
8940 -5.560631730000001 -12.114006029999999 3.58069905 -1.046001 1.824618 -1.1729379999999998
8960 0.55923867 -4.0197456 -6.34276341 -0.6174 0.479562 -0.310439
8980 9.4718493 5.448071790000001 -17.34727806 0.212873 -1.181542 0.119437
9000 17.76984381 19.855910880000003 -4.37615271 0.9668 -1.830199 0.50689
9020 -1.50466761 24.19344162 -3.2894107200000002 1.893815 -0.531776 1.603424
9040 -11.58650271 23.58929277 -7.80896601 2.7729790000000003 -0.214472 1.677525
9060 -7.30675287 -0.27453285000000005 14.319225359999999 3.501927 -1.045928 1.979579
9080 -6.486009030000001 -4.45518207 5.65523937 2.957454 -2.972064 2.746296
9100 -5.588482320000001 11.490403950000001 3.4747216200000004 3.312926 -0.65347 3.3643080000000003
9120 3.79955034 37.06727139 -0.07155414 3.124246 2.409979 3.0663720000000003
9140 13.418549640000002 22.216500990000004 3.2669556300000004 2.420633 1.041567 2.760904
9160 7.1100623700000005 13.936615740000002 1.19197386 2.4004060000000003 0.573773 2.280662
9180 -0.38275677 19.353707550000003 -1.90928106 1.842348 1.529159 2.539391
9200 -1.88608041 19.58092677 -8.084833020000001 1.377684 0.126994 2.208929
9220 4.36791231 16.39600236 -7.16814738 0.680607 -1.2710290000000002 1.843725
9240 6.0791589 13.540095540000001 -5.0388182100000005 -0.1764 -2.313187 1.334873
9260 5.02924365 5.72559669 -4.5605709 -1.032446 -2.7182150000000003 0.535724
9280 5.80717665 -0.71910243 -6.138136620000001 -2.3578650000000003 -1.330399 -0.385438
9300 9.481286520000001 -0.11960352 -6.659351730000001 -3.794091 0.7736770000000001 -1.5753469999999998
9320 7.6493965500000005 -2.93884056 -2.21285151 -3.406624 2.312095 -2.216613
9340 4.15775268 -2.1941340300000003 -1.3040923500000001 -1.383165 0.947145 -2.289393
9360 -2.23335441 4.43737692 -3.9270803400000003 0.596129 -1.874865 -1.585084
9380 -1.87006068 7.801176870000001 -3.4307139600000003 0.581299 2.255847 0.396412
9400 1.84311261 15.104643390000001 -3.43625661 -0.038741000000000005 6.694603 1.793241
9420 5.5103456699999995 26.460473760000003 2.20386555 -1.0643280000000002 -2.5720110000000003 -0.300036
9440 -0.7445495700000001 23.044278600000002 3.2778839700000004 2.294819 -1.57904 -0.8472069999999999
9460 -3.09016962 24.69684177 -4.45892949 0.228277 0.804148 0.102045
9480 1.6735173300000001 23.679711540000003 -3.96435834 -0.539346 2.2816240000000003 -1.878216
9500 6.87610368 16.90075629 -2.02678524 -1.725272 -0.995726 -3.371401
9520 6.95139543 14.78475891 -1.9639129500000003 -2.191461 -1.734214 -3.1707490000000003
9540 7.34447232 13.389207930000001 2.160162 -1.852069 -1.329545 -1.834688
9560 5.78786076 10.906022250000001 0.8958884400000001 -2.772784 -0.5882069999999999 -1.812159
9580 0.31299785999999996 6.3219564 0.60040143 -2.757092 0.7974289999999999 -2.019992
9600 -5.81810499 0.017363700000000003 2.0187018 -1.662745 0.143201 -2.132218
9620 -6.458766659999999 -6.12451053 4.51281582 -1.523264 0.799009 -1.886393
9640 -6.9322365 -9.437426010000001 7.93379826 -1.257568 1.6223040000000002 -1.543762
9660 -4.66115283 -10.197396900000001 3.2198087699999998 -1.162806 1.678146 -1.2056129999999998
9680 -0.06526593 -1.8808418700000002 -7.020703080000001 -0.887299 0.193097 -0.366436
9700 7.683525540000001 8.344395810000002 -13.544588520000001 -0.095982 -1.3135629999999998 0.102494
9720 16.467105240000002 18.94445397 -4.83913566 0.823227 -1.997883 0.474055
9740 -2.8506682800000003 12.840750450000002 -1.26247833 1.874161 -1.042233 1.668034
9760 -11.30179689 22.988145780000004 -21.230802 2.746458 -0.400872 1.69467
9780 0.52795458 9.6739353 19.48078629 3.854279 -0.794603 1.6943669999999995
9800 -2.44995921 1.4874608700000003 9.023532300000001 3.215595 -1.812918 2.491309
9820 -3.0650265900000004 6.15879648 2.05971741 3.132176 -1.078485 3.5131410000000005
9840 -1.24196562 19.2032712 1.17221652 3.414083 1.776514 2.988023
9860 8.911865070000001 29.14244928 2.10791394 2.929958 1.590614 2.74453
9880 6.790629149999999 17.751734550000002 1.7229204900000001 2.3982240000000004 1.179353 2.423013
9900 0.6009998400000001 17.74230714 -0.6652161000000001 2.005384 1.104124 2.395796
9920 -1.6429788 21.415661640000003 -7.40031084 1.408705 1.126941 2.002766
9940 2.70966915 17.27063253 -5.78441745 0.517738 -0.85115 1.944598
9960 5.700895110000001 14.50109295 -4.15086606 -0.234082 -2.172997 1.491319
9980 6.6505227300000005 9.64848816 -4.00133223 -1.02366 -1.821801 0.664959
10000 5.5616814 2.7345178800000003 -5.19554277 -2.400152 -0.8420620000000001 -0.458998
10020 8.742122640000002 0.79799445 -6.11373915 -3.832932 0.7945369999999999 -1.696354
10040 10.29947976 -1.13838183 -6.843917070000001 -3.265694 1.875731 -2.438328
10060 6.32659653 -3.80104146 -1.33073631 -1.384732 0.218121 -2.194466
10080 -1.01833686 2.83465836 -3.7462624200000003 0.366476 -1.237709 -0.8846149999999999
10100 -4.28005395 6.94900179 -4.398607800000001 -0.286752 3.887529 1.22788
10120 -2.72703285 9.020393100000001 -2.98748835 -0.190246 4.9080949999999985 1.668422
10140 1.8209616300000002 17.372273940000003 -0.1038879 -1.291769 -4.361496 -0.147644
10160 6.3219564 33.6003291 2.03546709 3.472693 -1.761055 -2.701725
10180 -0.9530709300000001 24.061860090000003 1.3320802800000002 0.5846210000000001 2.61976 0.496382
10200 -5.85642285 20.601510120000004 -4.567898970000001 -0.2187 3.3799 -1.617806
10220 0.29474145 20.383865460000003 -0.9307629900000001 -0.850176 -1.1192799999999998 -3.069233
10240 6.618188970000001 15.404760720000002 -1.4792204699999998 -2.197706 -2.564273 -2.847126
10260 9.31692978 12.460093020000002 -1.8681183 -1.396151 0.061634 -1.945449
10280 5.930969040000001 12.04096077 0.8720893800000001 -2.711542 -1.7376200000000002 -1.870079
10300 3.8981898900000003 8.626109580000001 2.6693991 -3.084448 0.029825 -2.117435
10320 -3.2793849000000006 3.14795052 2.28005982 -2.127187 0.30248600000000003 -2.135667
10340 -6.716534220000001 -3.5675340300000005 4.01899023 -1.770052 0.8875190000000001 -1.961938
10360 -6.69721833 -7.08686172 5.75956872 -1.376352 1.640324 -1.684551
10380 -5.09450958 -10.381216680000001 3.96899847 -0.8434149999999999 1.7886830000000002 -1.4193049999999998
10400 2.44771272 -4.11000741 -4.12018038 -0.555231 1.107283 -0.698573
10420 9.85190832 4.29816321 -11.68455366 0.064317 -0.474955 0.170905
10440 14.711703840000002 17.33305356 -5.016372929999999 0.533802 -1.188986 0.636571
10460 0.40655583 10.24125741 -3.7847274300000002 1.484183 -1.33645 1.257626
10480 -12.77892783 16.28344242 -15.80937417 2.205102 -0.782302 1.646512
10500 -5.58069318 20.42592093 15.55040979 3.247623 -0.742269 1.653743
10520 0.82777761 6.78928518 10.80737289 2.824016 -2.391846 2.152825
10540 -1.63654344 2.24547957 2.4201662400000004 3.056426 -2.571462 3.4440230000000005
10560 -0.59815494 9.91403505 1.86676452 3.197617 1.211226 3.348295
10580 4.472104320000001 28.3716972 4.95275508 2.724721 1.37804 3.334096
10600 10.055043990000001 18.03375243 0.17753157 2.623832 0.5110140000000001 2.59636
10620 4.909345830000001 15.99064335 1.5187449600000003 2.2812900000000003 1.893975 2.568695
10640 0.37691982000000007 16.91108622 -0.40940073 1.603509 1.876847 2.378112
10660 -2.2162948200000003 20.035688940000004 -6.803951130000001 0.948421 -0.320652 1.840104
10680 2.1927900600000005 17.66701539 -5.861661389999999 0.266749 -2.26228 1.539797
10700 5.429962530000001 15.303727530000002 -5.12010387 -0.350569 -2.4731400000000003 0.994167
10720 6.18184017 8.70694398 -4.55816745 -1.343856 -2.150885 0.122624
10740 6.14801529 0.34159401 -5.48459442 -3.039822 -0.636041 -1.074753
10760 9.823920390000001 -0.0375723 -5.80538142 -4.212173 1.788918 -2.019676
10780 9.80805762 -1.8955078200000002 -4.297859100000001 -2.983015 2.45592 -2.320661
10800 6.324801300000001 -3.2043874500000005 -2.18530503 -0.927918 0.098305 -1.399569
10820 -0.6267510900000001 4.33947312 -3.2090275800000003 -0.086103 0.96895 0.187232
10840 -1.13179932 6.2486070300000005 -2.0303757 -0.841627 5.796403 1.733236
10860 0.39158577000000006 12.76440903 -5.8426496100000005 -1.424917 -0.851399 0.23042
10880 4.022737650000001 25.613537219999998 0.96474483 1.930789 -4.956289 -2.047172
10900 -0.89962605 25.061489280000004 4.40937918 0.415643 1.671552 -0.127425
10920 -7.31663154 18.84266541 -3.96854721 0.40968 3.16795 -1.107876
10940 -3.07026513 25.1207613 -3.46768785 -0.273124 1.466245 -3.062106
10960 6.8972049900000005 16.43342751 -1.9220046300000002 -1.7608009999999998 -2.355551 -3.473525
10980 6.141727080000001 14.73999588 -2.24428275 -2.094172 -1.617116 -1.904377
11000 8.39978307 12.613815720000002 -2.09130561 -2.14264 1.585348 -1.923774
11020 6.681208409999999 12.091256640000001 0.15642045 -2.714016 -0.244784 -1.963876
11040 2.2791573 8.19470502 0.9443890800000001 -2.114344 0.603693 -2.0804150000000003
11060 -3.3325158600000004 2.74588767 0.82748331 -1.509131 0.483015 -2.262972
11080 -4.96427202 -3.70764045 4.337226629999999 -1.242814 1.289996 -1.836994
11100 -5.153781600000001 -6.860682360000001 7.006184280000001 -0.965334 1.611657 -1.532093
11120 -3.8995436700000004 -9.65731716 4.51671039 -1.004953 0.788872 -1.133936
11140 1.36156914 -2.39666148 -4.30175367 -0.407057 -0.522063 -0.160271
11160 8.13303936 5.904766530000001 -12.3780618 0.289095 -1.260742 0.411696
11180 13.72151187 17.291439540000002 -0.35970327 1.371725 -1.766045 1.161251
11200 -4.19307849 8.57072232 -5.44388292 2.17469 -1.0255379999999998 1.760911
11220 -13.068577890000002 16.627577220000003 -19.03920876 3.260782 -0.5415760000000001 1.537141
11240 -0.71970084 20.522176650000002 21.1992138 4.029026999999999 -1.037208 1.739695
11260 -1.2778898400000003 8.78732712 5.67844002 3.219944 -1.956939 2.805581
11280 -3.5989652700000003 4.481826030000001 1.6856424900000002 3.362021 -0.5876239999999999 3.904019
11300 -2.35355634 11.923750889999999 3.20393619 3.234222 2.069419 3.421158
11320 6.11194392 28.899504630000003 6.95737953 2.67555 0.695058 3.145552
11340 11.949649290000002 19.33828623 2.7111602700000006 2.947965 0.732302 2.387901
11360 6.671172780000001 15.44457951 -3.82739112 2.047698 2.290481 2.7150380000000003
11380 0.23890293 20.645812080000002 -3.87349812 1.055109 0.818167 2.269884
11400 -0.22168638000000002 17.52689916 -5.951471939999999 0.244516 -1.218457 1.595988
11420 4.3499502 14.758556400000002 -5.11845579 -0.305236 -2.36556 1.224013
11440 7.302416850000001 12.31504236 -3.8754405000000003 -1.171738 -2.087403 0.348072
11460 6.65351478 4.970118780000001 -4.719090690000001 -2.481786 -0.379047 -0.8254940000000001
11480 8.40217671 -1.07251749 -5.15048544 -4.132166000000002 1.583967 -1.984671
11500 10.47416643 1.0809050400000002 -6.833891250000001 -3.596782 2.567905 -2.619921
11520 7.79339754 -2.73227139 -2.78660898 -1.21811 0.317445 -2.135745
11540 1.5393950100000002 0.33650262000000003 -3.5214270300000003 0.7974720000000001 -1.805478 -0.731326
11560 -2.57763636 5.2462899 -5.5203714900000005 -0.634827 4.34345 1.267593
11580 -2.9572539300000003 6.29830449 -2.9461686300000003 -0.879815 2.116358 0.8478559999999999
11600 -0.5074418700000001 11.82720087 -3.54807099 -0.5381670000000001 -6.8001369999999985 -1.009856
11620 5.179081590000001 25.953179040000002 1.16997003 2.282481 2.914709 -1.206633
11640 4.595445450000001 32.49292725 3.34269864 0.059929 0.37566 0.575709
11660 -7.625587680000001 23.9323779 -3.8000016 -0.230856 3.4590339999999995 -1.683153
11680 0.36419625 21.21748002 -4.26463263 -1.37877 -0.656667 -3.214523
11700 3.8115283500000006 15.414492240000001 -0.25925868 -2.749892 -2.194945 -2.820478
11720 6.668631990000001 13.91955615 -3.31919388 -1.688289 0.38324 -1.665891
11740 7.02384228 11.74592502 -1.5497249400000002 -2.991229 -0.920256 -1.968151
11760 5.8405502700000005 8.820259290000001 -0.3065625 -2.747607 0.571407 -1.982248
11780 2.15896518 5.914655010000001 1.10336013 -1.907302 0.765149 -2.409257
11800 -3.47816493 0.033530580000000004 2.38094586 -1.552502 1.447623 -2.092527
11820 -5.37232878 -4.2767577900000004 4.62478716 -0.988988 2.3305 -1.723322
11840 -7.21529424 -8.508006990000002 6.61773771 -0.737843 1.9219580000000005 -1.27346
11860 -5.039573580000001 -9.91717425 2.7771717600000003 -0.346969 0.742096 -0.397548
11880 3.37697478 -0.93255822 -7.79234787 0.316751 -0.435887 0.305078
11900 13.392347130000001 9.31183839 -10.01342997 1.080284 -1.568066 0.921817
11920 14.437023840000002 17.108522280000003 -0.9053158500000001 2.008665 -1.231382 1.700195
11940 -6.9843276 6.63016698 -5.19120675 2.827499 -0.707713 1.63474
11960 -16.19407332 28.705060620000005 -32.77764288 3.601951 -1.007363 1.839223
11980 3.2665043700000003 20.345096339999998 28.70774856 2.850087 -2.66058 2.733396
12000 -0.39203703 2.65547871 7.82722242 3.359022 -0.52187 3.4477830000000003
12020 -2.4448678200000002 -0.90726804 2.7928873800000003 3.338417 1.526455 2.717555
12040 -2.0755801799999998 13.4019315 3.56050026 2.7147490000000003 1.038006 2.597388
12060 4.78615185 33.08375412 4.22960112 2.404375 1.454751 2.278493
12080 9.5498388 15.6551904 -0.26674371 2.026102 1.93595 2.416239
12100 2.58347331 16.79672124 0.9123496200000001 1.1717229999999998 1.062924 1.96701
12120 -0.91818657 18.655559280000002 -4.083961860000001 0.27535 -0.89187 1.948298
12140 -1.18209519 17.790650820000003 -5.89878243 -0.603245 -1.984996 1.682916
12160 4.314928500000001 16.357537349999998 -5.47397019 -1.509763 -1.764476 0.8697940000000001
12180 7.97092911 14.72114106 -4.60233207 -2.734141 -0.202552 -0.521971
12200 7.678130040000001 4.116442770000001 -3.9679488000000003 -4.065087 1.656822 -1.880678
12220 9.91896948 -2.9328466500000006 -6.05625255 -2.878351 1.7736459999999998 -2.552996
12240 11.6433909 -1.3304322000000002 -7.803570510000001 -0.947119 -0.465128 -2.205489
12260 8.068675950000001 -2.4159773700000002 -2.2510222200000003 0.365426 -1.095625 -0.984149
12280 -0.28201788000000005 3.23447472 -3.2744406600000002 -0.200589 5.439548 1.175218
12300 -1.9107721800000002 6.25923126 -3.6920719800000006 -1.100709 0.214405 0.6158779999999999
12320 -1.2771442800000001 11.35852812 -4.956943949999999 1.073591 -4.930404 -1.91646
12340 2.57165226 21.954250260000002 -0.0836793 0.623099 1.138011 0.184492
12360 1.94026104 31.36862277 3.3591598200000004 0.250379 2.330666 -0.443482
12380 -5.1582745800000005 19.013310360000002 -0.35191413000000005 -0.129357 2.182532 -2.759713
12400 -3.6967121100000004 23.167619730000006 -3.85328952 -1.586878 -1.465438 -3.775757
12420 5.59716417 17.27916723 -1.2169697400000001 -2.4095720000000003 -2.585095 -2.252512
12440 5.113070100000001 14.639561100000002 -1.70390871 -1.96623 0.671029 -1.732295
12460 5.30167716 12.8551221 -0.97791966 -3.198123 0.121897 -2.133302
12480 6.275996550000001 11.27949876 -0.70458363 -2.639627 1.000611 -2.3163970000000003
12500 3.81316662 8.90542971 1.0506608100000001 -1.812003 0.261477 -2.276554
12520 -2.0131591500000003 3.93666471 1.9007463600000003 -1.365091 1.35339 -1.866771
12540 -5.76585693 -2.63706534 4.14173295 -0.745091 1.846849 -1.398396
12560 -5.60405079 -6.58944567 5.884714890000001 -0.565972 1.355313 -0.910474
12580 -5.682933 -10.039318560000002 3.7095828300000004 -0.087274 -0.09489 0.095652
12600 1.0434798900000002 -3.63399678 -4.04414307 0.514958 -1.035815 0.709951
12620 7.57409499 3.9908551500000002 -9.67303278 1.464942 -1.619486 1.45868
12640 14.38972983 15.443382690000002 -2.5285373100000004 2.146298 -1.216894 1.953238
12660 -1.07641206 14.097686130000001 -10.082580660000001 3.319525 -0.8427209999999999 1.936384
12680 -12.276420390000002 22.632484230000003 -18.453630240000003 2.83666 -2.259406 2.321523
12700 -2.0686935600000007 14.90959116 21.86772606 3.28921 -1.965523 3.293185
12720 -2.6116182 3.2733909900000002 9.57992607 3.645058 1.099699 3.145396
12740 -2.37061593 4.235438070000002 2.0610613800000004 2.988269 1.579582 3.054736
12760 -2.39666148 14.870979 2.5930576800000003 2.725724 1.15155 2.1657580000000003
12780 4.916075490000001 27.86619771 3.59133309 2.376395 2.151603 2.794424
12800 10.555599240000003 15.86804778 2.26508976 1.808447 1.918661 2.399786
12820 4.13051031 15.463738440000002 -0.008681849999999998 1.170149 0.219415 2.187065
12840 0.7505434800000002 19.29772188 -3.02730714 0.34276100000000004 -1.504018 1.527606
12860 0.34263387 18.547178400000004 -6.34350897 -0.310255 -2.239219 0.802937
12880 3.8414586600000002 16.45947306 -4.91682105 -1.448752 -2.091736 -0.458229
12900 6.83463681 13.610747159999999 -4.151317320000001 -3.032005 -0.211792 -1.680924
12920 6.86053521 5.51168964 -4.33378332 -3.328778 1.354032 -2.455192
12940 9.33593175 -1.1945146500000001 -6.677460990000001 -1.7909689999999998 1.494426 -2.400833
12960 11.23653096 -0.08592579000000002 -7.336545840000001 -0.4545520000000001 0.040131 -1.381233
12980 7.76554695 -2.07153846 -2.54725479 0.158966 1.883136 0.4623060000000001
13000 0.16165899 2.18396106 -3.14870589 0.331836 4.921578 1.839762
13020 -1.37623509 6.042037860000001 -2.59769781 0.403329 -4.397367 -0.371835
13040 -0.5327418599999999 13.618526490000002 -5.664225330000001 0.918912 -0.455626 0.190737
13060 2.61431595 24.458684400000003 0.71491356 -0.399373 3.870599 -0.565361
13080 -0.65129571 27.282267270000002 3.5304129900000003 -0.333271 3.008795 -1.421578
13100 -6.701711310000001 19.46342259 -1.01668878 -0.488657 -1.221797 -3.851719
13120 -2.35594998 24.32501334 -3.19750083 -1.605784 -3.096168 -3.811187
13140 5.83456617 17.25372009 -0.82059669 -2.0052220000000003 -0.991187 -1.602251
13160 2.97237114 14.56606458 -1.4419522800000002 -2.948502 -0.304134 -1.837251
13180 6.21612612 11.9647665 -0.85786488 -2.925822 1.216858 -1.801654
13200 4.55218335 11.17261881 0.30746502000000003 -2.075928 0.217362 -2.470621
13220 3.4596044100000003 7.57949049 0.31569561 -1.689812 0.383682 -2.040849
13240 -1.2057471000000002 1.8507546000000001 0.6679138500000001 -1.072248 1.459152 -1.39698
13260 -3.0608377200000003 -4.629574440000001 4.026622410000001 -0.927241 1.708965 -1.124959
13280 -2.60009145 -7.775582580000001 4.8181815 -0.6405810000000001 0.136246 -0.482144
13300 -2.3252643 -10.10039562 3.75554268 0.27907600000000005 -1.002412 0.287381
13320 3.5483751 -1.674567 -1.5555618900000003 0.924946 -1.7686259999999998 0.8622360000000001
13340 6.655310010000001 5.011281540000001 -9.47589102 1.856418 -0.944208 1.678467
13360 13.48965252 14.660211150000002 -4.74124167 2.811621 -0.719217 1.59512
13380 -0.15313410000000002 27.19380069 -17.885258460000003 3.839818 -1.213006 1.644595
13400 -8.94704373 19.869380010000004 -5.202282240000001 2.944109 -2.577184 2.309862
13420 -5.61556773 3.8752933500000006 16.771274100000003 3.2994410000000003 -0.843843 3.5642160000000005
13440 -7.10602065 -2.8240243200000004 6.75140877 3.230102 2.910505 3.279046
13460 -7.469020080000001 8.38900188 0.9830012400000001 2.528319 1.245904 2.982516
13480 -3.28342662 25.36205787 -1.35169047 2.5091 1.287962 2.073271
13500 13.064977620000002 28.39460355 4.28109381 1.969297 2.099419 2.877105
13520 14.829963390000001 13.317055380000001 2.88240363 1.415031 0.651958 2.496937
13540 4.64124834 16.31741445 0.15342840000000002 0.566683 -1.538641 1.999232
13560 0.5387259600000001 18.49553856 -5.76630819 -0.079348 -3.000649 1.606692
13580 4.0383061200000006 17.497263150000002 -7.4471634 -0.882934 -2.70364 0.756803
13600 6.1870885200000005 15.6201687 -5.895643230000001 -2.076707 -1.511132 -0.453745
13620 6.007006350000001 11.557612259999999 -3.6136312200000003 -3.502847 0.734455 -1.609582
13640 4.87955286 1.91392119 -6.217617240000001 -3.548239 2.58848 -2.479671
13660 9.66360537 -0.7665534 -7.0838696699999995 -1.7257509999999998 1.602544 -2.322536
13680 9.552830850000001 -1.2807347400000002 -5.96030094 0.682525 0.189091 -0.459083
13700 5.288649480000001 -3.55495761 -1.69896447 -0.015783000000000002 4.8264 1.700724
13720 -1.13209362 4.1156874000000006 -4.94527005 -0.909719 0.031373000000000005 0.6676529999999999
13740 -1.7920711800000002 6.06913308 -3.5781582600000004 1.513226 -4.329321 -1.565919
13760 -0.35416062000000004 11.455225290000001 -3.45826044 0.300424 1.414242 -0.149265
13780 4.98433347 22.726934910000004 0.24788889 0.264822 2.880073 -1.451418
13800 3.4997175000000005 28.15240446 4.183945379999999 -0.312666 1.739844 -3.2496720000000003
13820 -6.00985125 18.02297124 -1.9118218500000002 -1.871572 -1.32659 -4.151801
13840 -1.9543383900000002 23.51041056 -5.389545330000001 -1.654127 -0.834564 -2.178975
13860 6.01508979 17.04251079 -0.36704115 -2.288897 -1.586163 -1.750884
13880 6.471637380000001 14.762598120000002 -1.73204379 -3.085941 -0.077712 -2.130126
13900 7.9855950600000005 13.328434979999999 -1.7973097200000003 -2.717074 0.578256 -2.123049
13920 6.724470510000001 11.49803613 -0.87118686 -1.954075 -0.025609 -2.287861
13940 3.40526682 9.448952760000001 1.66722912 -1.587451 0.521203 -1.888622
13960 -1.82411064 3.90612618 0.9113097600000001 -1.014726 1.492715 -1.581423
13980 -5.08327713 -3.522771 3.0508020900000004 -0.863814 1.524668 -1.178759
14000 -5.30856378 -6.64378326 4.8359964600000005 -0.339977 0.171154 -0.14894000000000002
14020 -4.21823133 -8.955872730000001 4.74124167 0.221626 -1.001959 0.489941
14040 3.2022881100000005 -2.81549943 -2.7643010400000003 1.058333 -1.505937 1.121341
14060 9.38742444 6.659204580000001 -11.515998240000002 1.916369 -1.045872 2.008028
14080 13.107641310000002 17.0920611 -5.172489270000001 2.886679 -0.8896370000000001 2.056266
14100 -5.623955280000001 13.80729051 -8.86921119 2.941675 -1.966632 2.27488
14120 -7.502403510000001 22.274134740000004 -8.14845087 3.071161 -2.98018 3.078249
14140 -3.89639466 7.943981040000001 15.5188314 3.736425 -0.467303 3.327504
14160 -6.796466100000001 0.39921795000000004 5.28460776 2.971374 1.794011 2.992386
14180 -4.42779255 9.70746588 3.3820661700000003 2.624328 0.421379 2.633867
14200 1.5645478499999999 19.916379720000002 1.4721867000000002 2.507341 1.970527 2.67593
14220 12.64614948 26.0868501 4.44081042 1.791071 2.069111 2.619525
14240 13.74996087 16.18419465 1.3102235999999998 1.227668 0.625279 2.138877
14260 3.7522465200000004 15.39009477 1.63070649 0.456326 -1.852732 1.7873560000000002
14280 -0.13157172 18.33537069 -3.92604048 -0.284244 -2.552678 1.113305
14300 1.98771201 18.413360190000002 -7.743248820000002 -1.373671 -1.866599 -0.081979
14320 5.6675116800000005 15.63079293 -5.64940242 -3.150696 0.424767 -1.459311
14340 6.2026471800000005 11.73439827 -4.11898356 -3.750765 2.461183 -2.172206
14360 4.0758784200000004 2.7066672900000004 -5.1799743000000005 -2.32779 1.820691 -2.274678
14380 7.969281030000001 -1.36635642 -6.578968590000001 -0.604279 -0.626935 -1.7328689999999998
14400 10.71097983 -0.12873663 -7.0762374900000005 0.261999 0.463076 -0.14724600000000002
14420 8.046368009999998 -4.07871351 -1.68130647 -0.002307 3.724681 0.681009
14440 2.3893334100000003 1.43476155 -3.56079456 -1.381032 -3.879608 -0.697951
14460 -0.60354063 6.506374590000001 -3.46888467 2.2961 0.632466 -0.5808399999999999
14480 0.7987400100000002 12.952564830000002 -5.478904620000001 -0.006620999999999999 1.815502 0.203794
14500 4.4161186500000005 23.78733705 0.16466085 0.252882 3.251175 -1.271447
14520 1.83279249 28.662544080000004 4.18634883 -0.990366 0.06095900000000001 -3.458421
14540 -6.2095338 22.5034533 0.7188081300000001 -2.832964 -2.914948 -3.5775050000000004
14560 -0.90127413 25.41954447 -5.951471939999999 -1.815281 0.099412 -1.705939
14580 2.01061836 17.72269695 -0.54546543 -2.600492 -0.330733 -2.146707
14600 4.88689074 14.13165816 -2.38574295 -2.996342 0.715263 -2.04399
14620 6.40562589 13.157642880000001 -0.8360082000000001 -1.613687 0.782254 -2.678556
14640 6.49424943 11.21048541 -0.40730139000000004 -1.521632 0.980721 -2.307494
14660 3.7989519300000003 7.0223511599999995 1.5916430700000002 -0.782478 2.354614 -2.071219
14680 -4.27420719 0.5269049100000001 2.9271666600000006 -0.753125 2.200529 -1.393564
14700 -6.830595090000001 -6.328391760000001 5.57739702 -0.404088 0.472288 -0.540743
14720 -5.58458775 -9.612112680000001 6.79242438 0.251591 -0.703105 0.053933
14740 -3.67501239 -8.848100070000001 2.63661408 1.124663 -1.611153 0.7363109999999999
14760 0.9580053600000001 -0.78975405 -5.00468922 2.181989 -1.45319 1.607686
14780 8.33511555 3.5357986800000005 -8.857527480000002 3.237259 -1.215902 1.825193
14800 10.553058450000002 14.455142910000001 -4.49036073 2.926475 -2.01562 2.28445
14820 -3.3793684200000005 18.72830043 -12.031827660000001 3.146217 -2.5799990000000004 3.635873
14840 -7.72603227 28.835739630000003 -13.038932070000001 3.5629690000000003 0.607107 3.590903
14860 -0.8870594400000001 9.099432270000001 19.9032147 3.174525 0.6612020000000001 3.187537
14880 -3.2775798600000003 -0.44862111000000005 6.75979632 2.679142 1.498139 2.910607
14900 -3.5592936300000004 6.85200051 3.4045212600000005 2.023413 2.633278 2.525354
14920 -0.89393625 19.22616774 2.5026487200000003 1.715208 2.289743 2.389045
14940 10.47356802 26.16184755 3.30811839 1.2322110000000002 0.481322 2.1711400000000003
14960 10.712019690000002 15.319139040000001 0.6828839100000001 0.300811 -1.441469 1.9053830000000005
14980 3.4124575500000005 17.751587400000002 0.12080034 -0.703126 -1.949381 1.388412
15000 -1.1608369200000002 19.243531440000005 -6.851853360000001 -1.623981 -1.715763 -0.023032
15020 1.63998675 17.593960320000004 -7.731417960000001 -3.138348 -0.219493 -1.527833
15040 4.995565920000001 17.26704207 -4.255499520000001 -3.4716370000000003 1.21563 -2.618382
15060 7.319476440000001 10.196641529999999 -3.62845413 -1.953455 0.980228 -2.608544
15080 7.93544634 0.31030011 -5.05349397 -0.379089 -0.955281 -1.60162
15100 12.62773611 -0.5975565300000001 -7.44881148 0.439661 1.517486 0.550193
15120 11.53441161 -2.41882227 -4.27376574 -0.08541499999999999 5.094713 1.794965
15140 5.17758066 -2.5114777200000002 -3.0311919 -1.997395 -3.789981 -0.200307
15160 -0.58348899 4.67972316 -2.2279687200000002 2.812081 -2.475749 -2.422345
15180 -0.33275520000000003 9.9312516 -2.69754399 0.275265 2.133027 0.47348
15200 2.7440924399999997 20.008888020000004 -1.8378740700000002 0.22789 2.358147 -0.635954
15220 0.09609875999999999 29.87382402 3.3958394100000002 -0.419581 1.398806 -2.587684
15240 -7.24957038 20.406762 -0.34847082000000007 -2.077451 -2.448796 -3.855904
15260 -2.5036983900000003 23.55247584 -3.8350233 -2.135353 -1.364291 -2.223318
15280 -0.16151184 21.732259770000002 0.47496096000000004 -2.253271 0.01427 -2.144724
15300 6.000875100000001 15.71521779 -1.6109491500000002 -3.314554 0.15930999999999998 -2.0647290000000003
15320 7.167696120000001 13.766873310000001 -2.2270662000000003 -2.342381 1.265302 -2.433233
15340 6.844221180000001 11.49759468 -0.8271792000000001 -1.568791 0.248926 -2.279112
15360 3.9775331700000005 9.450002430000001 0.63692406 -1.240974 2.052153 -1.959735
15380 -0.99273276 4.16239281 0.62390619 -0.507625 2.3354790000000003 -1.521277
15400 -4.70142288 -2.35909899 3.4230817800000004 -0.416623 1.532919 -0.966274
15420 -4.43602314 -6.9829836300000006 5.88366522 0.08054299999999999 -0.226647 0.132244
15440 -4.69109295 -10.80423369 5.39328294 0.598785 -1.209458 0.63812
15460 -0.3876912 -7.01725977 -0.5269049100000001 1.68344 -1.299061 1.591187
15480 6.27929271 1.98876168 -9.89053029 2.464839 -0.822873 1.976322
15500 14.528639430000002 14.43732795 -5.87812257 3.4965300000000004 -0.664222 1.900004
15520 4.25415555 16.24003317 -7.25480892 2.941991 -1.792346 2.379344
15540 -10.996882470000003 13.83917301 -11.87809515 3.154998 -1.836373 3.612548
15560 -5.34583197 21.361176900000004 10.45875492 3.332431 0.5112760000000001 3.513571
15580 -1.3959924300000002 9.7203366 12.974568660000001 2.666745 1.571863 3.132616
15600 -2.59051689 1.10800026 2.5653640500000003 2.254359 0.5607 2.479416
15620 -3.1849244100000007 7.866737100000001 1.6578017100000002 2.092473 1.7483400000000002 2.655157
15640 1.76737941 21.813986879999998 3.23657406 1.18938 1.321319 2.33427
15660 10.807529850000002 24.89173704 4.24188324 0.446028 -0.272015 2.100384
15680 6.60531825 14.62863276 0.79933842 -0.414029 -2.091308 1.7313759999999998
15700 1.10021112 16.11473985 -0.84319893 -1.165183 -2.240697 1.114229
15720 -1.96451136 19.93808925 -9.0813132 -2.309155 -0.762415 -0.209569
15740 3.30602886 17.996180130000003 -6.694530390000001 -3.921902 1.337379 -1.7735150000000002
15760 6.92999001 16.44240366 -4.127969520000001 -3.674337 2.495257 -2.766716
15780 7.26798375 8.73373509 -4.30474572 -1.6493650000000002 0.094755 -2.548669
15800 7.2651388500000005 -1.1094913800000001 -4.81548375 0.3153 -2.065083 -1.724603
15820 11.57737941 -1.5825099599999999 -7.0048305 -0.022178 3.749401 0.377464
15840 10.081982250000001 -3.2477967 -2.6087733 -0.280818 3.658024 1.340379
15860 3.9648096000000006 -1.2261028499999997 -2.68422201 -0.670954 -4.25798 -0.730962
15880 -1.10051523 5.9065715700000005 -4.960387260000001 1.935414 1.139748 -0.05524
15900 -1.87111035 8.45681841 -1.73743929 0.085883 1.229552 0.401744
15920 1.1858328 15.906973859999999 -3.89938671 -0.423679 3.107921 -1.623162
15940 4.905 29.980105560000002 1.16697798 -0.99846 -0.7002010000000001 -3.845267
15960 -0.53393868 25.55186175 2.7357147000000004 -1.923547 -3.833887 -3.39906
15980 -5.53983453 21.56026104 -3.7541889 -1.882623 0.060275 -1.717041
16000 3.76781499 20.052895680000002 -1.9866721500000002 -2.90111 0.027978 -2.0809
16020 5.71466835 15.913703520000002 -1.5675399000000003 -2.521414 0.996938 -2.033556
16040 5.263800750000001 13.87674531 -1.51499754 -1.7643259999999998 1.006464 -2.407499
16060 5.19614118 11.491904880000002 -1.01234295 -1.313199 1.3091469999999998 -2.302186
16080 4.613554710000001 9.11813994 0.17753157 -0.8406100000000001 2.09144 -1.742276
16100 0.8062250400000001 5.50181097 1.97619507 -0.8955129999999999 1.613116 -1.158797
16120 -7.2390933 -0.73272852 3.9311220600000003 -0.622436 -0.212554 -0.118375
16140 -8.30203623 -5.8158585 6.02512542 0.204424 -0.8302430000000001 0.453281
16160 -8.82729306 -10.63344159 6.43736124 1.186879 -1.7486720000000002 1.238986
16180 -1.04243022 -6.905592540000001 -3.12474987 2.093219 -1.239815 1.870643
16200 5.113364399999999 1.79161992 -11.09357964 3.218892 -0.8120189999999999 1.805319
16220 14.892825870000001 15.05509308 -5.372780040000001 3.477771 -1.434564 2.21919
16240 7.71959691 16.617090330000003 -7.274723219999999 3.101745 -2.62835 3.51171
16260 -10.375526879999999 19.316135250000002 -9.72467262 3.49786 0.098353 3.801539
16280 -2.4730029000000004 20.66512797 14.144538690000001 3.002313 1.41216 3.086027
16300 -1.8690110100000001 3.9478873500000002 11.916118710000001 2.6142 0.891704 2.508211
16320 -1.91466675 0.39278259 3.9013389000000003 2.229293 1.56359 2.651008
16340 -3.41499834 9.20840175 1.4126105700000002 1.6555259999999998 1.889167 2.448962
16360 0.78690915 29.08406997 3.2882139 0.929673 0.331058 1.91605
16380 11.33922204 20.61258561 3.3464362500000004 0.213371 -1.736084 1.59857
16400 5.7552327000000005 13.35941496 -0.10313253 -0.535678 -2.375364 1.211734
16420 -0.32093415000000003 18.667978740000002 -3.8826214200000004 -1.593204 -2.00333 0.201878
16440 -2.50953534 19.48647609 -5.938297110000001 -3.30271 -0.163695 -1.220337
16460 5.19689655 16.91197893 -5.37562494 -3.833879 1.7413610000000002 -2.442125
16480 9.699980850000001 15.133082580000002 -3.20573142 -2.220929 1.7789849999999998 -2.593276
16500 9.238037760000001 5.771399580000001 -3.68429265 -0.17028900000000002 -0.869389 -1.683593
16520 9.39490947 -2.49097482 -5.94743022 0.653696 0.531032 0.367081
16540 11.74157919 -1.13179932 -7.202276370000001 -0.116451 6.160608 1.93332
16560 8.22659733 -2.81444976 -2.0730393900000004 -1.550272 -2.872946 -0.013557
16580 -0.31494024000000004 2.6839179 -4.05012717 2.845774 -3.453123 -2.588568
16600 -1.46455452 6.29695071 -3.9053806200000003 0.380877 2.188776 0.293617
16620 -0.8684891100000001 9.791439480000001 -2.8737217800000003 0.384448 2.574536 -1.07204
16640 2.76071058 20.02700709 -1.45601982 -0.34818000000000005 0.723797 -3.009336
16660 2.7896010300000005 32.51313585 3.3319174499999997 -2.5014 -2.616048 -3.221991
16680 -5.82827796 21.862036260000004 1.1831350500000002 -2.418001 -0.179596 -2.005689
16700 -4.0300657200000005 24.01456608 -5.66856135 -2.258761 -0.173539 -2.060132
16720 4.4779412700000005 18.24900345 -1.06578783 -3.163451 0.283523 -2.08947
16740 5.791755330000001 15.53739192 -1.5296733000000002 -2.29629 1.222894 -2.523655
16760 5.874679260000001 13.094466480000001 -0.7963463700000001 -1.645677 0.114383 -2.399118
16780 5.6179711800000005 11.06064747 -0.33200964 -1.277808 1.882021 -2.0057080000000003
16800 4.12182846 8.28422127 1.06548372 -0.5463720000000001 2.252553 -1.528919
16820 -1.6693284600000002 3.73189077 0.8150540400000001 -0.387005 1.517735 -0.924387
16840 -5.45345748 -3.53369934 4.09353642 0.060373 -0.264683 0.071264
16860 -5.30646444 -6.07541148 5.25257811 0.696951 -1.167348 0.678276
16880 -5.53249665 -9.9688239 4.8816522 1.707832 -1.467867 1.693055
16900 1.15275348 -4.36596993 -2.78121348 2.398648 -1.054933 1.991112
16920 7.27397766 3.9411576900000003 -10.859768100000002 3.340783 -0.927637 2.107557
16940 14.61904839 16.75945305 -4.55053527 2.779273 -2.518624 2.72631
16960 0.97627158 13.304783070000001 -7.02713844 3.35545 -1.208331 3.556528
16980 -13.386961440000002 18.6482214 -19.71640287 3.573629 1.220838 3.016555
17000 -2.93958612 15.969542040000002 22.49911728 2.990475 0.985695 2.91878
17020 -1.52772111 5.46558264 11.60177688 2.514033 0.973747 2.3247400000000003
17040 -2.3523595200000003 3.1726521 3.4257795300000002 2.212246 2.329278 2.460832
17060 -0.3381507 12.93400431 1.6566048900000003 1.492935 1.351532 2.24128
17080 5.70299445 25.05100239 4.29861447 0.599984 -0.155659 1.906894
17100 9.68635476 18.16128243 1.57412241 -0.268098 -1.784658 1.376284
17120 3.5578025100000006 16.319513790000002 0.59905746 -1.085626 -2.144099 0.5987100000000001
17140 1.1771509500000001 17.68601736 -1.17221652 -2.610857 -0.7316739999999999 -0.708439
17160 -0.33634566000000005 20.171753640000002 -8.15833935 -3.84064 0.911903 -2.00207
17180 3.3703922700000004 18.056197710000003 -6.25623921 -2.583255 1.624866 -2.365942
17200 6.5852568 15.73677036 -3.87634302 -1.177669 -0.379429 -1.858968
17220 6.909477300000001 6.40038735 -4.115991510000001 0.386015 -0.488628 -0.6835439999999999
17240 9.054973350000001 -1.78293807 -5.7311295300000005 0.558808 5.368913 1.397462
17260 11.97060345 -0.9137034 -7.566011550000001 -1.659156 -0.8403940000000001 0.611193
17280 9.21064824 -2.83480551 -2.49995097 1.643317 -3.015796 -1.422484
17300 0.54636795 1.27040481 -2.9008170000000004 0.025538 0.5218649999999999 0.54003
17320 -1.3049850600000001 6.21642042 -3.0587383800000003 0.129601 2.112432 -0.375679
17340 -0.6405145200000001 12.36398445 -5.47381323 -0.5274810000000001 2.068218 -2.598909
17360 2.3872340700000003 23.019282720000003 0.6210612900000001 -1.73052 -1.750004 -4.149205
17380 1.46829213 30.321248309999998 3.47232798 -1.743932 -1.933291 -2.526435
17400 -5.41618929 19.124526330000002 -0.8083145700000001 -1.84249 -0.293543 -1.981227
17420 -3.43011555 22.811811030000005 -4.12436925 -3.12672 0.680509 -2.03097
17440 3.69192483 17.96743683 1.5402975300000001 -2.01688 1.013974 -2.468025
17460 3.07505241 14.533877970000002 -1.69552116 -1.6903400000000002 0.459387 -2.324028
17480 5.886657270000001 12.525506100000001 -0.44338257000000003 -1.374375 1.941175 -2.0630740000000003
17500 5.7392129700000005 10.89315153 -0.88046712 -0.8725219999999999 2.04506 -1.571524
17520 3.0305934900000002 7.50853476 0.9307629900000001 -0.824076 1.176973 -1.109669
17540 -1.85868108 2.04728814 2.12677857 -0.272474 -0.494806 -0.166844
17560 -4.34561418 -4.86278757 5.32487781 0.391646 -1.0202440000000002 0.386466
17580 -4.51999674 -7.929315090000001 5.8624069500000004 1.395761 -1.556607 1.24554
17600 -4.85994267 -10.217007090000001 2.47136463 2.214761 -1.154478 1.736787
17620 1.98547533 -1.42114527 -4.6231390800000005 3.385265 -0.875251 1.756356
17640 8.81367678 4.88673378 -6.241867560000001 2.870296 -1.845338 2.37357
17660 12.45754242 14.73430608 -8.267907240000001 3.038049 -2.383814 3.68614
17680 -4.32435591 16.55946639 -11.98662318 3.442892 1.080944 3.4815660000000004
17700 -7.38384966 22.61317815 -8.78163732 2.705512 1.16378 3.119523
17720 -0.29010132000000005 10.835066520000002 18.22729392 2.255518 1.323314 2.509426
17740 -3.57366528 1.89670464 8.064330120000001 1.939813 2.01605 2.70609
17760 -3.89191149 7.168588830000001 0.11331531000000002 1.616187 1.516169 2.520736
17780 -1.9230543000000002 18.97963263 0.8616123 0.810212 -0.637713 2.127965
17800 9.24058836 27.100998090000004 3.3178499100000005 0.053086 -2.355051 1.747795
17820 9.27591417 15.152388660000002 2.71594755 -0.598988 -2.560083 1.106843
17840 1.77695397 16.9622748 1.6531615800000001 -1.490702 -2.075871 -0.127393
17860 -1.52922204 20.081638980000005 -7.7856084 -3.044438 -0.383083 -1.458601
17880 2.10642282 18.3706965 -6.0299127 -3.905052 1.861777 -2.3904330000000003
17900 6.20204877 16.60990941 -4.64559417 -2.365961 2.31938 -2.542639
17920 8.248601160000002 11.41316982 -3.97558098 -0.524936 -0.417951 -1.849019
17940 7.45359876 1.54957779 -4.86652518 0.7632979999999999 0.237449 -0.101795
17960 10.680137190000002 -0.58184091 -5.7709483200000005 0.160575 6.640689 1.782952
17980 11.20210767 -1.6796583900000002 -5.879476350000001 -0.6410020000000001 -2.676493 -0.113211
18000 5.405260950000001 -3.28656582 -2.29158657 2.599397 -0.783043 -0.637796
18020 -1.5386494500000003 3.8327768100000004 -3.5992693800000004 0.313068 1.919095 0.393901
18040 -1.46545704 6.3860157 -1.1166821100000002 -0.048007 3.49835 -1.018561
18060 1.14332607 13.473779940000002 -6.19621182 -0.558128 -0.153453 -3.227596
18080 4.629270330000001 26.81568405 0.8746301700000001 -1.578255 -2.987276 -3.893388
18100 -1.2509515800000002 25.730894250000002 4.34022849 -1.301717 -0.874527 -1.815403
18120 -5.65913394 21.253404240000002 -3.10723902 -2.6942630000000003 -0.977189 -2.107009
18140 -0.57345336 22.874977620000003 -2.9931781500000003 -2.840422 0.490145 -1.826832
18160 6.416259930000001 18.11757888 -0.8252368200000001 -2.062778 0.185906 -2.341234
18180 7.1699426100000005 14.334489720000002 -2.35804932 -1.849242 0.437824 -2.122148
18200 7.81045713 12.51876663 -1.3504936500000002 -1.304537 1.342231 -2.058614
18220 4.16673864 10.74300948 0.6780868200000001 -0.7666270000000001 1.384258 -1.58062
18240 1.6085555100000002 6.96007728 1.10904012 -0.629149 0.993633 -0.984159
18260 -4.35204954 1.35887139 2.0401072200000003 0.042862 -0.419922 0.013656
18280 -5.735622510000001 -4.53601647 4.63466583 0.582048 -1.138124 0.396493
18300 -6.652013850000001 -7.21320471 6.7759632000000005 1.6756669999999998 -1.280317 1.439422
18320 -6.0893416799999995 -9.872715330000002 3.89938671 2.5333 -0.8484139999999999 1.910603
18340 0.5619266099999999 -1.93592502 -4.6030776300000005 3.56305 -0.786136 1.6944580000000002
18360 7.906703040000001 4.79887542 -12.53777841 3.2768870000000003 -1.51701 1.965792
18380 15.96519621 18.03674448 -5.6414661299999995 3.129446 -1.651841 3.308758
18400 -1.19556432 21.303101700000003 -10.302324660000002 3.345879 1.2933290000000002 3.200742
18420 -9.08610048 28.912973760000003 -13.13203878 2.651518 2.09016 3.002591
18440 -2.2668849900000003 5.58862947 18.64013796 2.3077810000000003 0.5925239999999999 2.732917
18460 -4.418208180000001 -2.6753832 7.17113943 2.197334 1.847875 2.448527
18480 -4.732706970000001 4.5229986 3.2045346 1.272787 1.548254 2.520433
18500 -2.2296168 21.36132405 -0.71641449 0.194387 -0.209474 2.129524
18520 11.834842860000002 29.76380487 3.8230452900000005 -0.5178 -2.286315 1.836655
18540 11.55327624 14.7730752 2.22931269 -1.037 -2.994941 1.276324
18560 3.9788771400000003 15.98570892 0.15178032 -2.008106 -1.7907529999999998 0.148501
18580 -0.91818657 19.07752662 -5.7547814399999995 -3.629858 0.375497 -1.243609
18600 2.9503673100000007 17.750086470000003 -5.25946473 -4.0884160000000005 2.144657 -2.377121
18620 5.698197360000001 15.3366597 -6.41655423 -2.292888 1.3291620000000002 -2.461811
18640 6.1709216399999995 13.144919309999999 -4.874765580000001 -0.457359 -1.491161 -2.054406
18660 5.18087682 4.9021551 -4.73151015 0.590346 0.283351 -0.507918
18680 8.18677854 -1.58220585 -5.47381323 -0.102309 5.7011699999999985 0.933083
18700 10.069857090000001 -0.93570723 -7.0998893999999995 -1.790397 -1.257034 -0.04401
18720 6.93807345 -4.105965690000001 -2.2219748100000007 2.255057 -0.461297 -0.613908
18740 0.06256818 1.4193500399999999 -4.61280915 0.4607890000000001 -1.258004 0.909615
18760 -2.97416637 5.64041646 -4.61625246 0.543135 2.049927 -0.8202959999999999
18780 -1.6118516699999998 8.515187910000002 -2.75172462 -0.623243 0.657239 -2.643704
18800 2.74274847 18.159035940000003 -0.32467176000000003 -1.439338 -3.4570410000000003 -3.220972
18820 6.120625770000001 33.1750656 2.5403681700000003 -2.311702 -1.700077 -2.014748
18840 -2.83645359 19.901860920000004 2.63900772 -2.80051 1.470218 -2.1322520000000003
18860 -2.4816847500000003 23.27749173 -5.817506580000001 -2.89359 0.182905 -1.936836
18880 4.37405337 19.95619851 0.05163984 -2.198323 1.072894 -2.393524
18900 8.03139795 13.58499591 -2.5273404900000003 -1.50876 0.745304 -2.32099
18920 7.72483545 13.02980877 -1.88772849 -1.197628 1.625235 -2.061434
18940 6.58001826 11.38562334 -0.30476727000000003 -0.596521 1.898456 -1.645252
18960 4.55442984 9.26647695 2.05268364 -0.6340180000000001 1.059847 -1.021666
18980 -1.8688638600000003 4.15311255 3.1789403100000007 -0.109803 -0.246646 -0.029293
19000 -6.736742820000001 -2.4709133700000003 4.2164361 0.327483 -1.070973 0.607205
19020 -8.43645285 -6.937475040000001 5.648352750000001 1.521222 -1.290165 1.372126
19040 -8.813971080000002 -10.19080458 4.8576961800000005 2.504828 -1.2701870000000002 1.6502990000000002
19060 -3.1677078600000006 -5.2895520000000005 -3.8160115200000004 3.445567 -0.616188 1.653895
19080 2.8388472300000003 3.4682862600000006 -10.64796039 3.289296 -1.459049 2.112151
19100 10.791510120000002 14.114598570000002 -9.55971747 3.3465519999999995 -2.438952 3.355081
19120 5.819144850000001 15.11466921 -2.50294302 3.07806 0.56916 3.910167
19140 -7.406147790000001 17.23590513 -5.60973078 3.048078 1.0290979999999998 3.203274
19160 4.0261809600000005 22.84399764 11.56719663 2.737346 0.657416 2.649309
19180 -0.57121668 5.77783494 8.74690992 2.182297 2.319766 2.468113
19200 -1.43760645 1.4762284200000002 2.0104712100000004 1.484668 1.888669 2.721234
19220 -4.4914104 7.23265794 3.6531557100000005 0.687888 0.823498 2.320723
19240 -0.3179421 24.56900766 6.220314989999999 0.023213 -1.27316 1.880796
19260 9.47170215 21.287081970000003 4.01360454 -0.829965 -2.235195 1.312048
19280 5.97946968 14.09513553 -3.09451545 -1.825436 -1.459195 0.192081
19300 -0.7048877400000001 18.179244540000003 -0.69889383 -3.392643 0.273252 -1.18841
19320 -3.47487858 19.82283156 -6.23289141 -3.987351 2.057045 -2.399804
19340 3.797451 17.378562150000004 -4.01853897 -1.870054 1.610121 -2.493401
19360 9.278307810000001 16.685201160000002 -3.78831789 -0.020907 -0.482735 -1.536699
19380 8.59692483 8.22284991 -4.392918 0.003926 0.926563 0.053319000000000005
19400 6.725068919999999 -0.19504242000000002 -4.62014703 0.297649 4.54606 1.472536
19420 10.329567030000002 0.29608542000000004 -5.61617595 -1.11187 -3.853528 -0.261338
19440 10.727588160000002 -1.2070910700000002 -5.49057852 1.481927 0.581496 0.34930100000000003
19460 4.81054932 -2.36193408 -4.13739693 0.112652 1.340842 0.253306
19480 -1.01713023 3.8158643700000003 -3.87948222 0.155702 3.114778 -0.910892
19500 -2.17452384 6.4593650700000005 -1.77201954 -0.363574 0.637392 -3.232591
19520 0.08157996 12.949121520000002 -5.935756320000001 -1.813403 -3.524883 -4.576935
19540 4.71594168 26.976597480000002 2.1019298400000004 -1.965466 -1.298765 -1.974388
19560 -2.3921783100000003 30.894103260000005 3.94055928 -2.527305 -0.213598 -1.932702
19580 -4.33528425 22.029689160000004 -7.09614198 -3.0032400000000004 1.220834 -1.663331
19600 -1.2100831200000002 21.877751879999998 -0.20447964000000002 -1.7872860000000002 0.940266 -2.349891
19620 2.8966281300000003 16.29631314 -1.7229204900000001 -1.6964130000000002 0.754551 -2.339404
19640 6.7060571399999995 12.612020489999999 -2.105971560000001 -0.920522 2.1065560000000003 -1.989613
19660 5.826031469999999 11.805795450000002 -1.53341091 -0.745693 2.082809 -1.265175
19680 4.954099050000001 8.94898611 -0.8497814400000001 -0.363813 0.687184 -0.50335
19700 2.01106962 6.649620210000001 0.9108585 0.275649 -0.701495 0.16305799999999998
19720 -3.59342262 0.5334874200000002 1.3202592299999998 1.092268 -1.287998 0.670509
19740 -4.912936290000001 -3.9767778000000003 3.60061335 2.122081 -1.074566 1.5469620000000002
19760 -6.02646939 -7.02922797 3.2259400200000004 2.804808 -0.811868 1.594123
19780 -4.48363107 -10.101896550000001 0.70728138 3.833148 -0.722197 1.720832
19800 3.2031906300000004 -2.14818399 -4.72941081 3.188645 -1.580931 2.309225
19820 8.338862970000001 6.15115449 -3.56229549 3.032674 -1.640396 3.726811
19840 10.731933990000002 13.457917170000002 -8.076602430000001 2.879387 1.430524 3.3949290000000003
19860 -4.6738764 23.622224940000002 -16.60706451 2.790447 1.111233 3.39899
19880 2.34353052 28.779606810000004 10.85078214 2.423264 0.151085 2.470439
19900 -4.9434748200000005 4.295318310000002 13.352381190000001 1.883334 1.847714 2.760391
19920 -5.90028336 -1.41920289 3.5887824900000003 0.863014 1.1412209999999998 2.367473
19940 -5.691762000000001 9.122475960000001 3.16576548 -0.104849 -0.6002890000000001 2.087343
19960 -1.65944979 23.70036159 1.5669414900000003 -0.8740889999999999 -2.173845 1.459076
19980 13.544431560000001 28.013946120000004 2.8581533100000005 -1.379702 -2.0949880000000003 0.5602729999999999
20000 12.671596619999999 13.35223404 1.44958446 -2.426719 -0.611855 -0.728671
20020 2.0490931800000003 15.62390631 0.03666978 -4.24024 1.471592 -2.026943
20040 -1.3500423900000003 19.96667559 -7.13536236 -3.704339 2.336096 -2.898113
20060 3.2668084800000003 16.47683676 -5.8323196799999995 -1.459054 0.5314800000000001 -2.437873
20080 6.6752145 15.822696150000002 -4.80531078 0.263144 -1.773018 -1.458286
20100 7.266188520000001 9.02309085 -4.26642786 -0.256433 2.48455 0.6722779999999999
20120 7.33324968 0.64246671 -5.53129983 -0.41889 2.351496 1.318656
20140 11.04268536 -0.85188078 -7.0162101 -1.200051 -4.274108 -0.767752
20160 10.261014750000001 -2.8747714500000003 -3.12325875 1.930408 2.208679 -0.963565
20180 4.13993772 -2.40055605 -4.34336769 0.028889 1.399328 1.149952
20200 -0.60040143 4.219879410000001 -5.207069520000001 -0.420439 3.081856 -0.703367
20220 -1.55706282 5.660929169999999 -2.7493309800000003 -1.057326 1.360712 -3.1635880000000003
20240 -0.0925083 10.56502665 -3.46813911 -1.46476 -2.942965 -4.41608
20260 6.0917353200000015 25.216712910000002 0.6454587600000001 -1.554076 -1.17867 -1.994101
20280 6.048924480000001 32.620015800000004 3.12474987 -2.533156 0.384883 -2.408868
20300 -5.169350070000001 20.97542808 -3.45915315 -2.7464310000000003 1.009477 -2.04369
20320 0.08308088999999999 21.61175373 -3.4994232 -1.698115 0.7316 -2.459027
20340 6.86158488 15.809070060000002 -1.4949459 -1.224186 1.282833 -2.192572
20360 5.691762000000001 13.901289929999999 -3.1100839200000006 -0.653154 2.142496 -1.619255
20380 7.48653093 10.3104081 -2.00208366 -0.408463 1.642683 -1.249437
20400 5.19075549 9.73006812 -0.032186610000000004 -0.146013 0.643174 -0.342607
20420 2.35385064 6.7559017500000005 1.56963924 0.45752 -0.63462 0.5968720000000001
20440 -2.66700546 0.8698428900000001 2.3601388500000002 1.047448 -1.481689 1.193873
20460 -5.3678358 -4.29142374 4.126174290000001 2.1123 -1.161586 1.738217
20480 -7.43219334 -8.68314492 5.086867590000001 2.812597 -1.034201 1.7760599999999998
20500 -5.182672050000001 -9.73215765 2.3486121000000004 3.755248 -1.030475 1.891598
20520 3.33521361 -0.9228267 -7.0045362 2.96847 -2.406605 2.521322
20540 11.149859609999998 9.67348404 -8.46340092 3.3578879999999995 -0.815606 3.644704
20560 15.18127911 19.276012350000002 -7.05557763 2.968061 1.466399 3.4040480000000004
20580 -7.087165830000001 12.486285720000001 -0.6617727900000001 2.609421 1.114292 3.324014
20600 -10.88327286 29.24648433 -16.016688900000002 2.299036 1.675949 2.198425
20620 -1.7714211300000002 12.66575967 18.46260639 1.721639 1.61008 2.653812
20640 -2.0877053400000003 0.9680409900000001 2.76130899 0.964707 0.492054 2.116915
20660 -3.5561544300000003 2.6039860200000002 2.1483311400000003 0.144927 -1.395519 1.738661
20680 -2.94393195 14.834299410000002 1.2064926599999997 -0.762898 -2.603619 1.213644
20700 4.94407323 34.44322392 5.16875166 -1.608895 -2.199064 0.412459
20720 10.599459750000001 15.90831783 2.6011411200000003 -3.082914 -0.53865 -0.8839670000000001
20740 6.81397695 12.25606464 -0.31838355 -4.245826 1.562524 -2.117897
20760 0.52540398 19.088906220000002 -5.246142750000001 -2.826665 1.926785 -2.266548
20780 1.20858219 17.50819149 -4.71549042 -1.165782 -1.042135 -1.843081
20800 6.25698477 15.816555090000001 -3.7622723400000004 -0.002987 -0.574754 -0.387049
20820 8.88193476 10.636129530000002 -3.58219998 0.669783 5.683553 1.471542
20840 7.844890230000001 2.03052285 -4.33947312 -1.067294 -1.822722 0.400805
20860 9.94995927 -1.4561767799999998 -6.28767045 1.81944 -1.974862 -1.34888
20880 10.49408073 -1.0315018800000002 -5.417238960000001 0.326948 1.5458 0.493821
20900 6.0833477700000005 -2.9506616100000005 -2.66281659 0.463656 2.722923 -1.219092
20920 -0.72913806 3.2275881000000006 -3.89938671 -0.551968 0.821779 -3.625113
20940 -1.4867055 6.748720830000001 -3.1922622900000004 -2.004194 -2.799393 -3.889126
20960 -0.16585766999999998 11.89980468 -4.5473960700000005 -2.1786830000000004 -0.97014 -1.9196830000000005
20980 3.87978633 22.042265580000002 1.08195471 -2.098661 1.155809 -2.169676
21000 2.80785744 28.95908076 2.3096958300000003 -2.848046 1.028695 -1.966444
21020 -5.10917553 22.504954230000003 -1.3332771 -2.044632 1.181696 -2.29645
21040 -0.20791314000000002 22.940096400000005 -4.071532590000001 -1.44659 0.8132520000000001 -2.317438
21060 7.915090590000001 16.899412320000003 -0.92013876 -1.185248 2.11478 -1.951948
21080 8.51982804 13.86775935 -1.8694622699999999 -0.749262 1.7928380000000002 -1.4742
21100 9.04433931 11.77706196 -1.3591755 -0.757045 0.924276 -0.8450270000000001
21120 5.60284416 10.554255269999999 -0.7488954 -0.11506 -0.142581 0.058131
21140 2.5191099 6.82909416 0.69455781 0.351822 -0.881425 0.603928
21160 -3.47696811 0.9015782400000001 2.6002386000000004 1.422156 -0.912183 1.239558
21180 -5.072800050000001 -4.51296297 5.8646534400000006 2.298429 -1.009118 1.543837
21200 -7.058716830000001 -8.358767460000001 6.00071814 3.288034 -0.744648 1.6807330000000005
21220 -6.746474340000001 -9.92735703 1.02521367 2.5714240000000004 -2.230525 2.2555400000000003
21240 1.06773021 -0.58348899 -6.901393860000001 3.096648 -2.581327 3.744487
21260 9.64249425 9.1621476 -5.89548627 3.50567 2.011592 3.2618270000000003
21280 13.23502416 18.66139623 -13.496087880000001 2.567962 0.372085 3.021301
21300 -7.6510348200000005 17.80876989 -5.43100239 2.408521 0.957345 2.521646
21320 -4.66415469 19.49860125 3.0527542800000003 1.991391 2.202935 2.8119650000000003
21340 -3.31994925 6.15026178 14.562317160000001 1.548591 1.566991 2.656931
21360 -4.33707948 4.7265757200000005 4.633763310000001 0.873366 -0.584588 2.374029
21380 -3.23672121 10.85183181 2.01166803 0.017134 -1.907114 1.648694
21400 1.53910071 22.631591520000004 3.67171623 -0.729827 -1.964386 0.902203
21420 11.15839431 22.142406060000003 4.46775849 -1.692375 -1.750859 -0.510574
21440 8.14022028 14.001283260000001 -0.5848329600000001 -3.2376150000000004 -0.032671 -1.807572
21460 2.13875658 16.98443559 -1.67516541 -3.528793 2.363805 -2.5209080000000004
21480 0.055230299999999996 19.28844162 -5.90880825 -1.785275 1.6687310000000002 -2.305945
21500 4.07198385 16.87755564 -5.28790392 -0.027444 -1.046961 -1.357628
21520 7.86539313 16.02088758 -3.9189969000000002 0.713728 1.201415 0.500169
21540 8.27448975 8.54782578 -4.22735463 0.4538720000000001 6.250413 1.891255
21560 6.645882600000001 0.07708698000000001 -4.72971492 0.737996 -3.140072 -0.462975
21580 8.9739918 0.86565402 -5.717356290000001 1.215149 0.11681099999999997 0.370465
21600 9.61914645 -0.83540979 -4.69199547 0.293403 2.989493 -0.336135
21620 4.16703294 -2.7617602500000005 -4.0995205200000004 -0.200913 2.793009 -1.652181
21640 -0.6649218 3.6579429900000004 -3.57576462 -0.685178 -1.580876 -3.927408
21660 -0.18590931 6.26896278 -1.2319398000000001 -1.687913 -3.779992 -4.026665
21680 3.91839849 14.823528029999999 -6.474040830000001 -1.6605470000000002 -1.3064870000000002 -2.172006
21700 7.144044210000001 31.91588343 2.0284333200000004 -3.066672 -0.706569 -2.060819
21720 -4.154309370000001 22.22219079 5.811365520000001 -2.63992 1.18921 -2.0613360000000003
21740 -4.07856636 25.38197217 -7.17742764 -1.7911259999999998 0.207943 -2.227202
21760 -0.41404086 24.52290066 -1.1683219500000002 -1.46909 1.121997 -1.985774
21780 5.18596821 17.07140124 -0.7279314299999999 -0.982763 1.497869 -1.566252
21800 6.25758318 13.97942658 -1.18358631 -0.7873829999999999 1.37764 -1.239993
21820 9.02128581 11.776905 -1.21247676 -0.610696 0.15323699999999998 -0.228789
21840 4.495746420000001 10.130787 0.45190746000000004 0.074476 -0.801908 0.672391
21860 -0.01002582 6.073616250000001 0.61747083 0.669431 -1.268586 1.243303
21880 -5.31215424 0.27078543 1.5675399000000003 1.889848 -1.231211 2.02624
21900 -4.99062168 -4.94601561 5.28056604 2.865015 -0.948208 2.070077
21920 -6.31042965 -9.333989370000001 7.3982115 2.5893580000000003 -1.28585 2.2961150000000004
21940 -4.6246302 -10.88641206 1.45601982 3.016856 -2.846209 3.188793
21960 1.63190331 -2.00373174 -7.94487375 3.46443 1.49356 3.374366
21980 8.92294056 5.71825881 -11.768978520000001 2.982378 2.21549 3.341231
22000 13.872105180000002 19.593954450000002 -8.67191247 2.522051 1.580886 2.334701
22020 -4.2471217800000005 30.46793724 -6.430631580000001 2.2314990000000003 2.50209 2.384902
22040 -3.50212095 19.65278502 5.96959101 1.6818099999999998 1.69987 2.345771
22060 -4.64155245 0.19010799 12.5722017 1.159655 -0.371262 1.792507
22080 -5.53294791 -3.02341257 6.3897631200000005 0.469096 -2.344894 1.777393
22100 -5.5380294899999996 8.223752430000001 2.6707430700000003 -0.305473 -3.006289 1.348746
22120 1.5988239899999999 33.6438855 -0.13397517 -1.08419 -2.2265330000000003 0.433251
22140 14.96827458 22.86270531 2.23335441 -2.4128540000000003 -0.6278229999999999 -0.743509
22160 10.28226321 11.189678400000002 2.03876325 -4.125088 1.533836 -1.708956
22180 0.31524435000000006 16.59180015 -0.55204794 -3.175721 2.531326 -2.096709
22200 -0.33844500000000005 19.634371650000002 -6.72266547 -1.231916 -0.084135 -1.5990799999999998
22220 6.539895360000001 15.096707100000001 -5.47531416 0.129424 -1.0003540000000002 -0.363146
22240 8.713085040000001 14.20096581 -4.45173876 0.5041859999999999 4.452534 1.23909
22260 7.01590599 7.287898050000001 -4.0101612300000005 -0.172868 -0.8741030000000001 0.559661
22280 3.4278690600000004 -1.56873672 -4.93508727 1.530109 -4.750765 -1.947684
22300 7.862852340000001 -1.1451213 -6.13858788 1.363037 1.163876 0.799582
22320 8.22958938 -1.30573062 -4.15775268 0.17657 3.479271 -0.4390600000000001
22340 4.69843083 -2.8527676200000003 -3.8580768000000005 -0.4115430000000001 2.303044 -2.283275
22360 -1.7218708200000001 5.1841729800000005 -2.39261976 -1.643939 -1.891163 -4.0885989999999985
22380 -0.7810722000000001 11.144326770000001 -4.36761801 -1.845798 -1.400145 -2.831205
22400 3.1563380700000003 21.00567231 -2.9273138100000002 -2.004168 -0.910893 -2.234734
22420 1.35752742 28.6492221 4.01899023 -2.646199 -0.758851 -2.137932
22440 -7.34926941 20.51214102 0.3912816600000001 -1.884312 0.471911 -2.357446
22460 0.61327215 25.40008143 -6.27779178 -1.617736 0.429476 -2.366211
22480 7.62783417 20.411402130000003 -0.025898400000000002 -1.422194 1.606344 -2.203984
22500 9.015154560000001 15.14834694 -1.84551606 -0.992949 2.206651 -1.91654
22520 6.90050115 12.59091918 -1.7465724 -0.991275 2.11945 -1.423966
22540 7.429201290000001 10.78477065 -0.30955455000000004 -0.697508 0.087296 -0.4461600000000001
22560 4.38063588 9.941424570000002 1.1511054 -0.212163 -0.8728530000000001 0.281647
22580 -0.8232846300000001 5.379813810000001 1.7914727700000002 0.438099 -1.139456 0.853757
22600 -5.783377590000001 -2.0115208800000004 3.1928606999999998 1.803607 -1.200093 1.7788389999999998
22620 -5.385650760000001 -6.4117669500000005 6.295910850000001 2.863433 -1.108983 1.785057
22640 -6.95393622 -10.35591669 6.76787976 3.482496 -0.868985 1.969603
22660 -5.19974145 -8.785679040000002 -0.28216503000000004 2.838898 -2.458463 2.814244
22680 3.9095694900000004 0.8454454200000001 -8.23452381 3.103212 -0.06866799999999999 4.086349
22700 13.33651842 9.52993431 -8.96680107 3.4188110000000003 2.2002490000000003 3.311185
22720 14.634616860000001 19.30640373 -12.26983788 2.575587 0.80253 2.464259
22740 -9.361977300000001 17.29772775 -4.283046 2.1517310000000003 1.144097 2.395699
22760 -6.09097995 31.614255360000005 -8.558606970000001 1.888171 1.407155 2.906267
22780 -2.22841998 4.3325865 19.51626906 1.032934 0.292518 2.406067
22800 -5.73098238 -3.3820661700000003 2.5875150300000005 0.05275 -1.539656 2.165491
22820 -4.2716664 7.63083603 3.83712264 -0.53112 -2.330232 1.908189
22840 -0.93764961 24.381597420000002 0.32198382000000003 -1.25694 -2.083464 1.034338
22860 13.452374520000001 29.30306841 1.49778099 -2.467587 -1.109289 -0.439899
22880 10.71636552 15.019168860000002 -0.11061756 -3.897568 0.890539 -1.938347
22900 2.4201662400000004 15.679440720000002 -0.1764819 -3.152989 2.378428 -3.039594
22920 -0.8813696400000001 18.42458283 -7.585621740000001 -0.785833 0.919276 -2.763748
22940 2.30895027 15.94619424 -4.56565248 0.851992 -1.516353 -1.41925
22960 6.14981052 14.16982887 -4.15117017 0.963995 2.794068 0.532991
22980 7.57918638 8.83911411 -3.2373196200000005 -0.113861 5.661491000000002 1.806859
23000 5.93949393 0.6736036500000001 -3.50480889 -1.511625 -2.111611 -0.494962
23020 8.57925702 -1.45092843 -4.09368357 3.292454 -1.143601 -1.380248
23040 9.867182490000001 -3.239262 -5.936354730000001 0.090878 0.315083 0.5129779999999999
23060 7.78381317 -3.95582364 -3.75853473 -0.176352 3.681847 -1.240814
23080 -1.3548296699999998 3.88666314 -5.18042556 -1.399779 -0.169191 -2.559406
23100 -2.67673698 7.52096403 -2.2246725600000006 -2.051839 -1.834449 -3.000866
23120 -1.3341796200000002 10.91200635 -3.39868431 -1.118675 -0.6127739999999999 -2.163769
23140 3.7236601800000004 22.55090427 0.18831276000000002 -2.767244 -1.858581 -1.941884
23160 5.55015465 33.594639300000004 3.6574917300000003 -2.836651 0.681403 -2.239384
23180 -3.9113647200000004 21.90814326 -2.59769781 -1.844596 0.189871 -2.456151
23200 0.31959018000000006 23.731498530000003 -3.8796293700000004 -1.805925 0.129712 -2.09795
23220 8.33391873 18.01892952 -1.4861070900000002 -1.33811 1.224239 -1.826893
23240 6.4753848000000005 14.756162760000002 -1.40782329 -0.939736 1.637134 -1.265959
23260 6.898853070000001 13.365251910000001 -1.14571971 -0.735367 1.033787 -0.810832
23280 4.525686540000001 12.50469909 1.2467529000000002 0.053936000000000005 -0.530895 0.050195
23300 2.9385364500000004 8.59677768 0.7071342300000001 0.559016 -1.142848 0.532003
23320 -3.36664485 4.27780746 0.6227093699999999 1.58349 -0.970781 1.367878
23340 -6.15340098 -2.18889549 2.30131809 2.391083 -0.858925 1.7322990000000005
23360 -6.25504239 -5.508844740000001 4.86039393 3.390518 -0.963405 1.686003
23380 -6.531370470000001 -8.86546377 4.4099775900000004 2.809648 -2.499402 2.156068
23400 -2.1125540700000003 -6.78718584 -1.81423197 3.200368 -1.802079 3.5220230000000003
23420 4.44754989 1.52786826 -10.01716758 3.3299190000000003 1.78551 3.208546
23440 9.67812417 12.07374579 -8.88686919 2.77113 0.7959729999999999 2.868353
23460 9.12098484 14.90271435 -2.31583689 2.3663830000000003 1.212393 2.180262
23480 -8.29305027 13.193861400000001 -5.39672625 2.062224 2.32709 2.605066
23500 -2.14189578 25.054445700000002 -3.04931097 1.421282 1.698359 2.150605
23520 2.84932431 10.26475236 17.683623720000003 0.474176 -0.142415 1.900657
23540 0.39412656000000007 -0.19564083 3.6392353200000005 -0.531625 -1.470861 1.45309
23560 -1.1587375800000002 6.33872169 1.35198477 -1.301531 -1.507316 0.8484860000000001
23580 0.35475903000000003 21.91457862 1.6470205200000003 -2.299613 -0.739269 -0.411426
23600 10.227778470000002 24.449109840000002 0.9166954500000001 -3.77607 0.957908 -1.841444
23620 6.59783322 16.34541219 1.9896642 -3.054396 1.848412 -2.715623
23640 1.2726513 16.33778001 0.37063161000000006 -1.226976 0.019038 -2.361888
23660 0.0606258 19.587214980000006 -6.5101122 -0.143009 -2.031039 -1.316582
23680 5.80538142 16.98652512 -5.922885600000001 -0.015433 3.397758 0.663177
23700 6.576722100000001 14.656767839999999 -5.57784828 0.017671 4.130932 1.632414
23720 5.56183836 10.05488703 -4.32674955 -1.598812 -4.28501 -0.360326
23740 3.55285827 1.9863680400000001 -4.44381228 2.819926 -0.7074010000000001 -2.160705
23760 8.418343590000001 -1.5500290500000002 -5.82798366 0.225789 0.330009 0.659179
23780 9.98872839 -1.8037450800000001 -5.3293707900000005 0.131528 1.85526 -1.065408
23800 6.794523720000001 -3.7661669100000004 -2.35954044 -1.240137 1.047175 -2.918773
23820 -1.15260633 4.1433810300000005 -4.56640785 -1.819245 -2.33253 -2.787096
23840 -1.75090842 6.5417004 -2.14818399 -1.726066 -0.113567 -2.068238
23860 0.6027950700000001 12.995081370000001 -5.66542215 -2.631616 0.066978 -1.944472
23880 4.83374997 26.726020650000002 0.8702941500000001 -2.900529 0.937448 -2.012627
23900 -0.5762982600000002 26.07158574 3.84805098 -2.014326 0.943361 -2.394209
23920 -5.3823546 20.835468810000002 -3.8751462 -1.510678 0.972558 -2.140765
23940 -1.0532114099999998 22.77663237 -1.8179695800000002 -1.295134 1.669761 -1.923304
23960 5.4051138000000005 16.678020240000002 -1.19166975 -0.722521 2.030362 -1.489272
23980 4.341425310000001 14.34661488 -2.1516273 -0.610957 1.260882 -0.966215
24000 7.76554695 10.94434011 -2.20596489 -0.267782 0.117646 0.115483
24020 5.975575110000001 10.23661728 -0.23800041000000002 0.06259400000000001 -0.85706 0.8881600000000001
24040 3.35692314 6.57222912 0.6768900000000001 1.039616 -1.067134 1.692147
24060 -2.60937171 1.90373841 1.7730594000000002 2.171394 -0.678663 2.131116
24080 -5.31889371 -3.66408405 5.53593996 3.045428 -0.8820040000000001 1.874699
24100 -6.579567 -8.444241990000002 6.56430264 2.867526 -0.94565 2.22712
24120 -5.00678856 -9.99516375 0.95456205 2.745527 -2.19327 3.442435
24140 2.64125421 -0.37632141 -7.713759960000001 3.546625 0.588605 3.171001
24160 10.641819329999999 8.76262554 -7.17922287 3.045117 1.1086790000000002 2.752361
24180 15.62196393 15.70923369 -7.40330289 2.641419 0.436083 2.405368
24200 -6.535559340000001 10.270442160000002 -4.37211099 2.376327 1.963527 2.143049
24220 -12.36698631 23.84151768 -17.429603580000002 1.903832 1.49124 2.11258
24240 0.92013876 13.99948803 20.36679606 1.270491 -0.058867 1.89543
24260 0.22199049 4.66385058 8.89150932 0.5740569999999999 -1.210167 1.634599
24280 0.060321690000000004 5.419926899999999 2.25251334 -0.16829000000000002 -1.771748 1.258392
24300 -1.6685829000000003 13.83587685 1.94565654 -1.005042 -1.670883 0.47048
24320 4.30534413 27.3680361 4.39126992 -2.387619 -0.265596 -0.7737069999999999
24340 6.55502238 14.60766879 0.68452218 -3.721191 1.895625 -1.957631
24360 2.52030672 16.52548455 1.04542227 -2.632255 2.516973 -2.441134
24380 -0.88600977 19.17527346 -3.9215475 -0.6433949999999999 0.186875 -1.949966
24400 1.1021535 18.4572207 -3.3058719 0.481215 -0.4673 -0.239594
24420 6.5351080800000005 16.62232887 -3.8517885900000004 -0.0073799999999999985 4.30647 1.446144
24440 9.69862707 14.15740941 -4.46596326 -1.202816 -1.925085 0.542063
24460 7.48353888 4.73360949 -3.6317502900000003 2.282487 -2.014432 -0.912965
24480 5.8365085500000005 -3.00320397 -3.68204616 0.004693999999999999 0.28153 0.187679
24500 8.89390296 0.12663729 -6.26686344 0.169322 3.319064 -1.12684
24520 8.81846406 -1.06758306 -4.97460195 -0.1926 0.718847 -2.971923
24540 2.70352809 0.77853141 -4.13051031 -1.77678 -2.817852 -3.4666339999999995
24560 -2.5521892200000003 4.13500329 -3.7238073300000005 -1.603062 -0.676782 -1.987609
24580 -1.7030061900000002 7.572456720000001 -1.52802522 -2.367699 -0.8921879999999999 -1.80253
24600 2.6452959300000005 16.69882725 -4.85021115 -3.151272 0.24685 -1.986788
24620 6.57327879 34.106721300000004 1.5275739600000002 -2.465587 0.7158899999999999 -2.3938650000000004
24640 -1.8562874400000002 21.06719082 3.0202733700000004 -1.7860049999999998 0.316909 -2.30849
24660 -2.61431595 23.31417132 -5.76930024 -1.456892 1.365228 -2.0832080000000004
24680 -0.025751250000000003 21.83045787 -0.33110712 -0.7609020000000001 1.563787 -1.726088
24700 4.9114353600000005 15.383355300000002 -1.1105410500000001 -0.718229 1.409057 -1.164775
24720 6.001914960000001 12.370576770000001 -2.52630063 -0.239438 0.117979 -0.25819699999999995
24740 5.009486310000001 12.189454740000002 -0.06301944 0.480114 -0.991979 0.43405
24760 3.80957616 10.52716005 -0.40550616000000006 1.371123 -1.642552 1.181385
24780 0.44681607 6.99705117 1.01204865 2.056669 -1.245347 1.687729
24800 -3.7504512900000004 0.91339929 1.56544056 2.96296 -0.772826 1.8163
24820 -4.82342004 -3.24255816 4.145774670000001 2.730074 -1.294928 2.313133
24840 -5.030587620000001 -6.58210779 6.1986054600000005 2.789115 -1.85744 3.337623
24860 -3.2040833400000004 -8.276137830000001 1.48581279 3.358058 1.041273 3.086851
24880 3.3575215500000004 -0.9542677500000001 -6.952288139999999 2.771298 1.245769 2.805821
24900 11.7677817 5.3012258999999995 -5.84474895 2.3839930000000003 1.093029 2.178401
24920 12.480743069999999 13.594727429999999 -3.4408967400000003 2.283039 1.444929 2.442164
24940 -5.58204696 16.65272025 -16.49195397 1.911492 1.328208 2.383103
24960 -4.454740620000002 21.915177030000002 -0.23770611 1.06109 -0.22688200000000006 2.26806
24980 -2.63871342 8.028700200000001 15.05808513 0.215587 -1.507903 1.809801
25000 -4.6129563000000005 1.9928034 5.09181183 -0.48188 -2.173555 1.313332
25020 -4.8838986900000005 13.38291972 0.03412899 -1.242619 -1.685779 0.139827
25040 2.36897766 21.910988160000002 0.69336099 -2.76596 -0.311775 -1.151236
25060 12.22911657 19.33185087 2.7113074200000002 -3.808496 1.266071 -2.153987
25080 7.244184690000001 16.379992440000002 2.29502988 -2.347629 1.860402 -2.331483
25100 1.9290384000000003 16.48566576 1.5983727300000001 -0.595497 -0.801702 -1.725106
25120 -1.4736876300000001 17.906516730000003 -5.16171789 0.325338 -0.205008 -0.429026
25140 3.8752933500000006 18.5642478 -6.08693823 0.403634 5.103777 1.236485
25160 6.6231234 15.93466749 -6.630010020000001 -1.977449 -0.682908 0.132341
25180 7.327716840000001 11.891868390000003 -4.81518945 0.45194 -4.190758 -1.730538
25200 6.04173375 4.28573394 -3.70599237 1.561252 1.393848 0.127692
25220 8.96321061 -0.55010556 -6.124363379999999 0.512443 -1.233602 0.357673
25240 10.487645370000001 -1.1802999600000001 -7.411837590000001 -0.293905 3.39784 -1.244476
25260 7.046895780000001 -3.1620278699999997 -2.13366519 -1.92412 -1.481744 -2.338129
25280 -0.71101899 2.289192930000001 -2.00358459 -2.649282 -1.78886 -2.961301
25300 -1.9523862 5.580241920000001 -1.34570637 -1.841321 1.150024 -1.745923
25320 0.7553307600000001 12.14064999 -6.84451548 -2.743954 -0.80367 -2.033872
25340 4.13574885 25.62985125 0.02245509 -2.471741 0.434232 -2.016465
25360 0.12498921000000002 25.77863952 2.27541969 -1.534535 0.41538 -2.376294
25380 -4.9808901599999995 19.707721019999997 -1.7065966500000003 -1.431645 1.617231 -1.988283
25400 0.29697813 24.203918700000003 -2.5972465500000004 -0.8643 2.2153560000000003 -1.807762
25420 7.788600450000001 16.74986868 -0.37676286000000003 -0.809567 1.389585 -1.277551
25440 5.392537379999999 13.977631350000001 -1.5877485 -0.395507 0.228377 -0.557462
25460 7.191946440000001 12.38330034 -1.31576625 0.14916 -0.8649819999999999 0.131405
25480 3.5235263700000004 11.512711890000002 0.24729048000000003 0.854555 -1.556269 0.8315620000000001
25500 1.4534790300000002 8.684194589999999 0.88795215 2.022419 -1.203947 1.753667
25520 -3.33910818 2.39098149 1.07146782 2.715088 -1.009945 1.655707
25540 -3.67201053 -3.5714187900000005 3.3233925600000003 3.518639 -0.5479609999999999 1.844462
25560 -3.8127251699999998 -6.893016120000001 5.75747919 2.497707 -1.6256959999999998 2.6473560000000003
25580 -4.29082533 -10.212661259999999 4.46670882 2.832311 -0.92366 3.682832
25600 -0.7471001700000001 -3.7558369799999998 -3.4167935700000003 2.822639 1.96602 3.262455
25620 4.042190880000001 3.0210189300000003 -7.73382141 2.076976 2.130916 3.165168
25640 10.374025950000002 11.487264750000001 -5.82454035 1.880763 0.975515 2.697397
25660 0.75098493 10.19515041 -4.41296964 1.57697 1.6959540000000002 2.882359
25680 -9.49445154 15.78227895 -16.89791139 0.94248 0.278185 2.339223
25700 6.0299127 32.113917900000004 16.80045885 0.293129 -1.497975 1.657575
25720 3.2500431899999995 10.15607718 13.858783200000001 -0.172578 -2.701925 1.043773
25740 -0.49876002 -3.2121667800000004 2.29548114 -0.775817 -2.281786 0.13103299999999998
25760 -2.4905235600000006 4.374504630000001 3.29734701 -1.970239 -0.901214 -1.222903
25780 -0.7580285100000002 22.073098410000004 4.86264042 -3.176705 0.914027 -2.309356
25800 7.923919590000001 27.65484126 2.94377499 -2.426429 1.896666 -2.8063700000000003
25820 5.023102590000001 15.665824440000002 -1.7699202 -1.311028 0.543455 -2.364215
25840 1.37175192 17.49262302 -0.65174697 -0.25850300000000004 -0.273559 -1.160476
25860 -1.6254679500000002 19.40833944 -6.019877070000001 -0.994816 4.302704 0.847456
25880 2.89827621 16.81573302 -4.12931349 -0.614799 1.536838 0.8867700000000001
25900 7.651790190000001 15.504459750000002 -4.69424196 1.6971330000000002 -3.340963 -1.1386120000000002
25920 9.01994184 9.99590931 -5.112167580000001 0.853842 0.754778 0.450445
25940 7.91822979 0.7662591000000001 -4.27256892 0.552399 2.695635 -0.333949
25960 9.982440180000001 -1.62367272 -5.842051199999999 -0.003794 1.899058 -1.776777
25980 10.194846300000002 -2.74184595 -5.8824684 -1.08956 -2.258107 -3.648422
26000 4.26987117 -1.6890858000000002 -2.9005227000000002 -2.235959 -2.382571 -2.699143
26020 -2.61072549 4.263730110000001 -3.4385031 -1.6877220000000002 1.042301 -1.846193
26040 -2.73735297 5.2337134800000005 -1.19616273 -2.707331 -0.42683 -1.7328599999999998
26060 0.25956279 10.29229884 -4.63615695 -2.5486470000000003 1.320982 -2.0597990000000004
26080 5.58099729 25.43256234 0.9068167800000001 -1.495929 0.699662 -2.373184
26100 5.57111862 29.209363290000002 3.8000016 -1.093712 1.271207 -1.796404
26120 -3.2726454300000007 19.584674190000005 -0.84004992 -0.79368 1.426344 -1.691958
26140 -1.4147099099999998 23.49154593 -4.45309254 -0.716093 0.915795 -1.4226379999999998
26160 6.50112624 16.010557650000003 -0.34922619 -0.73539 0.241633 -0.6474479999999999
26180 7.772139270000001 14.233750830000002 -2.9791008000000003 -0.10675 -0.945554 0.255771
26200 7.565570100000001 12.579088320000002 -1.6976205000000002 0.144698 -1.7260209999999998 0.741364
26220 4.604127300000001 11.40822558 -0.6719555700000001 1.502201 -1.495552 1.601924
26240 0.12319398000000001 6.88971996 1.47937743 2.7223490000000004 -1.490464 1.935179
26260 -4.74932511 1.04273433 2.5159707 3.341254 -1.238936 2.1667110000000003
26280 -5.641171830000001 -4.55816745 5.01142869 2.703069 -3.101991 2.957262
26300 -6.849606870000001 -7.015013280000001 5.34089754 3.488484 -0.416843 3.710267
26320 -4.64050278 -7.531882560000001 2.22347574 3.476392 2.393967 3.035737
26340 1.6164918 -1.0334540700000001 -4.0317138 2.7521400000000003 0.733521 2.518991
26360 8.57791305 6.08080698 -6.864272820000001 2.209324 1.510879 2.530227
26380 13.44698883 15.072456780000001 -3.9451994100000003 2.022376 1.7446240000000002 2.579896
26400 -1.63714185 22.81166388 -15.231123720000001 1.396127 0.548204 2.086741
26420 -3.95328285 23.54394114 -2.49935256 0.618079 -1.061421 1.960524
26440 -3.4756241400000003 4.39381071 13.151648970000002 -0.265086 -1.913109 1.528157
26460 -5.3649909000000005 -0.39368511 6.30758475 -1.135485 -1.471322 0.49495
26480 -4.824616860000001 8.15354226 3.1921151400000003 -2.7469 -0.218602 -1.025172
26500 -0.87433587 22.09974237 1.9396626300000002 -3.4761910000000005 1.120117 -2.172843
26520 10.393636140000002 23.734196280000003 3.33416394 -2.058657 0.725484 -2.481834
26540 11.280244320000001 12.758415120000002 -0.20567646 -0.554971 -1.103181 -2.024607
26560 2.32032006 16.26008481 1.11742767 -0.379784 1.824229 -0.322252
26580 -1.3169630700000001 19.20401676 -4.371806879999999 -0.138008 4.007086 0.771567
26600 2.65607712 18.0988614 -5.2573653899999995 -2.3500400000000004 -3.230554 -0.46627
26620 8.290960740000001 16.961225130000003 -4.2348396600000004 1.606567 -3.4053720000000003 -1.469243
26640 10.33810173 13.17096486 -3.9541755600000013 0.768242 0.716003 -0.965497
26660 7.61316822 4.749021 -3.2970429 0.412484 0.76583 -0.331385
26680 7.912098540000001 -0.5772007800000001 -4.9590334799999995 -0.71731 2.28667 -1.9200580000000005
26700 9.21723075 0.93735531 -6.389017560000001 -1.753679 -2.44022 -2.28764
26720 8.446184370000001 -2.51791308 -3.99040389 -2.336319 -1.040445 -2.049949
26740 3.1711511700000004 -0.6102801 -4.25954124 -2.049224 1.990642 -2.126603
26760 -2.28993849 4.923864630000001 -1.5549634799999998 -2.741908 -0.393364 -2.079248
26780 -0.55759059 12.07195056 -5.17982715 -1.947375 1.1263379999999998 -2.389703
26800 3.92139054 25.22584602 -0.36628578000000006 -1.4557790000000002 0.5942430000000001 -2.152715
26820 1.4838605999999999 33.26233536 6.2266032 -1.118476 1.547796 -1.945414
26840 -6.060745530000001 18.20574135 -3.53025603 -0.6570060000000001 1.482202 -1.660096
26860 0.5824393200000001 20.364549570000005 -4.71833532 -0.756005 1.0355450000000002 -0.965871
26880 4.612662 17.81669637 1.0681814699999999 -0.428435 -0.229297 -0.095634
26900 4.738848030000001 13.74695901 -0.5996558700000001 0.291483 -1.103495 0.512992
26920 6.84706608 11.10091752 0.09385227000000002 1.126816 -1.696866 1.123133
26940 4.932242370000001 10.689270300000002 -0.72703872 2.320601 -1.208762 1.6339780000000002
26960 3.24659988 8.22060342 0.7295795100000001 3.065144 -1.194393 1.923308
26980 -3.44852892 2.8307637900000002 2.03427027 2.662453 -2.764844 2.596555
27000 -6.55261893 -3.6407264400000003 6.680011590000001 3.35734 -1.738839 3.555085
27020 -7.18969995 -7.71256314 6.642890550000001 3.520404 2.446153 3.266714
27040 -4.77342828 -8.33451714 0.7050348900000001 2.617767 0.035381 2.9975110000000003
27060 2.93913486 -0.8978308200000001 -6.93013716 2.476491 1.429711 2.3505990000000003
27080 11.25300195 6.56235045 -1.81258389 1.849719 2.198322 2.756502
27100 9.33324381 12.000092310000001 -9.21573963 1.62045 1.070747 2.551247
27120 -5.07175038 6.68570139 -6.60995838 0.925266 -1.119742 2.159297
27140 -9.03341097 14.671139490000002 -8.85962682 0.076807 -2.415389 1.631602
27160 -0.01946304 26.823767489999998 14.03151768 -0.721333 -1.677029 0.961715
27180 3.40526682 11.78529255 6.32853891 -1.821037 -1.269501 -0.362538
27200 1.7254612800000002 5.95955538 2.04924033 -3.614625 0.061652 -1.625524
27220 0.54636795 8.52806844 3.8692994400000003 -3.319711 2.128789 -2.272387
27240 0.64770525 24.70552362 7.2129006 -1.5342360000000002 1.414784 -2.154315
27260 4.684961700000001 16.79731965 0.15492933000000003 -0.017061 -1.07813 -1.563683
27280 3.81062583 17.120500290000003 -2.1080709 0.425109 3.108622 0.39316
27300 0.85037985 20.63458944 -4.215386430000001 -0.139129 3.630713 1.12135
27320 3.0636826200000002 18.528470730000002 -5.0871717 -0.855073 -4.284632 -1.098614
27340 7.134763950000001 18.237623850000002 -3.61632897 2.171262 1.23426 -0.451092
27360 8.37239355 12.82458357 -3.6989586 0.26957 0.787918 0.395047
27380 6.143826420000001 3.37773015 -3.68833437 0.133509 2.70868 -1.366658
27400 7.4354895 -0.34009308 -5.403612870000001 -1.514936 -0.240145 -3.3623550000000004
27420 9.95669874 0.25686504 -7.3089993600000005 -2.250334 -2.902755 -2.870561
27440 7.15602222 -3.2837209200000004 -2.61520866 -1.441612 0.380354 -1.956857
27460 -0.46702467 2.57584113 -3.2897050200000004 -2.614138 -0.74395 -1.896309
27480 -1.2454089300000002 6.0589503 -1.9978947900000001 -2.627781 0.8682610000000001 -1.996747
27500 2.8006765200000006 15.38096166 -6.07182102 -1.55348 0.8186399999999999 -2.506198
27520 3.80658411 27.560988990000002 1.6018160399999999 -1.257014 1.091343 -1.962888
27540 -5.33161728 21.71998746 5.25781665 -0.639788 2.015741 -1.633954
27560 -4.22151768 20.71452132 -7.327716840000001 -0.609841 1.727437 -1.224246
27580 0.7925989500000001 22.10677614 -0.46986957000000007 -0.611102 0.439021 -0.566716
27600 6.383180610000001 17.552944710000002 -0.56641959 -0.143074 -0.7535390000000001 0.221088
27620 7.73726472 14.22296964 -2.27871585 0.364021 -1.353935 0.741351
27640 8.69017869 12.569209650000001 -2.1116613600000003 1.418374 -1.398301 1.596941
27660 4.58212347 11.42439246 0.29593827000000006 2.342128 -1.264793 1.774137
27680 -0.2718351 7.199274510000001 1.52518032 3.231944 -1.233903 1.802746
27700 -4.4599791600000005 0.62958618 1.0557522 2.392534 -2.784171 2.336185
27720 -4.18649598 -5.33056761 5.716463580000001 2.865716 -2.147443 3.333189
27740 -5.492825010000001 -8.44139709 7.469471340000001 3.600602 1.598731 3.329249
27760 -5.4744116400000005 -9.691750260000001 2.89003581 2.239219 1.473986 3.204531
27780 -0.0896634 -0.28470582000000005 -6.807541590000001 2.507981 0.941189 2.213645
27800 7.688008710000001 5.920933410000001 -7.2134990100000005 2.111535 1.732123 2.432052
27820 12.585974940000002 15.69860946 -8.86336443 1.086049 1.7872720000000002 2.050941
27840 -5.126990490000001 13.551769440000001 -8.08872759 0.441339 -0.5153449999999999 1.950044
27860 -5.757626340000001 24.24807351 -10.942848990000002 -0.346973 -2.415178 1.679916
27880 2.7387067500000004 14.09169222 17.75712024 -1.014245 -1.817757 0.710953
27900 -1.40019111 1.9745469900000003 7.24822641 -2.053144 -0.6077020000000001 -0.759181
27920 -1.7022606300000003 6.46340679 1.71977148 -3.4238230000000005 0.644904 -2.193232
27940 -0.14639463000000003 18.08060499 2.42406081 -2.621164 1.778009 -2.801169
27960 8.70080292 25.60155921 2.8187857800000007 -1.068876 -0.132947 -2.319996
27980 6.08829201 15.211513530000001 -0.64575306 -0.059857000000000014 -0.639786 -0.8573799999999999
28000 1.4425506900000002 16.64657919 1.53071316 -0.7059270000000001 5.16811 1.294882
28020 -1.3305793499999998 19.66715667 -4.792587210000001 -1.498155 0.930071 0.743576
28040 1.97768619 17.287397820000002 -6.25549365 -0.042835000000000005 -7.705132000000001 -1.028737
28060 5.69805021 14.89791726 -3.8411643600000005 2.103383 2.413601 -1.742421
28080 8.20698714 11.841572520000001 -4.4915575500000005 -0.189458 2.323784 0.325779
28100 7.12413972 2.72478636 -4.21448391 0.152194 3.262621 -1.64818
28120 9.19582533 -1.85015619 -4.8816522 -0.538308 -0.932483 -3.4326260000000004
28140 10.555304940000001 -1.25050032 -6.43242681 -2.432584 -3.902887 -2.487061
28160 8.37299196 -2.72358954 -2.8922823000000006 -1.367589 1.163373 -1.499077
28180 0.49023513 3.39538815 -3.6051063300000004 -2.889436 -0.8523139999999999 -1.997438
28200 -0.41613039 5.6000090700000005 -2.30909742 -2.775835 0.435261 -2.010045
28220 1.39031244 10.972485 -4.01195646 -1.80688 0.919936 -2.04449
28240 5.85671715 25.399483019999998 -0.6782437800000001 -1.280627 1.264133 -1.99639
28260 4.00956282 27.41174946 4.49978814 -0.900978 1.903297 -1.792663
28280 -6.86637216 16.66005813 0.22648347000000002 -0.785998 1.529534 -1.397207
28300 -3.8872615500000003 23.417156700000003 -4.98074301 -0.869334 0.390963 -0.8451280000000001
28320 5.44043961 17.29817901 -0.68392377 -0.276453 -0.8561190000000001 -0.11727
28340 6.8918193 13.665379049999999 -1.39495257 0.434179 -1.290965 0.384974
28360 5.90731713 12.693159000000001 -2.5924592700000004 1.522555 -1.279213 1.562264
28380 5.594162310000001 12.19678281 -1.4296799699999998 2.444676 -0.813267 1.7230009999999998
28400 2.4277984200000002 9.286538400000001 2.31882894 3.4912120000000004 -0.5518310000000001 1.770568
28420 -3.75688665 2.2499725500000007 1.2626254799999999 2.672346 -1.425225 2.446425
28440 -6.14038311 -2.99347245 3.7049427 2.985444 -1.341503 3.613935
28460 -4.913985960000001 -5.948185590000001 6.479279370000001 3.497256 1.584362 3.2826120000000003
28480 -3.91031505 -10.42551864 3.37548366 2.60966 1.378476 3.058758
28500 3.17250495 -1.4638089600000002 -4.4800308 2.168733 1.537392 2.329084
28520 11.189678400000002 5.711519340000001 -5.416640550000001 1.725858 1.930227 2.509221
28540 15.3773712 14.619352500000002 -1.7893832400000003 1.395234 1.098915 2.362699
28560 -3.28596741 9.936637290000002 -6.975341640000001 0.741251 -0.557661 1.882758
28580 -11.68245432 16.289720820000003 -17.80951545 0.000826 -1.970037 1.41472
28600 -4.65636555 20.480258520000003 14.22865944 -0.669694 -1.933481 0.847036
28620 -2.09728971 8.1471069 7.519011840000001 -1.7458509999999998 -1.44639 -0.414129
28640 -1.8835298100000002 5.053935419999999 2.3870869200000002 -3.412914 0.217932 -1.721523
28660 0.82777761 11.01080286 1.17475731 -3.094591 1.33237 -2.834883
28680 8.34514137 28.75400271 5.294339280000001 -1.266863 0.663463 -2.576637
28700 9.40284576 15.931969740000001 2.7961835400000004 0.060691 -1.124983 -1.103744
28720 3.1786362 15.04655838 -0.7111759500000001 0.020877 3.4499800000000005 1.423938
28740 0.32302368 17.81969823 -1.6627459500000001 -0.6625310000000001 3.738399 2.083228
28760 -1.6387899300000002 19.407289770000002 -6.51190743 0.900589 -4.709996 -0.942664
28780 2.8059150600000002 16.35079788 -4.784346810000001 0.5724130000000001 0.028003 -0.571809
28800 7.27981461 15.807127680000002 -4.08904344 -0.354524 3.30189 -0.907219
28820 7.873182270000001 8.66623248 -3.2340234600000004 -0.03606 2.46614 -2.103536
28840 7.919132310000001 -1.06787736 -4.37405337 -0.7885449999999999 -1.978177 -4.115628
28860 10.166858370000002 -1.1651729400000002 -5.51797785 -1.804446 -2.320081 -2.982493
28880 8.93446731 -2.43603882 -4.65382476 -1.7771560000000002 -0.650666 -1.441929
28900 3.22968744 -0.57794634 -2.91189249 -2.906953 -0.032932 -2.02852
28920 -2.47734873 4.67987031 -4.191734520000001 -2.767682 1.255781 -1.815554
28940 -2.40534333 7.38010224 -1.48086855 -1.799555 0.090296 -2.369183
28960 0.9954305100000002 13.86431604 -5.417082000000001 -1.514223 0.5056390000000001 -2.055802
28980 4.24980972 27.11745927 0.80847153 -1.007529 1.033142 -1.7442220000000002
29000 -0.70833105 23.933133270000003 3.7702086300000004 -0.929564 1.1815950000000002 -1.374263
29020 -3.8070353700000004 22.396279050000004 -3.56079456 -0.602212 0.207165 -0.401851
29040 0.29084688000000003 21.269119860000004 -1.84715433 0.075204 -0.947678 0.362799
29060 6.349051620000001 15.91834365 -0.30730806 0.78723 -1.736395 0.913576
29080 7.3603449 14.01056352 -2.00807757 1.936143 -1.08575 1.840507
29100 6.6184832700000005 12.871436130000001 -1.1493101700000001 2.8141990000000003 -1.075 1.854104
29120 3.72650508 11.5827651 0.41149026 3.712737 -0.7935770000000001 2.092892
29140 1.23119424 6.30323892 0.67884219 2.69521 -2.419353 3.015084
29160 -3.6630343800000005 -0.055083150000000004 1.3558793400000002 3.326697 -0.615301 3.663458
29180 -3.82365351 -4.34860623 3.87214434 3.173469 1.684539 3.020644
29200 -3.90103479 -6.28407999 3.64806432 2.395465 0.6687890000000001 2.765479
29220 -2.89543131 -6.73179858 1.63115775 2.369483 1.305661 2.2966
29240 3.64447386 0.7937957700000001 -5.75688078 1.979459 2.07442 2.726589
29260 11.3052402 10.631038140000003 -4.51671039 1.160691 0.6556489999999999 2.593433
29280 11.283383520000001 18.391356360000003 -8.395437240000001 0.281229 -1.467203 1.964032
29300 -9.668245500000001 18.24720822 -12.89389122 -0.45132 -2.147475 1.424607
29320 -4.940924219999999 13.122758520000001 10.430158770000002 -1.0667879999999998 -1.942057 0.406303
29340 -5.96554929 4.636461060000001 11.78409573 -2.460885 -0.627784 -0.977785
29360 -6.14786814 2.5950000600000007 5.06426535 -3.803534 1.310175 -2.265103
29380 -5.576955570000001 15.02335773 -0.70128747 -2.830379 2.219801 -2.811742
29400 4.3722581400000005 25.09052688 1.40347746 -1.062598 0.4268050000000001 -2.445652
29420 12.735665730000001 19.65652263 4.20431094 0.651742 -0.650868 -1.100223
29440 10.91140794 14.849269470000001 2.4138780300000002 0.35091999999999995 3.863584 0.80294
29460 2.40744267 16.841631420000002 -0.44652177000000004 -0.901774 2.11471 0.746224
29480 0.05089428 19.335588480000002 -6.54558516 -0.227528 -4.632289 -1.0158049999999998
29500 4.916222639999999 16.180005780000002 -5.744304360000001 1.736708 1.875042 -0.212462
29520 6.94450881 14.04199476 -4.451591610000001 -0.064972 0.866835 0.130895
29540 6.07481307 7.51752072 -3.93052365 -0.276535 2.4243740000000003 -1.574256
29560 5.30197146 0.83691072 -5.24509308 -1.580568 -0.781412 -3.544785
