time Ax Ay Az Gx Gy Gz
20 26.9108901 23.775663150000003 -3.3543725400000004 2.68539 -3.027061 1.020356
40 20.97049365 15.421977270000001 -8.490496140000001 2.386333 -4.3677220000000005 1.415227
60 9.878110829999999 19.397263950000003 -6.14636721 2.97612 -3.744177 1.6129639999999998
80 3.80897775 12.649896900000002 2.2191397200000003 3.473091 -1.330095 1.93915
100 -4.883143320000001 9.03356793 1.00994931 4.302274 -0.215252 1.346377
120 -6.28558092 -2.3543019000000003 -10.01537235 4.459559 -0.122571 0.145607
140 9.43577793 -2.08755819 -2.6087733 3.755274 -3.414934 0.920436
160 5.5919256299999995 -3.0120329700000004 -5.66811009 3.102855 -2.452951 2.007437
180 2.92296798 -2.4267487500000002 -4.05507141 1.741573 -2.860894 1.575435
200 2.89677528 -2.00208366 -3.4820595 0.616095 -3.3144160000000005 0.616369
220 3.00454794 -0.06900354 -1.9989444600000001 -0.246867 -2.748436 -0.046272
240 3.15648522 1.17475731 -1.40153508 -0.946818 -1.764125 -0.237225
260 5.1190542 5.85192987 0.28515708 -1.917522 0.6826369999999999 -0.682976
280 4.55727474 10.41638553 1.75105557 -2.815977 3.104478 -1.086529
300 6.02721495 22.88456199 -1.96510977 -2.830897 5.420687 -1.148353
320 7.24837356 44.17224237 -3.37309002 -1.133726 5.219673 -0.570083
340 5.53129983 33.96841011 -5.46393456 0.256632 1.976355 -0.28916
360 11.05466337 22.48235199 -1.38911562 2.1829 -0.663756 0.526708
380 16.98862446 18.32025348 -5.166809280000001 0.718291 4.687765 0.8364959999999999
400 14.09828454 12.71171952 -6.354888570000001 1.379732 2.152963 0.923413
420 7.803717659999999 9.174871170000001 -2.14069896 2.793536 -0.336521 1.013391
440 -2.1544722000000003 2.63617263 -0.10014048 -0.5893550000000001 1.297771 0.443942
460 -6.13663569 -4.929544620000001 2.26329453 -0.565178 2.829098 -1.038407
480 -6.51145617 -6.36281505 5.6357763300000006 -1.384951 3.807354 -3.071804
500 -5.94893115 -7.3428340500000004 11.43846 -0.640162 3.745223 -3.630543
520 -8.09307342 -3.2933052900000006 12.354557040000001 -1.6588759999999998 1.609002 -3.194814
540 -4.97026593 2.11494771 1.13179932 -2.793849 0.381212 -2.330568
560 7.616307420000001 10.28226321 -11.45747178 -4.123094 -1.714406 -1.124735
580 20.98905417 15.53499828 -16.921563300000003 -4.577971 -3.741342 0.262305
600 13.842312210000001 0.7220944800000001 -0.69036894 -3.89917 -1.356565 -0.497652
620 -1.2948120900000002 7.115006610000001 16.12207773 -2.050808 2.4095 -1.11234
640 -2.40175287 16.37894277 -2.2068576 -1.578824 2.558679 -1.531182
660 -10.30292307 -7.001985600000001 -10.102338000000001 -1.874884 0.531684 -1.064908
680 1.1231174700000002 9.92166723 14.981449410000002 -1.068753 0.950774 -0.541726
700 6.77865114 21.515056559999998 1.8944581500000002 0.029815 -0.586672 -0.099453
720 10.054445580000001 21.54080781 -0.7816706099999999 1.478795 -1.642484 0.007093
740 14.229709110000002 19.00462851 0.35850645000000003 2.143045 -1.23679 0.273996
760 19.311338160000002 21.560859450000002 -1.51021026 2.336921 -2.188904 0.577808
780 15.56343747 17.38499751 -6.70590018 2.1334880000000003 -3.99263 1.073286
800 12.885650820000002 16.78698972 -4.06344915 2.7371220000000003 -2.634204 1.29902
820 7.295383080000001 15.80353722 0.5936619599999999 2.976698 -1.059353 1.796466
840 -0.9090632700000001 8.08588269 0.54292464 3.726114 -2.067456 2.831691
860 -6.68764377 1.9464021 -8.59393278 3.235995 -1.222657 1.385085
880 4.78180602 -1.69687494 -8.375238450000001 3.640917 -2.363915 0.589278
900 6.343361820000001 -3.9610621800000003 -5.246888310000001 3.632671 -1.7998 2.04662
920 3.7097397900000004 -0.80651934 -2.65906917 2.258375 -3.444878 3.043257
940 2.4408261 -0.13696722 -3.42217926 1.116146 -3.841933 1.830833
960 2.22557508 -0.6286934700000001 -2.00178936 0.185663 -3.801298000000001 0.469776
980 3.3720403500000002 -0.92717253 -0.7764320700000001 -0.536507 -2.459404 0.119045
1000 3.3546766500000005 2.7186453000000004 -0.58617693 -1.6406349999999998 -0.377002 -0.202189
1020 4.7458818 7.000945740000001 1.45587267 -2.454606 1.693532 -1.003148
1040 6.24351564 9.93005478 2.82777174 -2.511073 2.880298 -1.498582
1060 7.2411926399999995 22.072647150000005 -1.90164888 -2.36659 4.68124 -0.981793
1080 8.69152266 42.698711700000004 -5.10438825 -1.226399 4.531752 -0.8176760000000001
1100 6.72401925 35.365305060000004 -5.785614270000001 0.428997 0.645165 -0.8054060000000001
1120 10.820547720000002 23.367606390000002 -0.5004081 2.607895 -0.019809 1.092873
1140 17.53289307 20.584891980000002 -6.402339540000001 0.176607 5.227402 0.355594
1160 16.20844497 12.679385760000002 -5.078489850000001 -0.684959 4.156353 -0.116933
1180 7.658971110000001 7.793240580000001 -3.56229549 2.325094 -0.593115 0.054389
1200 -2.5715051100000004 1.7078032800000003 -0.28051695 -0.5581729999999999 4.250078 -0.221921
1220 -6.57282753 -5.716463580000001 3.22968744 0.015617 0.994793 -1.300124
1240 -7.106619060000001 -4.4304903 5.03613027 -1.077473 3.583884 -2.865339
1260 -7.92047628 -5.181328080000001 10.190059020000001 -1.413123 2.931628 -4.094235
1280 -8.766216 -3.09526101 12.24483219 -1.133767 -0.389097 -2.142796
1300 -6.689586149999999 0.95097159 3.58190568 -3.593438 2.678067 -0.870291
1320 2.44845828 9.12053358 -8.406071279999999 -4.080204 -1.0576020000000002 -0.5121180000000001
1340 20.730393900000003 15.785427960000002 -26.20435428 -4.467251 -3.4589760000000003 -0.116502
1360 18.7552485 3.9603166200000004 -1.46739942 -3.344816 0.315581 -0.627313
1380 0.018109260000000002 -5.956416180000001 20.028645360000002 -1.253217 2.153817 -1.266675
1400 -6.0185331 5.239108980000001 6.629862870000001 -1.35562 1.309005 -1.165894
1420 0.35131572000000005 19.20057345 2.57299623 -1.01179 0.548938 -0.800391
1440 -5.96165472 11.1116889 -9.60747255 -0.525666 -0.108242 -0.180858
1460 -0.40445649000000006 8.69452452 8.612493299999999 0.462359 -1.770025 0.282167
1480 3.4498728900000004 16.56126162 5.866595820000001 1.431844 -1.65272 0.475728
1500 10.917549000000001 27.88910406 6.5132514 2.672636 -0.532692 0.8920879999999999
1520 25.514289450000003 25.22030337 -0.7403607000000001 3.0256380000000003 -2.18186 1.414755
1540 23.34366018 16.06743603 -9.76164651 2.196415 -4.430406 2.069869
1560 13.322146770000002 15.37632153 -10.02479976 2.327445 -3.6842 2.626372
1580 9.5239404 15.301932299999999 1.9842785100000002 3.780671 -2.7591810000000003 2.342644
1600 1.00171872 10.00819143 -0.92657412 4.3350040000000005 0.410509 0.142986
1620 -6.6960215100000005 3.77305353 -6.793022790000001 4.418085 -1.305842 0.11906
1640 2.4141821400000003 -2.30235795 -5.97632067 3.766275 -2.16174 1.867488
1660 7.93051191 -2.23590501 -3.92394114 2.7491950000000003 -2.571972 2.241196
1680 4.09533165 -1.5967344600000002 -6.897509100000001 1.164347 -3.3384970000000003 1.100929
1700 1.70809758 -1.0835929800000001 -1.31217579 0.159225 -3.151038 0.116245
1720 1.4862640500000002 -2.2945786200000002 0.39532338 -0.550515 -2.24113 -0.107796
1740 2.17048212 -2.3110398 -1.17296208 -1.318028 -0.238877 -0.391324
1760 4.5316804500000005 3.04032501 -0.54336609 -2.261301 2.109903 -0.866667
1780 5.961203460000001 9.905206050000002 -0.38395359 -3.0710610000000003 4.300483 -1.056728
1800 5.75088687 17.346973950000002 -1.9158635700000002 -2.421373 6.070468 -0.6955359999999999
1820 7.775582580000001 43.18864272000002 -3.0228141600000002 -1.019762 3.418175 -0.905605
1840 4.51520946 37.05948225 -3.7127318400000004 1.250593 -0.649037 -0.213691
1860 7.87452624 24.24223656 -1.22355225 1.920351 2.115701 0.715729
1880 14.455741320000001 20.782033740000003 -3.6289053900000003 0.189388 3.351295 0.383725
1900 15.386357160000003 14.766943950000002 -6.97339926 1.532855 1.187852 0.783646
1920 11.05810668 9.28294794 -4.36971735 3.0602970000000003 -0.181555 0.923188
1940 3.44329038 4.65726807 -2.5128216900000004 -1.221444 1.646149 0.184843
1960 -3.6961137 -1.0340524800000002 2.43723564 -0.779403 2.599909 -1.080202
1980 -5.735926620000001 -4.58481141 6.77206863 -0.464187 3.4853730000000005 -2.206109
2000 -7.2732222900000005 -7.037615520000001 10.893298680000001 -1.018126 4.149135 -3.878324
2020 -7.856112870000001 -4.45518207 11.09747421 -1.353928 1.23738 -3.764775
2040 -6.487657110000001 -0.12379239 2.10537315 -3.180312 0.266901 -1.914378
2060 1.77051861 7.00228971 -10.72519452 -4.235683 -0.768432 -0.763538
2080 17.32362615 14.0324202 -18.08075214 -4.840229 -3.223982 -0.217685
2100 17.78556924 7.43907996 -0.59306355 -3.862789 -1.061746 -0.463592
2120 2.82208194 -2.9936294100000005 12.99298203 -1.923726 2.1197310000000003 -0.952984
2140 -3.5124410700000004 9.829610190000002 6.55606224 -1.573966 1.911352 -1.359403
2160 1.6277144399999999 12.954958470000003 -1.0870362900000001 -1.213059 -0.266676 -0.988759
2180 -3.9877061400000002 1.3475016 6.745571820000001 -0.071349 0.58019 -0.640039
2200 0.26389881000000004 10.712176650000002 4.314928500000001 0.830681 -0.810361 0.000431
2220 5.088819780000001 20.661684660000002 -1.97694063 1.473574 -1.781247 0.080942
2240 6.7060571399999995 18.05126328 2.0368110600000007 2.342873 -1.7917759999999998 0.36156
2260 11.653416720000001 20.36395116 4.48482789 2.938088 -2.6293580000000003 0.978882
2280 25.67744937 24.33789387 -0.46343421000000007 2.319859 -4.420724 1.67334
2300 20.575013310000003 17.03861622 -7.21663821 2.455137 -3.789138 2.1189240000000003
2320 11.13519366 16.662903030000003 -5.36094918 3.280211 -1.980243 2.188599
2340 6.124363379999999 12.03512382 0.22438413000000001 4.016424 0.29285900000000004 1.600102
2360 -2.94422625 6.796466100000001 -0.4858893000000001 4.366674 0.476942 0.285195
2380 -7.514518860000001 2.4322914 -11.59264377 3.978081 -2.051956 1.137094
2400 5.26559598 -1.20439332 -6.2863264800000005 3.023151 -2.5624130000000003 2.543268
2420 6.70754826 -2.08112283 -2.00642949 1.577166 -3.145609 1.789364
2440 3.26425788 -1.34300862 -3.7106325 0.500603 -3.388415 0.8399840000000001
2460 1.5051188700000002 -2.3881365900000002 -3.5362499400000003 -0.377572 -3.079174 0.458507
2480 2.6018866800000002 -2.7146035800000003 0.02095416 -0.944404 -1.492376 -0.26533
2500 4.37031576 -0.32722236 -1.3973462100000003 -1.867241 0.75155 -0.644257
2520 6.01030251 5.791304070000001 -1.10963853 -2.708757 1.870226 -1.013696
2540 5.0708576700000005 8.577461790000001 1.08599643 -3.412469 4.215833 -0.904112
2560 6.20489367 18.53400357 0.9391505400000001 -2.355782 5.305196 -0.385381
2580 7.495958340000001 42.382260720000005 -4.1794622100000005 -0.6822 2.084572 -0.4304520000000001
2600 6.669083250000001 37.43265465 -6.054006060000001 1.914458 -2.253197 0.505506
2620 9.47095659 24.282506610000006 -2.17408239 2.061225 1.7971689999999998 0.863468
2640 16.092431910000002 19.18545624 -3.72694653 -0.040405 4.273519 0.924663
2660 13.927188330000002 14.834456370000002 -6.17975064 -0.666532 2.475947 0.5156
2680 7.82018865 10.35920304 -2.48842422 3.863663 -6.6399490000000005 0.400828
2700 -0.12185001000000001 3.70928853 -0.36508896 -2.4517740000000003 5.177064 -0.7597649999999999
2720 -4.622982120000001 -1.1439244800000001 1.20993597 -0.130205 1.067862 -1.065159
2740 -6.25145193 -5.862554100000001 3.2102244000000004 -0.916454 4.383031 -2.520203
2760 -5.34852972 -8.84496087 7.353605430000001 0.137246 5.653373 -3.299614
2780 -7.52575131 -6.25998663 13.137434279999999 -1.49369 3.1144540000000003 -2.59418
2800 -7.065005040000001 -2.49681177 5.45211351 -2.835689 2.023694 -0.388801
2820 0.8464852800000001 6.1849891800000005 -5.819743260000001 -3.283653 0.367343 -1.369367
2840 13.759535430000001 14.450051520000002 -21.648286170000002 -4.564301 -2.393061 -0.724228
2860 18.46724652 12.621300750000001 -4.81967262 -3.79749 -3.398187 -0.7133109999999999
2880 8.6620338 -3.6268060500000003 3.60150606 -1.642866 3.80512 -1.226647
2900 -5.478904620000001 -1.63519947 16.188236370000002 -0.6406350000000001 2.129249 -2.046439
2920 -2.32421463 21.43123011 -22.387145940000003 -1.196314 0.049889 -1.313787
2940 -1.07132067 17.38769526 2.82163068 -0.6184470000000001 -0.349904 -0.67151
2960 -5.6197664099999995 5.82528591 -3.26889801 0.208622 -0.885601 0.174576
2980 -0.5773479300000001 12.668006160000001 7.015464540000001 1.5865790000000002 -1.265225 0.141958
3000 4.25475396 19.84438413 3.4905942000000003 2.712022 -2.018829 0.611189
3020 11.685299220000001 26.41003074 3.12415146 2.681591 -3.227051 0.953288
3040 24.91223994 23.683154849999998 1.0985630400000002 2.826685 -3.799002 1.334253
3060 28.045083060000003 17.49845997 -6.46445646 3.4453970000000003 -2.435089 1.772661
3080 13.75819146 14.5909035 -9.999352620000002 3.213226 -1.145967 2.737197
3100 9.09987372 13.53005991 -4.60592253 3.918333 1.9605 1.830153
3120 3.15019701 6.96516867 7.9911278999999995 4.078131 -1.334434 1.434908
3140 -8.36864613 2.10731553 -10.768760730000002 3.060054 -2.865536 1.859184
3160 1.29675447 -0.71087184 -7.94682594 2.299784 -2.881399 2.22243
3180 7.842486780000001 -2.8885446900000002 -2.9304530100000004 1.102235 -3.638535 1.328411
3200 5.648656860000001 -2.04070563 -2.18470662 0.120466 -3.625158 0.433844
3220 2.7205876800000004 -2.93764374 -4.85066241 -0.617949 -3.366272 0.0032020000000000004
3240 1.5618501 -0.19908414 -2.49516369 -0.965962 -2.003901 -0.7305699999999999
3260 1.47009717 1.7063023499999999 -3.85822395 -1.564439 0.73207 -1.096111
3280 3.91391532 3.496284 -0.97342668 -2.473459 2.5209490000000003 -1.4433790000000002
3300 6.39065583 8.115822810000001 2.29233213 -2.808123 4.8132 -1.364265
3320 7.535924280000001 17.27347743 1.4684490900000002 -1.22111 4.163634 -0.938945
3340 9.939178080000001 34.582290480000005 -1.01009646 0.555697 0.91728 -0.234439
3360 8.603811450000002 37.876782780000006 -8.928336060000001 2.536534 0.810876 0.946032
3380 10.249183890000001 25.27868268 -3.2120196300000003 0.395657 4.726477 0.49343
3400 15.63932763 18.09976392 -4.07347497 0.124154 2.6419 0.420498
3420 15.215859360000001 14.468160780000002 -6.116427090000001 2.848872 -3.034944 0.719201
3440 10.639278540000001 10.710675720000001 -2.76130899 -1.87284 2.558848 0.2774
3460 2.06405343 4.24726893 -0.9294190200000001 -1.133048 2.463818 -1.105999
3480 -3.30677442 -0.22737618 1.8724543200000003 -1.633979 2.6583490000000003 -2.697125
3500 -6.25923126 -3.18267792 5.36230296 -0.792953 3.660672 -3.665685
3520 -6.10654842 -6.91007571 8.403824790000002 -1.468281 0.556766 -3.689926
3540 -7.788600450000001 -5.473518929999999 14.821124580000001 -3.284619 0.16054100000000002 -1.599844
3560 -9.186996330000001 -0.67315239 5.8643591399999995 -4.183863 -1.308526 -0.010456
3580 -1.30109049 6.85035243 -7.46706789 -4.875045 -2.344049 0.340693
3600 13.37498343 11.439509670000001 -21.30714342 -3.483682 -0.4858810000000001 -0.679599
3620 18.66483954 8.089031700000001 -6.699317669999999 -1.085121 3.19205 -1.30956
3640 5.035227750000001 -0.55608966 20.268450810000004 -1.15238 1.834813 -1.2324469999999998
3660 0.04041720000000001 16.92515376 -2.6473952700000005 -1.876111 0.045933 -0.801511
3680 0.8918467200000001 11.04103728 2.52974394 -1.149729 -0.608604 0.014113
3700 -3.6624359699999998 0.01406754 4.6428964200000005 -0.033226 -1.964861 0.683811
3720 0.63467757 11.7620919 6.56265456 1.62073 -2.5209080000000004 0.30938000000000004
3740 5.43489696 19.09893204 -0.7726944600000001 2.658235 -1.603451 0.411592
3760 7.6435596000000015 20.54762379 2.5770379500000002 2.697411 -2.652423 1.094735
3780 16.71394446 26.269924320000005 0.84633813 2.742641 -4.2628879999999985 1.529745
3800 25.667129250000002 22.25736945 -5.234910300000001 2.951203 -2.313571 2.181387
3820 14.93938413 13.02486453 -7.76480139 3.402158 -1.03206 2.593092
3840 9.477686250000001 15.464189700000002 -2.07468747 4.295498 -0.002519 1.166596
3860 2.0202027300000003 10.065364109999999 3.4581132900000005 4.517079 0.269936 1.038539
3880 -6.393951990000001 3.3118658100000005 -5.275180350000001 3.420309 -2.774577 2.508926
3900 -0.46897686000000005 -3.03553773 -7.1579646000000015 2.382839 -2.7331830000000004 2.646904
3920 8.88447555 -1.4742860400000002 -4.864288500000001 0.972162 -3.776888 1.4077959999999998
3940 5.0587325100000005 -0.5545985400000001 -6.388860600000001 -0.017362 -4.043845 0.295617
3960 2.3733136800000008 -1.48057425 -3.9814179300000005 -0.7399100000000001 -3.036285 0.170706
3980 0.91834353 -0.49292307 -3.4777136700000004 -1.254934 -1.072477 -0.307562
4000 1.9390642200000001 0.39472497000000006 -0.45879408 -2.212627 1.522857 -0.889076
4020 4.430637450000001 2.30445729 -1.8994023900000003 -3.174756 4.077739 -1.473774
4040 7.42965255 8.13124413 2.20192317 -2.601816 5.666728 -1.071225
4060 4.937628060000001 11.59938324 1.5563172600000001 -0.931424 3.384787 -0.891058
4080 6.746621490000001 30.612840750000004 -4.77537066 0.917408 0.197131 -0.009868
4100 7.7278275 43.35508899 -2.10671712 2.860237 -0.01181 0.738907
4120 9.4396725 31.285090620000002 -3.81961179 0.571277 4.322314 0.181118
4140 17.56342179 19.7614602 -3.01368105 1.405164 1.51824 0.324063
4160 18.04856553 15.73049196 -5.926476060000001 1.479368 -0.333867 0.956138
4180 13.37244264 10.456802730000001 -4.2227145 -1.449369 2.366648 0.821125
4200 5.98710186 6.1390293300000005 -0.30221667 -0.8860399999999999 3.096767 -0.83162
4220 -3.8859175800000005 -0.23860863000000002 1.5482338199999999 -2.062094 3.447246 -3.272625
4240 -7.588172340000001 -5.642064540000001 4.9311926999999995 -0.715447 3.3670120000000003 -4.353771
4260 -7.3468757700000005 -8.271644850000001 9.099275310000001 -0.95664 0.794251 -3.583039
4280 -8.37583686 -7.36244424 15.207177510000001 -3.316803 0.818099 -1.376585
4300 -9.71359713 -2.62823634 7.38639045 -3.916089 -0.685926 -0.095909
4320 -4.384677600000001 4.72687002 -4.127969520000001 -4.6223589999999986 -2.097971 0.388076
4340 9.93693159 11.526485130000001 -14.927710229999999 -2.9333 0.407032 -0.942886
4360 21.79932093 17.55609372 -13.15719162 -1.14913 2.398973 -1.392312
4380 12.76425207 0.03547296 2.9675740500000005 -1.270713 1.469369 -1.382356
4400 0.77613777 10.6141257 7.2073579500000005 -1.7473189999999998 0.8246190000000001 -0.905227
4420 -1.1523022199999997 12.34257903 5.3450864099999995 -1.2339 0.213522 -0.378497
4440 -6.06254076 -6.57208197 -3.9270803400000003 0.125069 -1.038286 0.334421
4460 -0.59635971 10.20278259 8.39379897 1.584694 -2.348797 0.190336
4480 2.94348069 20.085229440000006 4.106407140000001 2.438576 -1.6832169999999995 0.303338
4500 7.697593080000001 23.98716675 1.0942270200000002 2.350834 -2.353152 0.880423
4520 12.555593370000002 26.89487037 2.32586271 2.219835 -4.143328 1.6541259999999998
4540 26.692490069999998 22.223838869999998 -1.54747845 2.315591 -2.863593 2.2844740000000003
4560 19.8630918 15.23891286 -10.17613863 3.037373 -2.4134990000000003 2.852961
4580 12.067006319999999 16.817675400000002 -4.35114702 4.145359 -0.39409 1.184208
4600 5.38445394 12.544959330000001 2.11704705 4.8473180000000005 0.8723559999999999 0.08615199999999999
4620 -4.3623794700000005 5.575601790000001 -4.8213207 3.654768 -3.422207 0.961404
4640 -4.69244673 -1.69776765 -4.3004097 3.238053 -2.118082 3.1274490000000004
4660 6.349345919999999 -3.4269763500000003 -5.19524847 1.69284 -3.203855 1.869295
4680 6.24516372 -1.1322407700000001 -6.480319230000001 0.481474 -3.678888 0.76972
4700 3.46723659 -0.5634275400000002 -4.633763310000001 -0.266829 -3.5455300000000003 0.037931
4720 0.7810722000000001 -0.7478457300000001 -3.45646521 -0.767154 -2.011582 -0.580689
4740 0.3412899 -0.063765 -1.21322232 -1.800161 0.521912 -1.083601
4760 3.46634388 -0.46867275 -0.8089129800000001 -2.865144 3.120266 -1.528068
4780 8.150255910000002 3.66617358 -0.19114785 -2.86437 5.50734 -1.210655
4800 6.00760476 8.060141250000001 1.1193700500000001 -1.167534 3.987637 -0.928731
4820 5.723644500000001 16.18299783 -0.9310671 0.346537 0.986818 -0.393018
4840 9.59579865 41.808660210000006 -2.5152153299999997 2.61921 -0.375768 0.590276
4860 7.72992684 40.35008979 -3.83726979 1.1571129999999998 3.0678810000000003 0.090677
4880 8.8293924 27.968437530000003 -1.99519704 0.077817 4.020301 0.47716
4900 17.78571639 19.712959559999998 -0.61192818 2.558571 -2.111503 0.476708
4920 17.77313997 14.633115929999999 -7.55658414 -0.8504229999999999 3.976689 0.200472
4940 11.22710355 8.85888126 -3.8847207600000004 -0.453056 1.812275 0.066084
4960 2.68317234 4.56116931 -0.54037404 -1.112536 2.563369 -1.775759
4980 -4.05806346 -3.0695195699999998 2.8436345100000002 -1.608993 2.758287 -2.935292
5000 -7.70807016 -7.726336379999999 6.936572520000001 -0.7188260000000001 2.836907 -3.65343
5020 -8.07795621 -9.98483382 11.358979380000001 -2.2235720000000003 2.161126 -3.049915
5040 -10.10069973 -6.869511360000001 13.820906790000002 -3.5954300000000003 -0.205578 -1.414608
5060 -9.45209196 0.03173535 2.7099634500000005 -4.8640690000000015 -2.962161 0.127917
5080 2.7101106 6.51250584 -7.268435010000001 -4.426671 -2.154593 -0.006795000000000001
5100 17.85471993 15.258670200000001 -23.837780070000004 -2.60696 2.693388 -0.761939
5120 19.96623414 11.44086345 -4.881799350000001 -1.248688 1.973773 -1.26748
5140 6.42224403 -5.30197146 9.24986862 -1.6769900000000002 0.7403689999999999 -1.209071
5160 -3.66108219 8.088433290000001 11.52977148 -1.3048 -0.04778 -0.771763
5180 3.0849310800000005 26.77871016 -5.292396899999999 -0.047283 -1.548441 0.189661
5200 -5.81435757 1.92829284 1.53341091 1.607273 -2.0952490000000004 0.167736
5220 -1.25394363 9.0377568 7.4004579900000005 2.792964 -1.385193 0.325727
5240 2.88929025 16.74912312 3.20723235 2.760596 -1.261156 0.7697229999999999
5260 6.92594829 20.841609870000003 2.23514964 2.448186 -3.4813980000000004 1.357907
5280 13.01393619 25.905728070000002 2.1891996000000002 2.059476 -4.751642 2.069324
5300 27.178379370000002 24.416324820000003 -3.99803607 2.251009 -3.100261 2.650727
5320 19.913986080000004 15.366599820000001 -10.06626663 3.721593 -1.236603 2.052929
5340 13.851592470000002 14.497649640000002 -3.49807923 4.673047 0.24071 0.487395
5360 8.10878904 10.587187440000001 3.43790469 3.961206 -2.242814 0.662931
5380 -6.673870530000001 8.064634230000001 -6.30967428 2.909892 -1.712633 2.718712
5400 -7.810162830000001 -0.06691401 -7.466469480000001 1.391573 -2.585666 2.579971
5420 7.50913317 -3.00320397 -5.5904247 0.181307 -3.48083 1.050448
5440 6.3298828799999995 -2.1254346 -5.8803690600000005 -0.483858 -3.1814720000000003 0.026334
5460 3.10379571 -1.7735106600000001 -3.0943683000000006 -0.947051 -1.844016 -0.5041800000000001
5480 2.4035481 0.07708698000000001 -3.9610621800000003 -1.7299830000000005 0.592545 -0.959288
5500 2.5872207300000003 -0.23081949000000002 -0.21749751 -3.042233 2.623501 -1.554306
5520 3.59956368 -0.29668383 -1.5911918100000002 -3.039627 4.618789 -1.563254
5540 6.6942262800000005 4.03321473 0.9711801900000001 -1.397044 3.870548 -1.0188469999999998
5560 6.58690488 8.917103610000002 1.17970155 0.734943 0.102141 -0.338965
5580 7.24463595 21.28543389 -0.29129814000000004 3.181809 -2.034888 0.7565649999999999
5600 10.98310923 48.192733530000005 0.53408583 1.186623 3.653019 0.521695
5620 4.80844998 33.644935170000004 -6.781947300000001 -0.058087 4.279074 0.350897
5640 8.87130072 21.10626405 -1.1964668400000003 2.531226 -0.998064 1.508061
5660 17.71506477 16.782496740000003 -5.07370257 -0.860383 -0.638686 0.8910469999999999
5680 16.787440980000003 12.177623879999999 -6.4991838600000005 -1.036491 3.030646 -0.417048
5700 8.56803438 7.413485670000001 -1.6233784199999999 -1.590901 2.990871 -1.975132
5720 -0.86384898 2.23110792 0.7908037200000001 -1.62348 3.425674 -3.3197400000000004
5740 -7.039263600000001 -3.92499081 3.2376139200000003 -0.198976 1.365777 -3.0433
5760 -8.53345413 -8.30129067 5.38070652 -2.702271 1.979127 -1.877981
5780 -7.45809174 -7.9273629 10.734631740000001 -3.140552 1.527598 -0.471479
5800 -8.259225390000001 -2.37765951 10.49692563 -4.623818 -1.28401 0.100739
5820 -6.00372 4.07138544 -1.94445972 -3.844293 -2.779335 -0.122636
5840 7.778123370000001 12.6530361 -14.45723244 -2.273549 4.177464 -0.821332
5860 22.247637930000003 16.93832859 -16.61440239 -1.044433 1.184323 -1.690194
5880 16.09991694 -0.74904255 1.6328058300000001 -2.354675 0.372354 -1.296655
5900 0.6134291099999999 4.76788563 14.892825870000001 -1.438031 0.464936 -1.00195
5920 -2.96278677 16.85823975 0.13636880999999998 -0.386762 -0.698239 -0.34257
5940 -12.408149069999999 -3.36769452 -21.30564249 1.259945 -1.45405 0.226445
5960 -1.96017534 8.2279413 11.71059921 2.726885 -0.852497 0.36838
5980 2.2855926600000007 19.20791133 4.62986874 2.691003 -0.942941 0.905561
6000 6.67312497 22.160064060000003 2.4695694 1.536401 -4.196685 1.7370150000000002
6020 11.926301490000002 24.391623240000005 0.9952833600000001 1.868685 -4.910186 1.390942
6040 27.08123094 24.14523528 -2.7493309800000003 3.42859 -2.471305 0.722528
6060 23.57582364 16.932638790000002 -8.2481499 4.058567 -0.386368 1.991168
6080 13.37932926 13.9108743 -10.398727530000002 2.55778 -0.938736 1.83291
6100 10.651698000000001 13.39848819 0.6054928200000002 4.240381 -3.313477 -0.09539
6120 2.01286485 6.37180101 7.23925026 4.241038 -1.927005 1.629085
6140 -12.035418120000001 3.80359206 -10.04545962 2.438393 -0.916572 2.7859700000000003
6160 0.29084688000000003 -2.6448544800000002 -6.187686930000001 1.266563 -2.637604 2.090987
6180 9.08819982 -2.00373174 -4.40908488 0.305213 -2.793083 0.516321
6200 4.915025820000001 -1.9902626100000003 -6.443953560000001 -0.626871 -2.534244 -0.267119
6220 2.8943816400000006 -1.6889386500000003 -2.23964262 -1.404249 -1.218224 -0.227233
6240 2.7241879500000006 -1.5175481400000002 -3.4021276200000004 -2.243621 1.317191 -0.845232
6260 2.5453026000000003 -0.32018859000000005 -2.83241187 -2.84315 2.772984 -1.546697
6280 4.567300560000001 2.89648098 -6.370898490000001 -2.55916 4.390611 -1.395099
6300 3.3979387500000002 3.2090275800000003 2.83540392 -0.961551 4.4091580000000015 -0.759054
6320 8.243509770000001 8.21072475 4.732854120000002 1.616012 0.997154 -0.348912
6340 10.35157086 22.80103965 2.9958660900000003 3.423685 -0.147118 1.053869
6360 13.71538062 60.55537401 -10.446776910000002 0.371382 5.595322 0.35327800000000004
6380 2.82507399 34.536477780000006 -5.0210130600000005 0.8362850000000001 0.984315 0.074015
6400 5.777687790000001 17.458199730000004 0.39068325000000004 1.926485 0.594835 1.155692
6420 12.12179517 16.478337690000004 -4.072876560000001 -1.283559 1.577299 0.406688
6440 14.966175240000002 10.806627330000001 -4.201466040000001 -0.44857 2.121614 -1.103984
6460 10.01926692 6.98791806 -2.26628658 -1.001802 3.640002 -2.31368
6480 0.98270694 0.22063671 -0.48050360999999997 -1.122389 4.586782 -3.74288
6500 -6.20505063 -4.3553457 2.37690414 -1.493761 0.77235 -3.5013050000000003
6520 -6.467899770000001 -6.831791910000001 4.0080618900000005 -2.674057 1.454692 -1.556646
6540 -6.161337270000001 -6.51594915 7.59520611 -4.0003470000000005 0.582588 -0.4976390000000001
6560 -6.04024263 -1.5877485 12.16819647 -4.967233 -2.880877 0.136706
6580 -5.37232878 2.4180669 4.9552958700000005 -3.5941080000000003 -0.651384 -0.487879
6600 1.4582663100000002 11.22620103 -8.29036233 -1.101588 3.684734 -1.426742
6620 18.83713257 14.77996182 -21.686604030000005 -2.039474 0.951719 -1.533409
6640 18.71812746 1.14407163 -3.6763563599999998 -1.572989 0.761795 -1.063094
6660 -0.27437589 3.7799401500000003 19.833161490000002 -0.483999 0.131125 -0.6690510000000001
6680 -0.8849601 20.722908869999998 -6.02796051 0.765057 -1.542274 0.340606
6700 -7.02099738 0.5288472900000001 -7.315885980000001 2.3018240000000003 -1.386783 0.8820469999999999
6720 -1.16368182 6.40203543 7.87946067 2.9169 -0.8548540000000001 1.058714
6740 3.10753332 15.14939661 2.9746176300000005 2.462705 -3.835977 1.572108
6760 7.819737389999999 20.69910981 -0.22423698 1.579267 -6.859101 2.836722
6780 12.67130232 23.413114980000003 0.9033734700000001 1.28373 -3.209865 2.926121
6800 24.99711606 24.86928195 1.1076961500000004 3.419925 -3.58022 1.784633
6820 24.361987230000004 16.471892519999997 -6.019877070000001 4.610917 -0.581684 -0.522523
6840 13.2226047 11.82001995 -10.77953211 4.7332730000000005 -1.063996 -0.693034
6860 9.274413240000001 14.52549042 2.6081748900000004 4.15444 -3.269333 1.990191
6880 -1.28044044 9.52694226 4.589451540000001 2.783621 -3.115586 2.824314
6900 -10.493629470000002 3.1963040100000004 -8.670117240000002 1.129328 -3.611728 1.261268
6920 5.389388370000001 -2.28619107 -6.739430760000001 -0.219685 -3.979028 0.512038
6940 8.34604389 -2.28515121 -4.3525008000000005 -1.015688 -3.24587 0.075045
6960 4.273167330000001 -2.01645531 -3.9252851100000004 -1.6780130000000002 -0.986764 -0.329855
6980 3.7026962100000005 -1.7962600499999999 -3.81825801 -2.371882 1.478809 -0.39234
7000 2.81849148 -1.8083852100000002 -2.56102803 -3.405752 4.5638830000000015 -1.102132
7020 3.1654711800000004 -1.01623752 -0.9157929300000001 -2.981357 6.923019999999998 -0.825522
7040 8.3349684 4.382588070000001 -0.06196977000000001 -0.8753780000000001 3.466904 -0.6963560000000001
7060 7.788159000000001 10.07509563 0.5978606400000002 1.888208 -1.440763 -0.443232
7080 7.87737114 20.502262350000002 -3.1591829700000003 2.84655 1.779237 -0.126607
7100 9.973012770000002 43.49265462 0.56792052 0.336971 4.9945629999999985 -0.429199
7120 4.01360454 38.670431400000005 -4.36432185 0.185782 2.692172 0.050191
7140 6.86802024 25.00789725 -0.65473902 2.338703 -1.885152 0.007001
7160 18.37937835 18.03180024 -2.53782738 -0.824609 4.7462019999999985 -0.981787
7180 17.46777429 11.188628730000001 -6.37613703 -0.29618 1.412614 -0.8221370000000001
7200 9.350156250000001 7.80791634 -4.014497250000001 -0.762383 2.583455 -2.040394
7220 0.7906565700000001 0.9744763500000001 -0.5252568299999999 -1.542875 3.150276 -3.250458
7240 -5.29404498 -4.969520370000001 2.09624004 -1.327076 1.5573549999999998 -2.2897830000000003
7260 -8.17106292 -6.62387877 4.99840101 -2.453589 3.238712 -0.870525
7280 -6.4039876200000005 -9.003176550000001 11.747268990000002 -3.702258 3.190912 -0.355757
7300 -7.62065325 -4.28633235 15.02680104 -4.617597 -0.748495 0.440859
7320 -7.2561627 1.77905331 1.3088796300000003 -3.092946 -2.684211 -0.319403
7340 2.10911076 10.272237389999999 -11.556719550000002 -1.855203 4.624601 -1.113812
7360 16.987721940000004 18.20813499 -24.823027800000002 -0.5677439999999999 0.573573 -2.016163
7380 14.247524069999999 4.78554363 -0.65653425 -1.174748 0.8432129999999999 -1.521888
7400 1.49284656 -5.948784000000001 14.315634900000001 -0.219562 0.536 -1.181538
7420 -3.54029166 7.95295719 9.325454670000001 0.54599 -0.63851 -0.104327
7440 3.8802277800000002 28.045524510000003 -3.16292058 1.430108 -1.014914 0.550742
7460 -4.944514679999999 7.59685419 -10.2958893 2.357434 -0.782304 0.983142
7480 -1.90823139 5.1641115300000004 8.94615102 2.268478 -3.4557290000000003 1.488011
7500 3.2844664800000003 15.852489120000001 6.503676840000001 1.377798 -7.050289 2.6048240000000003
7520 10.25412813 22.89458781 5.77678527 1.343415 -3.711654 3.151508
7540 19.27780758 23.632407720000003 4.15266129 2.914677 -1.341055 2.499284
7560 29.35081368 20.20887468 -2.28515121 5.112329 -0.185137 0.83925
7580 16.54344666 13.45043214 -10.603648620000001 4.098714 -0.813819 0.695175
7600 10.4749218 15.995734740000001 -13.0318983 3.179815 -3.025378 2.832307
7620 8.636292359999999 12.042756 3.07041228 2.051517 -3.34315 3.356807
7640 -7.98873426 9.18819315 -6.159394890000001 0.461018 -3.954407 1.488843
7660 -5.895044820000001 2.70142875 -7.34702292 -0.541796 -4.112577 0.356135
7680 10.887010470000002 -1.89371259 -3.9380086800000003 -1.097307 -3.179439 -0.216167
7700 8.470434690000001 -2.86953291 -4.313878830000001 -1.570569 -1.018294 -0.52989
7720 4.71189996 -3.42098244 -2.8530717300000004 -2.759539 1.522993 -0.981559
7740 3.2346218700000002 -3.6504579600000002 -2.94482466 -3.783141000000001 4.6130879999999985 -1.358
7760 2.6023379399999995 -3.66796881 -2.6707430700000003 -2.5777810000000003 4.834805 -0.8403229999999999
7780 5.758077600000001 -0.59740938 -0.48843009000000004 -0.484926 1.326459 -0.691954
7800 9.00078291 7.92496926 -0.9503731800000002 2.638867 -0.732039 -0.107748
7820 7.856260020000001 12.075236910000001 1.6769606400000001 1.852615 2.203098 -0.034748
7840 10.53134892 26.683356960000005 -2.57074974 -0.294883 3.794005 -0.150063
7860 10.90078371 46.816498440000004 1.3332771 0.704593 1.426687 0.38338
7880 7.26693408 34.88615523000001 -6.195770370000001 1.373503 -0.596001 0.268867
7900 15.1023969 19.33813908 -1.8299475900000002 -2.257434 3.812115 0.218628
7920 19.13037309 12.30590925 -6.754852080000001 -1.155235 3.695369 -1.109869
7940 14.02478802 8.024962590000001 -3.4112607300000004 -0.745468 3.62557 -2.389852
7960 4.8295611 5.104829700000001 -0.23620518 -0.7243930000000001 3.165521 -3.5096800000000004
7980 -3.1750457400000003 -0.84379734 2.9222224200000007 -1.523837 -1.096344 -3.425413
8000 -9.17516547 -5.785614270000001 4.64124834 -3.732468 1.7266400000000002 -1.514181
8020 -9.915231870000001 -9.40659318 10.786271580000001 -3.790876 0.350258 0.14398699999999998
8040 -10.638680130000001 -6.91875756 14.68087101 -4.04402 -1.69694 0.29759800000000003
8060 -8.79450804 1.4147099099999998 1.87484796 -2.040821 1.738847 -0.440568
8080 2.2559566500000003 6.5946842100000005 -10.58583366 -1.476442 3.068523 -1.248041
8100 17.14265127 15.81521112 -22.45959279 -2.187295 0.343969 -1.535799
8120 17.98345656 11.136537630000001 0.4801995 -1.662938 0.356618 -1.158275
8140 5.188361850000001 -4.13230554 12.32446977 0.276015 -0.122407 -0.52989
8160 -1.6739685900000003 8.81711028 10.00130481 2.093931 -1.155173 -0.113148
8180 1.0398894300000001 20.53639134 3.9092751900000002 2.494863 -1.217971 0.590486
8200 -3.75090255 1.9290384000000003 2.8717794000000003 1.4631610000000002 -2.220645 1.01399
8220 -1.53610866 8.55636048 5.827228290000001 1.712404 -5.243993 1.885933
8240 2.93001156 19.697989500000002 0.769104 2.039512 -5.952653 2.463829
8260 6.85694475 21.04428447 2.5182171899999997 2.111528 -2.760223 2.451696
8280 12.490180290000001 23.260579290000003 4.33468584 2.995702 -0.132389 2.534621
8300 29.26729134 24.187751820000003 -2.05357635 5.498961 0.6772239999999999 0.8985299999999999
8320 20.34105462 14.617106009999999 -8.70440319 3.974434 -2.456802 0.352445
8340 13.30927605 13.30313499 -8.13303936 3.145917 -2.095932 2.996454
8360 10.11850488 8.052656220000001 3.9041838 2.081249 -2.738824 3.518611
8380 -4.05611127 4.82162481 -6.23139048 0.427225 -3.751436 1.376184
8400 -3.4208352900000003 -0.15313410000000002 -6.86697057 -0.529542 -4.315653 0.51351
8420 8.429870339999999 -0.5043026700000002 -5.630390640000001 -1.289025 -3.029947 -0.138649
8440 4.42704699 -1.6363962900000002 -7.28250255 -1.999925 0.497023 -0.8136359999999999
8460 3.4623021600000006 1.1782006200000001 0.08906499000000001 -2.756222 3.56655 -1.339872
8480 3.0063529800000004 -1.54104309 -3.6235197 -2.744699 5.3097379999999985 -1.448848
8500 2.0977409700000003 -2.91997593 -2.8298612700000003 -1.45879 3.95353 -1.204187
8520 4.311181080000001 -1.51125993 -2.29891464 -0.124306 1.196509 -1.539573
8540 6.7380867900000005 4.03755075 1.97020116 2.51665 -0.796864 -0.04122
8560 7.093601189999999 8.79106473 2.6503873200000005 1.957412 3.128145 0.841809
8580 11.725265160000001 25.524766530000004 1.7351927999999999 -0.218447 5.519951 -5.400000000000001e-05
8600 13.04791803 48.3241581 -4.1715259200000006 3.153309 -0.449813 1.326901
8620 5.39627499 36.86144778 -6.79481802 0.430424 0.09708 1.188608
8640 9.935891730000002 22.205121390000002 0.45370269 -1.849227 1.325272 -0.278466
8660 21.40563582 14.14318491 -4.95843507 -0.880985 5.534955 -2.375085
8680 19.700834399999998 10.74764961 -6.019435620000001 -1.4817790000000002 3.536413 -3.1639999999999997
8700 7.592508360000001 5.288502330000001 -2.6168567400000002 -0.552662 1.874412 -3.127607
8720 -2.8370520000000004 -2.35909899 1.5356574000000003 -0.971064 -1.858129 -2.545702
8740 -9.56795787 -7.0105203000000005 5.30916219 -3.267092 2.803819 -1.431126
8760 -10.96335189 -7.4342926799999995 8.29514961 -3.987229 0.651054 0.217006
8780 -12.163105080000001 -5.344635149999999 14.66080956 -4.146031 -1.637864 0.264763
8800 -11.15944398 1.69252911 7.0421085 -1.647816 2.248064 -0.252604
8820 -3.51693405 6.305338260000001 -3.36724326 -1.202396 2.311164 -1.498325
8840 9.916428690000002 10.945684080000001 -15.570765540000002 -1.54439 0.713548 -1.5424639999999998
8860 25.68523851 16.31846412 -11.2070421 -1.510264 0.5555439999999999 -1.220488
8880 17.078287860000003 -2.37211686 1.4277277800000001 -0.288097 -0.021531 -0.492299
8900 2.30266206 5.622611310000001 15.769104120000002 1.551473 -1.2522799999999998 0.132083
8920 -0.32662395 21.39126417 5.4527119200000005 2.520717 -0.770314 0.50784
8940 -15.418985220000001 -4.322707830000001 -29.650793670000002 1.7869400000000002 -1.373899 1.036531
8960 -2.28934008 4.5144639 16.335680670000002 1.45165 -4.543538 1.96974
8980 1.1214693900000001 17.61806349 3.9808195200000003 1.67887 -5.934456 2.487992
9000 3.68922708 23.827450140000003 2.93300361 2.604643 -3.07368 2.091278
9020 9.17711766 23.56579782 2.49904845 2.2686 0.220509 2.293013
9040 22.203924570000005 23.419099080000002 -0.7996327200000001 4.864709 0.407782 1.695611
9060 25.76711277 20.58444072 -4.33782504 4.619078 -2.15856 0.6011880000000001
9080 16.76663397 13.05270531 -10.858120020000001 3.675664 -1.400838 2.138276
9100 13.023069300000001 11.51376156 1.7556957000000002 2.346136 -1.8170580000000005 2.947781
9120 2.1314187 7.115006610000001 1.6175316599999998 0.959371 -3.191268 1.755197
9140 -9.95804271 1.8510489 -7.19883306 -0.131708 -3.531152 0.852841
9160 6.133790790000001 -2.44755576 -6.108500610000001 -0.733329 -3.3087160000000004 0.095258
9180 8.38840347 -2.5186586400000004 -4.68405918 -1.273741 -1.592683 -0.203409
9200 3.96525105 -1.57277844 -4.60472571 -1.902618 1.367638 -0.7029770000000001
9220 1.59508638 -1.3498952400000002 -2.6586179100000003 -2.966988 3.1901 -1.587621
9240 2.20790727 -2.2041696600000003 -1.9734973199999999 -2.67301 4.8314879999999985 -1.259727
9260 3.9158577000000006 -1.5462816300000002 -4.51251171 -0.969942 2.606372 -0.933059
9280 4.77986364 1.97319321 -3.4202368800000005 1.511953 -1.079567 -0.400389
9300 7.81390044 4.99406499 4.66939323 3.529965 0.488205 0.5912569999999999
9320 8.60590098 11.10481209 4.2454737 0.409247 5.454654 0.333427
9340 14.546601540000001 35.1795429 -2.4697165500000002 0.109107 1.472111 0.462484
9360 11.9300391 51.03412155 -9.98573634 1.873572 -2.391293 0.44344
9380 5.30287398 28.863423450000003 -2.9865858300000006 -2.265594 2.706288 -0.022498
9400 14.67592677 16.272357120000002 -0.47376414 -0.776341 3.149673 -2.167267
9420 20.63294136 11.51719506 -4.49635464 -1.758997 2.934146 -3.093594
9440 14.64150348 10.34348742 -3.0985571700000003 -1.114009 2.1518580000000003 -3.292117
9460 4.085757090000001 5.573512260000001 -0.49203036 -0.920762 -0.314104 -2.699017
9480 -5.537882340000001 1.04991525 1.2293892 -3.2332 2.55934 -1.860001
9500 -7.78231224 -4.9969098899999995 4.0900931100000015 -3.78894 1.052023 -0.060929
9520 -8.04771198 -8.29933848 5.67679194 -4.388337 -1.0295040000000002 0.186447
9540 -7.856711280000001 -6.6798546299999995 12.49571313 -1.840952 0.8383370000000001 0.006363000000000001
9560 -8.94943737 -0.97013052 7.277568120000001 -1.466399 3.846597 -0.564238
9580 -2.84903001 5.96180187 -4.7187865800000015 -1.4717129999999998 0.33484899999999995 -1.474173
9600 14.713803180000001 13.4281242 -20.710038150000003 -1.224556 0.465233 -1.2611059999999998
9620 22.081633110000002 9.9807921 -7.8926355 -0.043936 -0.191328 -0.8653209999999999
9640 8.72191404 -1.0704279600000002 11.41705458 1.395236 -1.147337 -0.13513
9660 -0.17603064 12.32791308 11.529624329999999 2.131602 -0.918188 0.528812
9680 -3.24360783 16.47219663 -4.83779169 2.00743 -0.8436370000000001 1.173056
9700 -4.874765580000001 0.06047865000000001 9.7866522 2.253651 -3.581513 2.0531580000000003
9720 0.10912644 11.932884 7.47395451 1.692239 -6.7568990000000015 2.4891400000000004
9740 4.197571470000001 19.24503237 3.0590424900000004 2.6483790000000003 -2.677241 2.014164
9760 9.969569459999999 23.12480889 1.04527512 3.310201 2.2046240000000004 2.312701
9780 15.71372667 23.406679620000002 2.7084723299999998 4.500528 -1.7185689999999998 2.025873
9800 24.992927190000003 20.723801580000003 -0.6942537000000001 4.07864 -1.77302 1.357493
9820 18.39704616 12.19962771 -7.832765070000001 3.563655 -1.038743 2.259875
9840 13.861176840000002 11.733652710000001 -7.807465080000001 1.985107 -2.313899 2.301758
9860 8.779842089999999 7.279363350000001 2.24757891 0.668276 -3.151071 1.27989
9880 -3.1777434900000006 5.36574627 -5.00305095 -0.256244 -3.228292 0.614438
9900 -3.47547699 0.9623511900000001 -6.8829903 -0.8479780000000001 -2.672591 -0.110389
9920 7.81509726 -0.4363389900000001 -5.95342413 -1.410799 -0.864395 -0.792822
9940 5.25931758 -1.56813831 -5.0545436399999994 -2.087031 1.879279 -1.418493
9960 2.78750169 -2.18455947 -1.79221833 -2.831131 3.919377 -2.128127
9980 2.9370453300000006 -3.3560206200000002 -1.7134832700000002 -2.478628 4.656886 -1.7196169999999995
10000 2.6801802900000005 -3.25213272 -2.9362899600000003 -1.020373 2.7853830000000004 -1.166513
10020 3.9261876300000003 -1.25050032 -5.12713764 1.457754 -0.8619020000000001 -0.706558
10040 8.249493870000002 4.98358791 1.03389552 2.887842 1.384772 0.979797
10060 9.93649014 10.833124140000002 4.36147695 0.218078 4.935469 0.331689
10080 11.63919222 25.353974430000005 0.39233133000000003 0.506927 2.592612 0.426439
10100 10.61397855 47.72480634 -10.247987070000002 1.043941 -0.8760370000000001 -0.276801
10120 6.5419947 30.438752490000006 -3.3400008900000002 0.07084299999999999 0.328612 -0.719908
10140 13.13563905 17.75816991 -0.9746235 -0.455916 2.304132 -1.186522
10160 21.30190488 14.28105465 -5.53189824 -0.90333 3.353474 -2.672616
10180 15.039524609999999 10.8771318 -3.7565923500000005 -0.7591289999999999 1.25215 -2.913539
10200 5.8405502700000005 6.818322780000001 -2.19922542 -1.499885 -0.866168 -1.869141
10220 -0.82043973 2.12393367 -0.34428195 -2.460678 1.299699 -0.2795
10240 -5.198387670000001 -3.9927975300000003 2.6698503600000003 -2.983039 2.628544 -0.470722
10260 -7.72064658 -6.642890550000001 3.9561277500000003 -3.608671 0.013813 -0.857369
10280 -8.363711700000001 -7.21304775 8.3062251 -2.646516 -0.70532 -0.342322
10300 -9.32650434 -0.67599729 8.09412309 -1.98103 3.4838940000000003 -1.321533
10320 -6.40952046 3.2201030700000004 -1.8037450800000001 -1.580398 0.228923 -2.328306
10340 7.24583277 10.88057511 -11.869119 -1.568144 0.732258 -1.937896
10360 22.891144500000003 15.312860640000002 -9.385030800000001 -0.715417 0.963079 -1.526311
10380 13.25358468 -0.43365105000000004 0.44712018000000003 0.7024630000000001 -0.5334909999999999 -0.394993
10400 -1.76647689 -3.32548209 11.47334436 1.590984 -1.029466 0.587136
10420 1.95343587 22.61407086 -5.05753569 1.6807009999999998 -0.8236370000000001 1.249796
10440 -1.09542384 12.276126090000002 2.9105485200000003 1.774643 -4.389046 1.949365
10460 -3.22863777 1.92260304 4.9769955900000005 1.381377 -6.8939960000000005 2.677288
10480 0.28874754 9.469161360000001 4.84107804 1.829288 -3.389562 2.902389
10500 6.40383066 20.913458310000003 1.28417805 2.088366 0.41781 3.190944
10520 11.56061412 23.856193440000002 3.5862417000000004 4.464982 -0.4100140000000001 2.223705
10540 17.853827220000003 19.47360537 2.6942478300000006 4.71389 -1.354775 1.441511
10560 22.64850396 16.38627084 -3.5143932600000003 3.067313 -2.409843 1.648211
10580 19.738848150000003 12.307253220000002 -8.500227660000002 2.508182 -1.197152 3.360452
10600 14.159508750000002 12.723991830000001 -6.5536686 0.892207 -3.154698 2.257814
10620 6.7939253100000006 7.849530360000001 5.09944401 -0.203164 -3.35051 1.028367
10640 -8.6939163 6.89825466 -7.1000365500000004 -0.93334 -3.094148 0.422598
10660 1.3930003800000001 -0.6231508200000001 -6.30414144 -1.335015 -1.535697 -0.28189000000000003
10680 9.49161645 -2.68750836 -5.19554277 -1.811657 0.963326 -1.170773
10700 6.48451791 -2.351457 -2.44501497 -2.814962 3.3235120000000005 -2.048202
10720 3.78443313 -3.33595917 -3.20004162 -2.63245 4.462134 -1.634984
10740 2.5691114699999997 -4.2052036500000005 -2.71070901 -0.793659 3.021566 -1.285941
10760 2.81354724 -3.6119929500000003 -7.583228100000001 0.616367 -0.149476 -1.5134459999999998
10780 5.9502751200000015 1.6104978900000002 -0.34757811 3.639244 0.914539 0.440855
10800 10.52297118 6.6563596800000004 3.88606473 0.746462 3.705999 0.7076279999999999
10820 11.30269941 13.34969325 4.09219245 0.689341 1.833884 0.863452
10840 14.280907500000001 32.956665570000006 -7.554337650000001 3.600459 -5.600466 0.419022
10860 10.9320678 46.0708992 -4.179903660000001 -1.039239 4.862025 0.607147
10880 6.61055679 30.10524192 -3.25049445 -0.831411 2.884679 -0.854468
10900 17.393679360000004 15.91310511 -0.6773412600000002 -0.665018 2.255406 -2.670613
10920 20.33880813 12.21490188 -4.78465092 -1.300372 1.70836 -3.576997
10940 15.164513820000002 9.317675340000001 -2.83360869 -1.589711 0.482248 -3.331756
10960 4.358632050000001 4.871920680000001 -1.0036611 -2.157855 -2.47993 -2.130179
10980 -3.31021773 0.02889045 0.76775022 -3.2319880000000003 3.106099 -0.86511
11000 -7.22098404 -4.03500996 3.8926570500000004 -3.293313 1.778242 -0.415184
11020 -9.37275849 -6.586002360000001 8.92279341 -2.770471 -0.885325 -0.241476
11040 -10.9926936 -6.017934690000001 13.406424480000002 -1.812558 2.971303 -0.621082
11060 -10.36728648 0.34174116 4.431235860000001 -1.375344 0.679326 -1.921526
11080 -4.0519224000000005 4.30534413 -8.17420212 -1.390407 0.5838840000000001 -1.7505939999999998
11100 14.199170580000002 11.2386303 -18.59478633 -0.90131 0.942278 -1.491263
11120 23.37748506 11.58515874 -3.13702218 0.676755 -0.4540270000000001 -0.530938
11140 10.846740420000001 -3.5512200000000007 10.45366353 1.621566 -1.290789 0.643232
11160 -0.40325967 7.978561290000001 9.60297957 1.421792 -1.4247530000000002 1.282941
11180 1.42084116 25.934618520000004 -8.07645528 1.4475559999999998 -3.4892760000000003 1.7974450000000002
11200 -4.81683753 2.8598013900000003 5.79789639 1.363487 -5.21926 2.396211
11220 -0.4281084 5.39643195 5.0248978200000005 2.018698 -4.1746349999999985 2.463542
11240 5.085523620000001 16.12806183 -0.0013439700000000003 3.050889 -1.070659 1.895276
11260 9.35988777 20.46604383 0.8339186700000001 2.853491 1.57008 2.883959
11280 13.001359770000002 21.87790884 1.94386131 3.676374 -2.096849 2.234245
11300 18.72830043 20.471125410000003 2.99302119 2.82283 -3.20552 1.838734
11320 24.168740040000003 15.84395442 -2.37989619 2.527094 -0.590068 2.842787
11340 18.55451628 12.449910240000001 -10.21640868 0.962984 -1.93172 2.452225
11360 11.83499001 10.26161316 -4.193382600000001 -0.21909 -3.041634 1.321621
11380 1.25798535 7.756119540000001 1.5706791 -0.857655 -3.4274050000000003 0.5795140000000001
11400 -10.111176810000002 2.6896077000000003 -5.70508398 -1.093961 -2.23005 -0.010125
11420 6.96067569 -1.75121253 -4.52912985 -1.538937 0.727754 -0.8384860000000001
11440 8.10324639 -4.299212880000001 -5.30242272 -2.6027720000000003 3.863561 -1.954477
11460 5.131777770000001 -3.0108361500000003 -1.3641099300000001 -2.6409740000000004 4.546728 -2.268608
11480 2.93509314 -3.01263138 -3.2242919400000005 -1.311501 3.3695190000000004 -1.803819
11500 2.21958117 -3.7928108700000003 -3.30198714 -0.277366 1.352348 -1.750213
11520 3.76032996 -1.95388713 -5.612281380000001 3.4661410000000004 -1.16189 -0.155898
11540 4.2167304 3.44943144 -2.6346716999999997 1.029178 2.527948 0.95894
11560 7.72737624 6.24980385 5.101239240000001 0.303912 2.421379 0.799118
11580 11.14626915 11.7358992 5.3450864099999995 1.594462 1.193652 0.612085
11600 17.452509929999998 33.97245183 -3.73114521 1.256481 1.191107 1.274161
11620 15.46179606 46.24094574 -8.40502161 -2.314719 1.866427 -0.140337
11640 10.05069816 22.895490330000005 -3.2853689999999998 -0.597607 3.110189 -2.570824
11660 16.933835610000003 13.946052960000001 -0.77867856 -0.6070949999999999 2.823635 -3.362076
11680 17.323479000000003 12.558281310000002 -4.59888876 -0.905837 0.793928 -3.014389
11700 12.041559180000002 9.59130567 -1.2501962100000001 -1.7904369999999998 -2.132833 -1.870616
11720 2.87163225 4.58466426 -1.06398279 -2.437936 2.091102 -0.275014
11740 -6.42523608 -1.64462688 2.5631175600000002 -3.16088 3.003772 -0.645497
11760 -10.46907504 -5.9161461300000004 4.72342671 -2.884512 -1.601955 -0.7498279999999999
11780 -10.28960109 -8.159830470000001 9.542353770000002 -1.621688 1.199544 -0.468995
11800 -11.669436450000001 -1.0747639800000002 9.94367106 -0.87235 1.93593 -1.719866
11820 -8.69122836 2.9548504799999997 -0.46613196000000007 -1.412932 0.996367 -1.786531
11840 1.97768619 7.17712353 -10.28660904 -1.733786 0.59806 -1.535093
11860 22.70643201 13.781843370000002 -18.21681684 -0.435561 -0.410507 -0.5932430000000001
11880 20.856432780000006 5.6693069099999995 0.38259981000000004 1.396611 -1.2444620000000002 0.17585599999999998
11900 6.88268619 -7.40420541 11.50327467 2.232159 -1.219295 0.8824139999999999
11920 1.87065909 14.062654620000002 10.41309918 1.596321 -2.648327 1.823044
11940 4.8816522 20.13164055 4.973562090000001 1.174287 -5.736368 2.672221
11960 -8.37942732 2.17048212 -4.56865434 1.741593 -4.7775349999999985 3.224021
11980 -2.31837768 5.39268453 7.369321050000001 2.053182 -0.826059 3.128199
12000 4.33633392 19.515219390000002 2.16180027 2.927546 0.045473 3.401313
12020 10.914704100000002 28.27619685 1.21098564 4.934026 -1.382698 1.573408
12040 12.81858966 19.669844610000002 3.57322383 3.678828 -1.902626 1.880432
12060 21.637504980000003 15.854578650000002 2.28799611 2.906144 -0.810631 2.793374
12080 22.74879159 13.4972847 -6.38033571 1.378398 -1.622046 2.438707
12100 17.0809758 13.571526780000001 -13.11242859 -0.242736 -3.271836 1.367685
12120 13.684842090000002 7.789355820000001 4.67028594 -0.902856 -3.177419 0.4410770000000001
12140 -1.0418318100000001 5.41648359 -2.5933617900000003 -1.128153 -2.1209130000000003 -0.366221
12160 -3.9627102600000006 -0.14954364 -4.39560594 -1.4747940000000002 0.5609609999999999 -1.273659
12180 8.042924700000002 -3.5434308600000004 -2.71056186 -2.0232 3.962459 -2.147108
12200 6.98013873 -5.416336439999999 -7.981700490000001 -2.40369 5.040501 -2.3455630000000003
12220 2.7223927199999998 -2.6457471900000002 -0.4090966200000001 -1.159841 3.353331 -1.616868
12240 1.1183203800000001 -3.0825374400000003 -4.6445445 0.047728 0.647827 -1.672264
12260 2.69678862 -3.2726454300000007 -4.00985712 3.539216 -0.550862 -0.375156
12280 5.410352340000001 0.97192575 -3.7211095800000002 1.014725 3.355795 1.205606
12300 9.10885968 4.8957197400000005 2.6779338 0.549532 1.309458 1.061837
12320 10.49408073 9.298663560000001 3.5292063600000003 0.953925 -0.5428149999999999 0.385509
12340 15.152839920000002 24.436837530000002 -2.53228473 1.915491 1.810573 0.302684
12360 19.40788818 53.07422876999999 -4.24367847 -1.946193 5.28565 -0.381426
12380 7.35764715 29.45604555 -5.626653030000001 -0.20115 1.914396 -2.24392
12400 13.855035780000001 15.663725100000002 0.11496339000000001 -0.417433 3.344554 -3.259937
12420 21.25310013 10.28526507 -3.0418259400000003 -1.228631 0.8572280000000001 -2.580891
12440 17.07544296 9.00527589 -3.2289320700000004 -1.937358 -2.441314 -1.057262
12460 7.888593780000001 4.68974898 -1.0933245 -2.552317 4.191949 -0.738908
12480 -2.92312494 0.92193399 0.42391953000000004 -2.869586 2.551536 -1.8222
12500 -8.134089029999998 -3.78967167 5.00259969 -3.093099 -1.592276 -0.8581190000000001
12520 -11.093432490000001 -6.35503572 9.9312516 -1.345109 1.361035 -0.6007979999999999
12540 -12.401713710000001 -2.5251038100000005 12.57025932 -0.794787 1.620366 -1.7263970000000002
12560 -11.774217060000002 2.22093495 3.90583188 -1.107274 0.464541 -1.721758
12580 -2.7204405300000003 5.102887320000001 -7.8123995100000005 -1.228841 0.5001369999999999 -1.4609379999999998
12600 15.44713011 11.374842150000001 -19.165846050000003 0.301395 -0.944537 -0.35133400000000004
12620 26.292075300000004 8.051459399999999 -1.71842751 1.438864 -1.447419 0.54388
12640 11.33338509 -6.18992361 8.275088160000001 1.870434 -1.82231 1.478864
12660 -3.46304772 -1.12192065 10.018962810000001 1.271339 -3.601182 1.963
12680 6.23064492 28.383528060000003 -25.86322134 0.981611 -5.0490629999999985 2.788567
12700 1.8353332800000002 17.32228218 7.643108340000001 1.6886439999999998 -3.784444 2.940368
12720 -4.97984049 -0.38424789000000004 -13.529912760000002 2.6881630000000003 -0.25146 2.474941
12740 2.71594755 11.721527550000001 4.67597574 3.273772 0.647088 3.167952
12760 11.80700208 25.8380685 2.08545885 4.3990300000000016 -1.322699 2.216936
12780 15.700247730000001 23.47613442 3.9658494600000003 2.616246 -1.59725 2.889565
12800 23.558008680000004 15.048657720000003 3.0118858200000003 2.097634 -0.887962 3.384962
12820 26.531125380000002 9.03850236 -2.9822498100000003 0.266364 -2.732101 2.346904
12840 17.99737695 11.18728476 -14.55378246 -1.155536 -3.539767 1.230261
12860 13.297150890000001 6.984023490000001 0.36164565000000004 -1.6510189999999998 -3.470024 0.204422
12880 1.4994290700000001 5.736525030000001 0.7289811 -1.716301 -2.368467 -0.552678
12900 -8.708886360000001 5.528602080000001 -6.8752011600000005 -2.0554360000000003 0.591398 -1.189091
12920 7.503149070000001 -4.78494522 -2.88824058 -2.401065 3.5203230000000003 -2.074405
12940 7.240741379999999 -6.3162666000000005 -5.02998921 -1.932268 4.360021 -2.279442
12960 3.4527177900000003 -5.025947490000001 -2.51372421 -0.617002 3.633378 -1.524773
12980 0.78407406 -3.44553687 -3.6182713500000006 0.478875 2.294477 -1.713023
13000 2.060168670000001 -3.7393758000000004 -3.4112607300000004 2.609505 -0.06421900000000001 0.21059
13020 5.19329628 -0.10807677000000002 -4.83449553 0.918824 2.450791 1.700682
13040 6.306535080000001 3.6131897700000004 1.28208852 0.292258 0.352456 0.8486899999999999
13060 10.377920520000002 8.21402091 3.67770033 1.058952 -0.296606 0.528001
13080 14.214287790000002 16.13420289 3.3805652400000006 1.788067 1.786307 0.620155
13100 25.853185709999998 45.44055765 -9.49760055 -2.8897630000000003 5.94837 0.139903
13120 13.532904810000002 33.93038655000001 -6.90079545 0.116452 2.718707 -2.791798
13140 15.365393190000002 14.181806880000002 -0.38424789000000004 -0.2765 3.253863 -3.612418
13160 20.733680250000003 9.88634142 -3.60450792 -1.001736 1.406133 -3.3811760000000004
13180 19.475851860000002 8.41924611 -3.6961137 -1.780743 -2.546358 -1.829426
13200 11.67601896 5.961056310000001 -1.6627459500000001 -2.066643 2.495865 -0.585928
13220 0.44248005 3.0540982500000005 -0.06002739000000001 -3.345249 3.348874 -1.538124
13240 -7.73516538 -0.58138965 4.49095914 -3.246383 -1.19908 -1.018859
13260 -11.747573100000002 -3.2102244000000004 6.2406707400000005 -1.702523 1.661255 -0.7767310000000001
13280 -14.139594450000002 -2.16973656 8.02615941 -0.8147220000000001 1.754421 -1.666888
13300 -12.04605216 1.9992387600000001 7.508083500000001 -1.175177 0.6856939999999999 -1.822928
13320 -5.866595820000001 4.0892004 -2.1489295500000005 -0.933303 0.7165159999999999 -1.482652
13340 7.774228800000001 8.77025772 -11.454185430000003 -0.16916199999999998 -0.299472 -0.885286
13360 29.63252745 7.377708600000001 -10.59407406 1.581248 -1.835696 0.283658
13380 17.69770107 -4.75830126 8.38885473 1.659418 -1.7875310000000002 1.223109
13400 -1.52173701 -5.60614032 13.469286960000002 1.05007 -3.758991 1.65935
13420 1.1846359800000001 13.237123500000001 -5.289699150000001 0.8815219999999999 -5.392303 2.398407
13440 6.08843916 18.86361957 14.32820151 1.305074 -4.798445 3.237022
13460 -5.4446284799999995 6.8106906 -4.2209192700000004 1.081535 -1.123316 3.714656
13480 0.36104724000000005 7.47815319 10.09485297 2.942776 -0.310924 2.73851
13500 6.9289403400000005 18.67995675 3.3172515000000002 4.949561 -2.081419 0.736925
13520 14.278661009999999 23.73793389 2.41567326 3.72185 -1.471808 1.997685
13540 18.201248370000002 18.63384975 4.12976475 2.459896 -1.342914 2.559135
13560 30.287717730000004 10.86680187 4.372856550000001 1.559688 -1.7540939999999998 2.80227
13580 23.454424890000002 8.20923363 -10.186321410000001 -0.394921 -3.291018 1.501242
13600 16.52189409 11.327391180000001 -10.739271870000001 -1.595506 -3.850759 0.530037
13620 11.41391538 6.32569401 7.162457580000001 -1.852128 -2.722448 -0.357689
13640 -5.679342540000001 8.20683018 -6.48316413 -1.897884 -0.940895 -1.219142
13660 -1.70749917 0.5445629100000001 -3.74610546 -1.956975 2.328163 -1.897792
13680 7.522602300000001 -6.56265456 -2.6649061200000004 -2.042692 4.653608 -2.342546
13700 5.266645649999999 -5.42052531 -5.069660850000001 -1.316553 4.72001 -1.463753
13720 2.28829041 -3.91839849 -3.00155589 0.113076 2.567711 -0.994879
13740 1.6378972200000002 -3.4649901000000005 -4.679419050000001 2.841805 -1.386117 -0.81586
13760 2.76848991 -2.9079979200000006 -4.767140070000001 2.035537 1.7739509999999998 1.097259
13780 5.4862425 0.71581608 -0.39292974 0.383948 2.853899 0.991403
13800 11.08279845 4.379439060000001 4.4261444700000006 1.326126 -1.144327 0.769167
13820 11.76598647 10.177188300000001 0.21943989 2.14679 -0.327989 1.30476
13840 19.50488946 27.842849910000005 -5.692213260000001 -2.139371 5.573165 0.877358
13860 19.575089820000002 45.94216257 -5.078941110000001 -0.013095 2.514305 -2.18035
13880 7.54895196 25.95991851 -2.3920213500000003 -0.26067 3.5560400000000003 -3.269796
13900 15.933764970000002 17.08487037 -2.6111669400000004 -0.68609 2.439785 -3.73815
13920 23.98327218 7.656577470000001 -3.80538729 -1.892107 -0.944248 -2.51485
13940 18.93367278 6.19517196 -3.26441484 -2.148876 -1.329329 -0.833701
13960 8.91411156 3.4063164900000005 -2.3141888100000005 -3.392575 3.860943 -1.415197
13980 -2.37960189 1.18942326 0.8370578700000001 -3.5417 0.7386550000000001 -1.028746
14000 -7.41513375 -0.9789595200000001 2.79154341 -1.8186830000000005 0.8145789999999999 -0.464537
14020 -9.78829047 -4.3544431800000005 7.54221249 -0.8649610000000001 2.263575 -1.611275
14040 -12.18525606 -2.6158070700000002 10.76995755 -1.20633 1.196688 -1.977625
14060 -12.743150759999999 1.4778765 8.307274770000001 -0.779709 0.591812 -1.598924
14080 -4.7981200500000005 5.060822040000001 -3.7922124600000005 -0.071644 -0.112798 -1.032258
14100 14.040356490000002 11.51780328 -20.07535077 1.533841 -1.775468 0.447755
14120 26.869423230000002 7.29029169 -7.29014454 1.893471 -1.681773 1.478845
14140 11.53246923 -6.8415234300000005 8.001310680000001 1.244723 -3.3794 1.934756
14160 -1.24975476 1.79342496 12.326117850000001 0.784609 -5.712969 2.752791
14180 12.711268259999999 29.81919213 -20.76376752 1.193384 -4.740465 3.220144
14200 0.28455867 8.06103396 1.81557594 1.998505 -0.5834630000000001 2.715172
14220 -3.0482613 2.7678915 4.4758419300000005 3.782206 0.35386 2.264959
14240 3.6297981000000004 12.53253987 5.910907590000001 4.814138 -2.126072 1.630138
14260 10.60275591 21.06793638 -1.05740028 3.01907 -2.569877 2.0166150000000003
14280 14.14633392 19.827314730000005 1.58310837 2.785664 -0.6623359999999999 3.640511
14300 21.323310300000003 16.23224403 4.1474227500000005 0.953351 -2.572233 2.530959
14320 31.086153630000002 10.46114856 0.8665467300000002 -0.77276 -3.858438 1.203433
14340 22.36633893 9.361683000000001 -11.026969740000002 -1.373734 -3.329016 0.132471
14360 15.389800470000003 9.33144858 -5.74415721 -1.36101 -2.180936 -0.604916
14380 3.4708368600000004 5.74849323 2.08650852 -1.523002 0.11544 -1.438999
14400 -7.5579379200000005 7.22622258 -7.0464445200000005 -1.823513 2.683009 -2.0404560000000003
14420 3.8697507 -3.59462925 -4.48198299 -1.855475 4.381063 -2.0140130000000003
14440 7.7739345 -6.19262136 -4.8814952400000005 -1.034674 4.884635 -1.584841
14460 5.25497175 -5.057378730000001 -4.26912561 -0.021022 3.396352 -1.907002
14480 2.0044773 -4.84812162 -2.4490566900000004 2.105161 -0.394735 -1.144879
14500 2.31523848 -4.451140350000001 -4.731363 1.528241 2.914219 1.164893
14520 5.05918377 -0.6291447300000002 -5.023406700000001 1.014706 1.15009 1.617561
14540 9.092545650000002 2.57928444 2.3861844000000003 3.759306 -2.060475 1.857695
14560 11.99829708 8.174054970000002 4.04923446 -0.651181 2.587996 1.2515690000000002
14580 15.844248720000001 19.78076628 1.15664805 -1.46109 4.683033 -1.14959
14600 24.65881821 48.06953955 -7.93799694 -0.052869000000000006 3.639873 -3.368864
14620 9.7869465 34.46298126 -6.695423100000001 -1.090013 2.360607 -4.631767
14640 15.435456210000002 14.02254153 1.2332837700000001 -1.050083 -0.15470699999999998 -2.488616
14660 23.12196399 7.164547110000001 -3.4126047 -0.994307 -2.350121 -0.704687
14680 19.98284247 6.5649010500000005 -4.17781413 -2.5735650000000003 3.703932 -1.488323
14700 9.620941680000001 5.00588604 -2.90725236 -3.746152 0.376741 -1.719782
14720 -2.40758982 3.1603797900000004 0.69231132 -2.707824 0.459106 0.222984
14740 -7.1579646000000015 -1.6703781300000002 4.92506145 -0.6963779999999999 2.954558 -1.3962709999999998
14760 -11.371398840000001 -3.6031541400000004 7.98439824 -1.162215 1.122598 -2.135318
14780 -15.108381000000001 -3.40825887 10.259660969999999 -1.272309 0.67538 -1.823593
14800 -11.92989195 2.3257155600000003 9.83035575 -0.792868 0.769679 -1.578947
14820 -5.13492678 4.22825715 -1.3169630700000001 0.58645 -0.676185 -0.840001
14840 9.17681355 7.644001050000001 -11.983483979999999 1.842829 -2.0135110000000003 0.301736
14860 31.412630430000004 7.759709999999999 -12.61725903 1.718086 -1.702864 1.311004
14880 17.88256071 -2.63691819 6.86606805 0.875179 -3.944941000000001 1.69255
14900 5.182377750000001 5.95536651 11.31362775 0.665466 -6.375996 2.962179
14920 8.90947143 22.646110320000002 -11.140285050000001 -0.163969 -1.537097 4.1081379999999985
14940 -12.34991691 -0.8077161600000001 -18.85419216 1.126917 -1.852606 3.569561
14960 -1.4838605999999999 1.86976638 14.334489720000002 3.869505 -1.037476 1.146786
14980 5.182377750000001 17.14504491 4.69438911 5.4051480000000005 -0.762682 0.627323
15000 10.146796920000002 22.00498758 0.50055525 2.721912 -1.624756 1.420465
15020 14.948664390000001 18.58969494 1.70735202 2.17306 -1.362781 2.980173
15040 22.90731138 14.26233717 4.1356017000000005 1.1270870000000002 -1.866576 2.801529
15060 30.179945070000002 10.561436190000002 -1.9552311 -0.792513 -3.673511 0.7960649999999999
15080 21.37614696 8.795861819999999 -14.13765207 -1.532904 -3.830391000000001 -0.08805199999999999
15100 16.94626488 7.38668475 5.41768041 -1.520737 -2.652036 -0.6705899999999999
15120 -0.3176379900000001 9.36601902 -5.30900523 -1.552774 -0.724137 -1.112323
15140 -9.52334199 5.62500495 -3.8989452600000005 -1.606936 1.980416 -1.552002
15160 6.286777740000001 -3.99923289 -3.4865524800000003 -1.936678 3.903053 -1.7522529999999998
15180 6.9957072 -4.97041308 -5.844444840000001 -1.309677 4.2964449999999985 -1.041215
15200 3.9797698500000003 -2.7735813000000005 -3.77365194 -0.112812 2.789227 -1.316139
15220 2.1585139200000003 -2.53572804 -3.4187359500000003 3.056734 -1.646159 -0.707203
15240 1.41380739 -4.891972320000001 -2.24802036 2.110178 2.127813 0.985163
15260 3.13373583 -4.39156422 -1.0340524800000002 0.333299 2.341595 1.543976
15280 11.31482457 0.56687085 4.28603805 1.172563 -1.027974 1.108708
15300 11.80265625 7.723040220000001 -0.20611791 2.221987 -1.976045 0.726284
15320 14.264887770000001 19.45354392 -3.87708858 -3.407302 7.20375 0.466897
15340 21.60981135 39.90896352 1.1000639700000001 0.07426100000000001 2.280575 -2.147393
15360 11.06064747 36.93119688 -2.27437002 0.08408500000000001 2.002429 -3.192758
15380 11.3544864 24.425752230000004 -0.69066324 -0.719047 3.279992 -3.635839
15400 23.19546051 8.318350259999999 -3.5640907200000003 -1.4403629999999998 0.919284 -1.93297
15420 24.09105465 4.16494341 -3.6280028700000004 -1.600435 -0.689381 -0.439721
15440 14.24812248 4.91114106 -3.49463592 -2.70092 3.859771 -1.7212169999999998
15460 3.87933507 4.523744160000001 -0.03098979 -3.773114 -0.4779390000000001 -1.082214
15480 -4.06270359 1.3563306 2.16659736 -2.133589 0.840981 -0.400541
15500 -8.647515 -2.85171795 5.49358038 -0.427694 2.4909830000000004 -1.583943
15520 -12.75901353 -5.930664930000001 9.51331617 -0.694028 1.409297 -2.043753
15540 -13.758485760000001 -3.8239478100000004 11.877055290000001 -0.964645 0.822148 -1.7639479999999998
15560 -10.33884729 1.4882064300000002 4.61250504 -0.636603 0.611711 -1.371486
15580 -0.37601730000000005 4.42898937 -6.45068322 0.814172 -0.717713 -0.5093439999999999
15600 20.38071645 9.098981010000001 -25.22030337 1.7210169999999998 -1.331138 0.790324
15620 25.89630066 8.212372830000001 -2.7946924200000005 1.468167 -2.122173 1.425164
15640 9.46736613 -9.23519286 7.1118576000000004 0.710228 -4.727641 1.7661080000000002
15660 -0.0113796 6.86128077 11.796515190000001 -0.015125 -5.545132 3.298192
15680 13.65834528 32.174396550000004 -1.37189907 -0.304366 -1.599993 3.708791
15700 -7.09314993 4.74408657 3.4274178000000006 1.455707 -2.144295 3.235742
15720 -4.6669995900000005 2.60668377 3.0132297900000005 3.913037 -0.777978 1.216192
15740 4.28962851 16.4965941 5.06591343 4.728456 -1.043438 1.3600290000000002
15760 8.610845220000002 20.24225811 1.61798292 2.664187 -1.894995 1.651144
15780 14.87201886 20.794453200000003 1.3039353900000001 2.414118 -1.376402 2.9808060000000003
15800 22.06231722 15.90442326 5.09959116 0.932599 -2.080612 2.416953
15820 32.362699500000005 10.88895285 -2.0258827200000002 -0.583842 -3.083758 1.249693
15840 21.483321210000003 8.78867109 -14.753621970000001 -1.119523 -3.049534 0.349669
15860 15.41809251 6.692882310000001 1.08150345 -1.484426 -1.7823240000000002 -0.28155
15880 1.9685530800000002 7.200324180000001 -1.1560496400000002 -1.7268330000000005 0.448083 -1.33189
15900 -8.58105225 6.445591830000001 -4.7999152800000005 -1.894061 2.199643 -1.7807509999999998
15920 2.7660962700000002 -2.02379319 -3.2602161600000006 -1.7598759999999998 3.895804 -1.6911889999999998
15940 7.6690067399999995 -6.9252027300000005 -6.6843476100000006 -0.251288 2.8281 -1.32677
15960 5.659732350000001 -4.060309950000001 -1.90254159 0.74097 1.167957 -1.809094
15980 3.4935862500000003 -4.0043242800000005 -2.68601724 3.115146 0.215868 -0.207117
16000 2.3628366 -4.98567744 -3.09032658 0.778515 2.654177 1.310609
16020 3.6208219500000003 -4.38363774 -2.54800035 1.219468 -1.5402 1.557277
16040 10.85661909 -0.21675195 2.36104137 2.749359 -1.955709 2.107948
16060 11.9155203 6.761591550000001 0.41913225000000004 -2.251655 5.1924220000000005 0.552322
16080 12.215049030000001 13.86536571 -2.43363537 -0.347683 3.030425 -1.756059
16100 21.787794180000002 33.375346560000004 -0.17124336 0.753732 1.546001 -2.852073
16120 15.90951465 41.87556441 -0.81595656 -0.963608 3.632659 -3.705297
16140 10.35831033 24.80656662 -3.0677243400000003 -1.840956 2.071598 -2.571769
16160 17.46942237 12.35905002 -1.01698308 -1.776089 -1.036657 -1.352764
16180 22.43908989 8.94674943 -2.71625166 -2.976268 2.682417 -1.692789
16200 15.032343690000001 5.294937689999999 -3.2967486000000004 -3.861995 -0.396445 -1.404474
16220 6.06299202 4.23679185 -3.1482546300000003 -2.473808 1.170118 -0.097827
16240 -2.22242607 1.86003486 0.6149202300000001 -0.6063069999999999 1.996265 -0.7898
16260 -7.572603870000001 -2.030228550000001 4.93898184 -0.90683 1.630178 -1.951519
16280 -12.40410735 -4.891825170000001 9.9489096 -1.213121 0.704385 -1.669393
16300 -12.361894920000001 -2.5334815500000003 12.95540973 -0.676662 1.000498 -1.327399
16320 -10.76546457 1.8616829400000001 1.9881632700000003 0.39734 -0.369249 -0.710324
16340 0.15822549 5.58114444 -8.14545882 1.197791 -1.645168 -0.143349
16360 17.27019108 7.26709104 -16.318611269999998 1.643827 -1.819999 1.09806
16380 25.803341100000004 3.5372898000000004 -1.03958532 0.921708 -3.657096 1.597434
16400 6.918316110000001 -2.736009 12.88176606 0.517307 -4.760431 2.406804
16420 6.674920200000001 18.78533577 -3.0261103200000004 1.002853 -3.735184 2.937651
16440 0.61776513 7.31095155 13.62916053 1.550737 -2.534896 3.064922
16460 -6.863527260000001 0.16406244 5.31469503 1.7880509999999998 1.348127 2.570222
16480 3.00485205 10.64152503 5.618118330000001 4.42052 -1.93802 1.564123
16500 10.35381735 22.84833366 -1.4648586300000002 3.459664 -1.907465 2.214329
16520 11.564950140000002 20.19450303 2.63586852 2.049978 -1.052371 2.185226
16540 16.06938822 15.68213847 3.77275923 1.604206 -1.314519 2.593714
16560 27.66651516 13.62601152 2.4974101800000006 -0.171959 -2.752928 1.80869
16580 26.242681949999998 8.18931933 -7.99876989 -1.355352 -3.227848 0.656967
16600 17.225428049999998 9.067696920000001 -4.012702020000001 -1.476583 -2.490332 -0.122491
16620 12.218943600000001 7.29866943 1.6001679600000003 -1.837609 -0.8673139999999999 -1.024399
16640 0.31045707000000006 6.18080031 -4.22780589 -2.154354 1.6404720000000002 -2.111934
16660 -6.108500610000001 4.03934598 -4.750816230000001 -2.018788 3.0429 -2.626599
16680 4.62388464 -4.5336228300000005 -3.6833901300000003 -0.933328 2.913695 -1.893528
16700 5.726489399999999 -5.54371929 -5.7212508600000005 0.218459 2.176791 -1.0951229999999998
16720 4.163589630000001 -2.8830020400000005 -3.11292882 1.901639 -0.06489 -0.871122
16740 3.4473321 -3.7068948900000005 -4.59693657 2.636876 1.515926 1.165883
16760 3.00081033 -3.1756441500000006 -2.6605701 0.7872060000000001 2.631895 1.0148
16780 4.18649598 -3.98411568 -4.358632050000001 0.489252 -0.360393 0.456805
16800 5.8881582 1.02013209 1.4736876300000001 2.328906 -1.666508 0.747999
16820 10.818301230000001 5.705535240000001 2.81833452 -0.981548 5.834399 0.612714
16840 14.58118179 12.41608536 2.2559566500000003 0.241911 1.312192 -1.482684
16860 24.87587427 33.236132850000004 3.0597880500000008 0.074792 2.626498 -2.8731560000000003
16880 18.86736699 40.411314 -8.379574470000001 -0.712212 4.0131809999999986 -3.711506
16900 11.143875509999999 22.86360783 -1.64612781 -1.287835 2.603675 -2.378444
16920 17.251777710000002 11.56300776 -1.18673532 -1.599948 -1.436847 -1.061533
16940 23.222114280000003 7.95864699 -2.00343744 -2.768919 3.278938 -2.130076
16960 15.93735543 6.3740475000000005 -3.4935862500000003 -4.279559 -1.835768 -1.807198
16980 5.467083570000001 4.474497960000001 -1.94505813 -3.3233050000000004 -0.593183 -0.62493
17000 -3.7877194800000002 2.00972565 1.04857128 -0.477069 2.071059 -1.223759
17020 -8.143810740000001 -2.40834519 3.6497124 -0.229262 2.103019 -1.970893
17040 -11.960881740000001 -4.19666895 7.0265400300000005 -0.789457 0.518397 -1.878772
17060 -12.71725236 -1.8917702100000002 9.462726 -1.259808 0.534172 -1.420605
17080 -10.44273519 2.02783491 4.0540217400000005 -0.227744 -1.62043 -0.564604
17100 -0.5298969600000001 6.04682514 -4.01360454 1.156014 -2.06903 0.661273
17120 19.50952959 7.2134990100000005 -19.283948640000002 1.6494380000000002 -2.362679 1.206685
17140 25.871599080000003 2.75188158 -3.30766713 1.014601 -4.868256 2.034401
17160 7.02699129 -6.274054169999999 7.358245560000001 0.578615 -4.749265 3.023582
17180 -2.7741797100000003 6.43571316 13.30552863 0.640745 -2.805091 3.490474
17200 10.055789549999998 30.322592280000006 -12.596157720000003 1.357002 0.013608000000000002 3.1414880000000003
17220 -3.3343209000000003 9.541009800000001 -4.85080956 4.971314 -0.183643 1.120274
17240 -0.31075136999999997 5.7709483200000005 7.86479472 4.632445 -1.735278 2.094113
17260 6.622829100000001 12.772639620000001 4.02527844 1.352273 -2.741668 1.6676349999999998
17280 11.21797044 18.750902670000002 2.00882313 1.877884 -1.036774 3.227657
17300 18.27654012 18.99639792 4.123770840000001 -0.032833999999999995 -2.907499 2.51275
17320 26.048080980000005 14.85809847 4.49934669 -1.542721 -3.684755 1.0611
17340 26.40928518 8.344395810000002 -5.432356169999999 -1.910793 -2.8683240000000003 0.208246
17360 17.07334362 9.06050619 -13.76103636 -2.078141 -1.628274 -0.7281380000000001
17380 15.15882402 7.29343089 4.45802697 -2.084326 0.682342 -1.795091
17400 4.8419805600000005 6.553521450000001 0.14579622 -2.367115 3.003436 -2.312787
17420 -6.286777740000001 5.50270368 -4.43572884 -2.063215 4.17856 -1.809038
17440 2.7436411800000005 -4.235290920000001 -3.75074559 0.10289 2.220495 -0.735995
17460 6.44230548 -7.00228971 -4.603823190000001 1.658598 0.075023 -1.017208
17480 4.10536728 -4.841235 -4.88733219 3.453041 1.7971099999999998 0.737525
17500 2.2586544 -4.38483456 -2.28694644 0.667455 3.462518 1.191293
17520 1.3488455700000002 -3.3257862 -2.78855136 1.342933 -1.106425 0.8664440000000001
17540 5.5320453899999995 -2.0395088100000005 -3.04706448 1.192623 -0.948657 1.235865
17560 10.603197360000001 2.60788059 1.8021068100000002 -2.0619080000000003 6.018986 0.942489
17580 11.077412760000001 6.064640100000001 0.00104967 0.48293 2.925978 -2.462628
17600 16.19497584 16.741785240000002 2.66445486 0.448196 2.325883 -3.410682
17620 25.515044820000004 41.425609140000006 -0.49861287 -0.730613 4.394753 -3.746307
17640 12.67175358 31.326704640000003 -5.494021830000001 -1.561372 2.35375 -2.777413
17660 12.37222485 21.461170230000004 0.39263544 -1.357672 -2.508348 -0.24875500000000006
17680 23.031407880000003 8.203386870000001 -3.38985531 -1.92894 4.729461 -1.697711
17700 21.772372860000004 7.5616755300000005 -4.10536728 -3.4557830000000003 -0.979311 -1.450028
17720 12.808867950000002 5.49702369 -3.12684921 -2.809073 0.164484 -0.33602600000000005
17740 1.9805310900000002 2.58272775 -0.031588200000000004 -0.441013 1.891538 -1.116455
17760 -5.36230296 0.5544513900000002 2.04295212 -1.322036 1.478669 -2.064252
17780 -9.48413142 -1.8272498400000001 5.492981970000001 -1.414909 0.5384869999999999 -1.5659040000000002
17800 -12.69360045 -4.802308920000001 11.28922047 -1.098098 0.470713 -1.142725
17820 -11.98602477 -0.44862111000000005 13.232483370000002 0.29912 -1.280885 -0.419285
17840 -11.093883750000002 2.73406662 -1.3654637100000002 1.985796 -1.551298 1.005032
17860 4.84557102 7.351211790000001 -14.67682929 1.942883 -1.889385 1.6728040000000002
17880 29.959151400000003 7.033720949999999 -16.49494602 0.787096 -4.771145 2.188648
17900 18.3359691 -1.73204379 4.43467917 0.805461 -5.2351800000000015 2.864487
17920 -0.03458025 3.95388126 15.991545870000001 1.568416 -2.703114 2.75975
17940 8.33391873 30.835880910000004 -22.667515740000002 1.670016 -0.799401 3.187445
17960 -1.3638156300000002 2.80905426 11.94575472 3.592428 -1.06148 1.528374
17980 -3.0341937600000004 6.44709276 1.61005644 4.428923 -3.3475870000000003 1.608717
18000 5.022357030000001 16.17386472 2.62344906 2.339238 -1.669482 2.013918
18020 8.16552027 20.531005650000004 1.02222162 2.289259 -1.047196 3.079925
18040 11.94950214 19.515513690000006 2.9806017300000005 0.285068 -2.619303 2.09479
18060 19.3339404 17.497116000000002 5.887854090000001 -1.124109 -3.137538 1.048367
18080 35.25423624 9.97734879 0.8886977100000001 -1.649061 -2.908183 0.092621
18100 22.656587400000003 6.07870764 -13.868357759999999 -1.687668 -1.485449 -0.8195969999999999
18120 16.602130080000002 8.31057093 -3.91780008 -1.78706 1.290816 -1.5705360000000002
18140 8.44993179 5.94129897 3.9175057800000004 -2.065929 3.590256 -2.270843
18160 -3.1154696100000003 4.44111453 -3.4429862700000005 -1.60877 4.132375 -1.842124
18180 -2.11195566 -0.9286734600000001 -4.22631477 -0.07266399999999999 3.009425 -1.006356
18200 6.8804397 -6.7181823000000005 -5.66886546 1.368665 0.339174 -1.288764
18220 5.0946567300000005 -4.42030752 -3.8986411500000004 3.130363 0.936596 0.693645
18240 2.91713103 -3.77649684 -4.25250747 0.743409 3.228174 1.387608
18260 2.12018625 -2.43064332 -3.35092923 0.621779 -0.745354 0.973107
18280 3.1653142200000004 -2.22077799 -4.80694905 2.078973 -2.481584 0.467423
18300 5.98500252 1.3052891699999998 -2.62793223 0.646474 3.127306 0.058192
18320 9.38353968 4.601880810000001 3.84520608 -0.527423 3.577235 -0.617155
18340 11.96431524 8.78762142 0.9874942200000001 0.451686 3.067662 -2.968297
18360 22.7693043 28.070373240000006 1.29151593 -0.124171 3.518265 -3.5315760000000003
18380 23.376739500000003 45.20704041 -5.250478770000001 -1.336378 1.893665 -2.734659
18400 11.62947051 24.80267205 -2.97146862 -1.6230950000000002 -1.452283 -0.911056
18420 18.96121926 12.72668958 -1.06923114 -2.796396 3.633533 -2.070902
18440 21.38258232 10.31385141 -3.6756108000000003 -4.129251999999998 -0.791748 -1.683572
18460 15.77539233 7.30990188 -2.9823969600000004 -2.778643 0.657072 -0.203985
18480 6.08529996 4.730911740000001 -2.18216583 -0.252286 1.681874 -1.062525
18500 -2.95276095 0.98225568 1.6072115399999998 -0.703817 1.609476 -2.278018
18520 -8.07884892 -2.8011277800000003 4.9308984 -0.8606520000000001 0.777676 -1.921262
18540 -11.774815470000002 -4.52240019 8.26640631 -0.35435 1.276183 -1.5508959999999998
18560 -12.994777260000001 -1.8775457100000001 11.53261638 0.458341 -0.570775 -0.7160489999999999
18580 -10.803635279999998 2.4051961800000003 4.4261444700000006 1.083028 -1.367328 0.271032
18600 -0.1793268 4.82865858 -6.818774040000001 1.713625 -2.096326 1.674673
18620 19.38454038 7.30510479 -19.95141123 1.191143 -4.0114550000000015 2.067651
18640 24.17218335 3.8208086100000003 -2.11450626 0.264329 -6.463607 3.107973
18660 6.24786147 -5.236264080000001 10.418033609999998 0.684032 -3.464313 3.407231
18680 -2.22661494 6.115681530000001 11.40523353 1.079927 -1.506816 3.450217
18700 10.08797616 27.12404178 -1.13689071 3.409302 -0.799499 1.70622
18720 -0.17154747 7.69788738 6.279891120000001 5.165831 -1.969652 1.635599
18740 -1.9309807800000003 4.95095004 -3.84190992 2.194742 -2.689645 2.046262
18760 5.648804010000001 15.136368930000001 4.27197051 2.305128 -1.399406 3.233243
18780 11.0390949 19.81878984 2.46552768 0.244306 -3.130435 2.346192
18800 16.76168973 18.53011881 4.65786648 -1.33545 -3.843192 1.075569
18820 28.04896782 12.895686450000001 4.614153120000001 -1.7370560000000002 -3.415275 0.173841
18840 27.92218338 7.03147446 -6.039938520000001 -1.717014 -1.705239 -0.442438
18860 17.79020937 9.935293320000001 -12.34752327 -2.077002 1.481967 -1.436074
18880 13.975541819999998 8.331672240000001 5.500761300000001 -2.222106 3.697484 -2.310527
18900 3.59552196 7.876468620000001 -5.28940485 -1.545401 3.922563 -1.90871
18920 -5.61617595 8.13813075 -3.38775597 0.077938 3.06624 -1.225431
18940 2.42331525 -3.1076902800000004 -4.93898184 1.021087 1.170914 -1.459969
18960 8.541684720000001 -7.4106407700000005 -4.66026012 3.255785 0.347835 -0.031115
18980 6.629862870000001 -5.27727969 -2.51851149 0.8236700000000001 3.209967 1.076271
19000 3.36470247 -5.98545378 -3.8880169200000005 0.7452340000000001 -0.004957 0.592734
19020 2.5970994000000003 -5.636227590000001 -3.8172083400000005 2.640882 -2.761496 0.981249
19040 4.51236456 -1.7907272100000002 -4.8141397800000005 0.051786 3.798479 0.826571
19060 9.74518533 2.10058587 1.6061618700000002 -0.631468 2.134788 -0.511347
19080 10.86589935 5.67470241 2.12393367 0.603049 2.758591 -2.532077
19100 15.21376002 14.906903220000002 3.0030568200000003 -0.5090140000000001 3.997215 -3.358622
19120 26.7258735 41.43728304 -3.9052334700000007 -1.339 2.717094 -2.991037
19140 14.984441460000001 36.56760885 -4.14383229 -1.7422490000000002 -1.564252 -1.5772469999999998
19160 12.115801260000001 20.82049875 0.18217170000000002 -2.78686 4.230678 -1.694519
19180 23.05415727 7.8143517000000005 -3.6077942700000003 -3.815104 -0.334382 -2.046228
19200 21.207297240000003 7.9315517700000004 -3.8736452700000004 -3.631945 -0.514934 -0.478704
19220 11.18249748 4.51640628 -2.6556258600000002 -1.017939 2.298968 -1.006707
19240 1.4929937100000004 2.95769538 0.37063161000000006 -0.949095 2.020813 -2.366785
19260 -6.455921760000001 -0.8032329899999999 3.2512400100000005 -1.230054 0.6789930000000001 -1.964308
19280 -10.972936259999999 -2.32736364 6.602473350000001 -0.208837 0.766033 -1.440267
19300 -13.301938170000001 -4.8469248 10.99942326 0.696595 -1.033571 -0.539671
19320 -12.927568950000001 0.92447478 9.768238830000001 1.58287 -1.815782 0.8957350000000001
19340 -8.136776970000001 3.94564086 -1.3991414400000002 1.707345 -2.8565 1.837973
19360 7.61945643 7.00138719 -11.928096720000001 0.927301 -6.722285 2.754012
19380 29.593307070000005 10.312654590000001 -15.63798366 -0.184659 -4.188817 3.922316
19400 17.12902518 -2.7704421 1.9464021 0.564497 -3.069352 3.574669
19420 -0.7168559400000001 -0.25791471 16.39271601 2.38102 -1.561359 1.845292
19440 5.348225610000001 20.8664586 -16.938622889999998 5.366331 -0.605993 0.637533
19460 1.1726579700000002 7.46722485 14.31638046 4.465773 -2.360795 1.756193
19480 -4.31792055 -0.44083197 -1.7362424699999999 2.3214740000000003 -2.642326 2.6228580000000004
19500 2.9057612400000004 10.571020560000001 6.39021438 1.824976 -2.4340580000000003 2.918226
19520 9.94936086 20.225492820000003 -0.66566736 -0.175698 -3.57959 1.813996
19540 12.27537072 18.50152266 3.26470914 -1.492794 -3.97902 0.813998
19560 18.33701877 16.02103473 5.0210130600000005 -1.579619 -2.979427 0.000262
19580 33.47668386 12.62789307 2.3462184600000002 -1.227983 -0.798909 -0.8108569999999999
19600 24.22802187 8.251289100000001 -11.9587824 -1.461076 2.29783 -1.402907
19620 16.56455778 9.27695403 -4.603823190000001 -2.029957 4.876314 -2.103461
19640 10.459951740000001 6.575074020000001 4.19847399 -1.6875639999999998 5.192186 -2.005334
19660 -4.4882712 6.1608860100000005 -4.387375350000001 -0.511404 3.017936 -1.421765
19680 -1.69103799 1.09796463 -8.13528585 1.798055 -0.215387 -1.240189
19700 7.24389039 -7.4622806100000005 -5.0347764900000005 2.714935 0.540967 0.623953
19720 7.232363640000001 -5.31469503 -1.9272431700000001 0.699058 3.413243 1.232169
19740 4.2231657600000005 -6.258936960000001 -5.67798876 1.489278 0.334479 0.8431870000000001
19760 2.45953377 -4.1655418200000005 -3.79625418 1.597732 0.01686 1.322915
19780 5.62350402 -2.05013304 -1.98247347 -1.964557 5.45666 0.557193
19800 12.51831537 4.3767511200000015 0.36898353 -0.239511 2.095051 -1.834222
19820 9.42335847 7.63292556 0.5695686 0.199081 1.762258 -2.905363
19840 12.704832900000001 18.24735537 0.64306512 -0.77374 5.290394999999998 -4.177181
19860 20.96810001 36.909193050000006 3.3664977 -1.5287190000000002 2.515268 -3.236727
19880 14.41936584 35.08478811 -5.103632879999999 -1.826026 0.880498 -0.426217
19900 15.73437672 23.17421205 -1.42174368 -3.256788 0.244237 -1.774946
19920 23.34994839 7.954762230000001 -4.89033405 -4.203188 -0.469967 -0.5724819999999999
19940 20.04841251 6.5452908600000015 -2.85321888 -0.661088 1.901805 -0.5635979999999999
19960 10.108027800000002 5.66227314 -1.84850811 0.33687399999999995 2.880224 -1.817315
19980 1.76692815 2.7403548300000002 2.0658584700000002 -1.273082 1.071073 -2.207598
20000 -6.402339540000001 -0.6342263100000001 2.8180402200000003 -1.587811 1.024642 -1.779243
20020 -10.688377590000002 -2.92177116 6.42284244 -0.475107 -0.286514 -0.930168
20040 -13.016633940000002 -4.9912200900000006 11.50073388 1.139492 -1.322082 0.09618
20060 -14.50064169 -0.44652177000000004 11.65102308 2.228329 -1.65665 1.299554
20080 -7.89622596 4.60173366 -0.4316988600000001 1.1345690000000002 -3.299786 1.83454
20100 8.127643860000001 6.645725639999999 -13.651615620000001 0.500054 -5.709587 2.686705
20120 31.093344360000003 8.587791720000002 -18.53191404 1.435492 -4.29714 2.968099
20140 17.057480849999997 0.08412075 2.0191530600000003 1.594103 -2.226523 3.698285
20160 1.40407587 -1.51664562 19.60952292 1.417726 -0.322176 2.346517
20180 5.54596578 20.8434051 -19.59051114 4.728481 -3.148011 0.193023
20200 1.40347746 8.93342745 12.65842179 3.902304 -2.498916 1.88703
20220 -2.72912238 4.008513150000001 10.55769858 2.280781 -1.60436 2.029449
20240 3.3588655200000006 9.29956608 4.73615028 1.692863 -1.498177 2.624479
20260 10.79734707 19.71999333 -0.31330197000000004 -0.246675 -2.793126 1.536891
20280 11.897862300000002 18.82859787 4.08755232 -1.384261 -3.120787 0.548737
20300 19.73900511 19.868928750000002 5.889806280000001 -1.406798 -2.374644 -0.34220500000000004
20320 36.12348072000001 12.350515320000001 -5.88381237 -1.515696 -0.037298000000000005 -1.078761
20340 23.573282850000002 6.50936664 -11.87465184 -1.920931 3.287714 -1.597531
20360 15.01033986 8.40202956 0.20731473 -2.134488 3.90335 -1.655359
20380 3.19869765 7.810908390000001 0.558189 -0.607775 2.827194 -1.05793
20400 -7.46392869 7.10377416 -5.713765830000001 0.234423 1.937975 -1.326509
20420 4.3463597400000005 -5.21485866 -3.79924623 2.637668 -1.549234 -1.138611
20440 7.35675444 -8.34005979 -6.85439415 1.59209 2.379323 1.141455
20460 4.86084519 -4.49395119 -3.2241447900000004 0.573638 2.131048 1.507469
20480 3.6121401 -4.28603805 -4.03965009 -0.046554000000000005 0.399446 0.314288
20500 2.8069647300000002 -2.22557508 -4.23439821 2.948346 -0.452827 0.395052
20520 4.6300257 -1.3822290000000002 -6.593487389999999 -0.082488 6.399654 -1.128273
20540 7.344030870000001 2.39576877 1.68938991 -0.935271 2.793462 -0.8636219999999999
20560 11.40927525 5.926770360000001 3.9619647000000002 0.074786 3.337991 -3.111213
20580 15.11048034 14.0005377 0.58348899 -0.239174 3.278341 -3.10692
20600 27.969791310000005 38.976993900000004 0.16750575 -0.8674270000000001 -0.209666 -1.15947
20620 16.66769031 37.85372928 -3.5015225400000003 -2.292214 3.812916 -1.5473860000000002
20640 11.575574370000002 23.32060668 -1.13164236 -3.941714 0.969798 -2.007123
20660 18.162930510000002 12.64330458 -0.4564004400000001 -4.496347 -1.573977 -1.0207
20680 20.99384145 6.86128077 -3.0231182700000003 -1.7257 2.203445 -1.013665
20700 12.425659920000001 4.65591429 -2.37675699 -0.313192 2.066601 -1.848587
20720 2.98074888 3.37967253 -0.86384898 -1.946041 1.539085 -2.512
20740 -4.61101392 -0.71670879 3.0904737300000003 -1.012151 1.203445 -1.970936
20760 -9.08206857 -4.350852720000001 8.09322057 -0.003441 -0.240425 -1.142713
20780 -13.095967410000002 -5.39882559 10.921590720000001 0.900697 -1.397477 -0.022896
20800 -14.23644858 0.8789760000000001 9.73111779 1.641543 -2.431998 1.232356
20820 -7.74219915 3.9603166200000004 -1.6881930900000002 0.951993 -4.229339 1.884662
20840 6.291417870000001 7.22292642 -10.70813493 0.549657 -5.56075 2.7189080000000003
20860 24.22637379 9.77617512 -17.86310748 1.359443 -4.613323 2.716941
20880 17.129182139999998 0.20627487000000003 3.00110463 2.214389 -3.029247 3.038145
20900 -0.41299119 -4.91682105 15.917598089999998 2.336691 1.502202 2.192501
20920 -5.012027100000001 2.9500632 8.43286239 3.872652 -4.213496 1.784334
20940 9.42080787 22.427857440000004 12.714858720000002 2.940832 -2.835064 2.067683
20960 2.1694422600000003 15.185320830000002 5.32502496 2.408911 -2.22899 2.810947
20980 0.21106215 4.17437082 -2.93719248 1.318633 -2.499821 2.753472
21000 7.8433893 12.45589434 4.23439821 -0.548795 -3.705226 1.85428
21020 15.87957453 22.047504120000003 3.85702713 -1.6898970000000002 -3.91008 1.06036
21040 21.609958500000005 18.453022020000002 3.8883112200000003 -1.962016 -3.488626 0.064473
21060 30.616431210000002 10.078695900000001 2.5514436600000003 -1.415294 -1.068186 -0.708202
21080 24.356748690000003 8.87100642 -13.19655915 -1.523306 2.120655 -1.264246
21100 16.95359295 10.723252140000001 -5.96778597 -1.763884 5.093159 -2.21618
21120 12.016857600000002 7.346277360000001 7.26245091 -0.996913 5.463751 -2.051064
21140 -1.14316911 6.68405331 -5.4546543000000005 0.097392 4.141708 -1.393316
21160 -3.84325389 3.34868274 -5.974829550000001 1.872412 0.549999 -0.636037
21180 7.555838580000001 -6.917413590000001 -5.547613860000001 2.645634 0.560239 0.393776
21200 7.02204705 -5.986346490000001 -2.41133724 0.6467189999999999 3.051349 0.404395
21220 3.93726312 -4.51910403 -3.4726320900000003 2.434326 -2.19108 0.504784
21240 3.175497 -5.28565743 -6.35068989 1.091643 1.306849 1.510007
21260 3.59911242 -2.76370263 -5.92258149 -2.2408080000000004 5.4999080000000005 0.10548699999999997
21280 5.60060748 0.88061427 -3.3422473800000003 -0.267496 3.232514 -2.5451740000000003
21300 7.595804520000001 4.54440402 4.008817260000001 0.138987 2.4945470000000003 -3.762367
21320 11.00945889 7.412288850000001 2.81699055 -1.001918 4.7291940000000015 -4.29556
21340 18.66783159 21.99046878 3.73787487 -1.467454 0.515714 -2.483845
21360 23.624922690000002 35.10230877 -12.39722073 -2.0203580000000003 1.87443 -1.063372
21380 15.98630733 27.73492029 -3.7374236100000005 -4.805674 -1.300707 -1.956837
21400 19.65802356 17.24788314 -1.4253341400000001 -4.183971 -0.176342 -0.7575270000000001
21420 22.061571660000002 8.928336060000001 -3.42217926 -0.422747 1.872491 -1.164373
21440 15.924484710000002 7.667505810000001 -3.85029747 -0.707013 2.183276 -2.179431
21460 9.2836935 5.179081590000001 -0.95680854 -1.289756 1.190426 -1.937607
21480 0.98375661 1.7899816499999999 1.30618188 -1.646732 0.926174 -1.346899
21500 -6.203402550000001 -0.03742515 4.32674955 -0.209608 -0.907717 -0.32504
21520 -10.422977849999999 -1.7591390100000002 7.0602177600000005 1.686359 -1.4938129999999998 0.742221
21540 -14.191087140000002 -2.9014154100000003 10.17913068 1.959995 -1.5257 1.551749
21560 -15.11376669 1.0777560300000004 11.00362194 1.3440219999999998 -3.242804 2.054916
21580 -5.14555101 6.41655423 -1.48146696 0.970611 -4.635747 2.800779
21600 10.794207870000001 6.94211517 -14.25635307 2.125214 -3.69039 2.751017
21620 27.97038972 7.68068064 -15.330371490000001 1.832998 -1.950727 3.519071
21640 13.95338103 -5.8101687 10.25382402 1.470341 -0.5519689999999999 2.756308
21660 2.36687832 7.5676596300000005 15.263908740000002 4.281238 -3.965093 0.850039
21680 10.452908160000002 19.307296440000002 -1.8631740600000002 2.802808 -2.341789 2.173978
21700 -5.64191739 3.3855094800000005 -8.67850479 2.246781 -1.0670309999999998 3.01556
21720 -0.9217868400000001 4.50533079 10.64645946 0.371353 -2.970805 2.010385
21740 7.05811842 15.772998690000001 1.2867286500000001 -0.764379 -3.291405 0.853456
21760 9.969118199999999 19.409085 3.9833701200000005 -1.371823 -2.974955 0.299741
21780 15.483652740000002 19.62074556 4.43497347 -1.101943 -1.266683 -0.358587
21800 32.514038369999994 17.067957930000002 -0.64964763 -1.205999 1.947112 -1.297058
21820 28.933486470000002 8.04950721 -7.617661200000001 -1.90609 4.656352 -2.348005
21840 17.407599750000003 9.28744092 -7.57873512 -0.986701 4.0656690000000015 -1.6838689999999998
21860 10.84704453 8.825497830000002 5.40391698 0.275565 2.526055 -1.10799
21880 1.16232804 9.350460360000001 -3.09241611 2.262339 -0.119111 -0.944376
21900 -3.16861038 -1.22550444 -5.331460320000001 2.413332 1.843504 0.426829
21920 4.35968172 -8.068675950000001 -5.36634468 0.093915 2.69696 0.79623
21940 5.5556973 -6.384524580000001 -5.935305060000001 0.8643370000000001 -0.508306 0.890108
21960 3.5711244900000003 -3.4934391 -3.54761973 2.699999 -0.132499 0.423885
21980 2.5614694800000004 -2.1424941900000003 -3.74640957 -2.041932 7.032100999999999 0.117731
22000 2.64964176 -1.94580369 -2.91129408 0.16151500000000002 2.550514 -2.06274
22020 5.184918540000001 1.5178424400000001 -6.67087848 0.032499 3.655507 -3.356538
22040 5.61362535 3.75255063 4.370757210000001 -0.8471 3.839126 -4.023078
22060 13.344297749999999 8.27553942 3.4389445500000004 -1.244919 1.157622 -1.499281
22080 20.12983551 20.502860760000004 0.21465261000000002 -0.917578 2.623135 -1.174133
22100 30.80235033 48.41741196000002 -6.17540481 -2.902355 1.700046 -2.508204
22120 13.51809171 27.935054100000002 -3.7919181600000003 -5.275754 -3.108527 -1.006018
22140 16.290476190000003 13.64112873 0.40700709 -1.943212 1.500139 -1.035648
22160 19.1400948 8.864561250000001 -1.7396857800000003 0.619009 2.2807470000000003 -1.33174
22180 15.44233302 7.703430030000001 -0.9455859000000001 -1.188381 1.533639 -2.074071
22200 6.4256873400000005 4.831650629999999 -0.023799060000000004 -1.114086 1.165195 -1.641518
22220 -2.89543131 3.3751795500000004 2.0657015100000002 -0.22135900000000006 -0.636509 -1.003791
22240 -10.42896195 -1.7088431400000001 5.78861613 1.199973 -1.746771 0.22106
22260 -13.51869012 -4.47045624 9.48203208 1.877435 -2.275691 1.366263
22280 -14.19063588 -2.7559233 12.954958470000003 1.201408 -3.738329 1.95521
22300 -11.02337928 3.2340234600000004 1.21427199 0.706489 -6.231522 2.761455
22320 2.59829622 6.02871588 -10.25652177 1.557166 -3.56034 3.221173
22340 25.962165000000002 8.466098670000001 -20.38461102 1.382223 -1.405464 3.948922
22360 20.7190143 -0.22168638000000002 3.44523276 3.386621 0.096336 1.4752459999999998
22380 1.15290063 -4.02498414 15.498024390000001 4.745867 -3.261834 1.201692
22400 0.27078543 10.356662250000001 6.47328546 2.590449 -1.827787 2.22311
22420 7.63442649 18.3100707 21.486166110000003 2.180391 -1.0721040000000002 3.541736
22440 -5.413491540000001 5.8107671100000005 0.6976970100000001 0.075257 -3.1090560000000003 2.474239
22460 0.5762982600000002 8.19470502 11.21542965 -1.758965 -3.8141 1.093938
22480 7.153177320000001 16.48956033 3.5500133700000003 -2.256444 -3.210761 0.096243
22500 14.63191911 22.541329710000003 4.64978304 -1.976528 -1.693008 -0.611977
22520 23.82849981 18.53925192 6.12870921 -2.143677 1.45191 -1.58712
22540 35.070122160000004 7.55089434 0.77539221 -2.602854 3.972553 -2.303925
22560 19.673886330000002 7.42231467 -18.998046000000002 -1.033033 3.814073000000001 -1.596276
22580 18.12116934 10.647361980000001 -6.765034860000001 0.735189 2.461785 -0.885712
22600 10.61996265 4.11838515 15.267646350000001 1.653528 0.7803 -1.560804
22620 -6.048620370000001 7.984692540000001 -10.03752333 2.576701 1.645711 0.198555
22640 -1.28208852 -0.8559225 -4.988228040000001 0.383977 2.7807150000000003 0.91138
22660 6.13005318 -7.9396352100000005 -5.051394629999999 1.154282 -0.553988 1.14002
22680 5.5362342600000005 -5.79010725 -4.9353913799999996 1.713314 0.337936 0.850089
22700 3.2380651800000004 -4.43183427 -2.2659922800000003 -1.6865599999999998 5.534532 0.023856
22720 2.5683561 -4.277356200000001 -5.07654747 0.051855999999999985 2.830035 -2.07241
22740 3.9417561 -2.17961523 -6.292908990000001 0.131192 3.632303 -3.500029
22760 7.745789610000001 1.336122 2.07827793 -0.740364 4.4994760000000005 -4.085136
22780 11.89890216 5.72603814 3.8112242400000005 -1.898484 0.941279 -2.772616
22800 15.18173037 14.09529249 1.30933089 -1.600893 0.910176 -1.115822
22820 26.68485789 39.67633899 -2.5265949300000003 -4.1031330000000015 -0.5296390000000001 -2.250952
22840 17.18830701 41.20541388 -5.61556773 -4.219189 -0.6809390000000001 -0.546686
22860 13.125603420000001 20.430266760000002 0.32437746000000006 -0.559113 1.526409 -1.079424
22880 21.602032020000003 7.99262883 -1.96271613 -0.348295 2.179391 -1.519964
22900 21.29367429 5.21694819 -3.3991355700000003 -1.7439919999999998 0.8528209999999999 -2.098444
22920 12.481498440000001 4.58796042 -3.2073795000000005 -1.490474 0.447668 -1.698775
22940 0.6391705499999999 2.8747714500000003 0.23650929 -0.8361350000000001 -1.044986 -0.884716
22960 -6.709196340000001 -0.60234381 4.5274817700000005 1.431818 -2.055815 0.314943
22980 -11.12217579 -3.0882272399999997 8.97623829 2.737445 -1.519348 1.154452
23000 -14.96752902 -4.45144446 14.468013630000002 1.4282700000000002 -3.040696 1.7892580000000002
23020 -15.16780998 1.95044382 7.58502333 0.491538 -7.048825 3.006692
23040 -5.5160256599999995 6.22914399 -5.401817639999999 0.202268 -3.1958 3.808378
23060 13.154797980000001 8.219259450000001 -14.735355750000002 1.0553629999999998 -1.639052 4.038805
23080 29.51412075 7.76375172 -9.16648362 4.054561 -0.972965 1.104199
23100 11.86417476 -4.38453045 7.509584429999999 5.479735 -1.970638 1.344032
23120 -2.35789236 3.14136801 13.94769123 2.359977 -3.203645 2.037393
23140 6.6487275 23.010296760000003 -11.866725359999998 2.036078 -2.048604 3.577231
23160 0.60923043 4.72163148 10.045606770000001 0.308162 -3.448989 2.300045
23180 0.77284161 4.69783242 -2.42735697 -1.16256 -4.241403 1.1413799999999998
23200 7.9258717800000005 16.04603061 2.8120561200000003 -1.717157 -3.763576 0.145584
23220 10.19993769 19.872224910000003 2.9316498300000005 -1.480316 -2.1846 -0.65061
23240 15.34010301 19.684814669999998 5.294937689999999 -1.355507 1.058817 -1.204029
23260 31.021790220000003 16.437165120000003 2.54350737 -1.664504 4.579976 -1.573895
23280 25.58194902 9.67498497 -9.894876120000001 -1.130078 5.212524 -0.916152
23300 18.791319870000002 9.69802866 -4.26673197 0.208587 3.399486 -0.760269
23320 13.77525105 8.361759509999999 4.21463106 2.171284 0.314499 -1.142121
23340 1.74162816 7.8083577900000005 -5.86959768 2.551012 1.909588 -0.233524
23360 -2.6110197900000003 0.88795215 -4.534074090000001 -0.282864 2.28751 0.420245
23380 5.58788391 -6.05385891 -2.7559233 -0.303983 -0.587294 0.344733
23400 4.00762044 -7.51796217 -10.6052967 3.173682 1.304861 0.20423
23420 2.37840507 -3.7842761700000005 -2.41987194 -1.624601 6.284081 -0.194589
23440 2.01406167 -3.31425945 -2.11195566 -1.853431 4.1235870000000014 -1.29796
23460 3.0852351899999997 -3.05813997 -3.54448053 -0.034282 2.440977 -3.004003
23480 7.08760728 -0.9542677500000001 -1.3477959000000002 -0.963494 3.695985 -4.621912
23500 11.75206608 4.510422180000001 0.37841094 -2.0830580000000003 0.90511 -2.093402
23520 12.374314380000001 8.9455428 0.85741362 -1.902934 1.365453 -0.157115
23540 22.100340780000003 28.943061030000003 -2.47076622 -3.055549 1.942986 -2.123957
23560 24.31633149 48.09603636000001 -0.24818319 -4.172497 -1.550804 -0.171368
23580 12.008332710000001 29.275669080000004 -4.56610374 -1.579302 1.376951 -1.1803629999999998
23600 20.11083354 12.20112864 -0.91758816 -0.13816099999999998 2.597175 -2.282811
23620 22.04615034 6.471490230000001 -3.1963040100000004 -1.060151 1.195133 -1.981943
23640 13.10450211 4.67043309 -1.83038904 -1.051496 1.465766 -1.736538
23660 4.5952983000000005 3.59492355 0.65713266 -0.055672 -0.278289 -0.952886
23680 -3.9312790200000003 -0.47660904000000004 3.67141212 1.305666 -1.472383 0.242811
23700 -11.267667900000001 -2.4830385300000004 7.48952298 1.830262 -1.90566 1.312048
23720 -14.92725897 -4.581819360000001 13.12859547 0.850917 -3.934952 1.879306
23740 -16.02926532 -2.1963805200000004 14.934891150000002 0.4818560000000001 -6.445479 2.915052
23760 -10.578799889999999 4.60278333 0.30462012 0.951232 -3.356593 3.410028
23780 6.259388220000001 6.3896159699999995 -14.899565340000002 0.5827899999999999 -1.864087 4.513287999999998
23800 32.62046706 7.40794302 -22.162761810000003 3.020912 -1.386827 1.600642
23820 18.89191161 -4.66310502 11.45208609 6.343161 -1.6658830000000002 1.107186
23840 -2.7795654000000005 -3.8829255300000005 16.28763129 3.488664 -1.863782 2.453757
23860 -0.80113365 26.70087762 -60.670190250000005 2.056899 -2.1661740000000003 2.858614
23880 5.38146189 14.35649355 24.27127416 0.876185 -2.749356 2.669516
23900 -1.97619507 3.7492544700000003 6.13469331 -0.850842 -3.775587 1.330968
23920 2.73915801 5.85492192 2.56746339 -1.676189 -4.146142 0.143156
23940 10.853479890000003 18.19945314 2.4577385400000002 -1.652409 -2.351821 -0.508456
23960 16.157246580000002 22.909106610000002 4.53811581 -1.842673 0.750104 -1.3683379999999998
23980 24.478598700000003 18.74222082 4.64588847 -1.965416 3.537167 -2.135477
24000 31.158600480000004 8.13378492 -3.3977817900000002 -1.414712 4.336372 -1.610294
24020 18.11368431 9.32650434 -17.92627407 -0.123624 3.42552 -1.121545
24040 16.77816072 8.31999834 0.63558009 1.193358 1.007478 -1.497012
24060 5.37082785 8.52297705 7.3989668700000015 3.155376 0.278049 -0.074456
24080 -12.32671626 7.00138719 -8.655147180000002 0.215393 3.4238180000000003 0.606004
24100 2.8598013900000003 -4.41865944 -3.96989118 -0.6899029999999999 0.914022 0.593282
24120 6.48466506 -7.47859464 -6.58989693 1.615249 -4.197813 0.088233
24140 4.88254491 -4.2171816600000005 -2.7387067500000004 2.458588 3.366039 -1.006224
24160 3.96854721 -5.22593415 -4.65547284 -2.584772 5.9714800000000015 -0.042798
24180 3.8218484700000004 -4.08305934 -4.66310502 0.514426 2.61783 -2.419284
24200 6.0614910900000005 -0.9879454800000002 -4.4638639200000005 -0.185477 3.605883 -3.810923
24220 9.477843210000001 2.05088841 5.08222746 -1.895362 3.366078 -3.897335
24240 11.963569680000003 6.85065654 1.83847248 -1.656724 -0.997491 -0.329692
24260 17.99317827 20.075949180000002 0.47091924000000007 -2.157341 5.903211 -1.454051
24280 29.348567190000004 46.2738681 0.05883057 -3.467645 -0.405815 -1.800155
24300 13.61373921 36.19787976 -3.1750457400000003 -3.621952 -0.5972689999999999 -0.410162
24320 14.06939409 22.49132814 1.40617521 -0.978763 2.464925 -1.250201
24340 22.16770605 8.1152244 -2.39277672 -0.649608 1.42237 -2.420542
24360 20.555255969999997 5.759274420000001 -1.88472663 -1.010149 0.8755799999999999 -2.032458
24380 9.50807763 4.258050120000001 -2.6446975200000002 -0.652464 0.7125779999999999 -1.540506
24400 1.07491113 3.3916505400000005 0.6303415499999999 0.115837 -0.939795 -0.84295
24420 -7.058873790000001 -2.39098149 5.25991599 1.064271 -1.756877 0.7339399999999999
24440 -11.91956202 -4.655315880000001 9.0901422 1.458643 -2.508901 1.973591
24460 -16.48387053 -5.43070809 11.703565440000002 0.777622 -5.184463 2.46044
24480 -14.78610288 0.5373819900000001 7.804924290000001 0.626918 -5.99944 3.133411
24500 -3.45915315 4.3604370900000005 -3.14091675 1.304058 -2.962671 3.162024
24520 14.85854973 8.62806177 -17.458798140000003 1.371735 0.089876 3.502552
24540 30.38845662 10.594819619999999 -6.824758139999999 4.372871 -1.674622 1.27076
24560 10.98999585 -6.62536989 6.74018613 3.876739 -3.171032 2.156904
24580 -4.99331943 -4.830905070000001 14.677574850000001 2.650408 -1.6609009999999995 3.059733
24600 0.9351088200000001 14.59615185 -11.724813900000001 1.504452 -1.964608 3.013662
24620 5.51138553 20.547466829999998 23.298004440000003 -0.182667 -3.310687 1.972768
24640 -7.30361367 6.0649344 -3.99834018 -1.347332 -3.81156 0.901325
24660 0.32497587 7.31095155 13.802650380000001 -1.610832 -3.044283 -0.004146
24680 6.8493027600000005 14.90719752 3.6724617900000003 -1.5839219999999998 -0.411328 -0.990096
24700 16.08704622 24.59146275 5.47306767 -1.927819 2.989053 -2.02769
24720 26.24072976 18.99115938 5.28910074 -1.847796 4.449129 -1.992682
24740 34.46702298 7.7047740000000005 -0.18621342 -0.226156 3.616649 -1.143871
24760 21.37554855 7.80222654 -19.97521029 0.474483 2.588279 -1.389759
24780 17.84319318 8.11283076 -2.83121505 2.564266 -0.06414700000000001 -1.364285
24800 7.67244024 6.032306340000001 4.89302199 1.108278 2.898723 0.343721
24820 -8.40188241 9.83470158 -7.76764629 0.045853 1.467079 1.241851
24840 1.58041062 -2.7789669900000002 -4.14877653 0.064618 -1.066183 0.7025710000000001
24860 10.109077470000003 -7.84084851 -3.17489859 2.003087 1.42449 0.6060979999999999
24880 5.22667971 -6.193072620000001 -3.01293549 -2.097392 7.019467999999999 -0.137945
24900 2.092051170000001 -6.37524432 -4.12646859 -0.058828 3.456328 -2.220332
24920 2.2758709500000003 -4.4304903 -3.9914535600000005 -0.110615 4.474528 -3.454727
24940 4.38648264 -0.53288901 -5.267999430000001 -0.973651 2.234661 -3.341449
24960 8.68299777 3.00186 1.5497249400000002 -1.928302 -3.743467 -1.766966
24980 11.513604599999999 6.180349050000001 2.60892045 -2.347313 5.336611 -1.055137
25000 17.08292799 15.74575632 2.84932431 -3.205709 3.412804 -1.6622130000000002
25020 31.520550240000002 46.652288850000005 -5.23955043 -2.5386900000000003 -0.781806 0.043089
25040 14.65916148 33.50243511 -4.581819360000001 -0.84503 2.007936 -0.8374159999999999
25060 15.88361625 18.10545372 0.6319896300000001 -0.684527 1.550069 -2.356856
25080 21.81833271 10.76171715 -3.2579794800000004 -1.124462 0.995731 -1.877451
25100 17.51852142 8.80005069 -2.37151845 -1.134636 1.071757 -1.434307
25120 9.06590169 5.056338870000001 -1.9811295 0.190144 -0.8204950000000001 -0.638554
25140 -0.86565402 1.70211348 1.38895866 1.413084 -1.703078 0.5643239999999999
25160 -8.98805934 -3.38565663 5.43115935 1.803291 -1.955591 1.567228
25180 -13.62227391 -4.79063502 10.73162988 0.900816 -4.682915 2.136987
25200 -15.77089935 -2.7436411800000005 12.90062088 0.31813800000000003 -7.08363 3.335606
25220 -14.012211600000002 3.30048621 3.60854964 0.343489 -2.914884 3.765208
25240 -1.7148370499999999 5.557041270000001 -5.8405502700000005 0.978888 -0.817919 3.355693
25260 16.445248560000003 8.17839099 -19.50907833 4.362729 -1.918365 0.430311
25280 27.04051944 4.133649510000001 -1.24151436 5.408855 -2.624276 1.029249
25300 10.40920461 -6.9957072 11.26961028 2.00796 -2.651087 1.6240290000000002
25320 -3.1557396600000005 -0.41688576 10.21595742 2.566408 -1.457703 3.199891
25340 14.894473950000002 31.33658331 -37.039273650000005 0.293789 -3.61194 1.7713830000000002
25360 2.1764760300000003 13.7289969 9.07458354 -1.16082 -3.870846 0.647399
25380 -6.710991570000001 4.90126239 -10.07884305 -1.505035 -3.259879 -0.259504
25400 2.87567397 11.980187820000001 5.80493016 -1.269279 -0.659496 -0.740821
25420 9.91807677 20.75284899 4.11868926 -1.323578 2.877278 -1.506307
25440 17.87672376 21.4827228 4.941973889999999 -1.62825 4.668956 -1.479752
25460 29.928612870000002 14.12282916 7.26454044 -0.72021 4.6035260000000005 -1.089834
25480 29.07089514 5.5859317200000005 -3.9661535700000004 0.16031700000000002 2.97385 -1.368947
25500 17.31958443 10.92472992 -18.70150932 1.961445 -0.4270640000000001 -1.725886
25520 12.79748835 7.1494298999999994 5.14375578 2.388405 2.194218 0.388817
25540 0.8571193200000001 9.043289640000001 -0.97791966 0.355843 3.124116 1.106228
25560 -5.75088687 2.23485534 -5.6077884 1.445376 -1.574445 0.868828
25580 6.74138295 -6.40353636 -4.1671800900000004 1.125919 0.31174 0.7178329999999999
25600 6.42554019 -6.82894701 -5.689074060000001 -1.752142 6.242844 0.370731
25620 3.7018035000000005 -3.55675284 -2.90500587 0.345429 2.981523 -2.913381
25640 3.13837596 -3.65524524 -3.4356581999999998 0.039586 3.370684 -3.796231
25660 2.65053447 -3.96885132 -5.316048810000001 -1.484691 2.8642220000000003 -3.42701
25680 7.2371509199999995 0.08607293999999999 -0.30761217 -1.755972 -0.7484890000000001 -1.505749
25700 12.452755139999999 5.44747338 1.9881632700000003 -1.895079 3.309174 -1.392279
25720 13.937812560000001 10.097697870000001 1.27998918 -3.995395 0.226248 -1.963816
25740 20.859719130000002 31.194083250000002 -4.22811 -3.316275 -0.07466 0.233305
25760 22.877979480000004 48.06535068 -0.5043026700000002 -0.692925 2.715312 -0.977197
25780 9.517956300000002 28.876598280000003 -3.9034284300000004 -0.817427 1.853219 -2.394492
25800 19.20865689 12.526555770000002 -1.3058875799999998 -1.405248 1.357056 -1.949309
25820 22.84833366 5.8187034 -1.9227501900000001 -1.198037 1.20504 -1.676339
25840 15.249684240000002 4.64244516 -3.1353839100000003 0.05107 -0.794994 -0.767744
25860 4.74408657 4.569998310000001 -1.54314243 1.764947 -1.705766 0.13308699999999998
25880 -4.5514377900000005 -1.2810388499999998 4.31148519 2.153962 -1.257282 1.391458
25900 -10.584342540000002 -3.79161405 8.9073819 0.935545 -4.1225190000000005 2.091646
25920 -14.631771960000002 -5.1452469 13.926589920000001 0.215097 -6.508245 2.85879
25940 -15.75503658 -0.53498835 10.77219423 0.813026 -3.78209 3.110506
25960 -8.656049700000002 5.05289556 -1.7899816499999999 1.002787 -1.7211599999999998 3.306811
25980 5.15528253 5.316048810000001 -11.49205203 2.461462 -0.186961 1.461669
26000 26.88199965 7.81255647 -21.06838764 5.120787 -2.574695 0.602021
26020 18.87724566 1.3686029100000001 3.6437184900000004 3.183799 -1.72053 2.059406
26040 2.22945984 -2.8580061600000004 14.93384148 2.135732 -1.522742 3.054893
26060 2.94063579 16.60242438 -13.361965560000002 0.6701630000000001 -2.473207 2.255389
26080 3.0514005 8.49903084 15.46478811 -0.723151 -3.06271 1.168576
26100 -5.91645024 1.63220742 -4.19666895 -1.483525 -3.12059 0.319444
26120 3.0861279000000006 11.85953463 7.46782326 -1.365913 -1.99698 -0.516524
26140 9.52694226 21.5695413 0.16091343000000002 -1.210313 0.391247 -1.419008
26160 14.42939166 21.87999837 3.9243924000000003 -1.755716 3.231614 -2.096233
26180 22.45076379 14.881456080000001 6.00731046 -1.758632 4.35091 -1.750515
26200 33.00755985 9.36902088 -2.20027509 -0.252527 3.046517 -1.068549
26220 20.46064833 8.30937411 -12.401409600000001 1.158492 1.385621 -1.1932969999999998
26240 15.2672049 9.63546048 1.89864702 3.4973400000000003 0.543782 0.307879
26260 4.314928500000001 8.01852723 0.05747679000000001 0.622264 2.968968 0.7803439999999999
26280 -6.61563837 7.59475485 -5.31215424 0.649331 -1.050968 1.185199
26300 4.32674955 -3.58968501 -4.95649269 2.438568 -2.233449 0.706762
26320 7.6899609 -6.392902320000001 -6.618041820000001 -0.793662 4.641607 0.104945
26340 5.66811009 -4.49126325 -4.490664840000002 -0.867642 3.168756 -1.533406
26360 3.6482114700000006 -4.020942420000001 -4.5321219 0.400006 3.090547 -3.317995
26380 2.5445570400000004 -2.9270097000000006 -3.36455532 -0.41631 3.787664 -3.78179
26400 3.79371339 -3.8622656699999998 -5.80043718 -1.543646 1.178384 -2.43502
26420 7.892341200000001 1.29436083 1.2754962 -1.640628 -2.261527 -0.189091
26440 10.3565151 5.839206300000001 3.6646824600000003 -2.528058 4.123275 -1.7000509999999998
26460 14.694340140000001 12.56936661 2.3114910600000007 -3.101847 0.003503 -1.11553
26480 25.17225399 35.490451230000005 -2.66521023 -1.900872 1.104375 -0.403526
26500 18.3126213 39.87258803999999 -2.28724074 -0.520134 1.978444 -1.468564
26520 12.36728061 21.56969826 -0.47510811000000003 -1.306941 0.983487 -2.120128
26540 21.436174349999998 11.956535910000001 -2.80022526 -1.336748 1.139726 -1.739181
26560 20.37518361 9.44431263 -3.6203706900000006 -0.78372 -0.244424 -1.064837
26580 11.73664476 6.81293709 -1.43132805 0.610935 -1.867062 -0.354399
26600 2.799774 3.8154131100000006 0.38859372000000003 2.076441 -1.764692 1.277267
26620 -5.328321120000001 -0.18590931 2.5456067100000004 1.512657 -2.657032 1.675056
26640 -10.161168570000001 -2.8261236600000004 5.913752489999999 0.390711 -5.884737 2.626346
26660 -13.889321729999999 -4.73210856 10.536734609999998 0.768568 -5.641642 3.310199
26680 -14.00427531 -0.27932013 12.07074393 1.220775 -2.608283 3.055234
26700 -8.48136303 3.41530245 -0.6483036600000001 1.503184 1.010649 2.231106
26720 7.335192060000001 6.31566819 -14.25859956 4.881781 -2.763586 0.893287
26740 30.72481209 7.57934334 -17.78196897 3.825642 -2.649067 1.940098
26760 16.597931400000004 -2.03441742 5.71706199 2.261544 -1.51498 2.603904
26780 -1.63310013 -1.327293 15.964303500000002 1.482682 -1.53649 3.063167
26800 6.56235045 23.431224240000002 -32.166313110000004 -0.4526060000000001 -3.275077 1.294652
26820 1.4462883000000002 8.16207696 12.829969259999999 -1.639298 -3.849699 0.303267
26840 -4.42958778 4.62478716 -1.44869175 -1.711815 -2.983342 -0.503789
26860 2.7946924200000005 13.17305439 7.3787582700000005 -1.753728 -0.780011 -1.084813
26880 8.2658079 19.772829989999998 3.6312990300000005 -1.90648 2.268994 -1.79695
26900 14.41846332 20.76617097 3.6976146300000003 -1.814114 4.1325330000000005 -1.969609
26920 23.622381900000004 16.87081617 4.95559017 -0.5104 4.104968 -1.269327
26940 33.105757950000005 7.7588172900000005 -2.45280411 0.6728350000000001 2.931167 -1.262763
26960 21.050425530000002 7.90610463 -14.586861780000001 3.306204 0.072154 -0.130822
26980 15.333216390000002 7.663915350000001 0.58318488 1.479019 2.70089 0.743943
27000 5.9857480800000005 5.84429769 -0.18995103 0.036432 0.509514 0.954592
27020 -4.54125501 6.220167840000001 -6.451880040000001 2.09201 -3.773803 1.263927
27040 5.41528677 -4.76114616 -2.25146367 0.767023 2.795112 0.4429520000000001
27060 6.245458020000001 -7.10347986 -8.44139709 -1.828118 4.646531 -0.229163
27080 4.01061249 -3.2028865200000003 -3.1193641800000007 0.480847 3.079766 -2.5579110000000003
27100 3.5311585500000002 -4.16673864 -3.67470828 0.050839 4.358742 -3.4107220000000003
27120 1.4123162700000003 -3.74341752 -3.76781499 -0.776758 3.722324 -3.646423
27140 4.65217668 -0.75158334 -6.397101 -1.055852 -0.269228 -1.551679
27160 8.37792639 1.45003572 2.56566816 -0.720785 1.846666 -1.1076700000000002
27180 11.494896930000001 6.28737615 2.99856384 -2.712529 1.489454 -2.223529
27200 18.7088472 18.86212845 3.6411777 -4.256249 -1.987063 -0.490792
27220 26.93619009 41.935297500000004 -6.066886590000001 -1.6999939999999998 1.4280700000000002 -1.3383
27240 13.24086111 35.96974821 -4.54409991 -0.925027 1.639628 -2.167439
27260 13.31645697 20.09496096 0.58753071 -1.844618 0.805124 -2.071312
27280 22.710473730000004 5.72514543 -1.34420544 -1.980322 0.8012729999999999 -1.790244
27300 20.252735190000003 5.39478387 -3.89400102 -0.81183 -0.549056 -1.049688
27320 9.9602892 3.2145604200000006 -1.92365271 1.356735 -1.823771 0.160297
27340 0.64964763 2.2697298900000002 0.92582856 2.122012 -1.4925540000000002 1.380854
27360 -6.715033290000001 -0.69231132 4.01674374 1.129351 -3.985698 2.073596
27380 -11.297303910000002 -1.96137216 8.08738362 0.720978 -7.021874 3.260361
27400 -14.950008360000002 -3.8981898900000003 11.03924205 0.803688 -2.775148 3.586645
27420 -13.814471430000001 1.45811916 9.644446440000001 0.838988 -1.22041 3.697063
27440 -5.31768708 5.70733047 -3.06727308 3.176388 -1.95197 1.336465
27460 12.97007568 9.04165137 -19.39965759 5.124786 -2.353198 0.8848440000000001
27480 32.90098401 6.782692860000001 -8.48105892 2.864744 -3.154464 1.82187
27500 12.027785940000001 -6.62432022 13.244902830000001 2.25962 -1.702257 3.08483
27520 -3.2358186900000003 1.3469031900000001 13.085784630000001 0.671475 -2.804869 2.344486
27540 7.447310550000001 25.025712210000002 -24.12054351 -0.99765 -3.639 1.134283
27560 0.42616602000000003 8.59961277 8.01463266 -1.739952 -3.574034 0.184706
27580 -3.17370177 4.39216263 -3.54462768 -1.470228 -2.263667 -0.600232
27600 4.71953214 14.08705209 5.46828039 -1.351568 0.862334 -1.08945
27620 9.66570471 20.54358207 0.6179122800000001 -2.093224 4.473393 -1.720963
27640 14.81155002 19.11285243 2.3088031200000003 -1.784804 5.343159 -1.5810540000000002
27660 24.103474110000004 15.92118855 6.50472651 -0.281645 3.362301 -1.158887
27680 36.15566733 8.84764881 -2.8436345100000002 1.454085 0.7365970000000001 -1.381612
27700 22.223240460000003 6.771166110000001 -18.81647271 3.292385 0.387256 -0.064025
27720 17.884355940000003 4.67253243 3.69776178 0.480872 3.22444 0.685025
27740 4.63256649 4.6997748 2.7222357600000002 0.5409970000000001 -0.02237 1.393564
27760 -9.06035904 7.55553447 -5.62185594 2.061666 -2.437907 1.280163
27780 3.4995703500000004 -5.279820480000001 -4.466561670000001 0.6132810000000001 3.904594 -0.088314
27800 7.746240870000001 -6.86606805 -5.22084276 -0.460685 2.556111 -1.05976
27820 3.7820394900000003 -4.53017952 -4.4559374400000005 -0.101176 4.723685 -3.1676290000000003
27840 2.22557508 -3.72096243 -3.5295104700000004 -0.48666 4.9089019999999985 -3.862766
27860 2.28604392 -1.6807080600000002 -4.54589514 -1.278045 0.93126 -2.669993
27880 5.3182953 -0.37587015 -4.309091550000001 -1.365598 -4.694585 -0.4350850000000001
27900 11.351945610000001 2.63586852 3.0689211600000004 -2.76805 5.026638 -1.7605689999999998
27920 10.71636552 7.0642594800000005 0.621954 -3.3471050000000004 -0.532183 -1.206288
27940 16.125815340000003 19.344721590000002 -1.4233917600000001 -2.048211 0.394244 -0.378007
27960 27.326569230000004 43.04104146000001 2.45744424 -0.5574819999999999 2.163074 -1.520336
27980 14.76304938 36.05926446 -2.66385645 -0.898259 1.446517 -2.382785
28000 15.17424534 21.388419270000004 -0.6108785100000002 -1.489225 0.8635209999999999 -1.798644
28020 22.66960527 6.15700125 -1.5955278300000002 -1.166451 0.150571 -1.21009
28040 19.006570890000003 5.99368437 -2.49246594 0.7539710000000001 -1.7253189999999998 -0.227531
28060 8.469836279999999 4.43393361 -0.89558433 1.972718 -1.696746 1.158951
28080 0.004492980000000001 2.37780666 1.67501826 1.402332 -2.873373 1.793135
28100 -7.3726172100000005 -2.5771949100000002 4.62762225 0.656509 -6.326692 2.628768
28120 -12.62504817 -3.88008063 8.803042740000002 1.135062 -4.444986 3.437276
28140 -15.3426438 -5.29089597 14.73326622 0.999553 -1.870562 3.641334
28160 -14.16219669 2.35520442 7.76375172 1.912466 -1.226746 2.221877
28180 -1.83518613 5.639818050000001 -6.23049777 4.713231 -3.117578 0.055077
28200 14.929358310000001 9.24762213 -18.373090140000002 4.273755 -2.699521 1.648463
28220 28.018439100000002 9.772133400000001 -7.453451610000001 2.303517 -1.677978 2.83621
28240 10.751397030000001 -6.364914389999999 8.175997350000001 1.3943709999999998 -2.449166 2.807347
28260 -3.8959532100000005 -1.2886710300000002 14.68521684 -0.6352300000000001 -3.840968 1.243895
28280 8.655902549999999 25.273738440000002 -33.97964256 -1.872224 -3.910735 0.317741
28300 2.9017195200000003 10.012674599999999 10.84570056 -1.728808 -2.863321 -0.400444
28320 -4.08934755 2.6059284 -7.63861536 -1.408353 0.24620100000000006 -0.939506
28340 4.4996409900000005 12.85436673 6.35533002 -1.976689 4.113853 -1.420586
28360 10.10398608 21.01599243 3.03029919 -2.1471560000000003 5.922903 -1.325819
28380 16.21323225 21.057165 3.4578091800000004 -0.5904739999999999 3.976922 -1.146877
28400 26.90325792 14.89927104 5.126843340000001 0.28772 1.859125 -1.633684
28420 31.813790760000003 6.95632986 -3.8910089700000006 3.1808080000000003 -1.056936 -1.377935
28440 19.19158749 10.039024260000001 -17.775837720000002 1.143852 2.1820150000000003 0.257294
28460 14.856008940000002 7.34432517 2.55742776 1.0845049999999998 0.929452 1.056446
28480 3.1263979500000003 5.76286488 0.37257399 4.0588190000000015 -2.020279 2.201567
28500 -7.04091168 4.574785590000001 -4.76803278 0.17116900000000002 2.337947 1.5310979999999998
28520 6.27135642 -6.19396533 -3.4031772900000004 -1.338608 3.608169 -0.98926
28540 6.70934349 -6.8931632700000005 -7.678287 0.815283 2.5952330000000003 -3.155295
28560 3.96780165 -4.188889620000001 -2.8151953200000004 -0.498161 3.280213 -3.882124
28580 2.3782579200000002 -4.287686129999999 -3.01623165 -1.973781 2.934589 -3.018183
28600 2.0887550100000003 -3.0696667200000003 -5.21366184 -1.7677040000000002 -1.23384 -0.801251
28620 5.97318147 1.1404811700000002 -3.0868832700000004 -2.301786 3.212666 -1.6802119999999998
28640 10.64481138 3.28132728 4.540656600000001 -4.286134 -0.297038 -1.653256
28660 12.091707900000001 8.60036814 -0.05328792 -3.0853040000000003 0.346958 -0.174751
28680 19.248622830000002 25.41130407 -4.03381314 -0.65786 2.263185 -1.161175
28700 26.89846083 47.15434503 -1.11144357 -1.045865 1.886793 -2.334174
28720 11.87076708 30.219312600000002 -2.3742162 -1.074909 0.705378 -2.036966
28740 18.585201960000003 16.330442129999998 0.10238697000000001 -0.999186 1.111456 -1.622487
28760 23.77176858 5.6456550000000005 -3.56768118 0.559974 -1.229435 -0.724109
28780 16.9130286 4.70981043 -2.60338761 1.612471 -1.939313 0.593793
28800 5.81690817 4.107456810000001 -0.28546119000000003 1.4273870000000002 -2.595234 1.479965
28820 -2.85666219 0.7460505000000001 2.6411070600000004 0.6830069999999999 -5.38224 2.185499
28840 -9.262592190000001 -1.79850654 6.59214342 0.5620069999999999 -6.235449 3.335154
28860 -14.180757210000001 -4.601429550000001 12.14903754 0.638573 -2.352069 3.954555000000001
28880 -15.55655085 -3.0897281700000008 15.18711606 1.006214 -0.383589 3.4076699999999995
28900 -11.63919222 3.32743428 0.81115947 4.340861 -2.125766 0.101411
28920 2.7678915 4.96996182 -9.062752680000001 4.773031 -2.632532 1.247009
28940 18.98277183 8.790917580000002 -17.39353221 2.426932 -2.137285 1.974537
28960 22.27592997 7.0742853000000006 -1.59777432 1.969946 -1.415596 2.777996
28980 8.794665 -4.940325810000001 5.01980643 0.173568 -2.954678 1.87866
29000 6.1272082800000005 12.31609203 2.8539644400000004 -1.356967 -3.634587 0.6094069999999999
29020 5.1082730100000004 12.327314670000002 10.388544750000001 -1.783105 -3.358192 -0.207909
29040 -8.24291136 -4.3623794700000005 -5.43788901 -1.56435 -1.651679 -0.648675
29060 0.5192727300000001 7.988439960000001 7.872731010000001 -1.654222 1.488404 -1.015454
