time Ax Ay Az Gx Gy Gz
20 -1.6548096600000002 23.21387388 15.398629470000001 -1.17059 2.280759 -0.051692
40 -1.73249505 31.30275843 -25.17165558 -2.244419 2.5142450000000003 0.298363
60 12.9886362 10.956014009999999 11.86701966 -0.626282 -1.058082 0.608004
80 -1.6386427800000003 11.617943760000001 -8.27015373 1.159295 -1.325642 0.436017
100 0.79020531 20.95597485 8.346946410000001 1.929094 0.98812 -0.226005
120 -7.283699370000001 25.890758010000003 -0.23172201 3.016134 1.331593 -1.280665
140 2.49306435 27.3478275 -5.51408328 2.662676 3.689731 -1.943112
160 5.623209719999999 18.18643527 -3.64835862 4.1069830000000005 5.9831330000000005 -0.765191
180 -2.59410735 10.153232280000001 -8.516090430000002 3.563515 -0.116992 0.592267
200 -7.4820379500000005 3.7351869300000002 -7.49865609 3.177869 -2.017933 -0.015809
220 -4.20176034 2.5265949300000003 -3.71048535 6.486569 -6.382333999999998 -1.824447
240 1.6078099500000003 0.67509477 2.3504171400000002 4.388972 -2.280452 -1.747147
260 2.76580197 1.77126417 2.30759649 1.54749 2.527035 1.004222
280 2.26314738 2.54905002 -6.88687506 1.551972 -1.084497 1.860254
300 -3.0744540000000002 3.6657223200000004 -3.5533095300000004 2.14913 -2.224968 1.499487
320 -8.50755573 3.16591263 -8.781038910000001 1.910038 -1.665848 0.4139229999999999
340 -6.002366220000001 1.10455695 0.11420802000000001 1.27657 -1.076053 -0.01
360 -0.80113365 14.35110786 8.31325887 -0.150517 -0.857252 0.588637
380 0.08277678 29.023748280000003 6.83523522 -2.3126330000000004 0.237033 1.334843
400 -1.45137969 29.71216503 3.4202368800000005 -3.221982 2.13852 2.1293580000000003
420 -9.373955310000001 23.21851401 4.8907755 -2.367542 2.982518 1.580905
440 -7.24867767 28.380379050000002 -5.53414473 0.543782 3.749169 0.743545
460 4.43917215 25.154586180000003 -11.87959608 2.7821290000000003 -0.702125 0.810817
480 4.92161814 23.62806189 -6.971604030000001 3.019181 -2.152288 1.218119
500 2.83899438 17.180076420000002 0.45849978 0.992386 -1.76134 0.580688
520 3.53998755 6.23617776 3.2784823800000003 -0.379824 2.2309650000000003 -1.336516
540 1.96182342 -2.7078641100000005 2.5506981000000004 2.376805 -2.107714 1.284078
560 -1.4010838200000002 -10.664568720000002 3.8992395600000003 -5.9220120000000005 3.689743 1.229363
580 -1.2202659 -13.25418309 6.1469656200000005 -0.589076 -0.475462 -2.595012
600 -1.93427694 -8.18677854 7.4733561 -5.184178 1.140042 -1.945517
620 1.53745263 -3.0505077900000006 4.78405251 -5.185834 -1.742325 -0.415346
640 2.28859452 6.45023196 -4.14473481 -4.3660760000000005 -3.92505 -0.067128
660 -3.8663073900000002 13.780342440000002 -13.094770590000001 -4.772316 -2.229435 0.626479
680 0.30565998000000005 8.11388043 -18.579963420000002 -4.370517 0.382972 0.723146
700 5.60329542 -6.590348189999999 0.22363857000000004 -1.911986 2.272697 -0.322847
720 2.31763212 -2.0540276100000003 8.16238107 -0.981322 2.267644 -0.398593
740 -1.84461354 37.04047047 12.9131973 -1.710929 2.871787 -0.065837
760 8.227794150000001 21.036357990000003 -11.524837050000002 -0.878925 0.375526 0.091656
780 3.0476628900000002 12.174337529999999 2.7175956300000004 0.976784 -2.175672 0.312986
800 -1.1231174700000002 15.241453650000002 0.29938158000000004 1.313424 1.249075 0.050303
820 0.8433460799999999 23.61309183 3.2727925800000004 2.409835 1.912733 -0.6308239999999999
840 -4.888381860000001 25.87893696 -0.9759674700000001 2.648366 1.963273 -0.955031
860 1.99430433 21.766084650000003 -0.265851 2.82886 2.155809 -1.041611
880 2.5397697600000004 18.053205660000003 -3.3205476600000003 3.840137 2.885222 -0.512053
900 -2.73301695 10.804979250000002 -9.981988920000001 4.204903 0.052722000000000005 0.4854350000000001
920 -5.93755155 6.86053521 -9.75880161 3.605908 -1.944846 0.24987
940 -3.6934159500000003 1.3573802700000002 -5.185369800000001 5.261096 -5.136472 -0.902045
960 2.31194232 0.6620769 3.8475997200000003 4.121019 -1.297288 -0.96193
980 5.1771294 1.29510639 -3.9603166200000004 1.643732 1.686068 1.302938
1000 2.27646936 3.0608377200000003 -5.555098889999999 1.308253 -2.05573 1.464554
1020 -2.94422625 2.17602477 -2.40999327 2.174101 -2.539895 0.8473809999999999
1040 -5.98306014 0.29653668000000005 -3.0012615900000004 1.866085 -1.16743 0.484548
1060 -5.77229229 1.69238196 1.02626334 1.090788 -1.050072 0.047421
1080 -1.01009646 6.02541972 3.9222930600000003 -0.479755 -1.34569 0.476937
1100 0.66851226 21.88554102 6.153253830000001 -2.342487 -0.818001 1.463105
1120 -0.00987867 27.840907530000003 4.2011619300000005 -2.7520740000000004 1.24025 2.315389
1140 -10.771595819999998 28.626168600000003 4.23963675 -1.838406 2.490678 1.575618
1160 -11.044480590000001 26.808797430000002 -1.27116018 0.489983 2.451887 0.7341489999999999
1180 0.5110421400000001 25.47896364 -8.49602898 2.43152 -0.403473 1.020562
1200 7.432644600000001 24.58323216 -11.61658998 1.087521 -0.63271 1.43662
1220 6.36925041 20.480709780000005 -2.0538804600000002 0.286432 -0.766668 1.265622
1240 4.298908770000001 10.86395697 4.22631477 -2.977378 3.611821 -0.7486119999999999
1260 -1.21831371 1.83038904 1.26247833 5.972207 -9.858706 -3.147112
1280 -4.684206330000001 -6.720271830000001 1.0383885000000002 -5.826157 7.1938369999999985 2.642005
1300 -2.15311842 -14.07358296 2.63840931 -1.38751 -1.879582 -0.818064
1320 0.40325967 -9.564661710000001 5.9579073000000005 -2.391175 -1.216559 -1.650591
1340 2.63572137 -5.33415807 5.979312719999999 -5.878409 -0.307413 -0.610029
1360 3.96809595 3.50600571 -0.69455781 -5.378971 -2.117792 0.406317
1380 -0.09879651 9.428891310000001 -10.7296875 -5.465366 1.176479 0.371582
1400 -0.8445429000000001 9.895327380000001 -15.026653890000002 -4.183114 -0.062569 0.358626
1420 -0.28006569000000003 -3.9189969000000002 -3.23177697 -2.143494 -1.667002 0.487092
1440 0.5516064900000001 -11.21707773 2.5551910799999997 -1.128371 1.695811 -0.060261
1460 0.7370645400000001 -1.29720573 18.45736785 -1.04526 2.614773 -0.305481
1480 -9.25585272 34.799032620000006 2.7625058100000004 -1.7742919999999998 4.071194 0.278287
1500 17.08577289 38.05072389 27.18197964 0.455466 -0.5049899999999999 0.948137
1520 -0.46463103000000006 8.45905509 -9.14119344 1.6980080000000002 -1.048528 0.732118
1540 -0.26704782000000005 13.381124490000003 5.642819909999999 2.729702 0.396033 -0.4386390000000001
1560 0.20372427 18.91511226 3.41619516 2.800909 1.009317 -0.953811
1580 -0.48170043 21.748426650000003 -2.87163225 3.046449 2.118602 -1.781389
1600 5.8405502700000005 24.115903380000002 5.75852886 4.339859 3.984527 -0.929782
1620 3.39478974 19.565211150000003 -1.51559595 3.872737 -0.454779 -0.183874
1640 -1.01758149 12.918887100000001 -14.115648240000002 3.063968 -3.811764 -0.206586
1660 -10.76381649 4.49215596 -9.78529842 6.8951210000000005 -3.216963 -1.489159
1680 -7.233854760000001 -0.5951628900000002 -5.37696891 3.302417 0.7746529999999999 -0.248185
1700 5.946684660000001 2.46223152 5.044056750000001 1.511537 0.032213 1.28811
1720 7.17068817 1.6121459699999998 -3.33910818 1.878195 -3.171236 1.011698
1740 4.4400648600000014 2.4755535 -5.43070809 2.138163 -2.447381 0.387676
1760 -3.4387974000000003 3.45706362 -4.3664211900000005 1.602956 -1.143994 0.180374
1780 -10.615028220000001 0.90561996 -2.63736945 1.069733 -1.080515 -0.046691
1800 -6.75709857 2.55309174 2.16674451 -0.233677 -0.896278 0.29755
1820 -2.7348121800000005 15.47092917 6.18229143 -1.4289040000000002 -0.402221 0.857931
1840 -1.3494439800000002 25.08513138 3.30423363 -2.552292 1.315866 1.614866
1860 -3.25049445 29.95465842 3.80808504 -2.586387 2.339348 1.440264
1880 -5.094951030000001 30.462100290000002 5.793099300000001 -0.8893780000000001 3.124896 0.659558
1900 -0.8255311200000001 26.62333938 -9.150924960000001 1.001342 0.93806 0.575155
1920 3.8678083200000004 22.71092499 -14.794931880000002 1.967009 -1.576324 0.88636
1940 5.39358705 21.26433258 -4.51056933 0.061517 -0.445613 0.826736
1960 5.339700720000001 12.981602429999999 2.28544551 -3.919299 4.7659720000000005 -0.579345
1980 -0.43679025000000005 3.43865025 0.36613863 6.485823 -8.674954 -2.053318
2000 -2.4532455600000005 -3.5425381500000004 1.06054929 -6.821006 4.753892 1.490912
2020 -2.87791065 -9.580975740000001 1.7667711900000003 -0.520519 -4.942519 -0.703397
2040 0.46522944000000005 -9.18579951 5.31110457 -4.134969 0.145014 -0.17862
2060 -0.9680409900000001 -7.4414736 6.4276297200000005 -6.320997 1.404505 0.832126
2080 1.2100831200000002 -4.8358395000000005 3.5097531300000004 -5.689891 0.436688 0.688224
2100 3.15738774 5.096599110000001 -3.94623927 -4.845176 0.963587 0.325981
2120 -1.59807843 7.522759260000001 -10.22568894 -3.201773 -2.159592 0.447216
2140 0.06242103000000001 3.0907680300000004 -14.26144446 -1.456261 -0.909897 0.500536
2160 0.50190903 -6.955584300000001 -4.665047400000001 -1.296994 3.18216 0.013568
2180 1.06323723 -1.7866854900000002 11.503873080000002 -1.593785 6.345293 -0.344003
2200 -7.577244 21.723725070000004 22.09914396 -2.188324 4.592126 0.101675
2220 11.46466251 51.73152426 17.74439667 0.622264 -3.615642 1.081475
2240 1.7714211300000002 15.432307200000002 -10.14904341 2.248705 -2.644421 0.282947
2260 0.9879454800000002 12.07733625 -1.00994931 2.209671 1.232958 -0.691172
2280 3.306470310000001 15.41554191 4.694683410000001 2.134941 2.360368 -0.979422
2300 -0.40730139000000004 22.128181559999998 0.97072893 2.402348 3.488195 -1.668003
2320 1.69058673 25.039328490000003 3.30797124 3.529646 4.129555 0.266122
2340 1.1900216700000001 17.61117687 -1.03225725 2.878518 -0.405377 0.311182
2360 -4.46596326 9.63755982 -16.47279504 3.674974 -1.7247580000000002 0.296004
2380 -10.23182019 4.15655586 -10.31385141 5.642104 -3.108118 -1.515143
2400 -3.6893742300000003 -0.7632670500000001 -2.1038722200000004 4.112929 -3.063731 -1.166958
2420 4.33408743 3.36380976 7.77902589 2.515871 1.627869 0.184267
2440 3.9031341299999998 2.05897185 -1.74132405 1.859296 -0.238532 1.028104
2460 2.9463255900000003 0.6631167600000001 -5.2913472299999995 2.531785 -1.557668 1.059061
2480 -2.45115603 2.13800121 -2.31688656 2.523058 -1.837071 0.343649
2500 -6.36297201 -0.19310004 -2.067948 1.871866 -1.836545 -0.28794699999999995
2520 -5.990545170000001 0.8077161600000001 -1.11787893 -0.042739 -1.593725 0.321142
2540 -1.88682597 11.3889195 6.1947207 -2.065916 0.443417 1.722998
2560 2.11929354 28.842322140000004 6.33976155 -2.627924 2.157609 2.434721
2580 -2.9324052000000003 33.632211600000005 4.1299119 -2.266868 2.689894 1.6781240000000002
2600 -11.39624757 24.636667230000004 1.95314157 -0.16092 2.169817 0.7086
2620 -6.282588870000001 28.857145050000003 -2.8993160700000002 2.472644 -1.904931 0.57412
2640 2.50518951 27.270436410000002 -4.88509551 1.225214 0.202396 1.069043
2660 5.5616814 24.181767720000003 -6.915471210000001 0.37332 -0.67223 1.017212
2680 4.68391203 20.335207860000004 -1.9565848799999999 -2.921275 5.07868 -1.322666
2700 2.55742776 10.523265480000001 4.316419620000001 7.408861999999999 -10.777832 -4.442334
2720 0.93779676 -2.2686802200000002 2.4926130900000003 -5.620617 5.10444 2.295741
2740 0.51642783 -11.06379648 3.02640462 -4.093632 -0.329532 -0.356116
2760 -0.9436337100000001 -12.833412569999998 7.09060914 -3.4510970000000003 1.6310870000000002 -1.305926
2780 -1.70809758 -9.37993941 9.21273777 -5.624869 0.8884770000000001 -0.992214
2800 1.39359879 -4.70412063 3.80239524 -5.104241 -1.371536 0.560036
2820 3.1469106600000005 1.31665896 -4.801563360000001 -4.981483 -0.934879 0.746204
2840 0.40086603 6.96007728 -13.63634145 -3.779039 -1.838406 0.5463899999999999
2860 0.88615692 9.250467030000001 -15.95038311 -1.511122 1.015476 -0.088768
2880 3.4935862500000003 -3.4437416400000003 2.1844123200000003 -1.253519 3.024632 -0.323484
2900 0.61387056 -9.506135250000002 2.0390575500000003 -1.7415080000000005 4.649694 -0.029873
2920 -0.9798620400000001 1.64462688 23.470738920000002 -1.58296 2.487535 0.27738
2940 -18.9462492 51.72269526000001 -33.87994353 0.995926 -2.688883 0.7656350000000001
2960 19.96607718 24.35629743 25.436005650000002 1.916403 0.156872 -0.13209300000000002
2980 0.38065743 8.34410151 -12.935201130000001 2.100667 2.794318 -0.513404
3000 5.419632600000001 15.741263340000001 12.52325961 2.618017 2.322524 -0.726035
3020 1.69597242 22.568719230000003 4.24397277 2.955715 1.083145 -0.902618
3040 1.0756665 28.245658320000004 0.5269049100000001 3.364081 2.792029 -1.035483
3060 3.6992529 21.31702209 -0.17274429 4.050708 0.413278 0.495646
3080 -2.2132929600000004 12.95691066 -11.109452220000001 2.4837700000000003 -3.633344 0.166215
3100 -10.71502155 6.15445065 -11.374999110000001 5.668835 -4.6048800000000005 0.07006699999999999
3120 -8.689129020000001 0.9654903900000001 -5.69625498 5.416929 0.214472 -0.787105
3140 2.7280727099999997 1.97319321 3.82589019 2.082157 1.45414 0.84803
3160 4.93733376 2.38393791 3.19436163 1.540384 -2.629444 1.944406
3180 5.06591343 0.08741691000000001 -10.02943989 2.272581 -3.738009 1.479855
3200 -2.05522443 3.1789403100000007 -4.0957829100000005 2.239045 -2.415262 0.5261399999999999
3220 -4.92685668 -0.29278926000000005 -1.72770777 1.595635 -1.858845 -0.33257600000000004
3240 -4.781658870000001 -0.34892208 -0.6861702600000001 -1.007267 -1.513085 0.172228
3260 -2.9912259600000004 3.68518536 0.11106882000000001 -2.583645 0.661076 1.287541
3280 0.8319664800000002 17.671949820000002 6.105802860000001 -2.828114 2.6832990000000003 1.682757
3300 1.38192489 27.492731010000004 4.18664313 -2.347068 2.88809 1.201951
3320 -4.95350064 35.80658829 4.6169980200000005 -0.840091 2.926504 0.4133979999999999
3340 -11.09462931 30.25418715 1.29510639 1.623212 -0.802434 0.527249
3360 2.87312337 28.45522935 -2.09130561 2.099994 -0.299157 1.061909
3380 3.68652933 21.38348484 -13.636047150000001 0.887016 -0.922557 1.367225
3400 4.735100610000001 23.191418790000004 -7.349416560000001 -0.187214 2.075381 -0.425915
3420 5.36978799 16.87320981 1.7434233900000002 0.782617 -1.95093 -1.373244
3440 2.9241648000000002 1.56904083 1.95104223 -2.770981 4.043694 0.293793
3460 -1.7160338700000002 -7.66301283 3.6833901300000003 -2.712635 -0.801427 -2.3551900000000003
3480 -2.5655112 -15.531702120000002 8.764577730000001 -4.489547 0.996484 -2.344269
3500 -1.0779129900000002 -12.023744220000001 9.74324295 -5.84136 -1.419299 -0.7076899999999999
3520 -1.66454118 -5.62859541 6.47688573 -5.669713 -2.7992790000000003 0.319702
3540 0.5848329600000001 0.3873969 -0.65039319 -5.223527 0.14893399999999998 0.848879
3560 0.6623712000000002 6.816076290000001 -6.5032255800000005 -4.679077 -0.461236 1.117314
3580 -0.63243108 9.12892113 -14.58747 -2.399315 1.510273 0.286817
3600 -0.022307940000000002 7.48323477 -9.80191656 -1.201275 3.638197 -0.8922
3620 3.5357986800000005 -5.32442655 1.44104976 -1.559689 4.4307870000000005 -0.588071
3640 0.78092505 -1.3135197600000001 9.13235463 -1.131012 -1.031274 -0.063194
3660 -3.1121734500000002 26.505079830000003 14.59285569 1.3769360000000002 -4.770063 0.077687
3680 1.0326987 27.62879571 -7.64280423 1.157504 0.991873 0.302712
3700 5.63832693 15.454016730000001 -4.07887047 1.959338 3.735254 0.066584
3720 2.5653640500000003 16.06698477 0.26090676 2.700612 1.783019 -0.412846
3740 -2.04519861 23.539301010000003 3.59447229 3.032185 0.664971 -0.290525
3760 -3.39119928 25.442293860000003 -2.65442904 3.253429 -1.3284129999999998 -0.950859
3780 7.25451462 24.05393361 4.41296964 3.142143 0.12226 -1.328441
3800 5.43115935 20.525463 -4.239783900000001 5.087993 0.439515 0.228325
3820 -3.6922191300000002 9.32396355 -13.4221401 4.21435 -1.505519 0.146735
3840 -11.663148240000002 1.87739856 -8.07720084 4.410382 -3.3495980000000003 0.26476700000000003
3860 -2.9945221200000005 0.82507986 2.9788064999999997 4.2468910000000015 2.101465 -0.403522
3880 4.99990194 2.50549362 5.57396352 2.180021 -0.085213 1.036557
3900 5.066217540000001 1.52413065 -11.598480720000001 1.18674 -2.659435 2.025296
3920 2.4766031700000006 2.57569398 -5.0840325 1.352135 -3.354833 1.559461
3940 -2.10746268 0.11226564 -1.36186344 1.466423 -2.461667 0.280453
3960 -5.20063416 -0.10867518 -4.189635180000001 1.11892 -1.944027 -0.461847
3980 -3.76871751 1.4250398400000002 0.47900268000000007 -1.034109 -1.494154 -0.009582
4000 -1.85494347 3.8496990600000003 0.17244018 -3.40435 0.725226 1.407777
4020 -0.82598238 8.76113442 2.7348121800000005 -3.771283 2.962401 1.967436
4040 -1.5293691900000002 31.517411040000002 6.684798870000001 -2.61988 3.027136 1.032156
4060 -2.7919946700000002 39.55330197 5.00289399 0.193966 3.707836 0.195293
4080 -10.76142285 29.49990606 -2.42031339 3.27035 -1.6705470000000002 0.409544
4100 -1.78249662 25.010595000000002 -1.32549777 2.793544 -0.777783 0.806721
4120 3.6128856600000003 19.884497220000004 -9.817632180000002 1.954253 -0.08958300000000001 0.46135
4140 5.5821941100000005 18.77620266 -12.093954390000002 -0.362652 1.022868 0.529199
4160 7.39926117 15.39054603 -3.67770033 -2.941015 2.46932 0.947306
4180 3.40646364 4.5991830600000005 3.02685588 -0.5162220000000001 -2.750315 -2.802028
4200 -2.48947389 -4.06674531 5.48998011 -4.63138 1.179634 -1.936365
4220 -2.9018666700000004 -13.611796830000001 6.896312280000001 -5.852798 0.553929 0.016092
4240 -0.960399 -14.02823133 8.6993118 -5.3414220000000014 -2.084955 0.154437
4260 -0.60758235 -5.849084970000001 10.541826 -5.165761 -2.1991 0.840541
4280 0.1155618 -1.47772935 6.559358400000001 -5.347278 -0.118845 1.054524
4300 1.19585862 7.966583280000001 -2.4848337600000003 -2.962718 2.910854 0.040737
4320 -1.76752656 14.82592167 -11.62827369 -1.557352 2.85284 -0.787927
4340 -0.9618999300000001 11.04747264 -26.51376168 -1.8849240000000005 2.895433 -0.499713
4360 5.61960945 -4.495000860000001 4.49844417 -2.388196 1.7035209999999998 -0.096845
4380 4.51671039 14.8078026 9.014409 0.286052 -2.9012 0.397753
4400 5.212308060000001 20.85777675 8.502317190000001 0.971171 0.494507 0.434507
4420 2.9056042800000004 5.861357280000001 6.585551100000001 1.736986 2.542442 -0.080856
4440 -3.95343 14.861100330000001 -6.17975064 2.641969 1.297533 -0.431862
4460 1.71034407 24.201368100000003 2.9562042600000003 3.101603 0.10374 -0.392938
4480 -1.14332607 26.12771856 -2.28095253 2.962555 0.610632 -0.759891
4500 2.29398021 28.623480660000002 -1.5742793700000002 4.515741 2.163343 0.138797
4520 3.8420570700000005 22.09420953 -0.74081196 4.217967 0.165485 0.779142
4540 -1.7079504300000001 13.862373660000001 -7.45914141 4.634804 -2.917043 0.855439
4560 -7.848480690000001 5.006337300000001 -10.108184760000002 6.794826 -3.350308 -1.622148
4580 -7.40973825 1.1488589100000002 -4.3875225 3.046423 1.279572 0.245035
4600 1.98771201 0.4363389900000001 3.98591091 1.612324 -0.436329 1.421874
4620 6.05416302 2.46522357 2.6761385700000004 2.297286 -3.472913 1.231861
4640 5.26859784 2.46642039 -10.272384540000001 2.38696 -2.269917 0.281296
4660 -1.75330206 3.4578091800000004 -5.7453540300000006 1.6502990000000002 -1.687988 -0.217045
4680 -3.98456694 0.5462109900000001 -3.1874750100000004 0.375885 -1.653282 -0.065759
4700 -3.0772989000000006 0.25851312000000004 -0.99468495 -2.270997 -1.140787 1.137142
4720 -1.55032335 4.5732944700000004 0.88795215 -3.719525 1.521678 2.306134
4740 1.37384145 11.76418143 4.67283654 -3.985129 2.418648 2.001891
4760 -1.0027683900000002 26.96627736 7.79399595 -2.099124 2.004011 0.696342
4780 -8.54438247 35.608102560000006 5.313645360000001 1.71983 1.959091 -0.17102699999999998
4800 -15.30237375 27.66696642 6.895713870000001 4.619054 -4.0591370000000015 0.366478
4820 -2.7288280800000004 24.992024670000003 0.8467893900000001 1.736305 -0.549027 1.259447
4840 7.106923170000001 25.29006228 -17.81969823 2.24364 -0.167184 -0.628252
4860 5.896535940000001 25.002511560000002 -7.960295070000001 -1.034984 -0.36061 1.5645870000000002
4880 6.834185550000001 15.1431084 2.8145969100000006 -3.513484 1.452085 -0.17915799999999998
4900 4.56311169 1.8905733900000001 1.3201022700000002 -1.813934 -1.2625620000000002 -2.899525
4920 -1.44973161 -6.6575565 1.15050699 -5.6185839999999985 2.379767 -2.569709
4940 -1.0933245 -14.58162324 4.10955615 -5.761563 1.849668 -0.951672
4960 0.3962259 -13.73169465 7.9595495099999996 -4.666086 -1.050296 -0.233141
4980 -0.38649438 -7.856711280000001 9.938138219999999 -4.800105 -3.095133 2.153883
5000 2.2403881800000005 -2.7445437000000004 5.744755620000001 -4.774652 -0.191637 2.243275
5020 2.90920455 7.63981218 -3.06532089 -3.171979 3.281845 0.685074
5040 -0.4167288 16.40498832 -12.29557932 -1.619135 3.4035839999999995 -0.733516
5060 -1.35692901 16.07192901 -24.085512 -1.582106 3.065996 -0.52559
5080 3.51319644 -3.03029919 0.21390705000000002 -1.443974 -0.859799 -0.049577
5100 4.04383896 10.40246514 10.83836268 0.920224 -3.454513 0.223431
5120 1.98382725 21.85694487 11.888277930000001 1.018326 2.1042650000000003 0.096284
5140 1.39464846 3.5672299200000004 11.132201610000001 2.537959 2.081075 -0.48273
5160 -3.6655751700000003 12.83446224 -5.53369347 3.000812 1.846841 -0.915032
5180 2.92805937 23.265072270000005 7.09105059 3.053044 3.328187 -0.847131
5200 -4.63196808 27.37492272 2.03052285 4.450453 3.206024 0.517292
5220 0.10523187 33.710946660000005 -2.03336775 4.318412 -0.914172 1.091012
5240 7.734262860000001 25.53090759 -2.7678915 4.883791 -1.251476 0.770654
5260 3.01413231 15.967746810000001 -7.588623600000001 6.354933 -6.629238000000001 -1.504583
5280 -8.394838830000001 4.96323216 -10.50171291 4.168516 -0.211769 -0.471607
5300 -10.069258679999999 0.9273196800000001 -5.860464570000001 2.419235 2.048031 1.221365
5320 -0.24084531 0.97522191 1.91915973 2.442543 -1.918606 1.08881
5340 4.36402755 1.5160472100000002 3.37981968 2.174837 -2.467202 0.517213
5360 4.34950875 2.9791008000000003 -13.328434979999999 1.542282 -1.969854 0.034662
5380 0.6330294900000001 2.95051446 -1.9363762800000002 1.015142 -2.398878 -0.3776
5400 -4.65427602 1.87156161 -6.46295553 -0.8392799999999999 -1.5711540000000002 0.960755
5420 -5.106929040000001 0.2832147 -2.14818399 -3.40166 1.76974 2.333674
5440 0.48753738 4.54814163 3.7241016300000003 -3.802301 2.924352 2.185186
5460 3.3217444800000004 21.795122250000002 8.168218020000001 -3.079695 2.514268 0.749727
5480 -0.86864607 27.37626669 4.876256700000001 0.04063 3.763805000000001 0.184536
5500 -13.49204616 29.221929900000003 7.08611616 3.3955940000000004 -3.439599 0.208655
5520 -17.675098830000003 31.2346476 -5.251077179999999 2.943645 -2.377611 1.420843
5540 -1.81587024 29.164747410000004 -5.15258478 1.046673 -0.552204 1.585782
5560 12.51502902 24.97061925 -10.8281799 -0.342864 2.221056 -1.022188
5580 10.519822170000001 23.2378299 -4.9602303 1.810791 -3.5682050000000003 0.177454
5600 4.4400648600000014 11.344607730000002 2.3893334100000003 -5.119462 2.030327 0.463703
5620 -0.52121511 -2.6307771300000002 -0.21106215 -1.291382 -0.955606 -2.060918
5640 -1.87111035 -7.42216752 2.23529679 -4.56704 3.301899 -1.784811
5660 0.7837699500000002 -11.286375570000002 5.480258399999999 -6.118022 -0.188638 -1.066918
5680 0.70742853 -12.7455444 10.37821482 -5.300939 -1.173447 -0.586726
5700 -2.62644111 -8.51384394 11.74412979 -5.074285 -1.086047 1.067284
5720 1.26547038 -1.27160163 4.78719171 -3.986974 -1.447029 1.153322
5740 2.19697893 7.756570800000001 -4.4450091 -2.359264 2.139496 0.074782
5760 0.40595742000000007 19.11299958 -16.5370113 -1.826338 3.362831 -0.486016
5780 -0.24608385000000002 13.4164503 -24.446264940000006 -2.160657 3.290551 -0.236158
5800 7.04988783 -7.333995240000001 3.42757476 0.200424 -2.10265 0.307469
5820 3.72275766 -7.622595629999999 11.17546371 1.38627 -0.450829 0.184381
5840 -0.2689902 27.646012260000003 15.1459533 1.987452 2.086285 -0.243028
5860 7.494614370000001 31.80211686 2.6655045300000006 3.07324 1.266549 -0.516404
5880 1.6188854400000001 15.10703703 1.9079370900000001 3.289797 1.117346 -0.421765
5900 -4.084109010000001 12.129123240000002 -2.80651347 3.314596 0.317823 -0.5679810000000001
5920 -5.9439869100000005 22.60658583 3.71646945 3.573976 1.840825 -0.972977
5940 -3.28986198 29.85062337 -3.78532584 5.031733999999998 0.8228790000000001 0.310762
5960 6.28228476 26.793680220000002 3.13448139 3.819057 -3.086995 0.108612
5980 5.081933159999999 20.15588106 -5.69295882 6.4646230000000005 -1.298093 -0.395425
6000 -1.8226097100000003 10.847191680000002 -11.64832533 4.368914 0.218144 0.001395
6020 -10.56906837 2.5692586200000003 -7.782017939999999 2.157981 0.43402 1.476913
6040 -2.9662300800000003 0.89993016 -1.7500157100000002 1.504269 -3.24668 1.287988
6060 4.99017042 3.0740027400000005 3.81392199 1.911198 -3.311575 0.647844
6080 7.36977231 0.47242017000000003 -10.43824221 1.499771 -1.873009 0.095129
6100 1.28642454 3.0416787900000006 -2.9817985500000006 1.287693 -1.96342 -0.287592
6120 -4.884192990000001 1.04752161 -4.50128907 -0.469612 -1.585029 0.11518699999999997
6140 -5.72873589 1.2900150000000001 -0.6996492000000001 -2.921597 -0.608063 1.14687
6160 -2.3516139600000003 3.25782252 0.8451413100000001 -3.864665 2.334327 1.938747
6180 -0.32437746000000006 5.107380300000001 2.30715504 -3.305117 2.261523 1.279383
6200 -0.6987466800000001 21.8934675 5.848937820000001 -1.250869 2.6861080000000004 0.414041
6220 -0.35700552 25.99808922 1.6589985300000003 1.980499 0.364789 0.297513
6240 -8.5604022 35.77874751 5.47756065 2.9279610000000003 -0.196939 1.1551559999999998
6260 -10.074497220000001 30.6966672 1.76961609 0.8824190000000001 -1.7881779999999998 1.52533
6280 2.412534060000001 24.701786010000003 -16.783252110000003 -0.974459 2.968186 -0.036247
6300 7.678581300000001 24.046742880000004 -11.80459863 1.454928 -5.192218 -2.041647
6320 7.07219577 16.345108080000003 -2.9340532800000005 -3.928342 4.336824 1.2510059999999998
6340 6.73763553 7.011422820000001 0.70338681 -2.578475 -2.797415 -0.959802
6360 -1.09003815 -0.31359627000000007 0.14340258 -3.783032 1.166667 -1.028844
6380 -3.79445895 -8.21282409 3.78173538 -5.021771 0.747883 -0.721834
6400 -1.24181847 -13.823457390000002 6.78852981 -5.513386 -2.488665 0.029839
6420 -1.06263882 -11.17441404 9.9340965 -5.919637000000002 -0.07285599999999999 0.972487
6440 -1.15065414 -5.84728974 9.32920209 -4.9055290000000005 -1.046148 1.066276
6460 3.3820661700000003 4.20640047 -0.17468667000000002 -2.593738 -0.702607 0.26479400000000003
6480 1.3647083400000002 11.17815165 -7.650436409999999 -1.639301 3.290547 -0.15453599999999998
6500 0.9937824300000001 16.43507559 -17.64021447 -1.495303 4.57307 -0.527983
6520 0.08712261 1.12341177 -9.83634966 -1.066184 2.279094 -0.258195
6540 2.82117942 -9.13415967 0.9488722500000001 1.335891 -3.722534 0.288634
6560 1.0096550100000001 1.8911718000000002 19.10476899 1.845701 -0.368008 0.120186
6580 -6.44319819 30.696215940000002 4.01944149 2.248714 3.255008 -0.232018
6600 11.12756148 26.91103725 19.621500930000003 2.937891 1.865119 -0.902676
6620 -2.00882313 13.35043881 -12.15562005 3.10829 1.417683 -1.045122
6640 3.2186021400000002 18.38133054 5.636227590000001 3.3504629999999995 2.582113 -1.5416459999999998
6660 -3.5781582600000004 18.45871182 1.0891356300000001 4.633503 2.042341 -0.072801
6680 -1.61604054 26.50553109 -2.8032173100000004 3.446529 -3.088205 -0.330891
6700 4.62014703 24.20167221 2.6304828300000005 6.075725 -3.861542 -0.226077
6720 3.99549528 19.1400948 -4.96457613 4.107743 0.433349 -0.309421
6740 -2.5860239100000006 7.665259320000001 -15.893200620000002 2.002462 1.236464 1.272905
6760 -11.163338549999999 2.6559299700000003 -8.776850040000001 2.069431 -2.90821 1.934572
6780 -3.6544996800000003 1.5998736599999999 1.11338595 2.145658 -3.677058 1.532302
6800 4.06194822 3.10963266 3.6356350500000003 1.927635 -2.710826 0.916381
6820 5.25467745 0.59322051 -9.96447807 1.579366 -2.066655 0.23373400000000005
6840 1.6603425000000003 3.7729063800000002 -3.40137225 -0.21403000000000005 -1.3879290000000002 0.420095
6860 -3.0690683100000005 1.4894032499999998 -2.5881134400000003 -2.582225 0.000708 1.260624
6880 -6.87969414 0.80502822 -3.3663505500000004 -2.865214 2.36556 1.786523
6900 -5.2019781300000005 1.05964677 1.6524160200000002 -2.02734 2.84742 1.2384190000000002
6920 -0.19863287999999998 7.508083500000001 4.87730637 -0.39071 3.264553 0.467378
6940 -2.8322647200000004 28.925844480000002 6.5291239800000005 0.8432270000000001 0.115514 0.750293
6960 -0.03951468 33.577128450000004 2.3406856200000004 1.760427 -2.155406 0.692311
6980 -10.83566493 32.480056530000006 3.2992893899999998 0.62012 -0.966674 0.644367
7000 -2.6403615 24.147638730000004 -10.23152589 -0.96275 2.2147 -1.02651
7020 5.041515960000001 23.98252662 -15.77089935 2.092346 1.841567 0.390406
7040 6.50621763 21.74228559 -5.115915 -6.659299000000002 2.826981 -0.820326
7060 7.47949716 13.96954791 2.0847132900000003 -0.991621 -3.3976910000000005 -1.40408
7080 2.4718060800000003 2.47854555 1.94670621 -5.831264 0.282194 -0.778166
7100 -4.294867050000001 -5.71631643 2.7351162900000006 -5.243346 -1.630521 -0.086878
7120 -2.31912324 -12.87457533 5.5200673799999995 -5.323908 -0.445805 0.748527
7140 -0.84604383 -12.625195320000001 9.28099575 -4.763057 0.19587 1.232322
7160 -2.4378340500000006 -7.08296715 9.38009637 -3.803385 -2.007692 0.810287
7180 -0.6084848700000001 -0.33200964 0.5848329600000001 -1.807732 1.864968 0.051213
7200 -0.14369688 6.8057463600000005 -6.76907658 -1.545098 4.456953 -0.484385
7220 -2.1127110300000003 8.423287830000001 -14.13420876 -2.0878650000000003 4.874891000000001 -0.368003
7240 1.05725313 0.73452375 -11.767928849999999 0.050621 -3.062402 0.15596500000000002
7260 3.05948394 -6.396051330000001 0.9334607400000001 1.658581 -2.890766 0.062291
7280 1.56529341 4.06194822 11.59174125 1.895064 2.263226 0.076567
7300 -3.8628640800000005 41.58831780000002 -3.647613060000001 2.832964 3.003172 -0.6303340000000001
7320 15.969836340000002 24.40749582 23.693779080000002 3.3804230000000004 2.075581 -0.6381399999999999
7340 -4.65411906 10.933411770000001 -17.53333452 3.358506 2.227706 -0.8329049999999999
7360 0.31778514 19.16359956 6.853050179999999 4.21731 1.387257 0.006316
7380 -3.31575057 22.086871650000003 -0.9517171500000001 3.424074 -3.751706 0.445331
7400 1.66663071 27.400821120000003 0.15926535 6.065388 -2.052962 -0.152623
7420 3.36455532 20.91420387 0.6738979500000001 6.254419 -3.626915 -1.7772560000000002
7440 0.6566814000000001 14.284046700000001 -9.67004073 2.62385 2.832449 0.152499
7460 -4.6827152100000005 3.59312832 -12.77414055 1.405634 -1.057619 1.925427
7480 -7.29912069 1.42308765 -3.96375993 2.32188 -3.858827 1.547652
7500 0.12498921000000002 3.1663638900000004 5.15528253 1.993445 -2.904458 0.7974479999999999
7520 3.3112674 2.60802774 -0.22108797000000002 1.698913 -2.726747 0.035657
7540 2.97656001 1.99400022 -6.34845321 0.844513 -1.83918 -0.070793
7560 0.49966254000000004 3.3096193200000004 -5.56437915 -1.41903 -1.194256 0.7169409999999999
7580 -3.4376005800000002 1.0033668 -3.52771524 -3.3383870000000004 1.683761 1.935779
7600 -4.6189404 1.31830704 -2.02977729 -3.757035 3.010434 1.931155
7620 -2.48648184 4.21598484 1.5949294200000002 -2.5295810000000003 2.735764 0.825925
7640 0.58184091 18.51304941 6.33482712 0.31014400000000003 3.043361 0.030313
7660 -1.56933513 28.69473069 5.85447066 2.98011 -1.120198 0.4944060000000001
7680 -7.64804277 34.62329628 7.735459680000001 1.74292 -1.324126 1.148323
7700 -8.390502810000001 26.633512350000004 7.936044750000001 0.343997 -0.950573 0.852857
7720 -1.89371259 23.932083600000002 -14.827412790000002 -2.258827 3.796213 -1.395444
7740 5.50540143 26.493553079999998 -17.14939074 3.524525 -0.024335 0.099426
7760 7.32262545 22.59161577 -3.48669963 -6.773678 2.812544 -0.30836
7780 7.271427060000001 11.992607280000001 1.10619522 -1.69639 -1.451852 -1.221353
7800 -0.00523854 0.48978387 0.56462436 -5.73916 0.825204 -0.787833
7820 -2.48916978 -8.431969680000002 3.8872615500000003 -5.964311 -3.252487 -0.106928
7840 -2.53407996 -13.18249161 5.18087682 -5.876684 -0.35688800000000004 1.102406
7860 -0.09700128 -12.044099970000001 9.67288563 -5.249218 0.571226 1.292538
7880 -0.6336279 -7.707020490000001 9.29731959 -3.085153 -0.942217 0.40481
7900 1.0585971 -1.10635218 3.38117346 -1.7455439999999998 3.515076 -0.267729
7920 1.53790389 7.315287570000001 -4.26987117 -1.482816 5.548323 -0.670151
7940 -1.43267202 14.13165816 -14.859295290000002 -1.329958 1.809979 -0.19748
7960 -0.92552445 8.58210192 -17.28366021 1.121236 -3.959641 0.096227
7980 4.98762963 -8.48824965 -1.01668878 1.5826 0.566637 0.248542
8000 1.2597805800000001 -4.42808685 9.92436498 2.155201 3.85078 0.044303
8020 -4.46895531 28.308079350000003 20.288061 3.04868 1.768361 -0.24589
8040 7.86524598 36.73376082 7.251522570000001 3.382268 -0.883357 -0.207047
8060 1.2814803000000001 21.024674280000003 -6.012097740000001 3.408295 -1.576968 -0.998597
8080 1.40333031 17.15836689 5.9502751200000015 4.012261 0.440091 -1.378318
8100 -2.7846567900000005 19.90305774 0.63079281 4.969802 -1.747736 0.124548
8120 -2.2998171600000004 26.592653700000003 -2.13276267 4.468842 -4.897455 -0.049035
8140 3.7739560500000002 25.79406084 4.7621958300000005 6.951957000000001 -0.17386300000000002 -0.642357
8160 1.9224558900000002 18.054559440000002 -6.202352879999999 3.234082 4.357386 0.024484
8180 -4.04204373 6.35713506 -17.99991774 1.7824209999999998 -1.370815 1.334529
8200 -9.544149 2.07438336 -6.1709216399999995 1.853702 -3.5834050000000004 1.541893
8220 0.6179122800000001 2.9069580600000005 4.88643948 1.902009 -2.869797 0.999727
8240 4.03950294 1.6949227500000001 -1.8468600300000002 2.061966 -4.163784 -0.283637
8260 4.133502360000001 1.9583801100000002 -7.14119931 1.322552 -3.096676 -0.6330680000000001
8280 3.19540149 1.85808267 -2.50877997 -0.8802530000000001 -1.554857 0.11868900000000003
8300 -0.51283737 1.08688914 -1.3823761500000002 -3.125091 1.322206 1.591628
8320 -3.9410007300000003 2.5337856600000004 -1.5530210999999998 -4.260146 3.725477 2.305943
8340 -3.82949046 3.73158666 -0.28336185 -3.324259 3.663637000000001 1.243269
8360 -1.64792304 4.60398015 1.84162149 -0.224666 4.2285949999999985 0.331638
8380 -0.58633389 22.252572360000002 6.4665558 3.175596 -1.7315779999999998 0.303206
8400 -1.25319807 28.833336180000003 3.9261876300000003 2.275267 -0.720496 1.048718
8420 -8.446037220000001 37.87917642 2.40160572 0.24791 2.4220580000000003 0.678017
8440 -7.042402800000001 31.65122925 4.5931989600000005 -0.699324 -1.043008 -0.6989609999999999
8460 -1.61873829 17.36074719 -14.495256000000001 -2.847036 4.542902 2.057325
8480 5.7154139100000005 23.013288810000002 -14.98698225 -2.34263 -0.8253950000000001 -2.808706
8500 10.91979549 19.728076769999998 -4.25236032 -3.406703 0.396724 -2.215228
8520 6.807992850000001 8.87564655 -0.18710613 -6.23073 1.089216 -0.58437
8540 -1.55960361 -2.1844123200000003 4.91832198 -5.103951 -2.559493 -0.460728
8560 -4.62598398 -11.19476979 7.27726401 -5.476664 -1.661762 1.00005
8580 -0.8934948 -12.640312530000001 9.35434512 -5.2354980000000015 -1.039856 1.376952
8600 0.9955776600000001 -10.32238611 10.910211120000001 -3.82697 1.762412 0.8074279999999999
8620 1.0741655700000001 -5.50989441 6.56010396 -1.994946 3.799454 -0.0391
8640 2.3812499700000003 3.9724417800000005 -1.06024518 -1.82219 2.4634150000000004 -0.40899
8660 -1.1782006200000001 9.759556980000001 -9.80057259 -2.370736 2.449366 -0.15002100000000002
8680 -4.312976310000001 18.700459650000003 -21.56969826 0.472689 -2.981376 0.5722119999999999
8700 2.0594133 -0.11166723 -4.50697887 1.224015 -0.466259 0.18754
8720 3.7252984500000004 -10.10324052 9.28070145 2.548067 1.847118 -0.592387
8740 -4.50083781 32.42721987 10.802134350000001 3.011658 2.101602 -0.698433
8760 13.767167610000001 21.0862026 3.4376005800000002 3.392923 0.915074 -0.5436310000000001
8780 -0.06571719 15.97223979 -1.8250033500000002 3.488923 1.410103 -0.279744
8800 0.99916812 14.04170046 3.04062912 4.410025 0.821377 0.958037
8820 -3.41769609 21.15371502 1.4852143800000002 3.971843 -0.23442800000000005 0.302577
8840 -2.8611453600000005 29.552144310000003 -7.04510055 5.228346 -3.716774 -0.26316
8860 4.46940657 24.389828010000002 -0.25297047 7.005942 -4.864772 -2.1603220000000003
8880 5.57470908 19.885851 -4.95619839 3.160084 1.568388 0.6471100000000001
8900 -2.6114710500000005 9.4282929 -9.90415638 1.243692 -0.998283 2.4113290000000003
8920 -10.178385120000002 1.8389237400000003 -7.965680760000001 2.002751 -3.952154 1.7196630000000002
8940 -6.37673544 1.36695483 -5.13956691 2.421449 -3.541106 0.596155
8960 4.4180610300000005 1.2347847 7.45330446 2.331262 -2.764565 -0.6446069999999999
8980 6.975194490000001 0.31000581 -8.205034950000002 0.694177 -2.431455 -0.211021
9000 4.165983270000001 3.1120263 -5.338651050000001 -1.603173 -0.8971049999999999 1.157518
9020 -3.7459583100000002 1.8212657400000003 -4.263435810000001 -3.1903 2.213343 2.038684
9040 -5.06576628 0.6087791700000001 0.14025357000000002 -3.673074 2.940889 1.933967
9060 -3.8749892400000006 5.1106764600000005 1.5552675900000001 -2.557758 2.982575 0.933302
9080 1.13029839 12.411592380000002 6.233941080000001 0.321602 2.441703 -0.035066
9100 2.1881499300000007 21.636308160000002 6.83657919 3.223305 -1.626021 0.238243
9120 -4.202662860000001 27.284366610000006 4.830905070000001 1.245316 -0.857223 1.235048
9140 -16.43252499 33.714841230000005 2.30071968 1.469183 -0.523319 0.657207
9160 -5.73368013 31.933992690000004 7.79548707 -1.288297 -0.861807 -0.747104
9180 4.57358877 23.27554935 -14.69209365 -4.300614 4.639506 1.537506
9200 6.324801300000001 26.03521026 -16.25499342 -2.004668 -1.691691 -1.714581
9220 5.067414360000001 18.84551031 -1.36695483 -2.266694 -0.219767 -2.479939
9240 4.0374036 5.13237618 4.33408743 -5.445681 0.110641 -0.569086
9260 2.00193651 -4.17796128 4.412675340000002 -6.145421 -1.645375 1.211139
9280 -2.4508519200000007 -13.23622098 5.15528253 -6.942699 1.248212 1.560784
9300 -0.24758478 -13.5408411 9.46691487 -5.016344 1.997183 1.468594
9320 -0.13890960000000002 -9.986334750000001 10.88072226 -2.301456 1.62404 -0.009611
9340 -1.90194318 -7.3847423700000006 6.285875219999999 -1.515677 2.408413 -0.772111
9360 2.09219832 -0.03322647 -1.10844171 -1.722417 3.753088 -0.667388
9380 1.43776341 7.922124360000001 -7.88933934 -1.4869370000000002 1.107275 -0.156015
9400 -0.91774512 16.69388301 -16.52338521 0.938046 -2.259432 0.779636
9420 -0.96429357 4.17092751 -9.64758564 1.7365549999999998 1.961065 0.385631
9440 0.94528179 -5.96299869 0.62629983 2.455494 3.375068 -0.066222
9460 1.15035984 14.57788563 13.057649550000002 3.399408 0.809135 -0.430218
9480 -0.31434183000000004 35.5467312 -13.799354220000001 3.427525 1.090322 -0.709188
9500 7.0771302 14.391073800000001 9.96897105 4.525542 2.026726 0.195657
9520 -0.41089185000000006 10.78656588 -7.215147090000001 3.803323 -1.550912 0.399227
9540 3.9570204600000003 22.36693734 5.039573580000001 5.220916000000001 -1.423805 -0.114463
9560 -7.86329379 26.6014827 -6.44484627 6.714875 -4.795902 -2.613233
9580 1.7435705400000001 26.10945234 -2.23964262 3.696666000000001 1.180889 -0.680718
9600 4.70606301 18.631603260000002 -0.4451778 1.904379 0.961224 1.457375
9620 -0.7226928900000001 10.68477732 -8.20024767 2.915346 -3.345429 1.050144
9640 -11.86223238 4.54469832 -9.01381059 2.448132 -3.022685 0.399124
9660 -7.31378664 -0.27153099 -2.70532332 1.964006 -3.097399 -0.209844
9680 4.32914319 3.20034573 6.5645969399999995 1.608771 -2.802559 -0.639991
9700 7.047347040000001 2.1266314200000007 -10.92982131 0.08900000000000001 -1.802634 0.235804
9720 5.17773762 2.7399035700000005 -5.6018043 -2.3411150000000003 0.974709 1.765261
9740 0.04999176 1.81706706 -0.65698551 -3.611016 3.697219 2.416267
9760 -3.1184616600000004 1.97379162 -3.28955787 -3.058255 3.130837 1.585505
9780 -4.755907620000001 4.02752493 -0.65832948 -0.8862969999999999 3.047325 0.608405
9800 -0.8433460799999999 14.39286903 7.53383475 2.753598 -1.506865 0.417475
9820 -1.8473112900000002 25.193512260000002 5.472018 1.641042 -0.385796 1.015018
9840 -7.43114367 29.944926900000002 2.82686922 0.735047 -0.313134 0.413596
9860 -12.064308570000001 24.596102880000004 8.046515160000002 -2.23045 3.384171 -1.474835
9880 -1.7983593900000001 28.03834359 -0.7896069 0.294447 2.707896 0.817913
9900 8.03948139 28.783491570000002 -17.143700940000002 -6.905662 3.038212 -0.151474
9920 7.33564332 27.09201213 -6.931785240000001 -1.518196 -1.447362 -1.698677
9940 7.04270691 15.684384960000001 2.0959457400000003 -5.476294 0.466257 -0.7620359999999999
9960 3.12699636 3.85313256 -0.8752285799999999 -5.574209 -2.7514830000000003 0.00625
9980 1.40662647 -3.63369267 1.3548296699999998 -6.358459 -0.964665 0.863743
10000 -1.9296368099999999 -10.301431950000001 4.567604670000001 -6.056061 0.363813 1.380104
10020 0.26315325 -11.55641544 8.21282409 -3.118675 1.475498 0.548892
10040 -1.00501488 -8.964407430000001 12.1207455 -2.090836 3.379854 -0.251808
10060 -0.17394111 -6.094727370000001 7.6353192000000005 -2.4361650000000004 4.541443 -0.5943350000000001
10080 0.48454533 2.7952908300000003 -2.7334682100000003 -0.8844870000000001 0.123776 -0.349236
10100 -0.00777933 8.317300589999999 -10.31280174 1.45713 -4.12542 -0.029401
10120 1.3807280700000002 14.319970920000001 -19.78750575 1.62853 0.281224 0.18834
10140 3.2669556300000004 -3.0291023700000004 -1.54807686 2.358817 3.664363 0.13249
10160 -0.5661252900000001 -6.38541729 3.04646607 3.309829 1.144541 -0.579756
10180 -3.07909413 22.980209490000004 20.426372190000002 3.079365 -0.100699 -0.397104
10200 6.98193396 36.327656250000004 -1.4991347700000002 3.3960120000000003 1.1099709999999998 -0.8002319999999999
10220 2.8210322700000003 19.464776370000003 0.42796125 4.911872 0.940736 0.511668
10240 1.3418117999999999 15.54352317 0.49831857 4.406951 -1.10909 -0.056458
10260 0.36508896 20.059036740000003 5.3908892999999996 6.133877 -3.762807 -0.724657
10280 -3.6567461700000004 24.45315156 -5.128932870000001 6.085472 -2.008338 -1.7367130000000002
10300 3.4160480100000004 24.9471243 0.850527 2.530627 2.473167 0.8359700000000001
10320 1.52891793 17.29593252 -4.0197456 1.393989 -2.342671 2.283779
10340 -4.11389217 9.51975153 -14.68072386 2.119953 -4.214768 1.49115
10360 -11.705654970000001 2.1615059700000003 -8.14201551 2.119721 -3.552719 0.299233
10380 -0.26748927000000006 0.36359784 5.65898679 2.008832 -2.689489 -0.758051
10400 5.70419127 1.64253735 0.19564083 1.1803 -2.712416 -0.167741
10420 4.85949141 3.5215741800000004 -8.9942004 -1.7082419999999998 -0.096468 1.360857
10440 2.23949547 2.9289618900000005 -4.13574885 -3.460363 3.189952 2.334648
10460 -2.11330944 0.09040896000000001 -0.63558009 -3.5968690000000003 3.232698 1.887123
10480 -4.70157003 1.6929803700000001 -3.64911399 -2.315405 2.746451 0.89791
10500 -2.74588767 3.85613442 2.03696802 0.485677 1.575698 0.338931
10520 1.00665315 13.80174786 5.996078010000001 3.535199 -2.882355 0.327489
10540 -1.4265309600000002 25.97293638 6.69153834 0.7329720000000001 -0.234125 1.434701
10560 -7.33983219 31.95853731 4.69139706 0.952983 2.298203 -0.12768
10580 -16.31920968 31.061304900000003 0.023347800000000002 1.173369 -4.498941 -0.413328
10600 -2.13830532 26.83469583 4.8478175100000005 -5.024602 3.00816 1.468309
10620 7.6526829 23.91247341 -18.54029178 -1.706257 -2.097035 -1.57204
10640 9.01664568 25.881624900000002 -11.439215370000001 -4.6172879999999985 1.7260919999999995 -1.675253
10660 7.895186100000001 14.089602690000001 0.33874911 -5.893773 0.361534 -0.319369
10680 3.6488098800000004 2.1622515300000003 1.3450981499999999 -5.592899 -2.563162 0.08065399999999999
10700 -0.7839171000000001 -5.945487840000001 4.76803278 -5.70205 -1.233639 1.490377
10720 -2.5912624500000003 -12.64914153 5.0927143500000005 -4.499224 0.66727 1.399135
10740 0.21914559000000003 -11.70625338 10.60439418 -2.30154 3.509558 -0.00455
10760 -0.90127413 -8.22943242 12.20127579 -1.803939 2.748646 -0.625009
10780 -0.34847082000000007 -3.8428124400000003 5.219940240000001 -2.125263 3.119772 -0.449336
10800 1.32070068 3.19795209 -2.6753832 -0.584268 -0.8543709999999999 0.244841
10820 -0.32332778999999995 10.68118686 -10.89823311 0.6897439999999999 -0.701419 0.849612
10840 -0.32198382000000003 15.11736696 -19.830758040000003 2.015204 2.567896 0.238317
10860 4.913083439999999 -2.2815509400000002 -1.03210029 2.971772 1.774803 -0.457943
10880 0.44891541000000007 -4.85260479 4.95559017 3.344475 0.690028 -0.433654
10900 -2.13022188 32.45027337 15.672406950000001 3.33477 0.986724 -0.828276
10920 12.60214182 25.10713521 16.42219506 4.1384919999999985 2.391656 -0.684525
10940 0.55010556 15.103888020000001 -6.80649192 4.56524 -0.944618 0.499912
10960 2.24234037 17.30745927 3.35063493 4.360817 -3.601319 0.120533
10980 -2.2179330900000003 18.56469906 4.028574600000001 7.7211880000000015 -2.35847 -1.642586
11000 -3.26081457 28.849954320000002 -4.75007067 4.121911 1.110159 -0.41167
11020 3.4623021600000006 25.348735890000004 0.3239262 1.962734 -0.544287 1.209748
11040 3.0353905800000005 17.14654584 -5.883518070000001 2.085721 -3.298678 1.000492
11060 -5.23700964 7.91523774 -9.087150150000001 2.209859 -3.314061 -0.054025
11080 -10.7874684 1.0662292800000002 -6.92400591 1.940575 -2.593631 -0.42857
11100 -1.39031244 0.15642045 2.04699384 1.081496 -2.260041 -0.5225920000000001
11120 5.69924703 2.1787225200000004 2.6665542 -0.930342 -1.361314 0.778253
11140 6.646775310000001 2.11794957 -13.18249161 -2.716055 1.165627 2.297576
11160 1.06787736 3.28910661 -2.34353052 -3.578523 2.853527 2.652584
11180 -3.08313585 0.50879565 -3.05724726 -3.361077 2.006864 1.608331
11200 -4.863984390000001 -0.29757654 -1.6001679600000003 -0.474507 2.513463 0.5574859999999999
11220 -2.05897185 5.00184432 1.5236793900000003 2.430272 -0.352185 -0.08085
11240 0.72913806 14.82472485 5.75044542 2.772208 -0.765084 0.5800930000000001
11260 -3.35272446 30.25808172 5.666766120000001 -0.055475 1.540664 1.309415
11280 -7.71540804 36.669995820000004 4.067196570000001 -2.795242 4.748395 -1.685627
11300 -12.04964262 31.61410821 5.20168383 2.056798 -0.100766 -0.293152
11320 -1.5462816300000002 24.984392489999998 -2.5228573200000004 -7.607541 3.331919 1.065293
11340 7.369321050000001 23.87100654 -17.98434927 -0.906728 -1.263575 -1.303672
11360 8.160281730000001 21.240680670000003 -7.219041659999999 -5.902654 2.892455 -0.8001699999999999
11380 7.5079363500000005 10.60395273 1.22775093 -6.545404 -2.545968 -0.196281
11400 1.54314243 0.8066763 1.7518109400000001 -6.442202 -1.198264 0.7459520000000001
11420 -3.17669382 -8.12211102 4.51700469 -4.726358 -1.000145 1.128357
11440 -2.24263467 -14.273265510000002 5.7207996 -2.219205 1.267457 -0.151721
11460 3.3931416600000004 -8.06672376 9.800121330000001 -2.191232 5.509403 -0.712437
11480 0.83631231 -7.172336250000001 10.16416062 -2.195266 4.63166 -0.453899
11500 0.6800390100000001 -3.85433919 3.74296626 0.854662 -4.4804879999999985 -0.223298
11520 3.0430227600000004 5.62889952 -2.63931183 1.212373 -2.104732 -0.048655
11540 0.7372215 13.415999039999999 -12.322527390000001 1.465281 4.960744999999998 0.122451
11560 -3.50900757 14.878758330000002 -17.84110365 2.675456 3.762468 -0.43265
11580 2.4896210400000003 -6.09113691 1.17640539 3.228468 1.3876540000000002 -0.034775
11600 0.6860231099999999 -10.670562630000001 9.12562497 3.066506 -1.393413 -0.252396
11620 -9.62154009 25.476570000000002 20.76452289 3.029278 -0.608586 -0.6820189999999999
11640 19.11495177 42.39438588 22.29030162 4.730748 0.228918 0.455767
11660 7.434891090000001 17.80293294 4.690945800000001 4.844983999999998 -2.455827 -0.112562
11680 4.58317314 15.58364607 2.2815509400000002 5.758261 -4.789242 -0.7879229999999999
11700 -3.25617444 21.03994845 1.86736293 4.939007 0.377008 -1.59075
11720 -6.10415478 28.79876574 -6.654260340000001 2.0748580000000003 0.880531 0.710914
11740 1.5500290500000002 22.198234770000003 3.9155535900000005 1.396842 -2.680499 1.783236
11760 -0.58633389 16.088243040000002 -9.1450782 1.974522 -3.2093830000000003 1.143811
11780 -10.261760310000001 4.2450224400000005 -7.800725610000001 1.879881 -2.30249 0.075902
11800 -5.02220988 0.09190989000000001 2.08621422 1.770821 -2.460631 -0.5079060000000001
11820 4.25026098 1.94250753 5.54835942 -0.112032 -2.063242 0.313782
11840 5.15856888 2.61716085 -12.43524429 -2.819858 1.586489 1.835908
11860 3.91735863 3.93876405 -7.377257340000001 -4.03449 3.285297 2.697984
11880 -1.70675361 1.4070777300000001 -2.7807720300000005 -3.753101 3.051393 1.808284
11900 -1.20020445 -0.32437746000000006 -1.5657446700000002 -0.814719 3.246522 0.548829
11920 -0.27228636 3.30019191 1.03046202 2.383612 0.630282 -0.111276
11940 -1.76587848 4.68585441 1.05665472 3.846583 -2.927804 1.032612
11960 0.050295870000000006 18.45048123 6.95453463 -0.138677 1.198807 2.155303
11980 -3.2927068800000003 28.332780930000002 6.54543801 -0.373867 4.053105 -2.269231
12000 -11.316168540000001 35.07236865 0.1357704 2.874625 -2.631938 0.614179
12020 -13.370196150000002 30.149102430000003 2.7129555000000005 -6.51284 2.927967 0.170809
12040 2.5035414300000003 20.52397188 -1.4136602400000002 -1.788874 -0.049674 -2.273858
12060 6.21596916 25.52956362 -18.54598158 -6.129621 3.452097 -1.49468
12080 8.582700330000002 22.144495590000002 -5.051247480000001 -5.804748 -2.460484 -0.636666
12100 4.82251752 11.119772339999999 0.77539221 -5.672898 -2.9558470000000003 1.113569
12120 -0.54247338 -0.6114769200000002 2.5325790300000004 -5.60387 -1.054646 1.664954
12140 -2.8837574100000003 -9.31423203 5.32592748 -3.212941 2.805222 0.29977
12160 1.3515433200000002 -13.894256160000001 8.088276330000001 -1.668386 3.820247 -0.991836
12180 1.10380158 -9.12966669 13.233680190000001 -1.594119 4.4231120000000015 -0.769899
12200 -0.95531742 -6.958429199999999 7.520208660000001 -0.713134 -2.463779 -0.231492
12220 3.0371858100000004 -0.6336279 1.2051486900000001 0.875817 -2.273757 -0.111678
12240 2.59769781 7.607782530000001 -7.090756290000001 0.997848 3.595268 0.209598
12260 -1.94490117 21.42674694 -17.97342093 2.026366 2.93943 0.024274
12280 -1.2754962 9.095832000000001 -19.489320990000003 2.756758 1.866506 0.237986
12300 5.92767288 -15.88646115 9.265731390000001 3.134032 -0.489503 0.348326
12320 -1.40392872 12.474160560000001 25.905129660000004 3.1976400000000003 0.13759200000000002 0.115095
12340 -6.450084810000001 35.43506397 -31.556925720000002 4.436022 -0.06694 1.170864
12360 16.72112538 17.29578537 10.77459768 3.517128 -0.314416 0.985302
12380 -2.9336020200000004 11.822560740000002 -12.117155040000002 6.465082 -3.22316 0.430644
12400 -0.39712842 20.75464422 11.062295550000002 6.262053 -6.968708 -2.310236
12420 -4.7316573 31.379394150000003 -4.91458437 3.560986 0.497174 -0.611356
12440 7.202717820000001 27.80213841 -0.25985709 1.266429 0.681475 1.639148
12460 2.07229383 17.02784484 -6.04667799 2.19696 -3.257324 1.218065
12480 -6.149359260000001 9.190439640000001 -10.2497823 2.315202 -2.205411 -0.06966499999999999
12500 -10.85632479 1.54463355 -5.416640550000001 1.635242 -1.491975 -0.47057
12520 -1.3084283700000001 1.95118938 5.000049090000001 1.052724 -1.888778 -0.634364
12540 3.26470914 0.94962762 -3.09690909 -0.340775 -1.858165 0.376015
12560 3.53788821 2.7315160200000004 -9.60507891 -2.327532 0.583113 1.913272
12580 0.43903674000000004 0.34547877 -1.7134832700000002 -3.866548 3.451467 2.289815
12600 -0.8740317600000002 0.23935419000000002 -4.15057176 -3.1946630000000003 3.094204 1.274814
12620 0.59635971 0.75233871 0.40625172 -0.36033 3.710303 0.324946
12640 1.52443476 4.490664840000002 0.9954305100000002 3.504583 -1.513811 0.4376850000000001
12660 3.00918807 8.35188084 5.166956429999999 1.841249 -1.314762 1.1190870000000002
12680 5.18446728 23.173015230000004 6.87086514 1.734372 -0.8556889999999999 0.428749
12700 -6.65605557 34.8379587 7.40404845 -1.5040950000000002 -0.458975 0.198385
12720 -22.54820652 24.533985960000003 -0.36987624 -2.954816 1.4693379999999998 0.881193
12740 -9.825715620000002 25.934167260000002 3.32368686 -3.532388 0.113542 -1.353687
12760 4.88689074 25.732238220000003 -15.29085681 -4.105315 2.252138 -2.068661
12780 9.02204118 30.65041305 -15.612379559999999 -5.56825 1.253115 -1.119404
12800 5.15318319 23.51669877 -0.32856633 -5.411615 -2.065415 0.124011
12820 4.82940414 9.120082320000002 3.5471782800000002 -6.470289 -1.404937 1.570688
12840 -1.3850739 -2.5604296200000003 0.44442243000000003 -5.1504970000000005 1.31091 1.909712
12860 -0.29967588 -9.15810588 2.70966915 -2.957097 3.519888 0.111566
12880 0.18262296000000003 -12.92921703 5.28715836 -1.76635 3.155944 -0.7481140000000001
12900 -0.38888802 -9.50508558 9.54026424 -2.1999470000000003 3.78177 -0.499844
12920 -0.54606384 -8.076004020000001 10.81291554 -1.151351 -1.995171 0.176112
12940 2.30146524 -1.13015124 2.24937414 1.028697 -3.727771 0.266199
12960 0.06421626 5.3290666799999995 -5.463640260000001 1.292556 2.010088 0.232916
12980 1.15499997 15.82149933 -17.7342237 2.546204 2.736378 0.0025280000000000003
13000 0.26344755000000003 6.674920200000001 -16.917521580000003 3.156667 0.504021 -0.374907
13020 2.9157870600000004 -2.8918408500000004 -1.41784911 3.2847760000000004 -1.316269 -0.5522090000000001
13040 3.02655177 15.52092093 16.49704536 3.341025 0.707418 -1.314983
13060 -5.3012258999999995 22.2546717 -5.97856716 4.929896 0.5913930000000001 -0.052848
13080 3.7990990800000004 11.61614853 4.293974340000001 2.629155 -3.0088790000000003 0.252956
13100 1.52862363 16.26548031 -1.0795512600000001 6.804216 -5.491389 -0.863038
13120 4.45353399 24.70597488 3.99893859 7.6165660000000015 2.759105 -1.017487
13140 -4.61250504 27.15383475 -3.6670761 2.967797 0.833887 0.678755
13160 -0.8002311300000001 30.173352750000003 -3.49313499 1.791235 -2.653757 1.414215
13180 3.22908903 18.52966755 -3.00350808 1.630068 -3.905023 0.647709
13200 -3.86465931 9.58277097 -7.85581857 1.705614 -2.7244900000000003 -0.267674
13220 -10.1048886 1.22086431 -7.084919340000001 1.977677 -2.879492 -0.901167
13240 -2.46073059 -0.35566155000000005 1.07191908 1.034921 -2.806701 -0.438896
13260 5.92587765 3.12206193 7.65433098 -2.132623 -0.051278 1.350357
13280 7.36768278 3.39868431 -14.440172850000002 -3.711026 3.931126 2.350108
13300 4.31627247 3.64027518 -6.8792428800000005 -3.590445 3.83491 1.532815
13320 -1.7738147700000002 1.63460106 -2.1427983000000004 -1.402276 3.807651 0.32715700000000003
13340 -3.8636194500000003 1.2582796500000002 -4.18559346 1.399789 1.395037 -0.029398
13360 -3.7829322000000003 4.58825472 -0.8101196099999999 3.994921 -3.037892 0.197372
13380 -0.5569921800000001 5.09195898 1.9233486000000002 0.228318 0.019071 1.6904290000000002
13400 0.59740938 21.439166400000005 7.04270691 -0.544297 4.384456 -0.804177
13420 -6.57612369 33.29331534 6.6725265600000006 4.013159 -6.7703380000000015 -0.952466
13440 -9.860590170000002 37.062180000000005 11.70371259 -6.777839 4.964586 2.309202
13460 -3.16591263 33.651223380000005 5.10783156 -0.785485 -2.911531 -1.6810009999999995
13480 5.825433060000001 25.1873712 -4.65411906 -3.972064 0.6202989999999999 -2.490791
13500 5.02924365 19.542756060000002 -17.4683727 -5.820941 -1.676843 -0.522415
13520 6.42478482 16.920964889999997 -8.303380200000001 -7.001278 -2.4028970000000003 1.447549
13540 5.84219835 4.15521189 0.9442321200000001 -6.5795770000000005 1.203788 1.433054
13560 1.99744353 -3.8862216899999997 2.53243188 -4.4139940000000015 1.491564 0.584689
13580 1.656909 -9.24058836 5.67858717 -1.7735610000000002 1.897658 -0.161167
13600 -0.057329639999999994 -13.39145442 8.62910163 -1.731209 3.766574 -0.8351770000000001
13620 -0.8089129800000001 -10.27313991 14.7494331 -2.12228 4.290262 -0.655914
13640 -1.45018287 -6.7241664 10.17269532 -0.184895 -3.132543 -0.214126
13660 2.135911680000001 2.61356058 -0.07244685 1.426505 -1.6699 -0.017806
13680 0.05957613 10.841953140000001 -8.06373171 1.494737 3.771322 -0.02537
13700 -2.61670959 18.36007227 -19.76385384 2.327657 3.937795 -0.020834
13720 -0.40385808000000006 5.82139134 -13.561952220000002 3.279658 0.77866 -0.165028
13740 4.526137800000001 -14.951803589999999 4.85829459 3.03638 -1.0595370000000002 -0.337424
13760 -3.0659291100000003 7.6670545500000005 21.210887700000004 3.459818 -0.113011 -0.312178
13780 -5.6236511700000005 43.66210275 -37.29494187 4.715575 0.192795 0.711012
13800 19.152818370000002 17.843938740000002 19.79963091 4.843438 -2.178267 0.273768
13820 1.1752085700000001 11.448044370000002 -15.2728947 5.752085 -4.6574550000000015 -0.7058810000000001
13840 3.63115188 19.58123088 6.368210550000001 4.687662 0.829528 -0.519522
13860 -6.49992942 19.896622380000004 -3.56978052 2.642375 -0.078824 1.43502
13880 -1.0990143 28.56778929 -1.5513730200000002 1.731538 -3.451897 1.79404
13900 4.387375350000001 22.061277360000002 0.6102801 1.821971 -3.576792 1.247902
13920 -0.48947976000000004 13.19610789 -9.27995589 1.56191 -2.150866 -0.003425
13940 -11.05181847 6.7237151399999995 -12.30516369 1.460029 -2.333585 -0.308346
13960 -8.574921 0.59202369 -1.18448883 -0.199133 -2.8951580000000003 0.107005
13980 3.7281433500000003 0.24938001 7.58233539 -2.820821 0.314987 1.7275040000000002
14000 7.283856330000001 1.71288486 -12.6792288 -3.71557 2.887303 2.31723
14020 4.104317610000002 3.49897194 -5.66257725 -3.254131 2.989728 1.3461040000000002
14040 0.99572481 0.98719992 -0.6342263100000001 -0.883798 4.0974910000000015 0.389159
14060 -1.14601401 0.15358536 -0.61462593 1.558211 0.37163 0.018954
14080 -3.8694564000000002 3.93427107 -0.5185173599999999 3.825342 -4.6205690000000015 0.263377
14100 -3.10200048 4.24681767 2.49815574 0.977977 -0.5576409999999999 1.6729040000000002
14120 -0.24129657000000002 15.89365188 6.5428972199999995 0.098876 2.110935 0.29067800000000005
14140 -1.89730305 26.01260802 6.9407711999999995 0.7482979999999999 -4.419134 0.242694
14160 -9.45119925 34.3637433 3.4868467800000005 -5.028979 3.420263 0.7135859999999999
14180 -12.07583532 31.269826260000002 -0.29922462000000005 -1.652407 -1.61445 -2.154463
14200 5.24045295 28.70296128 -3.9303765000000004 -3.646837 1.82483 -2.432379
14220 8.84121345 23.547384450000003 -14.47684263 -6.013489 -0.618807 0.654201
14240 9.054816390000001 21.715043220000002 -8.7864246 -5.617108 -3.291665 1.6613189999999998
14260 6.18259554 11.709549540000001 1.21098564 -5.685239 1.467467 2.116216
14280 -0.62629983 -0.83496834 2.34188244 -3.89787 3.255247 0.5069859999999999
14300 -4.3613298 -8.5979745 3.8862216899999997 -1.7532419999999995 2.169983 -0.6143
14320 -1.65526092 -15.16661316 6.110747100000001 -1.558763 2.063588 -0.54978
14340 0.04190832 -11.9502477 13.050615780000001 -2.514409 3.2446580000000003 0.09151
14360 -0.78841008 -8.685234450000001 11.27889054 -1.177281 -2.141571 0.578838
14380 1.8708062400000003 -0.49098069000000005 3.36276009 1.431107 -2.409653 0.357052
14400 1.98172791 8.1471069 -4.54514958 2.087718 1.533353 -0.316394
14420 -1.3214560499999999 17.23351149 -16.68864447 2.995231 1.809614 -0.65865
14440 -0.91938339 14.75766369 -23.136335640000002 3.389734 0.107781 -1.119458
14460 5.64072057 -5.3510705100000004 4.77402669 3.125532 1.446206 -1.532148
14480 4.10580873 -9.24911325 10.92099231 4.212878 1.920375 -0.375753
14500 0.2689902 29.46577707 16.91737443 3.656962 -2.292003 0.174827
14520 14.32671039 31.351857480000003 12.481047180000001 4.642276 -2.697874 0.120273
14540 3.0132297900000005 14.225667390000002 3.0620345400000004 7.747600999999999 -2.693852 -1.444351
14560 -1.3605194699999998 13.84156665 -2.36642706 4.315254 0.264515 -0.35903
14580 -4.932095220000001 26.01530577 3.15289476 1.835146 0.218349 1.877654
14600 -1.2271525200000002 34.49456946000001 -8.35398018 1.64965 -3.417535 1.530641
14620 5.876778600000001 18.429379920000002 -2.5354239300000008 1.963229 -2.751141 0.312068
14640 -0.9937824300000001 12.11116113 -8.28496683 1.881063 -2.28139 -0.405885
14660 -7.790994090000001 7.096887540000001 -9.636657300000001 1.345032 -1.97352 -0.475185
14680 -8.45696556 1.62996093 -4.155810300000001 -0.411859 -1.40993 0.498858
14700 2.79993096 2.22287733 4.84047963 -2.875671 2.033909 1.883015
14720 5.7754413 1.8046476000000002 -0.18755739000000002 -3.792431 3.497062 1.74655
14740 5.60015622 2.3891862600000002 -10.812317129999998 -2.499567 2.853447 0.674296
14760 -0.52436412 4.97625003 -3.6307006200000003 0.084879 4.28696 0.120081
14780 -5.71271616 2.16435087 -2.6177592600000006 2.762697 -2.736612 0.248199
14800 -6.13589013 3.62142036 -2.3546060100000004 2.3887150000000004 -1.566815 1.073028
14820 -1.2310372800000002 5.15138796 1.2487050900000003 0.740675 -0.305248 0.8334370000000001
14840 1.6717220999999998 20.135829420000004 7.0066257300000006 -1.697529 1.527466 -0.357782
14860 1.93458105 29.35635633 5.74879734 -2.4715 3.566746 1.556998
14880 -7.2673853400000015 36.71250255 10.381216680000001 -1.6976810000000002 -4.412952 -1.045583
14900 -10.98161811 29.001587490000002 5.525011620000001 -2.71003 -0.478035 -1.180543
14920 -2.63840931 24.715706400000006 -2.74215006 -5.938231 3.889999 -1.146732
14940 5.82258816 20.18253483 -15.60938751 -5.375831 -0.096892 -0.412372
14960 6.69213675 21.195476190000004 -11.4008877 -5.0383260000000005 -0.783115 1.2038799999999998
14980 8.12720241 9.82646118 1.45362618 -4.077255 -2.378214 1.7969540000000002
15000 0.0047872800000000005 -1.14362037 2.17093338 -3.231041 0.393903 0.7310909999999999
15020 -1.93712184 -8.01149346 4.06509723 -2.628566 3.613956 -0.253728
15040 0.40340682000000005 -11.437567290000002 5.970934980000001 -2.529834 3.4605019999999995 -0.059493
15060 1.1937690900000002 -11.17336437 10.41908328 -3.10489 4.1584059999999985 0.401341
15080 -1.10095668 -8.22180024 12.57953958 -1.214622 1.61818 0.7788579999999999
15100 0.6152243399999999 -1.25289396 5.63758137 1.018313 -1.069914 0.01062
15120 0.8169964200000002 7.5308427 -3.56693562 2.644013 -0.314625 -0.600697
15140 -2.5801869600000003 15.263908740000002 -13.966408710000001 3.116156 1.917743 -0.631238
15160 -1.69896447 9.96986376 -25.90558092 3.393188 1.530365 -0.700378
15180 7.060963320000001 -9.99172044 2.6906573700000003 3.263926 0.531634 -0.712819
15200 3.74371182 1.4088729600000003 10.59811578 3.568739 0.736861 -1.149992
15220 0.8972324100000001 40.68659241 5.455105560000001 3.832472 -1.844496 0.266279
15240 14.15052279 20.572766820000002 17.48932686 4.4946519999999985 -7.033977 0.621522
15260 -6.51848994 8.238565529999999 -15.97463343 8.740721 -0.287601 -0.6564220000000001
15280 0.5780934900000001 13.64846661 11.060353169999999 3.019711 5.195001 0.133008
15300 -0.18891117000000002 22.306615649999998 -0.09236115 1.53578 -0.504894 1.052891
15320 1.43372169 31.004573670000003 -3.1347855 1.415193 -4.611914 0.986809
15340 5.43025683 29.565466290000003 -3.8796293700000004 1.392775 -3.078618 0.383278
15360 -1.20963186 15.67390788 -7.87362372 1.691484 -2.2434130000000003 -0.680723
15380 -9.18370017 5.022504179999999 -5.21216091 1.176978 -1.49217 -0.8230799999999999
15400 -10.06342173 -0.76356135 -6.782241600000001 -0.885365 -1.180433 -0.27065900000000004
15420 -0.66387213 1.45033002 -2.82358287 -3.580026 1.144927 1.032134
15440 5.6495495700000005 1.34839431 0.39352815 -4.020872 3.022522 1.535122
15460 6.84197469 0.9383951700000001 -5.04017199 -2.482238 2.451716 0.689887
15480 0.49891698 3.81557007 -4.635107280000001 0.737604 2.86978 0.177731
15500 -3.3028798500000005 2.4831856800000005 -2.5394656500000004 3.661689 -1.12154 0.771565
15520 -1.5452319600000002 1.63505232 -1.00157157 1.360647 -2.090712 1.6422900000000002
15540 -1.5644007 3.66827292 -1.8811361700000002 -0.29099 0.789578 0.731892
15560 -2.08336932 4.937186610000001 1.05725313 -3.413437 4.793518 -1.777597
15580 -1.0686229200000001 22.33190583 3.62606049 1.460067 -0.419202 -0.062972
15600 -3.32458938 33.46486281000001 6.368053590000001 -7.511342999999999 -0.372815 0.642355
15620 -5.27862366 38.979387540000005 3.63907836 -1.936889 0.705683 -1.100815
15640 0.71087184 32.7705993 8.253084330000002 -6.38989 5.008668 -1.852074
15660 -0.5477119200000001 16.17716088 -17.991235890000002 -6.4763449999999985 -0.353291 -0.07469500000000001
15680 2.5104280500000002 17.82553518 -14.041553310000001 -5.790962 -1.660502 0.425286
15700 8.51728725 15.482455920000001 -4.63226238 -4.403403 -3.660173 1.389326
15720 7.75042974 7.75013544 -0.7005419100000001 -2.9281580000000003 0.706589 0.595005
15740 -1.1180260800000001 -2.3912757900000003 3.50990028 -1.870382 3.898304 -0.35775500000000005
15760 -3.55136715 -10.365344100000002 6.392460870000001 -2.250169 4.627167 -0.348523
15780 -0.97627158 -12.73551858 9.06514632 -1.07742 -0.740524 0.173953
15800 -1.46665386 -11.325301650000002 12.680278470000003 1.155801 -2.976268 0.035388
15820 -0.45699885 -3.96644787 9.306599850000001 1.466675 1.305388 -0.045907
15840 2.2432330800000004 8.11447884 -2.15866107 2.2641150000000003 3.483484 -0.106153
15860 -1.0469232 12.658274640000002 -11.715533640000002 2.940419 2.054538 -0.322857
15880 1.55466918 11.805648300000001 -23.65695234 3.0589 -0.217402 -0.232592
15900 6.65126829 -4.367019600000002 -5.739664230000001 3.133807 0.696579 -0.5569109999999999
15920 4.080518550000001 -9.52259643 6.2035497 4.875173 0.14729 0.76346
15940 1.2220611300000002 21.76474068 34.41059586 4.2176 -0.615631 0.314396
15960 0.84109959 60.697128510000006 -26.057214090000002 6.274092 -3.83248 0.059417999999999985
15980 7.120843560000001 9.887842350000001 2.6755401600000006 5.7061720000000005 -2.938423 -1.117534
16000 -4.482277290000001 2.1218343300000004 -9.823920390000001 2.564071 1.145877 1.328218
16020 -0.34937334000000003 19.5015933 6.26642199 1.539499 -2.23989 2.295346
16040 -7.2413397900000005 30.069916110000005 -2.3863413600000003 2.387261 -3.135726 1.01414
16060 4.93418475 31.310390610000002 3.7990990800000004 2.721956 -1.7283970000000002 -0.3644
16080 5.160521070000001 18.43536402 -3.66363279 1.62387 -0.7989930000000001 -0.332669
16100 -5.243445 6.2010089100000005 -14.14334187 0.082088 -1.73655 -0.299508
16120 -12.907507500000001 1.20364776 -8.81920962 -1.863513 -1.518918 0.774073
16140 -1.52278668 0.14115609 4.116442770000001 -3.096701 2.170212 1.821476
16160 4.5873620100000005 0.90651267 1.38776184 -3.277458 2.514827 1.313435
16180 5.38160904 2.54665638 -9.90759969 -1.418393 2.852077 0.346429
16200 0.48559500000000005 3.3488397 -4.44515625 1.977181 0.146238 0.342636
16220 -2.4481541700000005 0.71476641 -1.7419322700000002 3.571533 -1.117572 0.65663
16240 -3.3082655400000003 1.83548043 -1.2948120900000002 0.587122 -0.965104 1.344888
16260 -3.11023107 4.38019443 0.29159244 -0.048372000000000005 3.945551 -0.964657
16280 0.4767561900000001 9.96402681 4.93508727 1.725552 -0.81973 0.7672680000000001
16300 2.27796048 26.81015121 7.3130410800000005 -5.400564 -0.08062899999999999 0.602245
16320 -4.617302130000001 37.73997252 7.29897354 -1.448201 -2.0556080000000003 -1.499788
16340 -19.31149512 29.931909030000003 2.0959457400000003 -5.996416 4.350682 -1.749138
16360 -6.68853648 26.986485960000003 -0.18381978000000002 -5.880889 0.231901 -0.945091
16380 7.0440508799999995 25.09636383 -17.85876165 -5.882021 0.038555 0.7846
16400 10.035129690000002 25.426274130000003 -11.230242750000002 -5.452419 -1.40004 1.328896
16420 7.17322896 16.74986868 4.245768 -3.497158 -1.22062 1.119066
16440 1.40722488 0.88929612 5.65164891 -2.300794 3.172089 0.205259
16460 -4.6407970800000005 -7.7667535800000005 2.75636475 -2.237943 4.865118 -0.457701
16480 -0.58453866 -14.26323969 4.29622083 -2.330659 4.675831 -0.194255
16500 1.87335684 -11.78529255 7.313188230000001 -0.677094 -1.325141 -0.227358
16520 -1.4618567700000002 -8.43300954 10.79809263 1.102723 -2.417024 -0.178275
16540 -0.46343421000000007 -4.17706857 6.1011627299999995 1.39234 1.494815 0.066562
16560 2.04549291 5.861661389999999 -2.8611453600000005 2.763985 3.221355 -0.25508200000000003
16580 -1.04422545 11.31571728 -13.060641600000002 3.036326 1.630983 -0.2458
16600 1.1362824900000001 14.10622083 -23.306980590000002 3.088948 -0.589654 -0.407093
16620 3.4259266800000003 -6.1929254700000005 -0.7533785700000001 3.755716000000001 2.566031 -0.80279
16640 0.25970994000000003 -3.9065774400000004 4.53451554 5.524463 1.949594 0.768891
16660 0.01511721 45.659399130000004 16.379237070000002 4.3599190000000005 -3.535165 0.626779
16680 12.322076130000001 23.797068570000004 18.82709694 5.378698 -7.424158 -0.86945
16700 -1.7700673500000002 11.22215931 -5.017569750000001 5.385208 -0.036729000000000005 -1.34248
16720 2.74304277 9.508676040000001 7.93230714 2.463283 2.053455 1.15864
16740 0.9186378300000001 22.918386870000003 1.01968083 2.072594 -1.7597330000000002 1.90428
16760 -6.348600360000001 29.50139718 -2.83540392 2.109695 -2.860118 1.32911
16780 4.08739536 30.19595499 0.34787241 1.614599 -2.0210220000000003 0.512727
16800 5.42142783 19.251762030000002 -5.99458689 1.114928 -1.664614 -0.003966
16820 -6.619680090000001 8.439003450000001 -8.466697080000001 0.499416 -2.08022 0.033928
16840 -13.2803856 0.14789556 -4.631222520000001 -1.7521400000000005 -1.318295 1.121766
16860 -3.53264967 -0.42272271 -1.1512525500000002 -3.551036 2.395804 2.010293
16880 3.57366528 1.5916430700000002 2.5806382200000004 -3.539798 2.6419900000000003 1.175775
16900 6.61340169 2.04145119 -10.29184758 -1.953936 2.536837 0.25763400000000003
16920 3.0548438100000004 3.57950223 -5.39074215 1.026133 1.53723 0.166499
16940 -1.1488589100000002 2.29143942 -4.388425020000001 3.21436 -1.7143099999999998 0.479712
16960 -0.96264549 1.2317926500000003 -1.4400099000000002 1.706262 -2.975778 0.766692
16980 -0.85757058 4.307296320000001 -1.6543584000000002 0.999998 1.709464 -0.257988
17000 0.94199544 4.20924537 3.89519784 -1.185984 -0.648016 1.640813
17020 2.99767113 20.77949295 8.940157110000001 -3.66083 1.922736 0.796632
17040 -3.43999422 32.69725974000001 6.333326189999999 -1.317301 -3.225471 -2.363702
17060 -20.5914843 33.47115102 0.05927202000000001 -5.768597 0.893382 -1.294463
17080 -9.57513879 26.99845416 0.06691401 -6.178465 1.324675 -0.105743
17100 7.21125252 29.209363290000002 -8.61952707 -6.076926 0.031262 1.17849
17120 7.71825294 27.7235505 -12.64630644 -6.104768 -0.63439 1.964292
17140 5.0126255099999995 18.54029178 -3.1317836400000005 -4.585596 0.219024 1.41513
17160 2.45130318 6.26312583 0.24638796000000002 -2.278618 3.017853 -0.13728800000000002
17180 -1.78353648 -1.8450648 0.42182019000000004 -1.482425 4.506032 -1.089692
17200 -1.50886629 -8.14277088 1.43850897 -1.6835830000000005 3.468141 -0.571679
17220 0.7137167400000001 -13.61224809 5.651197649999999 -0.14607 -3.170284 0.132297
17240 -0.26989272000000003 -12.78296955 10.520871840000002 1.27021 -1.002676 0.293236
17260 -2.40669711 -8.297248950000002 12.3638373 1.819049 3.570926 0.25702600000000003
17280 1.2521484 2.66026599 4.31043552 2.929765 1.554013 -0.3522
17300 0.5224119300000001 10.32732054 -5.41858293 2.6560080000000004 0.973078 -0.557398
17320 -1.13419296 16.54748838 -16.578026910000002 3.216503 2.409535 -0.626895
17340 -0.28934595 4.94900766 -16.093628730000002 5.072443 1.678898 0.657121
17360 3.5375939100000005 -6.84511389 -3.78996597 4.130222 -0.28123400000000004 0.148851
17380 3.5501703300000003 20.57740695 15.871795200000001 5.926965 -3.369568 -0.583465
17400 0.77613777 25.715924190000003 4.29321897 6.029422 -6.775792999999998 -1.867728
17420 3.00231126 7.96583772 7.6264902 2.820878 2.37555 0.487746
17440 -3.6976146300000003 11.7333486 -5.041820070000001 1.6852759999999998 -0.831649 1.650422
17460 2.16270279 19.74379239 4.13828964 2.459755 -3.127538 1.034932
17480 -1.39479561 25.984767240000004 0.12783411 2.202007 -2.6907240000000003 0.181199
17500 2.0580693300000004 30.10389795 0.06287229000000001 1.554437 -2.1446970000000003 -0.473503
17520 4.36926609 20.975732190000002 -1.4768268300000003 0.47771 -2.283125 -0.087741
17540 -2.1095620200000003 9.80490861 -9.186692220000001 -1.691197 -0.6192979999999999 1.55713
17560 -11.83049703 2.6641605600000005 -7.60134717 -2.977107 2.982617 2.616027
17580 -7.25466177 0.30716091 0.36583452 -3.435284 3.350341 1.897715
17600 3.3983802 3.16322469 4.64978304 -1.937981 2.925066 0.658899
17620 7.40495097 3.3224900400000004 -12.02958117 1.12653 2.181742 0.074508
17640 4.57194069 4.422249900000001 -6.02018118 3.993881 -3.668835 0.272949
17660 -1.06608213 2.44771272 -2.262990420000001 1.541656 -0.354829 1.08265
17680 -5.1742943100000005 1.3374659700000002 -5.41454121 2.586753 0.723005 -0.829958
17700 -3.68683344 3.2883610500000007 2.22318144 -1.054361 -1.116648 2.036507
17720 2.11016043 13.50671211 6.83253747 -3.836534 1.034632 0.06694800000000001
17740 0.04116276 26.222316390000003 7.311697110000001 -1.598853 -0.855533 -3.108984
17760 -8.46010476 32.66701551 5.692066110000001 -5.431029 1.687693 -2.022719
17780 -15.44503077 26.541906570000002 4.6270238400000006 -6.301755 0.843201 0.259345
17800 -4.73375664 27.77219829 -1.23418629 -5.487603 -1.104531 0.188479
17820 10.218046950000002 26.55268776 -12.28450383 -5.322605 -2.286085 1.948371
17840 7.67977812 24.46542387 -8.73449046 -5.044881 0.307264 1.857257
17860 4.82865858 14.21968329 2.47136463 -2.681363 2.649878 0.325047
17880 0.79574796 0.9401904 2.57868603 -1.544708 2.811276 -0.794194
17900 -2.2808053800000003 -8.586143640000001 1.9094282100000002 -2.334997 3.859027 -0.522251
17920 -0.6093873900000002 -14.77263375 4.135896 -0.20382 -1.103291 0.092925
17940 2.24383149 -11.71314 7.96703454 1.288183 -0.5511149999999999 0.30667
17960 -0.022906350000000002 -8.01178776 11.12127327 2.085454 2.446551 0.153505
17980 1.3103707500000001 -3.5956691100000002 5.47665813 2.735489 2.496332 -0.337673
18000 3.0401778600000005 5.7532903200000005 -2.6072821800000003 2.9148970000000003 0.462789 -0.51007
18020 -1.01683593 13.99544631 -11.07936495 2.720354 0.699521 -0.667693
18040 -2.91877911 18.493144920000002 -19.07737947 3.789037 2.329016 0.097189
18060 -0.22572810000000001 -0.69350814 -2.23081362 4.645157 0.231014 0.27250100000000005
18080 2.9181807 4.175567640000001 9.322011360000001 4.206798 -1.164033 0.270158
18100 3.6178299000000003 33.60676446000001 6.438558060000001 6.529463 -4.71801 -1.154368
18120 10.38450303 6.60037401 15.025152960000002 4.467022 -0.689177 -0.4229770000000001
18140 -1.1563439400000002 10.250979120000002 -4.32016704 1.434283 1.334676 1.979178
18160 -0.66760974 17.298326160000002 5.45196636 1.411109 -2.606767 2.245781
18180 -6.1340949 24.425153820000002 1.7631807300000002 1.967397 -3.096477 1.419217
18200 1.38027681 34.10867349 -3.10798458 1.906301 -2.51596 0.156477
18220 6.97459608 25.944948450000002 -3.9609150300000002 1.6119059999999998 -2.535364 -0.5954470000000001
18240 3.10783743 16.267873950000002 -5.16336597 -0.419279 -2.096112 0.275359
18260 -9.127567350000001 6.396502590000001 -8.96605551 -2.710761 0.489822 1.865849
18280 -13.09402503 -0.6228565199999999 -7.03790982 -3.669993 2.682105 2.177875
18300 -1.12072383 0.63587439 2.0228906700000007 -2.594391 2.90599 0.936349
18320 5.041211850000001 2.99257974 0.26525259 0.148021 4.344208999999998 0.13433599999999998
18340 4.430637450000001 4.23394695 -8.52926526 3.037003 -3.141595 0.05515
18360 -0.45176031000000005 3.66318153 -4.23079794 3.048079 -2.034862 0.59967
18380 -3.1177161 1.03180599 -2.15596332 1.599638 3.173187 0.012448
18400 -3.1783419 1.33222743 -2.17812411 -1.970085 -0.016063 2.258368
18420 -1.04916969 4.099824629999999 1.3665035700000001 -3.728391 0.410324 0.78528
18440 1.21577292 17.071999650000002 6.48901089 -1.388718 -2.693523 -3.991785
18460 0.9843550200000001 23.697820800000002 5.197190850000001 -5.772476 3.252513 -3.30577
18480 -6.350994 33.63190749 5.638022820000001 -6.7844440000000015 2.239661 -0.623895
18500 -14.85720576 32.68917630000001 2.5921551600000003 -5.391096 0.732245 -0.221261
18520 -2.274968430000001 26.30733966 1.02865698 -4.361839 -2.396077 1.715941
18540 8.060141250000001 22.62739284 -18.789377490000003 -4.198818 -2.298051 2.101514
18560 7.73980551 22.93859547 -9.95400099 -3.000106 2.987552 0.605467
18580 4.12976475 12.26175444 0.85951296 -1.20934 3.217645 -0.942992
18600 0.9488722500000001 0.6948521099999999 2.0408527800000003 -1.894782 2.249415 -0.376108
18620 -1.03793724 -7.4522547900000005 4.11209694 -1.157239 -1.660477 0.397832
18640 -1.11652515 -11.86957026 6.68525013 0.46221 0.716915 0.667812
18660 -0.265851 -12.219542010000001 10.89719325 1.13611 2.123443 0.259452
18680 -0.45819567 -7.88425776 11.825111340000001 2.495021 0.059698 -0.308456
18700 0.55893456 -2.48498091 5.01187995 3.02144 -0.868834 -0.861201
18720 0.42870681 5.257071090000001 -3.4127518500000003 2.725149 -0.694808 -1.233099
18740 -2.89243926 12.81858966 -14.26369095 3.422318 2.915787 -0.334481
18760 -0.4391838900000001 12.70602972 -26.851166820000003 4.584354 3.595321 0.549775
18780 4.783002840000001 0.90846486 1.3407621299999999 4.565834 1.799527 0.500672
18800 6.965610120000001 35.87110866 13.87539153 4.832816 -3.47759 -0.327118
18820 8.78149017 9.13115781 9.915830280000002 6.0567769999999985 -5.565845 -1.042284
18840 -0.8196941700000001 2.20161906 2.49021945 3.325097 0.8555659999999999 0.010379
18860 -5.14360863 7.638468210000001 2.34052866 1.444232 -0.449004 1.540357
18880 -3.42862443 22.21440165 6.53481378 1.660378 -2.454674 1.292337
18900 -5.3328141 34.963840620000006 0.02110131 1.832768 -3.140236 0.226197
18920 5.22368766 32.34189249 0.49143195 1.834344 -3.0796360000000003 -0.542989
18940 9.78141366 22.530244409999998 -4.14712845 0.044267 -2.778207 -0.046337
18960 -3.38191902 8.042022180000002 -9.727674480000001 -2.075384 0.498742 1.7484990000000002
18980 -14.59180602 0.5936619599999999 -9.928701 -3.055532 2.560235 2.550859
19000 -4.916526750000001 -1.0955709900000001 -3.4735248000000003 -2.838068 2.6086400000000003 1.447775
19020 4.7264187600000005 1.4314752 3.9204978300000004 -0.098575 3.684258 0.217849
19040 7.8977268899999995 1.7884807200000001 -9.65057769 2.477335 -1.150742 0.044416
19060 4.88524266 4.58511552 -2.18111616 3.111939 -1.971669 0.45903
19080 -3.15678933 3.5979156 -3.7770952500000003 1.714708 -0.272698 0.640441
19100 -7.099134030000001 1.9059849 -1.5058644300000001 -0.5660189999999999 -0.754709 0.081403
19120 -5.56332948 3.2352202800000005 0.48753738 -2.799486 2.222784 1.736959
19140 -1.4890991400000002 7.186109490000001 1.7525565 -3.507347 -0.847664 -0.761554
19160 -0.23770611 25.5084525 9.67647609 -3.291932 0.03624 -2.475678
19180 1.89864702 30.927633840000002 6.25549365 -6.284737000000002 2.8500490000000003 -1.052748
19200 -12.844193760000001 33.76004571000001 3.7663140600000014 -5.322996 0.7362 0.062288
19220 -12.401713710000001 28.474535430000003 0.9225324 -5.648979 -0.930946 1.139983
19240 2.6229978000000003 23.832992790000002 0.6875240400000001 -5.4279980000000005 -0.720018 2.277845
19260 11.391607440000001 20.04317397 -11.61479475 -3.648305 1.417844 1.305841
19280 7.91269695 18.86167719 -8.07047118 -2.064236 4.551344 -0.728482
19300 2.43004491 11.60402337 1.09961271 -1.688133 5.133761 -0.981906
19320 -0.54950715 0.24069816 5.8207929300000005 -1.80467 3.009955 -0.437342
19340 0.44862111000000005 -12.14320059 5.485644090000001 0.5411279999999999 -2.947629 0.332296
19360 1.18958022 -14.431186890000001 7.42501242 1.193435 0.817546 0.4431229999999999
19380 0.10657584 -9.628573860000001 10.953620370000001 2.1279220000000003 3.313682 0.11744
19400 0.18067077 -5.3880444 6.92040564 3.029118 0.960903 -0.500297
19420 3.12206193 2.4644780100000006 -0.78286743 2.726887 0.291457 -0.391523
19440 -0.44038071 8.06328045 -9.21034413 2.93946 0.857093 -0.835144
19460 -3.75554268 15.44413806 -18.22834359 4.847405 2.210875 0.219033
19480 -1.3365732600000002 4.221674640000001 -9.10646604 4.925082 0.98986 0.470036
19500 0.76236453 -5.02025769 1.35618345 5.2960980000000015 -1.940002 -0.028887
19520 0.44996508 32.571515160000004 8.98251669 6.507751 -6.866037 -1.559828
19540 8.828342730000001 15.1226055 12.68716509 3.184099 3.254913 0.311831
19560 2.33289648 9.661506030000002 1.9938530700000001 1.381142 -0.625555 2.588068
19580 0.97926363 14.75750673 1.52458191 2.55455 -4.417317 1.6835209999999998
19600 0.329616 22.764811320000003 4.13260965 2.0853200000000003 -3.292995 0.379845
19620 -5.01456789 31.45453875 -2.7759749400000002 1.455618 -3.222382 -0.215371
19640 2.7707364000000005 31.836697110000003 -0.4128440400000001 0.313152 -2.6105240000000003 -0.121586
19660 4.827314610000001 17.366132880000002 -2.0210954400000003 -1.904802 -1.1587 1.303161
19680 -5.713912980000001 9.166336470000001 -10.782828270000001 -3.3360830000000004 2.236579 2.214961
19700 -14.48133561 1.22775093 -7.1040782700000005 -3.5177080000000003 2.805136 1.648943
19720 -5.702091930000001 -0.22048956 -2.36972322 -2.085023 2.576784 0.504495
19740 4.34066994 4.131412830000001 4.51910403 0.624532 1.562407 -0.186715
19760 8.55665478 3.2055842700000006 -13.14072063 3.37991 -3.298256 0.040654
19780 6.540052320000001 3.1045412700000004 -3.13747344 1.247785 -0.479433 1.062597
19800 1.3927060800000002 2.79558513 -2.02783491 1.284841 1.102846 -0.385544
19820 -4.4825814 1.38192489 -4.8731175 -0.17306300000000002 -1.712577 -0.478646
19840 -4.33184094 4.34831193 1.36890702 -3.436878 3.408231 2.073887
19860 0.7857123300000001 5.335502040000001 3.41035821 -2.110333 -2.0222860000000003 -1.7992849999999998
19880 0.39053610000000005 23.070177 7.6526829 -3.583104 0.121368 -1.934096
19900 -4.82177196 29.45125827 6.618934530000001 -5.406848 1.17888 -0.544547
19920 -15.82972992 31.549891950000003 8.42088438 -5.753328 -1.161808 0.6225310000000001
19940 -8.82160326 26.00631981 1.47233385 -6.034452 -0.247892 1.420563
19960 8.26147188 26.264087370000002 -12.390334110000001 -5.171593 -0.338008 1.629667
19980 9.95669874 26.388321210000004 -13.76597079 -2.9617880000000003 0.905243 -0.035735
20000 7.0998893999999995 20.04736284 -0.49277592000000003 -1.862246 3.839347 -0.805207
20020 4.4396136 5.18521284 1.68190488 -1.738203 4.455394 -0.726082
20040 -2.9970629100000004 -4.5137183400000005 1.75330206 -1.388043 -0.056846 -0.298043
20060 -1.8788896800000001 -11.4814278 3.8513373300000002 0.8468870000000001 -3.910976 0.41792
20080 0.37691982000000007 -14.71245921 7.260057270000001 1.433022 1.608435 0.388236
20100 1.5473313000000002 -9.863287920000001 10.246643100000002 2.369018 3.383696 -0.283686
20120 -1.42248924 -5.99368437 8.29605213 3.106667 1.164892 -0.697638
20140 1.18238949 4.58241777 0.03248091 3.191115 1.269675 -0.867029
20160 -0.89873334 11.594586150000001 -8.30562669 4.390766 2.792493 0.08797999999999999
20180 -3.2693492699999998 17.76685176 -18.58744845 4.197253 0.201126 0.675335
20200 0.5751014400000001 1.88936676 -8.440651529999998 3.79157 -2.570075 0.33315300000000003
20220 1.05455538 -10.63029258 1.69223481 7.129525 -4.9077980000000005 -2.163676
20240 0.04819653 27.38809755 15.298940250000001 5.888351 -4.269567 -1.919995
20260 1.77396192 26.480682360000003 -9.17322309 2.403692 2.531034 1.126634
20280 6.63076539 11.47139217 5.09540229 2.1823360000000003 -1.783805 1.436128
20300 -1.2713073300000002 12.53912238 -1.6423803900000002 2.459707 -3.248535 0.923991
20320 0.0925083 21.4420113 5.52111705 1.495276 -1.8019999999999998 0.456066
20340 -6.507718560000001 26.60941899 -4.4420170500000005 0.866598 -1.508617 0.094512
20360 1.6429788 30.13982217 -1.7637791400000002 0.514737 -1.367263 -0.051268
20380 3.5265184200000004 17.762211630000003 -1.91062503 -0.319666 -0.986625 0.587622
20400 -3.7922124600000005 9.60088023 -12.71156256 -2.177521 1.485648 1.7219509999999998
20420 -8.81143029 2.3546060100000004 -9.31961772 -3.765671 3.5714269999999995 2.040402
20440 -5.8586693400000005 0.9662359500000001 -2.87163225 -2.803732 2.568378 1.363677
20460 3.4159008600000003 4.32600399 5.77424448 0.121061 2.757766 0.751476
20480 6.59154501 2.7208917900000005 -9.35419797 3.233069 -2.85379 0.6383310000000001
20500 5.03702298 3.4356581999999998 -6.1790050800000005 2.315253 -1.319101 1.526192
20520 -0.10508471999999999 2.4351363000000004 -1.3959924300000002 -0.376907 0.896423 0.7268819999999999
20540 -3.98860866 1.4635048499999999 -3.22144704 -1.975011 3.921181 -1.98969
20560 -4.285292490000001 3.31395534 1.63190331 -3.3575230000000005 2.763009 0.8574950000000001
20580 0.41882814000000007 10.966049640000001 7.1380601100000005 -3.344184 -2.653142 -0.411997
20600 -0.67210272 22.719008430000002 7.616307420000001 -3.845063 1.269665 -0.891608
20620 -6.765034860000001 25.713677700000005 5.174588610000001 -6.366918 2.224533 -1.197799
20640 -17.011373850000002 24.576639840000002 2.70802107 -6.224038 -0.49778 0.141965
20660 -6.43197555 27.78806106 2.58707358 -6.056547 -0.14685299999999998 1.214112
20680 8.25728301 28.482766020000003 -14.95120518 -4.7495949999999985 -1.552093 1.714287
20700 7.09584768 26.605377269999998 -16.46231796 -2.443141 1.924876 0.006104999999999999
20720 4.13290395 17.95800942 -1.3186111500000002 -1.598168 4.296952 -1.184236
20740 2.30595822 6.03110952 0.7520346000000001 -2.31646 3.760756 -0.471789
20760 -2.42540478 -2.2020703200000002 -1.1599344 -0.558368 -3.00292 -0.071623
20780 -1.27310256 -6.800213520000001 1.6560064800000003 0.999722 -2.142493 -0.011636
20800 -0.0953532 -8.60874588 5.365589310000001 0.981121 3.516166000000001 0.29183600000000004
20820 0.9307629900000001 -9.02024595 7.87796955 2.573137 2.479864 -0.074935
20840 -3.0804479100000006 -9.08910234 9.992318850000002 3.14384 1.213637 -0.133419
20860 -1.87200306 -4.72732128 7.313345190000001 3.66735 0.202944 -0.117785
20880 2.0956416300000003 7.089853770000001 -2.5848270899999997 4.199675 1.54172 0.288005
20900 -1.6976205000000002 13.798451700000001 -13.53874176 4.189538 0.578759 1.348845
20920 2.7345178800000003 10.6166763 -20.90298123 3.406162 -2.404405 0.794925
20940 4.48946802 -9.67827132 -1.2274468200000002 7.225055 -4.791421 -0.981705
20960 2.29592259 -4.13754408 12.08691081 6.620477 -5.702644 -2.217488
20980 -3.9357621899999997 36.56371428 18.0612891 2.979668 2.23585 0.387553
21000 11.286532529999999 33.06818565 25.585990740000003 1.451417 -1.094371 0.954781
21020 -2.1371085 14.299909470000003 -15.067816650000001 2.4754080000000003 -3.506683 0.732152
21040 0.43724151 13.86342333 6.46146441 2.242655 -2.4958720000000003 -0.362492
21060 0.07634141999999998 20.74940568 3.1626262800000005 1.689741 -2.0564310000000003 -0.818775
21080 -0.82043973 29.46338343 0.5225590800000001 0.679383 -2.185234 -0.233872
21100 3.7908684900000003 29.118493260000005 1.02282003 -1.051518 -1.771725 1.219108
21120 1.00875249 13.15360116 -12.40126245 -2.958948 2.112877 2.452763
21140 -10.85826717 3.91780008 -8.477919720000001 -3.924568 3.643236 2.335098
21160 -8.11417473 -0.92073717 -1.10575377 -3.247852 2.717028 1.337951
21180 3.5031608100000002 2.86594245 5.1076746 -0.327814 2.512364 0.438871
21200 6.145317540000001 3.20214096 -10.48868523 3.0196110000000003 -2.1756830000000003 0.143521
21220 3.07041228 3.6109432800000003 -7.937839980000001 1.870949 0.769089 1.582369
21240 -0.23860863000000002 0.74095911 -1.5069141000000001 0.464437 -0.279481 1.554661
21260 -2.28903597 1.0743127199999998 -4.336628220000001 -2.016051 3.592512 -1.0153370000000002
21280 -0.59322051 2.15507061 0.8271792000000001 2.619088 0.321093 1.079696
21300 2.18844423 6.670574370000001 1.4392545300000001 -6.56514 2.958055 0.6831520000000001
21320 2.78750169 20.388947039999998 7.39612197 -0.643232 0.452271 -1.719569
21340 -2.6887051800000004 26.005721400000006 5.77169388 -5.006553 3.323624 -1.775091
21360 -11.858936220000002 27.730133010000003 1.46859624 -5.096382 -2.984674 -0.433425
21380 -15.526757880000002 28.945454670000004 3.64208022 -7.361122999999999 -0.622534 1.155403
21400 0.78541803 29.018352780000004 4.74737292 -6.36078 1.111422 0.367547
21420 5.7785805 26.473501440000003 -19.006129440000006 -3.861055 1.3043360000000002 0.572768
21440 5.25152844 26.867480850000003 -9.51616107 -2.5150650000000003 2.972457 -0.035264
21460 6.086045520000001 11.83169385 2.05642125 -2.189028 4.823315 -0.701929
21480 5.8249916100000005 2.19743019 -0.19683765 -1.150181 1.533866 -0.833599
21500 -2.27437002 -6.412218210000001 0.0056898 1.58174 -5.323591 -0.469239
21520 -3.83098158 -14.71739364 2.59171371 2.077066 -0.221466 0.302144
21540 3.4471849500000005 -9.72587925 8.11941327 2.268199 5.002228 0.507225
21560 0.87417891 -8.331819390000001 11.944410750000001 2.850785 2.738856 -0.34786100000000003
21580 -0.86250501 -7.44386724 9.24372756 2.700063 2.548467 0.240989
21600 2.9337491700000005 1.75210524 -0.26165232000000005 3.662893 -2.040361 -0.421521
21620 1.8800865 9.40868271 -6.9904588500000004 3.907915 -1.727071 -1.456387
21640 0.043860510000000005 18.245707290000002 -16.51171131 4.083062 -2.1723790000000003 -0.272071
21660 0.567018 7.57544877 -8.56504233 4.290888 -7.454586 -0.043797
21680 2.13471486 -10.47132153 2.5993458900000004 8.979534 3.212156 -0.678467
21700 -0.83870595 6.407421120000001 21.41596575 4.010443 2.2884290000000003 -0.067855
21720 -9.04509468 40.53481209 -31.91543217 2.236366 -0.671994 1.20755
21740 18.23941908 20.08058931 19.23694893 1.60646 -3.475247 1.348815
21760 -3.53788821 8.55620352 -17.49905838 2.032665 -3.206147 0.551349
21780 6.39230391 18.55076886 11.558809080000001 2.031612 -2.197036 -0.585471
21800 -3.55525191 23.885083890000004 -6.84706608 1.22439 -1.713448 -0.672914
21820 -4.56445566 26.78425281 -5.4564495299999995 -1.229801 -1.399666 -0.292012
21840 3.7712583 19.421514270000003 -1.53266535 -3.697822 1.112054 1.096515
21860 3.9721376700000004 16.73819478 -2.6997904800000003 -4.1997 3.523132 1.707352
21880 -4.18274856 10.81635885 -8.42372928 -3.251539 2.619947 1.110519
21900 -11.04971913 1.3910580000000001 -4.82327289 -1.210731 2.83393 0.175919
21920 -1.2693649500000002 1.41844752 4.25640204 2.654784 -1.277091 0.318214
21940 6.0099984 1.4561767799999998 -10.84793724 3.313168 -1.076406 0.975239
21960 7.67872845 2.11510467 -6.005956680000001 0.157817 1.703459 1.970857
21980 4.9889736000000005 1.29420387 -0.036071370000000005 -2.150559 5.103342 -0.433895
22000 -1.78429185 1.10155509 -5.54222817 3.52256 -5.63661 -0.33029899999999995
22020 -3.1454097300000003 1.84880241 2.37675699 -5.188608 1.556806 0.658243
22040 -3.46215501 4.20130908 0.8406483299999999 -0.430269 -2.608744 -2.316636
22060 -4.4718002100000005 6.123166560000001 1.00516203 -6.066033 4.130946 -2.148858
22080 -3.46993434 24.810009930000003 3.64177611 -5.4798160000000005 -1.774719 -0.318013
22100 -10.415787120000001 40.26776427 8.78807268 -6.5144160000000015 -2.702625 0.5903470000000001
22120 -2.8674335699999998 39.15452547 6.899902740000001 -5.974739 -0.768129 0.666413
22140 2.0477394 23.642433540000003 -1.8049419 -4.303008 0.8453799999999999 0.645045
22160 1.36066662 16.630569270000002 -17.277970410000002 -2.150941 4.055166000000002 -0.44751
22180 7.024587840000001 22.52799792 -13.950094680000001 -1.50232 3.686716000000001 -1.042848
22200 9.30928779 15.386357160000003 -3.1481074800000006 -1.332445 0.082794 -0.90031
22220 5.69879577 4.56610374 1.11712356 0.387365 -4.961513 -0.470568
22240 -2.83614948 -4.678967790000001 1.6932746699999999 0.869072 -0.501648 0.553643
22260 -2.7906507 -12.43958031 5.48354475 1.511973 3.755822 0.6381359999999999
22280 -0.5041555199999999 -17.521219170000002 11.19522105 2.860337 2.1619200000000003 -0.200708
22300 -0.66088008 -9.33668712 14.940276840000001 2.990723 0.986621 -0.238884
22320 0.27587682 -1.2871701 7.70208606 2.856632 0.937629 -0.125458
22340 2.5325790300000004 8.98446888 -1.3897140300000002 4.342406 0.273772 0.497862
22360 -0.3634408800000001 12.801824370000002 -8.860823640000001 3.712157 -2.14475 0.864027
22380 -0.01781496 14.477745150000002 -26.691146100000005 3.970989 -4.225999 0.29914
22400 3.5624426400000004 -0.34383069000000005 -4.9355385300000005 7.691636 -6.223694999999998 -1.7820490000000002
22420 4.239479790000001 -13.420639170000001 11.176062120000003 6.5094970000000005 -1.037839 -1.580103
22440 -2.5981490700000003 28.424239560000004 25.607847420000002 2.384394 1.582915 1.149078
22460 4.153858110000002 37.366947270000004 -32.43126159 1.790112 -2.096042 1.271419
22480 4.79976813 12.17388627 0.3210813 2.220782 -3.295617 0.385067
22500 -3.18731805 7.1160562800000005 -4.01315328 1.784973 -2.14531 -0.253975
22520 1.6932746699999999 23.14382067 4.50442827 1.408893 -2.062893 -0.291959
22540 -1.0672789500000002 31.699131480000005 -4.38093999 0.761798 -2.606175 0.000115
22560 5.6693069099999995 22.58354214 1.6860937500000002 -1.24404 -1.366292 1.494981
22580 1.9208078100000001 21.34980711 -8.13632571 -3.474493 2.929089 2.846562
22600 -1.9526903100000002 14.213846340000002 -12.286151910000003 -4.121557 3.267718 2.108808
22620 -10.797945480000001 4.00566825 -6.0134417099999995 -2.357479 3.369616 0.673559
22640 -6.140235960000001 0.88361613 0.53319312 0.644416 2.010689 0.111952
22660 2.07887634 -0.38410074000000005 -1.49718258 4.13694 -4.145528 0.011776
22680 7.980650820000001 0.19444401 -7.069046760000001 0.530593 0.713913 1.358365
22700 6.963069330000001 0.27707364 -1.57143447 -0.378738 3.09866 -0.945583
22720 2.48572647 1.7435705400000001 -2.72658159 0.7389020000000001 1.4507139999999998 1.802188
22740 -3.8302360200000005 1.4705386200000001 -5.56782246 -4.737316000000001 1.4595280000000002 0.085748
22760 -4.7026197000000005 2.01855465 2.2878391500000004 -0.911308 -1.194466 -2.596341
22780 0.11690577 8.955578430000001 4.315075650000001 -6.0675050000000015 2.520858 -1.767586
22800 -2.54845161 26.20346157 6.0616480500000005 -5.020217 -1.104171 -0.306048
22820 -8.454414960000001 29.098735920000003 4.631065560000001 -6.193489 -2.368538 1.212798
22840 -13.99948803 26.419762260000002 4.47883398 -6.718886 -0.039118 1.752004
22860 -5.6137725000000005 29.281211730000003 3.2545361700000006 -4.9424980000000005 1.533583 1.18983
22880 6.290819460000001 26.522747640000002 -5.038072649999999 -2.68513 3.775191 -0.565182
22900 5.5244132100000005 22.4627418 -18.8190135 -1.7644369999999998 5.444187 -1.0234299999999998
22920 5.44552119 19.29786903 -5.85073305 -2.202203 3.5513220000000003 -0.942877
22940 6.11658405 8.80753572 0.78616359 0.557828 -5.53292 -0.51351
22960 -0.026496810000000003 -2.276910810000001 -0.6604288200000001 1.42414 -3.098725 -0.20934
22980 -2.4881299200000004 -7.626343050000001 1.87006068 1.7172 4.276079 0.360097
23000 -0.30342330000000006 -11.374695000000001 4.61190663 2.862018 4.591397 0.433919
23020 1.70764632 -9.90190989 10.35412146 2.946527 2.890327 0.5830350000000001
23040 -1.3159134000000001 -9.33638301 13.353283710000001 3.486098 1.584888 0.7668699999999999
23060 1.27460349 -2.19128913 4.8957197400000005 3.32006 -3.280402 1.752573
23080 1.8925157700000002 6.52493511 -3.90882393 2.769337 -2.985432 0.660898
23100 -1.7880294600000002 15.273189 -13.36929363 7.718934 -4.662387 -0.11316
23120 -3.7988047800000007 13.186974779999998 -24.614810549999998 7.320064 -6.741607000000001 -2.477257
23140 4.310886780000001 -9.23339763 4.864288500000001 4.883413 0.592591 -1.109646
23160 0.46778004 14.860943370000001 20.5428267 2.030216 1.696311 0.538641
23180 2.2968251100000003 32.021115300000005 -22.364396550000002 2.064469 -2.281461 1.049246
23200 8.092170900000001 13.15569069 7.3167885 2.388318 -2.522915 0.67794
23220 -2.5930576800000003 10.466534249999999 -7.99068645 2.004142 -2.025879 -0.473719
23240 3.8272439700000005 19.53003249 6.449790510000001 1.201541 -2.424202 -0.333536
23260 -0.44382402 27.695856870000004 -5.954463990000001 0.164214 -2.528773 0.341946
23280 -0.42676443000000003 30.8295927 -6.01314741 -2.112843 -0.080324 1.669931
23300 2.97969921 17.73332118 -1.9959524100000001 -3.970798 3.65263 2.423425
23320 -1.8511960500000002 11.949649290000002 -6.8115833100000005 -4.036896 3.26542 1.545382
23340 -9.069345 5.3810106300000005 -6.618934530000001 -2.318261 3.469936 0.593588
23360 -9.58382064 2.03336775 -0.78122916 0.844987 1.09584 0.14870799999999998
23380 0.7171600499999999 3.2698005300000004 7.325470350000001 3.348682 -1.642614 0.814912
23400 5.8405502700000005 2.9353972500000003 -11.98692729 0.645612 -0.28983400000000004 1.5890540000000002
23420 5.36484375 3.2687508600000004 -7.0477983 0.876138 2.319555 -0.33868400000000004
23440 4.124222100000002 -0.27647523 -3.9627102600000006 0.7986850000000001 -2.948541 1.667238
23460 -0.6650689500000001 -0.11092167 -2.9180335500000005 -4.8727550000000015 2.046784 0.663026
23480 0.31959018000000006 0.14773860000000003 -0.82763046 -0.483458 -1.260648 -2.666975
23500 3.9833701200000005 10.23002496 4.84317738 -4.994825 2.112863 -3.229444
23520 2.57794047 27.094857030000004 7.08432093 -6.419302 0.204717 -0.340999
23540 -7.20452286 24.68456946 7.7799186 -5.717341 -1.956663 0.365291
23560 -18.48850479 22.192996230000002 3.2739894000000005 -6.03776 -0.559584 1.847159
23580 -12.31205031 25.636443570000004 0.31464594 -5.715708 1.169851 1.711529
23600 7.71555519 28.19267451 -3.3332712300000003 -2.900541 3.092226 -0.08190700000000001
23620 7.73201637 28.277099370000002 -16.743129210000003 -1.230955 4.555696 -1.206572
23640 2.45295126 22.203473310000003 -6.8433186599999996 -1.86452 3.223113 -0.677315
23660 5.350619250000001 12.72279501 -1.1795445900000001 -0.412559 -2.979557 -0.44558
23680 3.65629491 2.50294302 -2.2088097900000006 1.392768 -1.4497950000000002 0.113067
23700 -2.65997169 -10.756635569999998 -0.91070154 1.342929 2.0241290000000003 0.673357
23720 -1.18717677 -11.71748583 3.26171709 2.874961 2.445939 0.154748
23740 2.02663809 -10.240354890000003 10.09709946 3.419165 1.188229 -0.411338
23760 0.34802937000000006 -11.09941659 11.8748088 3.206557 1.785829 -0.222377
23780 -0.21749751 -6.138136620000001 8.008648560000001 4.411328 1.833236 0.729218
23800 2.41358373 4.6158012 -1.4531749200000001 3.071098 -3.149915 0.773243
23820 0.5641731000000002 13.438905390000002 -9.57124422 5.001505 -3.966754 0.109453
23840 -2.32062417 18.468894600000002 -19.10177694 7.615906 -6.725378999999998 -2.529691
23860 3.7372764600000004 -1.5471841500000003 -1.9220046300000002 4.856903 -0.032619 -0.581328
23880 0.86340753 -2.44546623 5.217105149999999 2.249573 1.646585 1.0615290000000002
23900 -2.33035569 35.12400849 10.189313460000001 2.068801 -2.216807 0.861187
23920 13.10300118 14.78954619 11.707008750000002 1.952405 -3.3079410000000005 0.502849
23940 1.63295298 11.92075884 -1.3632172200000001 1.565703 -2.356077 -0.103549
23960 0.4363389900000001 15.052699440000001 0.5215192200000001 1.442023 -1.930332 -0.171188
23980 -1.02506652 20.805685649999997 1.42488288 0.392153 -1.927467 0.554275
24000 -5.135368230000001 30.36360789 -5.7431075400000005 -1.759715 0.303475 1.821457
24020 6.577771770000001 27.65184921 0.28425456 -3.318995 3.02146 2.522791
24040 3.25573299 18.48551274 -4.57119513 -3.278865 2.735217 1.611176
24060 -4.134404879999999 8.693622 -10.324328490000001 -1.485711 3.544835 0.588625
24080 -10.742411070000001 2.77403256 -7.505238600000001 1.281232 -0.08506699999999999 0.18211
24100 -7.7207937300000005 2.54051532 1.07401842 2.812622 -1.224643 0.385479
24120 1.17939744 3.83083443 -1.2726513 1.259241 0.523551 1.178896
24140 7.74130644 2.56177359 -7.388784090000001 0.126224 -0.395352 0.722438
24160 6.30952713 1.2802834800000003 -1.72770777 -2.36428 2.638062 1.937088
24180 1.64388132 1.73339757 -4.51595502 -5.220897 2.028893 -0.952398
24200 -2.883159 0.8048810700000001 -2.47675032 -1.91745 -0.707976 -3.768355
24220 -2.2159907100000003 3.4323620400000006 0.1038879 -6.712025 1.075265 -2.004176
24240 1.32205446 13.866111270000001 6.142629600000001 -5.5987269999999985 -0.536985 0.080153
24260 -2.9324052000000003 25.048912860000005 4.96577295 -5.195822 -0.917283 0.261848
24280 -7.44940989 27.52566318 4.04758638 -5.169351 0.061127 2.245536
24300 -15.34099572 26.44161894 1.5940367100000001 -4.618315 2.175509 2.348156
24320 -2.71325961 31.033915380000003 -1.9537399800000002 -1.917797 2.704011 -0.021134
24340 9.55852065 29.786554260000003 -11.462416020000001 -0.976137 4.51222 -1.211145
24360 7.06605471 23.88552534 -11.34131157 -1.273732 2.728735 -0.634099
24380 3.94669053 15.813268740000002 -2.5129786500000004 0.407817 -1.828417 0.013737
24400 2.15911233 5.14644372 1.24256403 1.517195 0.7755920000000001 0.530896
24420 -1.38716343 -6.452037 0.5742087300000001 2.422529 1.214045 0.123256
24440 -2.2330601100000003 -11.42125326 3.51169551 3.166223 0.6778420000000001 -0.428474
24460 1.70735202 -9.179962560000002 8.48959362 2.962907 1.214547 -0.470106
24480 0.50879565 -8.04367026 11.40463512 3.530882 2.604414 -0.35041500000000003
24500 -1.00141461 -6.4873628100000005 7.9896367800000005 4.592574 0.928004 1.041428
24520 1.60331697 1.71842751 -0.03307932 3.006383 -2.746619 0.142024
24540 -0.7165616400000001 7.059168090000001 -7.076688750000001 5.731215 -6.6741220000000006 -0.928838
24560 -2.51252739 15.362253990000001 -17.55878166 7.868855 -1.070971 -1.39965
24580 0.40266126 5.90911236 -5.955062399999999 3.654148 1.921023 0.744113
24600 1.9723005000000002 -5.54596578 3.7830793500000004 1.840717 -1.535924 1.01575
24620 0.25911153 19.09474317 5.4167876999999995 1.505277 -3.008446 0.585868
24640 11.73275019 19.79468667 9.28788237 1.506077 -2.593319 -0.130367
24660 3.79371339 15.90637545 3.86511057 1.48675 -2.1873240000000003 -0.410896
24680 -1.6190325900000002 14.611416210000002 -5.083129980000001 1.007842 -2.797421 -0.33868400000000004
24700 -3.0072456900000004 20.502713610000004 4.73181426 -0.633698 -2.520371 0.796765
24720 -4.63765788 32.68004319 -3.5042104800000002 -3.233336 2.19206 2.336445
24740 6.293213100000001 32.10494175 -1.06682769 -3.948459 3.5950910000000005 2.141645
24760 8.13813075 21.16119024 -2.3147872200000004 -1.794785 4.135897 0.631642
24780 -6.083053469999999 7.64639469 -7.805669850000001 1.354171 1.598186 0.355651
24800 -17.72104887 0.48079791 -11.41451379 3.254443 -1.434863 0.624912
24820 -7.1983818 -0.83870595 1.0762649100000001 0.287149 -0.648151 1.463096
24840 4.42030752 3.4561611 1.07446968 0.20740100000000006 3.066228 -1.068566
24860 9.026975610000001 2.3138847 -7.847578169999999 2.833663 -5.585867 0.363441
24880 7.1277301799999995 1.3379172300000002 -1.12221495 -5.1454010000000014 2.80593 1.795669
24900 -0.46134468 2.33304363 -5.28431346 -1.487008 -1.058297 -2.317458
24920 -3.17040561 1.24107291 -2.3571468 -4.136948 2.234327 -2.647835
24940 -1.1277576 4.19352975 2.31613119 -6.1100059999999985 0.8642299999999999 -0.369594
24960 0.04939335000000001 15.401327220000002 6.07227228 -5.780947 -2.680417 0.26215700000000003
24980 -6.8198139 24.94337688 5.07399687 -5.697535 -2.26228 1.116781
25000 -9.461372220000001 27.50859378 3.3223428900000003 -5.519603 -0.569233 1.679876
25020 -10.124194680000002 29.842844040000003 -0.69575463 -3.185803 3.727228 0.406669
25040 2.9166895800000003 33.955235280000004 3.81945483 -1.931576 4.802667 -0.556962
25060 10.334364120000002 24.385943250000004 -12.09350313 -1.80995 3.794619 -0.853923
25080 4.4102817000000005 20.3461362 -14.22641295 -0.613736 -2.899929 -0.470589
25100 2.47016781 12.91499253 -2.78151759 1.172828 -2.84374 0.178479
25120 3.1777434900000006 2.64215673 1.52458191 1.283311 2.082696 0.464562
25140 -1.3771376100000001 -3.7064436300000003 0.4340925 2.323709 3.474763 0.158125
25160 -0.33170553 -10.457852400000002 4.10147271 3.157361 1.586425 -0.396585
25180 2.1833626500000003 -13.21586523 8.47507482 3.375656 -0.930206 -0.207033
25200 -0.8346642300000001 -10.32672213 12.17163978 2.864902 -0.8902 -0.71058
25220 0.66028167 -3.17729223 8.538398370000001 4.2767339999999985 0.564922 0.206474
25240 2.0209482900000006 7.248824820000001 -2.06689833 3.808609 -1.156498 0.329324
25260 -2.93569155 15.247290600000001 -12.122991990000003 5.659788 -3.946748 0.130049
25280 -2.21689323 12.596157720000003 -24.370669080000003 7.710985000000001 -4.962644999999998 -1.7397330000000002
25300 6.53929695 -10.56473235 1.9261935000000001 3.151915 1.790384 0.54956
25320 0.20147778000000002 0.20283156000000002 9.43218747 1.597694 -1.0983690000000002 2.3583830000000003
25340 -2.64694401 36.65532006 11.33413065 2.054818 -3.4711540000000003 1.534608
25360 16.562154330000002 19.57224492 15.47332281 2.238964 -3.156757 0.276058
25380 -1.3531815900000002 14.640002550000002 -4.58496837 1.955345 -2.191819 -0.22602
25400 -0.68976072 12.94134219 3.03613614 1.085057 -2.42397 -0.290553
25420 -2.37286242 20.304227880000003 4.298908770000001 -0.684213 -2.124038 0.561964
25440 -3.2826712500000004 30.020375610000002 -3.42068814 -2.547842 1.649168 1.909299
25460 4.46775849 25.324034310000002 0.9873470700000001 -3.714972 3.63965 1.985122
25480 3.8992395600000003 16.9913124 -6.5645969399999995 -2.964617 3.31447 0.871283
25500 -3.08987532 9.4718493 -11.699965170000002 -0.695377 3.2732330000000003 -0.10626
25520 -10.24305264 2.6315325 -7.56631566 2.446903 -2.396317 -0.12832000000000002
25540 -6.52792716 1.99205784 0.19190322 1.498458 -0.463586 0.61247
25560 2.1125540700000003 2.30235795 1.1105410500000001 0.8774770000000001 3.429385 0.23888
25580 8.67850479 1.48491027 -9.45149355 0.79561 -4.161471 -0.296758
25600 6.6740176799999995 1.07057511 -1.6991214300000002 -4.605272 3.243563 2.174895
25620 1.1410795800000002 1.94670621 -2.8099567800000003 -1.006298 -1.491766 -1.693976
25640 -1.62921537 0.20432268 -1.49718258 -3.653467 1.798016 -2.647104
25660 -4.259394090000002 4.09848066 -2.1083652 -5.442034 0.376277 -0.40169
25680 -2.91189249 4.50323145 1.3127742 -5.347792 -2.081395 0.866892
25700 -0.01691244 20.620669050000004 5.570363250000001 -6.138052 -0.406565 1.7629419999999998
25720 -3.1355310600000004 30.447287190000004 6.57746766 -5.161961 0.7617010000000001 1.53539
25740 -11.64862944 37.80882891 7.94008647 -2.628898 2.396174 -0.210509
25760 -7.2355028400000005 28.903095090000004 3.7492544700000003 -1.867923 3.387182 -0.944605
25780 2.79049374 23.79841254 -11.555973990000002 -2.124569 4.091832 -0.581968
25800 6.14681847 24.926317290000004 -18.35857134 -1.286868 -1.000153 -0.251262
25820 6.611753610000001 19.52839422 -4.437975330000001 0.999512 -2.975131 0.152868
25840 5.761373760000001 8.575519410000002 2.8984233600000002 1.185967 2.206725 0.16889400000000002
25860 -0.9488722500000001 -1.05964677 3.98710773 2.343063 3.577638 -0.010651
25880 -2.7580128299999997 -8.19590184 5.30676855 3.240744 1.932171 -0.08559299999999999
25900 0.01631403 -11.44025523 6.05535984 3.432507 -0.809177 -0.15338
25920 1.90583775 -9.496698030000001 10.52221581 2.8150310000000003 -0.899224 -0.542138
25940 -2.19952953 -7.99322724 9.33908076 4.116015 0.115002 -0.093174
25960 0.0489519 -2.416271670000001 3.22938333 3.785875 -2.305344 0.202451
25980 0.18606627000000003 5.905521899999999 -3.23132571 5.868946 -3.979262 0.087755
26000 -1.81467342 11.89022031 -12.37311756 6.625795 -3.755328 -1.687972
26020 -2.8777635000000004 12.241692990000002 -19.31044545 3.643439 0.998903 -0.412733
26040 3.6756108000000003 -6.86546964 3.7788904800000003 1.766603 0.16296300000000002 1.402956
26060 1.57936095 14.46891615 12.94283331 1.729527 -2.483738 1.307812
26080 -0.26748927000000006 37.46094669000001 -17.71026768 1.551264 -2.057332 0.324325
26100 12.29213601 11.87854641 9.468857250000001 1.243407 -1.813197 -0.25391
26120 0.40041477000000003 9.83948886 -8.18003907 0.993057 -2.230987 -0.5189739999999999
26140 2.28948723 19.91757654 7.27053435 0.043279000000000005 -2.389915 0.087754
26160 -6.5131042500000005 27.422824950000003 -4.553085870000001 -2.954234 0.829881 2.017537
26180 1.45497015 29.16295218 -3.33611613 -4.2014559999999985 3.539717 2.355729
26200 3.6016630200000006 17.41673286 -4.00985712 -2.315468 3.644629 0.860439
26220 -3.36769452 11.228898779999998 -8.31041397 0.73085 3.508946 0.183274
26240 -9.74698056 5.778884610000001 -7.08282 3.761819 -3.804217 0.496896
26260 -5.331911580000001 2.0877053400000003 -3.0698138700000004 1.047184 -0.419234 1.36663
26280 0.75652758 2.4298977600000002 5.843100870000001 -0.6233989999999999 2.97338 -0.04128
26300 4.344868620000001 2.65428189 -8.89540389 1.12855 -2.990483 0.150584
26320 3.90687174 2.5286942700000004 -6.3002468700000005 -4.515085 2.782221 1.584321
26340 2.42106876 0.905463 -1.35678186 -1.045011 -0.5184479999999999 -1.840772
26360 -0.48409407000000004 0.68976072 -2.05148682 -3.592499 3.1383970000000003 -2.7659
26380 -0.8973795600000001 2.24114355 -1.8859234500000002 -5.8446120000000015 -0.046503 0.445276
26400 -1.281186 4.3840791900000005 -0.8598072600000001 -5.899771 -2.931601 0.575706
26420 1.15724646 9.2458269 3.94070643 -6.436513 -2.135132 1.395603
26440 -0.56177946 27.021056400000003 5.799240360000001 -5.115947 1.779247 0.37966
26460 -7.00378083 38.04787899 6.98956614 -3.013081 3.851181 -0.635936
26480 -11.60701542 26.746376400000003 2.8081615500000003 -1.450871 4.002929 -0.7779739999999999
26500 -3.1275947700000004 23.644532880000003 -3.03823548 -1.388651 2.767602 -0.6637930000000001
26520 2.87072973 23.852446020000002 -11.069633430000001 -0.706232 -2.487869 -0.606359
26540 4.495452120000001 22.734724050000004 -9.11768868 1.11995 -3.164406 0.228727
26560 7.3089993600000005 16.54853805 -3.72889872 0.96012 3.840145 0.5423060000000001
26580 4.21268868 4.38947469 0.06945480000000001 2.284653 4.104121 -0.019211
26600 -2.30235795 -2.99886795 1.0448238600000002 2.943157 1.134553 -0.4284810000000001
26620 -0.10463346000000001 -9.83829204 3.3422473800000003 2.698605 0.53287 -0.26598
26640 1.81153422 -12.413534760000001 5.865399 2.944323 0.021972 -0.853267
26660 -0.7202992500000001 -10.50021198 11.190580920000002 4.234075 -0.13496 -0.023663
26680 -1.5881997600000002 -4.85874585 11.230242750000002 3.403947 -2.973168 0.241231
26700 2.15686584 6.82894701 0.79859286 4.94972 -3.418985 -0.166143
26720 -2.16315405 13.189525380000001 -10.401719580000002 6.9073210000000005 -4.650305 -1.363324
26740 -2.9054571300000003 13.21452126 -24.507185040000003 3.742921 0.841981 -0.15119100000000002
26760 5.9639012099999995 -6.475531950000001 0.25297047 1.634363 0.195409 1.661569
26780 5.71511961 -3.0744540000000002 12.8724858 1.503876 -2.9953540000000003 2.105922
26800 -1.23717834 37.70584353 11.297608020000002 1.582519 -3.203123 1.250023
26820 15.799642650000001 24.1546725 18.63071055 2.053711 -3.282138 -0.17586500000000002
26840 -1.4153083200000003 9.85745097 -1.7880294600000002 1.954064 -3.3671620000000004 -0.405052
26860 -1.5338621700000001 16.45707942 6.169567860000001 -0.849308 -2.378705 0.72137
26880 -3.04376832 24.29911494 0.78750756 -3.2163 2.137859 2.289631
26900 0.49547367000000003 30.48380982 -3.8079280800000004 -3.493319 3.842361 2.248124
26920 3.21576705 15.64202538 -4.056562530000001 -1.344334 4.292622 0.74141
26940 4.23843993 17.65578294 -5.0708576700000005 1.353682 0.999564 0.34039200000000003
26960 -0.6557886900000001 10.54122759 -10.487939670000001 3.814104 -3.049393 0.299741
26980 -8.49019203 5.219498790000001 -5.07175038 0.195113 0.525059 1.989719
27000 -5.4768150900000006 2.76071058 0.8114635800000001 -2.219362 2.496257 -0.551744
27020 1.6741157400000002 2.09040309 -0.09834525 5.525419 -5.5473930000000005 -1.7318169999999995
27040 7.26049872 1.04707035 -10.73387637 -7.354705 4.861837 2.131184
27060 5.96344995 1.05141618 -1.18403757 0.189714 -3.264775 -1.567982
27080 0.58872753 1.4162010300000003 -2.77058925 -4.175227 2.031189 -2.165006
27100 -5.2721883 0.44352972000000007 -3.9802211100000005 -5.100022 0.179455 -0.4951890000000001
27120 -4.47045624 4.35938742 1.5239835 -6.001044 -0.839967 0.273216
27140 0.7824259800000002 5.339543760000001 2.61820071 -6.545401 0.096341 1.02772
27160 1.1937690900000002 22.634583570000004 4.5173088 -4.553556 -0.803647 0.856915
27180 -3.2162085 30.53200635 3.95866854 -2.044926 2.655495 -0.032642000000000004
27200 -10.69990434 30.94155423 7.97736447 -1.856449 4.300106 -0.68398
27220 -6.58465839 28.289822940000004 0.94214259 -2.302635 4.241085 -0.4562850000000001
27240 2.5631175600000002 26.919866250000002 -7.592066910000001 -0.635073 -2.047027 -0.090475
27260 5.322631320000001 21.481830090000003 -12.385389870000001 1.374484 -4.984552 0.171949
27280 5.38624917 19.064803050000002 -7.204071600000001 0.997101 2.445973 0.175814
27300 5.26919625 11.59518456 0.21435831 2.350439 4.070679 0.028293
27320 3.53774106 -0.23755896 1.79282655 3.15651 2.115843 -0.389792
27340 -0.33739533 -8.49602898 4.43348235 3.273636 3.081477 -0.082563
27360 -1.61140041 -15.1604721 6.49783989 3.721177 -0.533011 1.659987
27380 -2.7858536099999998 -12.810211920000002 13.12919388 1.944353 -3.731557 0.684934
27400 0.94214259 -5.71916133 9.231308100000001 5.722196 -3.419284 0.303929
27420 1.2379239 5.3431342200000005 -1.2567885300000001 7.638754 -5.253043 -2.580556
27440 -4.14548037 13.02516864 -11.95668306 4.884113 -1.922507 -1.646938
27460 -3.0499093800000003 14.242883940000002 -20.87514045 1.865975 1.892486 1.437753
27480 2.15536491 -6.49409247 2.4489095400000003 2.054149 -1.500433 1.278909
27500 3.64596498 -16.91647191 8.363858850000002 2.254152 -2.756478 0.861036
27520 -0.86879322 22.119803820000005 22.32188001 2.043193 -2.619167 -0.259041
27540 12.21250824 52.47442575 -12.127484970000001 1.919228 -3.454882 -0.81538
27560 4.3932123 16.19766378 2.7924459300000004 0.6897479999999999 -3.030834 -0.300014
27580 -2.54590101 9.59070726 -6.20833698 -2.179025 -0.135406 1.383255
27600 -1.1883834 19.98658989 3.5172381600000002 -3.742346 3.668936 2.410045
27620 -5.220548460000001 26.5434075 -5.246888310000001 -2.96981 4.045536 1.336055
27640 6.470440560000001 23.38616691 2.74260132 -0.611885 4.60219 0.214155
27660 1.8802434600000002 18.179244540000003 -2.30311332 2.208582 -1.817712 0.30404000000000003
27680 -1.2407688000000001 10.88641206 -12.96828045 2.219689 -0.736525 0.5772649999999999
27700 -9.73860282 4.8964653 -6.42867939 0.83952 2.310044 0.205866
27720 -6.239621070000001 0.79499259 0.02784078 -0.499499 -1.348552 -0.121402
27740 3.5063098200000002 1.93308012 6.5807638200000005 -3.579571 2.2093 1.523224
27760 7.76420298 2.63960613 -10.687779180000001 -2.619348 -0.094705 -1.748694
27780 6.00147351 3.67231464 -7.20571968 -3.888311 0.750146 -2.002195
27800 0.2920437 1.8925157700000002 -1.03479804 -5.439406 -0.316969 -0.731933
27820 -2.74379814 0.44637462000000006 -4.87656081 -4.8913 -1.6718689999999998 0.356809
27840 -1.7235189000000002 3.74086692 1.96840593 -6.0847430000000005 -0.125833 1.576015
27860 2.24742195 18.45736785 7.287446790000001 -5.671092 1.1886219999999998 1.773773
27880 -2.86639371 25.80992361 4.341425310000001 -2.594417 2.1079830000000004 -0.098804
27900 -10.539285210000001 23.076759510000002 6.74527752 -1.635715 2.916235 -0.8558530000000001
27920 -15.4727244 20.42187921 -0.23516532 -2.124935 3.564515 -0.31424
27940 -3.27503907 27.91036233 3.78652266 -1.167371 -1.836089 0.101021
27960 6.91351902 30.497583060000004 -11.0795121 1.1586809999999998 -2.837573 0.246738
27980 7.39597482 25.079294430000004 -14.18405337 1.389452 2.837789 0.15348399999999998
28000 4.35549285 18.16862031 -1.3409092800000002 2.323836 3.126976 0.018634
28020 4.11345072 7.022792610000001 0.94004325 2.966502 1.2119209999999998 -0.083381
28040 2.4581898000000004 -3.9243924000000003 0.18217170000000002 3.470457 -0.068511 -0.260886
28060 -0.7220944800000001 -8.346348 2.35085859 4.114865 0.933591 -0.206394
28080 -0.73662309 -12.93415146 5.33415807 3.765192 -1.058118 1.071309
28100 -0.9153416700000001 -9.894424859999999 12.58762302 3.1922580000000003 -3.183752 0.605354
28120 -0.13711437 -5.95402254 11.30853636 7.233227 -3.821282 -0.6410600000000001
28140 1.14780924 3.7998446400000003 0.88914897 6.714461 -3.050294 -1.720302
28160 -2.6378109000000003 10.15233957 -9.237890610000001 3.314306 0.745803 1.359609
28180 -2.07588429 15.032942100000001 -21.23499087 2.109884 -2.071952 1.363352
28200 2.83241187 -3.43145952 -0.6074352000000001 2.276828 -3.658902 0.609183
28220 5.4983676599999995 1.34420544 13.1010588 1.844245 -2.081326 -0.322009
28240 1.8988039800000003 32.36180679 2.6964943200000002 1.17851 -1.1976440000000002 -0.153671
28260 12.596157720000003 13.27230216 11.455225290000001 0.393156 -1.063464 0.005177
28280 0.67210272 16.66200051 -1.87424955 -0.470841 -1.978584 0.233187
28300 2.2579088400000003 19.14025176 3.16367595 -2.184549 0.25881 1.106042
28320 -1.92095496 23.876402040000002 -2.06689833 -3.733482 2.60406 1.504551
28340 -2.1752792100000002 30.01902183 -4.19981796 -3.406318 2.805979 1.076084
28360 4.269419910000001 20.074301100000003 -3.38027094 -1.316094 3.359615 0.407381
28380 -0.67599729 13.273646130000001 -3.68324298 1.877243 -0.974991 0.568769
28400 -7.10123337 6.788088360000001 -8.6500656 1.988827 -0.057159 1.113166
28420 -8.50321971 1.3548296699999998 -3.9095694900000004 0.805478 -0.108264 1.332497
28440 2.2873977 2.86518708 4.8478175100000005 -2.162601 2.487357 0.823466
28460 6.52582782 3.62261718 -4.32406161 -1.963015 1.6714759999999995 1.418768
28480 5.310810270000001 3.9092751900000002 -9.493107570000001 -1.58995 -2.4685580000000003 -1.471407
28500 0.9249260400000001 1.13388885 -2.04474735 -2.682608 -0.21096 -2.989193
28520 -2.7205876800000004 0.40550616000000006 -2.718351 -5.7748610000000005 1.471882 -0.504764
28540 -2.3047614000000003 2.11300533 -0.6303415499999999 -4.800292 -0.517961 0.490562
28560 -0.2721294 6.16418217 0.7641597600000001 -5.972817 0.255326 1.265456
28580 0.6198644700000001 17.051938200000002 5.983511399999999 -6.006004 1.7295900000000002 1.5795290000000002
28600 -3.2085763199999997 21.58541388 4.80904839 -3.836007 2.203265 1.124062
28620 -6.35817492 23.173907940000003 3.4765168500000003 -1.744877 2.220839 -0.286362
28640 -11.516900759999999 26.71060914 1.86991353 -1.7848259999999998 2.449513 -0.42794
28660 0.31898196000000006 31.66425693 4.89586689 -2.279662 3.949002 -0.160921
28680 7.204218750000001 27.492731010000004 -17.54217333 -0.098948 -0.89849 0.467273
28700 6.33602394 25.456214250000002 -13.63813668 1.84062 -0.6749109999999999 0.948416
28720 4.88045538 14.426998020000001 -1.15005573 2.489418 1.775745 0.522519
28740 2.4348321900000003 2.61461025 -1.2087391500000002 3.589542 1.395304 -0.129471
28760 -4.23574218 -3.1021476299999997 -1.8187151400000001 3.964664 -0.927088 -0.6975100000000001
28780 -0.54890874 -7.8465285 0.20597076000000003 3.426771 -0.701838 -1.14914
28800 1.0509649200000002 -9.7032672 7.740099810000001 2.8239 -1.617772 -0.145913
28820 -0.87433587 -10.70424036 11.428885440000002 2.915223 -5.372463 0.471628
28840 -3.33057348 -8.842115970000002 12.54691152 6.857857000000001 -3.502692 -0.6002930000000001
28860 1.97903016 2.6409599100000003 3.4385031 8.171057000000001 3.832014 -1.5416219999999998
28880 0.77972823 9.83724237 -4.541706270000001 4.300049 0.428565 -0.611446
28900 -1.03479804 14.3967636 -16.69493268 2.463161 -0.493033 1.012352
28920 1.4736876300000001 4.531974750000001 -10.759627620000002 1.7069029999999998 -2.688629 1.150888
28940 0.90097983 -5.4366921900000005 -4.86353313 1.687175 -2.313026 0.213438
28960 3.63713598 19.80052362 14.127626250000002 1.5644870000000002 -2.033878 -0.223611
28980 1.6390940399999998 25.51459356 -1.4964370200000001 0.971067 -1.952666 -0.570759
29000 4.21163901 9.72198468 2.3128448400000003 -0.625786 -1.6975360000000002 -0.384619
29020 -0.56072979 12.656783520000001 -3.2084291700000005 -2.80065 0.917994 1.162851
29040 0.714168 19.02019698 2.89243926 -3.770095 3.882911 1.672504
29060 -3.96256311 28.796067990000004 -2.5614694800000004 -3.1937580000000003 3.916851 0.944754
29080 2.5265949300000003 27.07704207 -4.12332939 -1.750648 3.733024 0.377162
29100 2.88584694 17.89319475 -2.2668849900000003 1.054141 0.436705 0.4319560000000001
29120 0.6493533300000001 14.472800910000002 -4.25819727 2.899476 -2.674294 0.262962
29140 -9.61495758 6.59647944 -8.03603808 0.952684 -0.877916 0.803605
29160 -10.731031470000001 0.06151851 -6.76443645 -2.655819 6.657196000000001 -0.167019
29180 2.02858047 2.5900656300000002 3.38341014 2.48982 -2.737486 -1.957448
29200 7.83979884 2.76400674 -3.2701046400000005 -4.139864 2.883438 1.521651
29220 8.47237707 1.5021268200000002 -7.873025310000001 -1.948374 -2.505137 -0.8051560000000001
29240 4.01285898 3.37412988 -1.6304121900000001 -3.59831 1.840195 -2.054978
29260 -1.32878412 1.0235754000000001 -2.5283901600000003 -5.967584 1.068869 -0.51948
29280 -4.0639004100000005 2.14474068 -3.97857303 -6.254237 0.5265270000000001 0.289993
29300 -4.05880902 3.9890501100000004 -0.49277592000000003 -6.0592760000000006 0.240517 0.782035
29320 -2.6110197900000003 18.00261549 3.3392553300000003 -4.5205910000000005 -2.305368 1.281018
29340 -6.0535646100000005 32.075894340000005 7.88529762 -2.073119 1.771809 0.134936
29360 -0.90591426 34.83435843 3.4742703600000002 -1.610026 5.038417 -0.65009
29380 -1.4084217 30.835125540000003 12.761416980000002 -2.413627 4.596875 -0.091116
29400 -0.29069973 23.83463106 -4.217780070000001 -0.926786 -2.378293 0.153603
29420 0.56072979 19.081117080000002 -15.244445700000002 1.652022 -2.673379 0.316204
29440 5.27697558 20.62770282 -13.464499680000001 0.8791479999999999 4.108742 0.30959200000000003
29460 8.53749585 11.752811640000001 -4.16104884 2.31635 4.162199 0.34733600000000003
29480 3.51932769 0.7056333 -0.14295132 3.238805 1.318357 -0.030341000000000007
29500 -1.7185746599999998 -6.4466415 1.2379239 3.376491 -0.94304 0.070727
29520 -1.64462688 -11.40133896 5.9809608 3.375321 -0.47109 0.329692
