time Ax Ay Az Gx Gy Gz
20 -0.55340172 9.72617355 -1.5525698400000003 -0.020131 0.029903 -0.001247
40 -0.53020107 9.699980850000001 -1.58550201 -0.013721 0.028828 -0.004406
60 -0.5252568299999999 9.71045793 -1.6265176200000002 -0.008376999999999999 0.026696 -0.008638
80 -0.55833615 9.70716177 -1.5988239899999999 -0.011673 0.006462000000000001 -0.007567
100 -0.5929164 9.72227898 -1.6078099500000003 -0.013845 0.0021920000000000004 -0.003304
120 -0.56402595 9.77287896 -1.5766730100000002 -0.01595 0.011774 -0.000127
140 -0.5568450300000001 9.76164651 -1.5488322300000001 -0.01163 0.028782 0.005222999999999999
160 -0.55759059 9.747431820000001 -1.55376666 -0.007315 0.044725 0.010574
180 -0.5749542900000001 9.735453810000001 -1.5721800300000002 -0.003018 0.051101 0.010596
200 -0.5194198800000001 9.75386718 -1.55376666 -0.004076 0.052175 0.009519
220 -0.51358293 9.83245509 -1.52278668 0.000201 0.055351 0.010613
240 -0.5599842300000001 9.752523210000001 -1.5328125000000001 0.000244 0.06387799999999999 0.009534
260 -0.5833418400000001 9.71509806 -1.55691567 -0.002908 0.068175 0.003097
280 -0.56373165 9.775272600000001 -1.58535486 -0.011467 0.06287899999999999 0.0030440000000000003
300 -0.48783168000000005 9.76943565 -1.5362558099999999 -0.018916 0.068227 0.004053
320 -0.45266283000000007 9.7234758 -1.51963767 -0.022078 0.074638 0.001887
340 -0.44113608000000004 9.71404839 -1.4825166300000001 -0.022093 0.064015 -0.005577
360 -0.42765714000000005 9.74518533 -1.50062589 -0.017838999999999997 0.0555 -0.010878
380 -0.46433673000000003 9.72572229 -1.5399934199999998 -0.016777 0.047004 -0.018337
400 -0.54816318 9.71060508 -1.5087093300000003 -0.017907 0.031037 -0.020461
420 -0.54127656 9.75057102 -1.52786826 -0.02115 0.025705 -0.016204
440 -0.5363323200000001 9.7610481 -1.55811249 -0.02969 0.026791 -0.014129
460 -0.53903007 9.75880161 -1.57682016 -0.040363 0.027885000000000004 -0.012068
480 -0.53319312 9.768533130000002 -1.54957779 -0.045741 0.016194999999999998 -0.014227000000000004
500 -0.51762465 9.80640954 -1.45407744 -0.03834 0.000194 -0.015223
520 -0.55429443 9.77512545 -1.4341631400000003 -0.039412 -0.009356 -0.023764
540 -0.6029422200000001 9.7781175 -1.5203930399999999 -0.039407 -0.010412 -0.025899
560 -0.66416643 9.71854137 -1.5658918200000003 -0.03835 -0.008303 -0.021622
580 -0.68332536 9.73126494 -1.5802634699999998 -0.040608 -0.028565 -0.014134
600 -0.65967345 9.76988691 -1.555866 -0.046005 -0.041334 -0.013087
620 -0.6153714899999999 9.763598700000001 -1.5087093300000003 -0.050238 -0.037045 -0.016327
640 -0.6009998400000001 9.7493742 -1.49164974 -0.049234 -0.058324 -0.02377
660 -0.61941321 9.77737194 -1.45811916 -0.047196 -0.088125 -0.032263
680 -0.6152243399999999 9.811795230000001 -1.44449307 -0.04933 -0.095545 -0.039746
700 -0.6153714899999999 9.77856876 -1.4741388900000003 -0.052506 -0.094451 -0.044043
720 -0.6890151600000001 9.75386718 -1.51305516 -0.057831 -0.096546 -0.04835
740 -0.7450008300000001 9.7115076 -1.49628987 -0.064136 -0.076279 -0.049488
760 -0.69545052 9.7032672 -1.46201373 -0.074834 -0.083695 -0.050622
780 -0.67434921 9.79203789 -1.4846159700000001 -0.090942 -0.111319 -0.054972
800 -0.65084445 9.79173378 -1.49823225 -0.099424 -0.105937 -0.061447
820 -0.66820815 9.76613949 -1.43640963 -0.100362 -0.081415 -0.06575800000000001
840 -0.69859953 9.74473407 -1.46230803 -0.094941 -0.061198 -0.064678
860 -0.7370645400000001 9.77333022 -1.4545287000000002 -0.088516 -0.053772 -0.06250599999999999
880 -0.7455992400000001 9.74533248 -1.4226462000000002 -0.083139 -0.035715 -0.053946
900 -0.8029288800000001 9.77317326 -1.3247424000000003 -0.078895 -0.029385 -0.042174
920 -0.8020361700000002 9.82152675 -1.3228000200000003 -0.080077 -0.043277 -0.030414
940 -0.76535658 9.83006145 -1.26456786 -0.078001 -0.049702 -0.023982
960 -0.7375158 9.8043102 -1.2742993800000002 -0.07157999999999999 -0.045463 -0.023943
980 -0.6843750300000001 9.829158930000002 -1.3341796200000002 -0.065174 -0.050786000000000005 -0.0303
1000 -0.65832948 9.837095220000002 -1.2832853400000002 -0.070427 -0.041146 -0.038895
1020 -0.69410655 9.81194238 -1.22251239 -0.079967 -0.032569 -0.044314
1040 -0.7396151400000001 9.77422293 -1.2513930300000002 -0.08311 -0.024019 -0.04862
1060 -0.69604893 9.74982546 -1.27025766 -0.07446900000000001 0.001509 -0.046456
1080 -0.68093172 9.752817510000002 -1.27924362 -0.070025 0.049397 -0.03794
1100 -0.65473902 9.7174917 -1.2868758 -0.072225 0.045101 -0.027268
1120 -0.65039319 9.709113960000002 -1.3045338 -0.076498 0.046173 -0.025163
1140 -0.62180685 9.74668626 -1.32624333 -0.066814 0.068493 -0.020851
1160 -0.6216597000000001 9.75162069 -1.2976471800000002 -0.057165 0.08441699999999999 -0.015463
1180 -0.70668297 9.7607538 -1.2813331500000003 -0.043243 0.102452 -0.008979000000000001
1200 -0.7352693100000001 9.72707607 -1.3129213499999999 -0.021819 0.131102 0.0007480000000000001
1220 -0.77838426 9.77377167 -1.20903345 -0.007869 0.158712 0.010424
1240 -0.8002311300000001 9.79248915 -1.1587375800000002 -0.006807 0.168253 0.021101
1260 -0.7714976400000001 9.75042387 -1.10590092 -0.015341 0.17570999999999998 0.02851
1280 -0.7725473100000001 9.787397760000001 -1.06578783 -0.023848 0.187436 0.033776
1300 -0.77374413 9.77407578 -1.11278754 -0.018365 0.224685 0.03804
1320 -0.7351221600000001 9.75386718 -1.1557455300000001 -0.000108 0.263985 0.050936
1340 -0.66387213 9.756113670000001 -1.10829456 0.024425 0.280871 0.069245
1360 -0.6996492000000001 9.76539393 -1.11204198 0.04681 0.294569 0.08754400000000001
1380 -0.70697727 9.78036399 -1.1343401100000001 0.070219 0.300797 0.107995
1400 -0.71910243 9.71344998 -1.17925029 0.094651 0.296374 0.1274
1420 -0.73901673 9.71449965 -1.19197386 0.120203 0.29942 0.142529
1440 -0.69754986 9.75716334 -1.2454089300000002 0.15107 0.300309 0.15983499999999998
1460 -0.6122224800000001 9.79817895 -1.22684841 0.175493 0.29693800000000004 0.182443
1480 -0.5396284800000001 9.81538569 -1.16592831 0.196715 0.293578 0.205028
1500 -0.58962024 9.80266212 -1.15589268 0.200853 0.27435 0.214696
1520 -0.6071409 9.73920123 -1.14571971 0.191151 0.255196 0.217857
1540 -0.58992435 9.715549320000001 -1.2145761000000002 0.164469 0.241488 0.205938
1560 -0.54606384 9.71419554 -1.25992773 0.119632 0.195996 0.166159
1580 -0.51582942 9.6827643 -1.31366691 0.051454 0.135847 0.082438
1600 -0.57121668 9.63441081 -1.35498663 -0.047371 0.106835 -0.035719
1620 -0.6159699000000001 9.63112446 -1.40647932 -0.16811600000000002 0.173822 -0.165903
1640 -0.58617693 9.63875664 -1.43640963 -0.260075 0.30435100000000004 -0.22760100000000005
1660 -0.512082 9.6073254 -1.4711370300000002 -0.286143 0.455644 -0.210886
1680 -0.38919213 9.5378706 -1.52802522 -0.271149 0.523547 -0.155321
1700 -0.34667559 9.49385313 -1.59044625 -0.268102 0.531888 -0.112581
1720 -0.24459273 9.53562411 -1.6416348300000003 -0.26826500000000003 0.526438 -0.081597
1740 -0.23696055000000005 9.55463589 -1.64687337 -0.25045 0.487893 -0.048308
1760 -0.3176379900000001 9.7032672 -1.5920845200000002 -0.208015 0.448273 -0.034074
1780 -0.5601313800000001 9.876315600000002 -1.67951124 -0.137698 0.427783 -0.032488
1800 -0.9758203200000001 9.984088259999998 -1.6807080600000002 -0.088416 0.450076 -0.055674
1820 -1.2698064 10.254579390000002 -1.55347236 -0.092511 0.46722 -0.077089
1840 -1.3373188200000001 10.59242598 -1.1334474 -0.127583 0.482317 -0.092308
1860 -1.0145894400000002 10.604099880000001 -0.7446967200000001 -0.169167 0.472934 -0.107542
1880 -0.36883638 10.33076385 -0.76131486 -0.209885 0.425173 -0.11631099999999997
1900 0.11525769000000001 9.96657741 -0.98405091 -0.242039 0.393323 -0.115426
1920 0.38469915000000005 9.70416972 -1.1768566500000002 -0.261209 0.397664 -0.11877
1940 0.29069973 9.65477637 -1.23538311 -0.251598 0.393395 -0.125107
1960 -0.06452037000000001 9.61435917 -1.29945222 -0.232596 0.35283000000000003 -0.120649
1980 -0.38859372000000003 9.60612858 -1.2240035100000002 -0.212565 0.28994699999999995 -0.13004300000000002
2000 -0.7276371300000001 9.61390791 -1.06608213 -0.183904 0.25895 -0.128735
2020 -1.03958532 9.63411651 -0.89708526 -0.156366 0.248064 -0.094345
2040 -1.14586686 9.70671051 -0.7475416199999999 -0.143847 0.222304 -0.056837
2060 -1.1731092300000001 9.8677809 -0.6330294900000001 -0.140824 0.205159 -0.034361
2080 -1.20903345 10.124194680000002 -0.51523101 -0.16021400000000002 0.17110799999999998 -0.026976
2100 -1.28013633 10.1800332 -0.44068482 -0.176279 0.160498 -0.02387
2120 -1.28657169 10.149788970000001 -0.3379937400000001 -0.18259 0.179699 -0.025007
2140 -1.30079619 10.034531280000001 -0.31060422000000004 -0.174035 0.178626 -0.030287
2160 -1.24211277 9.83290635 -0.43843833 -0.175069 0.185025 -0.03137
2180 -1.05725313 9.672287220000001 -0.6738979500000001 -0.192177 0.208393 0.0005269999999999999
2200 -0.9511187400000001 9.680066550000001 -0.9654903900000001 -0.192177 0.229613 0.021864
2220 -0.89993016 9.64758564 -1.0472175000000001 -0.18147 0.235976 0.019794
2240 -0.90711108 9.617949630000002 -1.0547025300000001 -0.182484 0.239209 0.011237
2260 -0.94947066 9.759409830000001 -0.9304686900000001 -0.202678 0.234043 -0.01133
2280 -1.01922957 9.78455286 -0.6875240400000001 -0.22612 0.20762600000000006 -0.044574
2300 -0.9413970300000001 9.72572229 -0.5709125700000002 -0.24319 0.184343 -0.068165
2320 -0.71805276 9.7519248 -0.59396607 -0.249687 0.146085 -0.085253
2340 -0.6391705499999999 9.752366250000001 -0.56462436 -0.249696 0.134405 -0.094852
2360 -0.56477151 9.719591040000001 -0.55608966 -0.247606 0.120566 -0.099092
2380 -0.5269049100000001 9.66719583 -0.5848329600000001 -0.256069 0.13127 -0.104506
2400 -0.51088518 9.69204456 -0.6230036700000001 -0.271976 0.149448 -0.107845
2420 -0.6679138500000001 9.998459910000001 -0.68317821 -0.280496 0.149491 -0.111109
2440 -0.7548795 9.95969079 -0.6873670799999999 -0.290045 0.158059 -0.114392
2460 -0.7801794900000001 9.70462098 -0.64111293 -0.29533200000000004 0.165547 -0.117643
2480 -0.8328690000000001 9.6972831 -0.5698629000000001 -0.290084 0.150598 -0.113314
2500 -0.9316655100000001 9.76704201 -0.47900268000000007 -0.295528 0.134604 -0.104786
2520 -1.05201459 9.803113380000001 -0.40804695 -0.30832600000000004 0.13147 -0.109144
2540 -1.08210186 9.921372930000002 -0.24324876 -0.333859 0.121013 -0.136015
2560 -1.1030560200000001 9.9751023 -0.14235291 -0.372108 0.114922 -0.17793499999999998
2580 -1.0865948400000003 9.96103476 -0.03951468 -0.415681 0.10037 -0.230563
2600 -1.11173787 9.88199559 0.018413370000000002 -0.461575 0.062317 -0.265018
2620 -1.07461683 9.82511721 0.08471916 -0.499968 0.041244 -0.289829
2640 -1.00171872 9.78904584 0.10028763 -0.515211 -0.026881 -0.289848
2660 -0.9349518600000001 9.727370370000001 0.11884815000000001 -0.523942 -0.07583200000000001 -0.295187
2680 -0.8958884400000001 9.81164808 0.12154590000000001 -0.528315 -0.097131 -0.293054
2700 -0.8220878100000001 9.90834525 0.11436498 -0.518646 -0.074824 -0.285537
2720 -0.7973960400000001 9.843383430000001 0.11211849 -0.506877 -0.032395 -0.250258
2740 -0.8858626199999999 9.811500930000001 0.23081949000000002 -0.488683 0.024887 -0.205339
2760 -0.9609974100000002 9.84847482 0.32302368 -0.45252 0.024662 -0.180517
2780 -1.0359948600000002 9.953098469999999 0.53154504 -0.37883 0.047815 -0.173623
2800 -1.12880727 10.01747169 0.7349750100000001 -0.310292 0.112528 -0.16575
2820 -1.1787990300000002 10.11565998 0.9351088200000001 -0.270588 0.15503499999999998 -0.174072
2840 -1.2597805800000001 10.20323385 1.0370445300000004 -0.248294 0.119845 -0.184554
2860 -1.3900083300000001 10.26924534 1.1247655500000002 -0.24551 0.029278 -0.182282
2880 -1.5010771500000002 10.074801330000001 1.2088863 -0.2748 -0.069725 -0.173814
2900 -1.46634975 9.740398050000001 1.30273857 -0.294444 -0.148564 -0.154622
2920 -1.54015038 9.37201293 1.3566249000000001 -0.225122 -0.145645 -0.145596
2940 -1.5385023 9.17322309 1.34630478 -0.120196 -0.08201699999999999 -0.164172
2960 -1.5057172800000003 9.023532300000001 1.2347847 -0.055609000000000006 0.049835 -0.159617
2980 -1.4937392700000003 9.28833363 1.18613691 -0.141989 0.24952800000000006 -0.20641
3000 -1.51035741 9.47065248 1.162485 -0.239103 0.498959 -0.427462
3020 -1.5340093200000002 9.32052024 1.3069274400000002 -0.388017 0.08418300000000001 -0.468563
3040 -1.6137940499999999 9.36661743 1.4837134500000002 -0.625459 -0.809511 -0.281069
3060 -1.63369854 9.58023018 1.57083606 -0.639582 -1.1967370000000002 -0.136462
3080 -1.61424531 9.67842828 1.65555522 -0.372278 -1.166269 0.004235
3100 -1.5881997600000002 9.799670070000001 1.87036479 0.035593 -0.4991850000000001 0.12800699999999998
3120 -1.6585472700000001 10.009231289999999 2.0272365 0.334204 -0.020972 0.15939
3140 -1.61199882 10.22837688 2.2791573 0.598069 0.131203 0.236882
3160 -1.52278668 10.189313460000001 2.59664814 0.702485 -0.003922 0.371312
3180 -2.00328048 10.031087970000002 2.9933253000000004 0.751918 -0.035497 0.498816
3200 -2.4373827900000005 10.21057173 3.39000246 0.728068 -0.014532 0.604377
3220 -2.87986284 10.19948643 3.5630410500000003 0.5923039999999999 -0.048253 0.6301770000000001
3240 -2.84857875 9.72003249 3.6643783500000002 0.446302 -0.163251 0.477617
3260 -1.8077868000000001 9.29103138 2.15282412 0.352319 -0.225719 0.197167
3280 -0.77329287 8.88777171 0.68078457 0.32401 -0.111759 -0.038186000000000005
3300 -1.3867121699999998 8.785679040000002 1.1906200800000002 0.28947 -0.070726 -0.14637
3320 -1.58475645 7.89278265 1.21218246 0.108643 -0.190458 -0.150685
3340 -2.0910015 6.868314540000001 0.7674559200000002 -0.117981 -0.09044 -0.190852
3360 -2.5116248700000003 7.8700332600000005 1.34061498 -0.278298 0.163225 -0.350393
3380 -1.65750741 8.14561578 1.47892617 -0.12778 0.50951 -0.498269
3400 -0.5900715000000001 8.85004245 1.14646527 0.226722 0.7938430000000001 -0.515385
3420 -0.46313991000000004 9.25166385 1.2253474800000002 0.409396 0.492312 -0.393013
3440 -0.80053524 9.16140204 1.94700051 0.254047 -0.046391 -0.07401
3460 -0.91490022 9.32605308 2.1369515400000005 -0.06918300000000001 -0.256157 0.182511
3480 -1.06189326 9.687708540000001 2.68242678 0.02263 -0.124858 0.301557
3500 -1.09691496 9.96657741 3.04376832 0.32712 -0.201818 0.368944
3520 -1.1795445900000001 9.91552617 3.1055909400000004 0.382434 -0.33902600000000005 0.268025
3540 -1.60451379 10.392586470000001 3.15978138 0.571661 -0.37435 0.146546
3560 -2.059119 10.85467671 2.75487363 0.711348 -0.41522 0.123005
3580 -2.96862372 10.586137770000002 2.71056186 0.719761 -0.713392 0.089263
3600 -3.52052451 9.223823070000002 3.0448179900000003 0.690156 -0.979253 0.000734
3620 -3.53190411 8.928336060000001 3.60675441 0.7251890000000001 -0.6582640000000001 -0.1148
3640 -2.9752160400000003 9.88499745 3.0659291100000003 0.716363 -0.06465800000000001 -0.169033
3660 -1.0916764200000002 11.05181847 1.3966006500000003 0.5758220000000001 0.365685 -0.040244
3680 0.22558095000000003 10.44258804 1.32953949 0.382546 0.314324 0.183867
3700 0.25492266 9.51137379 2.1990782700000002 0.214152 0.26955100000000004 0.33764
3720 -0.15237873000000005 9.190135530000001 3.0250606500000004 0.172381 0.26849 0.372601
3740 -0.78436836 9.01845072 2.8729762200000004 0.193714 0.205812 0.310874
3760 -1.2581325 8.65769778 1.3358178900000002 0.258668 0.07391 0.206811
3780 -2.1802136400000003 8.626256730000001 0.06646275 0.417711 -0.013576 0.10228
3800 -2.8966281300000003 9.06260553 -0.38335518 0.555217 -0.13405699999999998 0.009391
3820 -2.73555774 10.16416062 -0.42301701 0.536634 -0.285052 -0.042888
3840 -2.17572066 10.79988786 0.09968922 0.4890930000000001 -0.418046 -0.04305
3860 -2.00807757 10.6775964 0.91609704 0.485107 -0.551359 -0.001246
3880 -1.54283832 10.141558380000001 1.2322341 0.516211 -0.716727 0.034434
3900 -0.6222581100000001 9.683813970000001 1.2734066700000002 0.45874 -0.683511 0.036127
3920 0.1790325 9.553134960000001 1.0666805400000001 0.343271 -0.483969 0.052156
3940 0.67839093 9.743684400000001 1.18133982 0.28460100000000005 -0.224982 0.071711
3960 0.10088604 10.177188300000001 1.6600482 0.313612 -0.138958 0.112396
3980 -1.13689071 10.009986660000001 1.3365732600000002 0.33425900000000003 -0.281821 0.123405
4000 -1.9263406500000002 9.69788151 0.63378486 0.323991 -0.45214 0.101119
4020 -2.4478598700000003 9.32784831 -0.39443067000000004 0.280298 -0.474225 0.067727
4040 -2.6289819000000003 9.13670046 -0.93779676 0.314715 -0.438023 0.042284
4060 -2.71190583 9.302106870000001 -1.10350728 0.360705 -0.430654 0.024436000000000003
4080 -2.51551944 9.47619513 -0.81445563 0.352381 -0.400729 0.007248
4100 -2.0392047 9.51211935 -0.54067815 0.27276 -0.331135 -0.011557
4120 -1.3503465000000001 9.76164651 -0.33260805000000004 0.243195 -0.275586 -0.024654
4140 -0.72509634 10.130482890000001 0.11211849 0.243199 -0.27770300000000003 -0.027856
4160 -0.72988362 9.94187583 0.44621766 0.250226 -0.367246 -0.019146
4180 -0.9773212500000001 9.898613730000001 0.40581027000000003 0.23752 -0.342713 -0.016062
4200 -0.91026009 9.69534072 0.09160578000000001 0.198813 -0.208206 -0.052824
4220 -0.9713273400000001 9.60657003 -0.48723327000000005 0.193963 -0.122877 -0.0754
4240 -1.08464265 9.63141876 -1.11308184 0.199216 -0.137822 -0.072139
4260 -1.52592588 9.56391615 -1.04512797 0.194546 -0.215619 -0.060322
4280 -1.88967087 9.787093650000001 -0.65339505 0.220675 -0.329721 -0.053584000000000014
4300 -1.62950967 9.97165899 -0.5524992000000001 0.234315 -0.384085 -0.056623
4320 -1.2427111800000001 10.010879370000001 -0.6126737400000001 0.212246 -0.31792600000000004 -0.06540800000000001
4340 -1.1576879100000002 9.85311495 -0.59141547 0.211193 -0.290323 -0.040882
4360 -1.39330449 9.70806429 -0.5074418700000001 0.238639 -0.328876 -0.013935
4380 -1.46290644 9.871371360000001 -0.64890207 0.273539 -0.39081 -0.007203
4400 -1.1473677899999999 9.981694619999999 -0.8319664800000002 0.325815 -0.389932 -0.00577
4420 -0.8749342800000001 10.04052519 -0.70668297 0.299523 -0.327964 -0.028466
4440 -1.20933756 9.94217994 -0.59306355 0.240181 -0.275408 -0.066336
4460 -1.59777432 9.49984704 -0.6511485600000001 0.210783 -0.184697 -0.081612
4480 -1.7227635300000004 9.40882986 -0.94333941 0.212826 -0.192212 -0.06877
4500 -1.42114527 9.61840089 -1.15290063 0.195512 -0.248603 -0.07095499999999999
4520 -1.27085607 9.72557514 -1.04108625 0.194704 -0.195319 -0.075302
4540 -1.3245952500000002 9.79742358 -0.8273263500000001 0.188561 -0.145199 -0.082886
4560 -1.55361951 9.82886463 -0.88121268 0.221164 -0.233796 -0.066522
4580 -1.6411835700000001 9.659710800000001 -1.25274681 0.262403 -0.317027 -0.067195
4600 -1.4542245900000002 9.492960420000001 -1.2600748800000001 0.269245 -0.215863 -0.064072
4620 -1.2916630800000002 9.4425174 -1.27250415 0.211913 -0.142205 -0.052817
4640 -1.27370097 9.44984547 -1.2982455900000003 0.176227 -0.225266 -0.029459
4660 -1.26472482 9.63785412 -1.55541474 0.163429 -0.232644 -0.038085
4680 -1.281186 9.6767802 -1.99011546 0.1641 -0.131252 -0.08628
4700 -1.45512711 9.61675281 -1.56424374 0.145582 -0.005377000000000001 -0.113276
4720 -1.42069401 9.5728923 -1.2298404600000001 0.105797 -0.058567 -0.097462
4740 -1.2783410999999998 9.540862650000001 -1.30618188 0.094855 -0.111822 -0.08999299999999999
4760 -1.47877902 9.75895857 -1.46141532 0.083095 -0.123474 -0.09647
4780 -1.77126417 9.904303530000002 -1.4822223300000001 0.07457000000000001 -0.127679 -0.102933
4800 -1.7218708200000001 9.30315654 -1.58041062 0.084402 -0.084007 -0.110398
4820 -1.70465427 9.192234870000002 -1.78249662 0.071681 -0.059487 -0.104109
4840 -1.69118514 9.461372220000001 -1.9347282000000001 0.053597000000000006 -0.047706 -0.10425
4860 -1.8050988600000002 9.784405710000001 -1.9413107100000002 0.037877 0.013079 -0.106574
4880 -1.50721821 9.65537478 -1.7983593900000001 0.007273999999999998 0.101548 -0.093015
4900 -1.20020445 9.71031078 -1.66064661 -0.022622 0.097388 -0.09215
4920 -1.3814736300000001 9.64593756 -1.7316023400000002 -0.037352 0.13688 -0.098713
4940 -2.07858204 9.62258976 -1.93607217 -0.07270700000000001 0.109285 -0.093583
4960 -2.05148682 9.668539800000001 -1.94250753 -0.05196 -0.023939 -0.095404
4980 -1.69118514 9.588156660000001 -1.8845794800000002 -0.017728999999999998 -0.03671 -0.12826300000000002
5000 -1.56424374 9.596995470000001 -1.7980650900000001 -0.035722000000000004 -0.037579 -0.161503
5020 -1.93128489 9.656414640000001 -1.9496982600000001 -0.040244 -0.08447400000000001 -0.15186
5040 -2.3125407300000003 9.6164487 -2.21419548 -0.048764 -0.06639500000000001 -0.136988
5060 -2.38170123 9.57827799 -2.25700632 -0.063523 -0.017379 -0.12754
5080 -2.2598512200000003 9.526491 -2.08306521 -0.06358 -0.012125 -0.10938699999999997
5100 -2.0657015100000002 9.44191899 -2.12977062 -0.075316 0.001709 -0.0956
5120 -2.15297127 9.5119722 -2.1654005400000003 -0.066666 0.050588 -0.072101
5140 -2.21285151 9.55957032 -2.06689833 -0.048759 0.031222000000000007 -0.039905
5160 -2.10716838 9.516612330000001 -2.03621265 -0.027729000000000004 -0.006261 -0.008731000000000001
5180 -2.01900591 9.764491410000002 -2.05971741 0.011443 -0.043802 0.0215
5200 -1.9597240800000002 9.68336271 -2.02738365 0.039922000000000006 -0.086633 0.051665
5220 -2.23110792 9.386678880000002 -2.17692729 0.057723 -0.142166 0.071088
5240 -2.69290386 9.46720917 -2.24952129 0.061885 -0.167739 0.069013
5260 -2.79783162 9.337736790000001 -2.2547598300000002 0.063072 -0.153843 0.056185
5280 -2.69754399 9.45374004 -2.2119489900000002 0.050299 -0.146346 0.057155
5300 -2.42271684 9.4396725 -2.08830375 0.066143 -0.183678 0.055177
5320 -2.2559566500000003 9.34850817 -1.98007983 0.071506 -0.188976 0.043471
5340 -2.0872638900000005 9.41362695 -1.9333842300000001 0.046295 -0.121694 0.022912
5360 -1.8811361700000002 9.370816110000002 -1.90359126 0.019839 -0.08745700000000001 0.008796
5380 -1.96242183 9.350156250000001 -1.8013514400000001 -0.007937999999999999 -0.102248 0.002212
5400 -2.0480435100000003 9.4197582 -1.7621310600000002 -0.033523000000000004 -0.103202 -0.003307
5420 -2.13395949 9.32934924 -1.8034507800000001 -0.033327 -0.068014 -0.011896
5440 -2.26898433 9.250467030000001 -1.8326355300000001 -0.010851 -0.05741900000000001 -0.017093999999999998
5460 -2.3683792500000003 9.31692978 -1.92125907 0.013505 -0.088436 -0.00727
5480 -2.3285604600000003 9.31213269 -1.9176587999999999 0.026192 -0.100254 0.006721
5500 -2.48363694 9.34446645 -1.8935654400000002 0.040884 -0.138719 0.022896
5520 -2.68736121 9.56451456 -1.88608041 0.054657 -0.151585 0.031554
5540 -2.5604296200000003 9.37125756 -1.77231384 0.054767 -0.126023 0.032591
5560 -2.35221237 9.486220950000002 -1.74776922 0.046256 -0.128094 0.025056
5580 -2.15267697 9.4544856 -1.78338933 0.036736000000000005 -0.121622 0.013231
5600 -2.19578211 9.54564993 -1.7348886900000002 0.013443 -0.095918 -0.000851
5620 -2.18874834 9.56076714 -1.61873829 0.01141 -0.082028 -0.009429
5640 -2.0161610100000003 9.63875664 -1.52443476 0.013606 -0.073492 -0.014766
5660 -2.0507314500000002 9.620941680000001 -1.6110963 0.019901 -0.094828 -0.012558
5680 -2.25760473 9.56331774 -1.62637047 0.035842 -0.104489 -0.008162
5700 -2.34112707 9.37680021 -1.6896842100000002 0.044439 -0.088548 -0.005985
5720 -2.27467413 9.35060751 -1.7841447000000001 0.044415 -0.087508 0.000422
5740 -2.20925124 9.40074642 -1.7465724 0.043204 -0.104608 0.015391
5760 -2.19937257 9.41542218 -1.75061412 0.047587 -0.07799600000000001 0.016456000000000002
5780 -2.21988528 9.46646361 -1.7154354600000004 0.055132000000000014 -0.067344 0.010085
5800 -2.2203365400000004 9.46347156 -1.7215667100000003 0.054036 -0.073732 0.010086
5820 -2.1731798700000002 9.47873592 -1.7377335900000002 0.052998 -0.065214 0.012204
5840 -2.12228559 9.588009510000001 -1.63220742 0.061629 -0.039695 0.016505000000000002
5860 -2.123629560000001 9.59564169 -1.6088498100000002 0.056179 -0.059938 0.021834
5880 -2.1948894 9.542353770000002 -1.60286571 0.058342 -0.058859 0.016506
5900 -2.19967668 9.46361871 -1.66423707 0.045784 -0.016156 0.004613
5920 -2.22931269 9.430539390000002 -1.77051861 0.034096 -0.015012 -0.005084
5940 -2.23230474 9.458684280000002 -1.7408826 0.025624 -0.011743 -0.015829
5960 -2.2379945400000003 9.445656600000001 -1.7687233800000002 0.013085 0.029915 -0.033062
5980 -2.23380567 9.42245595 -1.7654272199999999 -0.000683 0.041724 -0.043855
6000 -2.09654415 9.46287315 -1.67786316 -0.0007650000000000001 0.025736 -0.041699
6020 -2.04100974 9.477686250000001 -1.62217179 0.010932 0.022478 -0.036272000000000006
6040 -2.13905088 9.40014801 -1.6573504500000003 0.020563 0.028836 -0.036213
6060 -2.22063084 9.42276006 -1.6850440800000002 0.019486 0.026709 -0.036218
6080 -2.26119519 9.43862283 -1.7173778400000002 0.024825 0.030939 -0.032981
6100 -2.2820022 9.47589102 -1.73339757 0.023749 0.034117 -0.027652
6120 -2.26254897 9.42694893 -1.7293558500000001 0.019357 0.014923 -0.019112
6140 -2.22766461 9.46811169 -1.74896604 0.020486 0.024524 -0.023389
6160 -2.2538671200000002 9.51152094 -1.68774183 0.029146 0.044764 -0.030832
6180 -2.25446553 9.477391950000001 -1.7121393 0.025926 0.040514 -0.030849
6200 -2.19967668 9.549691650000002 -1.6831017000000001 0.024854 0.04688 -0.023387
6220 -2.2339528200000003 9.53591841 -1.72501002 0.010067 0.075711 -0.0278
6240 -2.35580283 9.50209353 -1.75165398 -0.0026780000000000003 0.087478 -0.028973
6260 -2.3516139600000003 9.492813270000001 -1.72800207 -0.005940999999999999 0.075763 -0.026844
6280 -2.34637542 9.437877270000001 -1.69267626 0.003723 0.090639 -0.025727
6300 -2.3879796300000002 9.38428524 -1.8353332800000002 0.008048 0.102346 -0.02678
6320 -2.4441222600000003 9.36782406 -1.8835298100000002 0.007981 0.08531 -0.028896
6340 -2.4177726 9.39791133 -1.8486552600000001 0.003637 0.068281 -0.028904000000000006
6360 -2.39172705 9.39805848 -1.78189821 0.009000000000000001 0.07359299999999999 -0.029942
6380 -2.33140536 9.41033079 -1.7907272100000002 0.007918999999999999 0.071462 -0.028878
6400 -2.3601388500000002 9.43503237 -1.82051037 0.007861 0.059739 -0.027795
6420 -2.38364361 9.39131901 -1.85150016 0.007861 0.062923 -0.024595
6440 -2.38663566 9.34117029 -1.87395525 -0.000535 0.090662 -0.027894
6460 -2.3623853400000003 9.437121900000001 -1.9050921900000002 -0.014361 0.101359 -0.026936
6480 -2.3751089100000002 9.51421869 -1.8513530100000002 -0.026034 0.11418699999999997 -0.028102
6500 -2.38034745 9.44355726 -1.8217071900000001 -0.037755 0.114241 -0.031389
6520 -2.34487449 9.46242189 -1.81991196 -0.044267 0.08021299999999999 -0.041004
6540 -2.375256060000001 9.394016760000001 -1.8498520800000002 -0.042032 0.0856 -0.058087
6560 -2.52779175 9.3298005 -1.8248562 -0.045113 0.09845 -0.072012
6580 -2.5257022200000003 9.3329397 -1.9248495300000001 -0.039951 0.056899 -0.075128
6600 -2.44995921 9.40643622 -1.8339893100000002 -0.040071 0.030267 -0.07509400000000001
6620 -2.507436 9.453592890000001 -1.85344254 -0.046381 0.05053 -0.075164
6640 -2.59021278 9.349704990000001 -1.84162149 -0.046434 0.044117 -0.069815
6660 -2.54830446 9.37814418 -1.8811361700000002 -0.036995 0.01423 -0.063302
6680 -2.4739054200000004 9.409428270000001 -1.8934084800000002 -0.021059 0.000322 -0.062104
6700 -2.4340866300000004 9.40284576 -1.8708062400000003 -0.012539 -0.000782 -0.059907
6720 -2.5014519 9.39791133 -1.84176864 0.001307 0.007635999999999999 -0.045934
6740 -2.50249176 9.39940245 -1.86407658 -0.002841 0.047015 -0.033195
6760 -2.5316863200000004 9.41616774 -1.8143791200000001 -0.003903 0.072487 -0.008666
6780 -2.59350894 9.461676330000001 -1.76333769 -0.003018 0.056406 0.01593
6800 -2.7039793500000004 9.42859701 -1.8037450800000001 0.004306 0.039276 0.030958
6820 -2.8342071 9.3531483 -1.87904664 0.016084 0.041396 0.02356
6840 -2.8698370200000003 9.341778510000001 -1.85568903 0.028858 0.028593 0.017256
6860 -2.66521023 9.4197582 -1.8339893100000002 0.029867 0.014745 0.016212999999999998
6880 -2.61386469 9.36018207 -1.8678141900000003 0.022433 0.02435 0.018285
6900 -2.6749417500000003 9.334293480000001 -1.8329396400000002 0.009674 0.040348 0.024585
6920 -2.63302362 9.40284576 -1.82110878 -0.007319 0.052147000000000006 0.01911
6940 -2.5885647 9.337736790000001 -1.8708062400000003 -0.014716 0.058603 0.009436
6960 -2.69918226 9.26018874 -1.9148139000000002 -0.010415 0.05649600000000001 -0.000145
6980 -2.7328698 9.26902755 -1.8994023900000003 -0.009343 0.053314 -0.004406
7000 -2.69364942 9.330398910000001 -1.9447540200000002 -0.008276 0.059676 0.002002
7020 -2.5285373100000004 9.30644289 -1.83443076 -0.007267 0.052194 0.0073599999999999985
7040 -2.3599917 9.31168143 -1.8227568600000001 -0.006171 0.061765 0.01056
7060 -2.31598404 9.29522025 -1.79686827 -0.005138 0.054304999999999985 0.010577
7080 -2.4932115 9.36722565 -1.8366772500000002 -0.003042 0.044714 0.009535
7100 -2.70966915 9.341474400000001 -1.8516473100000002 -0.0062380000000000005 0.042607 0.006311
7120 -2.83480551 9.25450875 -1.9443027600000002 -0.008329000000000001 0.047958 0.002017
7140 -2.75891535 9.33279255 -1.9399667400000002 -0.013596 0.06607400000000001 0.005161
7160 -2.6448544800000002 9.327406860000002 -1.81213263 -0.014644 0.076704 0.01155
7180 -2.56566816 9.39820563 -1.7486619300000001 -0.008305 0.071322 0.020147
7200 -2.5408194300000004 9.46376586 -1.77201954 -0.008395999999999999 0.052143 0.021239
7220 -2.63586852 9.40090338 -1.82291382 -0.002985 0.057497 0.009519
7240 -2.7195478200000003 9.38054763 -1.82815236 -0.002994 0.050062 0.004188
7260 -2.7066672900000004 9.349410690000001 -1.85479632 -0.0008609999999999999 0.055359000000000005 0.009537
7280 -2.63931183 9.34790976 -1.8467128800000001 -0.007233 0.06601699999999999 0.013752
7300 -2.62479303 9.34357374 -1.8214128900000002 -0.014696 0.072413 0.019033
7320 -2.61520866 9.36886392 -1.79776098 -0.021016 0.08524 0.013631
7340 -2.61356058 9.36033903 -1.7877351600000002 -0.022093 0.076748 0.007225
7360 -2.60443728 9.366175980000001 -1.8238065300000001 -0.018993 0.049061 0.001941
7380 -2.6661029400000005 9.33308685 -1.88682597 -0.013615 0.050141000000000005 -0.006569
7400 -2.66970321 9.39521358 -1.87275843 -0.024188 0.064057 -0.014138
7420 -2.6008370100000002 9.433835550000001 -1.83279249 -0.030589 0.06195700000000001 -0.016316
7440 -2.5274974500000003 9.32306103 -1.8220113000000002 -0.037005 0.058784 -0.016357
7460 -2.55114936 9.297918000000001 -1.7781507900000002 -0.036995 0.060914 -0.01636
7480 -2.5604296200000003 9.421710390000001 -1.8453591 -0.033804 0.05559 -0.019535
7500 -2.6690949900000005 9.3446136 -1.8422199000000001 -0.026437 0.037437 -0.015188
7520 -2.72658159 9.30884634 -1.84356387 -0.016821 0.040599 -0.015125
7540 -2.67030162 9.38488365 -1.8323412300000002 -0.01361 0.045902 -0.011904
7560 -2.5655112 9.42305436 -1.76528007 -0.017883 0.049095 -0.007665000000000002
7580 -2.45609046 9.407790000000002 -1.7872839 -0.020088 0.045856 0.005142
7600 -2.51252739 9.37500498 -1.74641544 -0.018993 0.048 0.000874
7620 -2.64964176 9.406141920000001 -1.73952882 -0.012548 0.054382000000000014 -0.002294
7640 -2.7036752400000004 9.37650591 -1.76797782 -0.017838999999999997 0.05974400000000001 -0.00661
7660 -2.6467968600000003 9.33533334 -1.82665143 -0.025331 0.052322 -0.008790000000000001
7680 -2.63541726 9.36886392 -1.82110878 -0.026331 0.056629 -0.019484
7700 -2.62448892 9.38817981 -1.75225239 -0.027388 0.059824 -0.018428
7720 -2.51207613 9.39521358 -1.68324885 -0.030675 0.041722 -0.017359
7740 -2.4896210400000003 9.390426300000001 -1.7492603400000002 -0.025303 0.045981 -0.0216
7760 -2.5712010000000003 9.40882986 -1.83114441 -0.024183 0.054512 -0.024808
7780 -2.6027892 9.381891600000001 -1.80718839 -0.024284 0.037447 -0.019446
7800 -2.59664814 9.358239690000001 -1.8173711700000001 -0.022337 0.007565 -0.007643
7820 -2.53453122 9.28534158 -1.81483038 -0.015787 0.04481 -0.003372
7840 -2.5177659300000004 9.37949796 -1.8163215000000001 -0.012567 0.052243 -0.000155
7860 -2.5129786500000004 9.41123331 -1.77425622 -0.00952 0.026631 0.008445000000000001
7880 -2.48632488 9.50733207 -1.76437755 -0.00842 0.030901 0.005243
7900 -2.4550407900000004 9.29851641 -1.7342902800000002 -0.005219 0.027707 0.002064
7920 -2.52420129 9.36916803 -1.77979887 -0.001043 0.012757 0.007454
7940 -2.6020436399999998 9.43862283 -1.77261795 0.008477 0.002041 0.015012
7960 -2.6060853600000002 9.452994480000001 -1.7384889600000002 0.014855000000000004 0.003058 0.021464
7980 -2.55398445 9.33638301 -1.72815903 0.028585000000000006 -0.023639 0.025867
8000 -2.4903665999999998 9.41571648 -1.75195809 0.040301 -0.018392 0.035556
8020 -2.56027266 9.42844005 -1.74132405 0.029642 -0.006675 0.045081
8040 -2.6111669400000004 9.37186578 -1.76408325 0.030498 -0.048245 0.050481
8060 -2.5930576800000003 9.342818370000002 -1.7591390100000002 0.030498 -0.049306 0.049414
8080 -2.5523461800000002 9.39177027 -1.7446202100000001 0.026389 -0.020504 0.042939
8100 -2.58691662 9.41078205 -1.7304055200000004 0.022035 -0.040725 0.041867
8120 -2.66116851 9.38937663 -1.7193202200000002 0.030445 -0.078 0.032359
8140 -2.52943983 9.33893361 -1.78338933 0.028388 -0.073681 0.019521
8160 -2.5005493800000003 9.32949639 -1.70840169 0.028321 -0.088594 0.019539
8180 -2.60788059 9.33728553 -1.65825297 0.036679 -0.119551 0.028183
8200 -2.64260799 9.34117029 -1.65675204 0.039807 -0.130236 0.03356
8220 -2.60338761 9.36856962 -1.67262462 0.041845 -0.147305 0.037869
8240 -2.6417054700000002 9.33503904 -1.69642368 0.051308000000000006 -0.183536 0.032639999999999995
8260 -2.71625166 9.30689415 -1.69043958 0.061914 -0.198483 0.031665
8280 -2.7195478200000003 9.3036078 -1.66349151 0.06401 -0.203829 0.034891000000000005
8300 -2.6714984399999997 9.30734541 -1.7006125500000002 0.07762999999999999 -0.244417 0.049994
8320 -2.6014354200000005 9.37216008 -1.63534662 0.091441 -0.246639 0.060775
8340 -2.63003157 9.42844005 -1.5762217500000002 0.09779 -0.246708 0.07257000000000001
8360 -2.7238838400000005 9.361378890000001 -1.66019535 0.098847 -0.233989 0.087516
8380 -2.7879529499999998 9.34072884 -1.6381915200000001 0.096771 -0.213771 0.094953
8400 -2.7580128299999997 9.377997030000001 -1.66199058 0.096718 -0.21700100000000005 0.103503
8420 -2.79962685 9.373504050000001 -1.66483548 0.101894 -0.235197 0.120654
8440 -2.9083020300000006 9.38294127 -1.68219918 0.113634 -0.22038 0.134604
8460 -2.8746243000000002 9.3645279 -1.68938991 0.112721 -0.182044 0.138821
8480 -2.7689411700000006 9.30824793 -1.67382144 0.120314 -0.148007 0.14524
8500 -2.73122172 9.345810420000001 -1.6986701700000002 0.117171 -0.130968 0.14946900000000002
8520 -2.7250806600000006 9.353452410000001 -1.6616962800000001 0.112023 -0.093648 0.145112
8540 -2.73915801 9.337579830000001 -1.7293558500000001 0.097178 -0.093515 0.124712
8560 -2.83645359 9.345516120000001 -1.79671131 0.089811 -0.100827 0.09476
8580 -2.82268035 9.36333108 -1.74940749 0.067814 -0.034604 0.069952
8600 -2.6887051800000004 9.285792840000001 -1.73729214 0.028609 0.009274 0.053599
8620 -2.5803341100000003 9.2401371 -1.7435705400000001 0.001947 0.004070000000000001 0.045942
8640 -2.58691662 9.330398910000001 -1.78293807 -0.018122 0.03615 0.032942
8660 -2.57943159 9.37290564 -1.8029995200000002 -0.017891999999999998 0.056514 0.001939
8680 -2.5625191500000004 9.389523780000001 -1.77201954 -0.017662 0.08961000000000001 -0.016262000000000002
8700 -2.50234461 9.402247350000001 -1.80988614 -0.042171 0.102453 -0.01004
8720 -2.4120828 9.361378890000001 -1.84027752 -0.035034 0.034229 -0.004561
8740 -2.45639457 9.31961772 -1.87036479 -0.007645 -0.030901 0.008532
8760 -2.44262133 9.274413240000001 -1.9230543000000002 -0.021754 -0.090481 0.0021
8780 -2.32227225 9.32530752 -1.92110211 -0.013258 -0.10646 -0.005297
8800 -2.1342636 9.36677439 -1.9609209000000003 0.002668 -0.117195 0.0012369999999999998
8820 -2.12348241 9.41346999 -1.99504989 0.028201 -0.112043 0.022773
8840 -2.1773687400000004 9.417815820000001 -1.9597240800000002 0.03034 -0.082338 0.051592
8860 -2.276910810000001 9.59534739 -1.94026104 0.014236000000000004 -0.091921 0.06431100000000001
8880 -2.34502164 9.69249582 -1.8407189700000002 0.01771 -0.041822000000000005 0.053588
8900 -2.29637385 9.55567575 -1.69552116 5.3e-05 0.050975 0.039459
8920 -2.2360521600000003 9.54759231 -1.5682854600000002 -0.025480000000000003 0.076593 0.048862
8940 -2.4025082400000004 9.53486874 -1.5666373800000002 -0.034188 0.051005 0.061653
8960 -2.62404747 9.39431106 -1.5462816300000002 -0.034442 -0.000149 0.067058
8980 -2.68915644 9.329947650000001 -1.5563172600000001 -0.005838 -0.047113 0.06518099999999999
9000 -2.7098163000000004 9.38413809 -1.67186925 0.024102 -0.037609 0.060037
9020 -2.6589220200000003 9.15107211 -1.64942397 0.035736000000000004 -0.053653999999999986 0.066548
9040 -2.65787235 9.60088023 -1.6367004000000003 0.039616000000000005 -0.12404 0.082689
9060 -2.6292860100000004 9.492509160000001 -1.70211348 0.052135 -0.176326 0.093525
9080 -2.8157937299999998 9.40478814 -1.75585266 0.062828 -0.180586 0.083992
9100 -2.8128016800000006 9.398804040000002 -1.75869756 0.070464 -0.152877 0.074395
9120 -2.6634150000000005 9.374102460000001 -1.84461354 0.06081900000000001 -0.149698 0.087143
9140 -2.4577385400000002 9.28144701 -1.96706196 0.039381 -0.15714 0.101958
9160 -2.24218341 9.33234129 -1.98382725 0.026679 -0.133664 0.102907
9180 -2.23784739 9.4106349 -1.81811673 0.024723 -0.101669 0.095375
9200 -2.32600986 9.47889288 -1.7476122600000001 0.016418000000000002 -0.06536 0.080315
9220 -2.33304363 9.44759898 -1.69283322 0.004686999999999999 -0.06955900000000001 0.074897
9240 -2.31987861 9.45433845 -1.55811249 0.00241 -0.099388 0.077056
9260 -2.34846495 9.461225070000001 -1.6991214300000002 0.018259 -0.130349 0.080411
9280 -2.61042138 9.41392125 -1.8841282200000002 0.026756 -0.141023 0.078348
9300 -2.9216240100000004 9.35689572 -2.06270946 0.024545 -0.164426 0.071953
9320 -2.9011211100000005 9.239381730000002 -1.97739189 0.027679 -0.187839 0.063459
9340 -2.58691662 9.27695403 -1.77261795 0.03098 -0.17608900000000002 0.052785000000000006
9360 -2.3616397800000004 9.377398620000001 -1.61858133 0.02899 -0.152612 0.044195
9380 -2.4418757700000002 9.39490947 -1.7304055200000004 0.018125 -0.192006 0.048443
9400 -2.67449049 9.40703463 -1.79746668 0.017717 -0.282554 0.048556
9420 -2.51327295 9.418414230000002 -1.8080909100000002 0.031548 -0.298552 0.041195
9440 -2.16270279 9.48308175 -1.7330934600000003 0.041457 -0.250567 0.020907
9460 -1.99370592 9.4949028 -1.5522755400000001 0.047911 -0.23675 0.023071
9480 -2.0660056200000003 9.48727062 -1.5846093 0.06155 -0.26671100000000003 0.044569
9500 -2.32227225 9.46661076 -1.7318966400000002 0.065736 -0.273164 0.056357
9520 -2.42959365 9.44700057 -1.7492603400000002 0.057354 -0.245412 0.049853
9540 -2.41163154 9.49834611 -1.7208211500000001 0.051202 -0.19424 0.045472000000000005
9560 -2.3692719600000003 9.53082702 -1.6001679600000003 0.042898 -0.133528 0.05495
9580 -2.35011303 9.43668045 -1.61828703 0.018403 -0.109001 0.069703
9600 -2.3611885200000002 9.3878757 -1.6831017000000001 0.007321999999999999 -0.21012600000000006 0.060141
9620 -2.41552611 9.4311378 -1.6515135 0.024162 -0.283599 0.03792
9640 -2.4294465 9.5236461 -1.6257720600000003 0.038371 -0.222868 0.022986000000000003
9660 -2.3981624100000003 9.48936996 -1.6377402600000002 0.040663 -0.190904 0.019757
9680 -2.21883561 9.40164894 -1.6205335200000002 0.037108 -0.247442 0.042237
9700 -2.1395021400000003 9.441320580000001 -1.54792971 0.059162 -0.298759 0.069162
9720 -2.1900923100000007 9.556725420000001 -1.5506274600000003 0.101693 -0.308585 0.091905
9740 -2.3281092 9.51106968 -1.69986699 0.150562 -0.323794 0.123244
9760 -2.39562162 9.37545624 -1.8851778900000002 0.180396 -0.293163 0.162937
9780 -2.1254346 9.38098908 -1.9130186700000003 0.177162 -0.252864 0.210933
9800 -1.8453591 9.39700881 -1.88308836 0.170651 -0.239147 0.249326
9820 -1.88772849 9.45433845 -1.77501159 0.18242 -0.231731 0.249399
9840 -2.10896361 9.57813084 -1.8043434900000002 0.181679 -0.177326 0.231164
9860 -2.28874167 9.56331774 -1.75794219 0.168222 -0.11219 0.204281
9880 -2.23230474 9.493411680000001 -1.7919240300000001 0.153334 -0.1174 0.18816
9900 -2.12647446 9.461676330000001 -1.7760612600000003 0.120481 -0.095868 0.160129
9920 -2.17587762 9.477686250000001 -1.555866 0.067675 -0.01563 0.120134
9940 -2.4932115 9.53127828 -1.51619436 0.000961 0.056136 0.080051
9960 -2.7690883200000003 9.53053272 -1.65495681 -0.060672 0.07885 0.047545
9980 -2.6905004100000003 9.40763304 -1.66454118 -0.081899 0.08645 0.030296
10000 -2.443671 9.42649767 -1.6929803700000001 -0.07735800000000001 0.13336199999999998 0.016380000000000002
10020 -2.29427451 9.218133270000001 -1.73325042 -0.06856 0.17388499999999998 -0.00177
10040 -2.26119519 9.16154919 -1.7200755900000002 -0.071732 0.169677 -0.012469
10060 -2.1342636 9.23294637 -1.6739685900000003 -0.08882999999999999 0.159102 -0.016848
10080 -1.9323345600000001 9.32889798 -1.52158986 -0.087687 0.183569 -0.009394
10100 -1.94190912 9.45568242 -1.53924786 -0.095126 0.184682 -0.014788
10120 -1.9473046200000002 9.60672699 -1.6224759000000002 -0.08673 0.143149 -0.025358
10140 -2.0899518300000004 9.5381649 -1.8676670400000002 -0.08881599999999999 0.13365 -0.045657
10160 -2.0622582 9.43637634 -2.06165979 -0.101393 0.166786 -0.06287899999999999
10180 -1.97244765 9.51032412 -2.0562741 -0.114066 0.187105 -0.071539
10200 -1.8248562 9.692790120000002 -1.96271613 -0.102282 0.215754 -0.053334000000000006
10220 -1.77860205 9.73650348 -1.9184141700000001 -0.10124 0.221034 -0.042651
10240 -1.8821858400000002 9.80940159 -1.93262886 -0.095819 0.242312 -0.040504000000000005
10260 -1.9251438300000001 9.920166300000002 -1.79686827 -0.09889 0.275329 -0.036295
10280 -1.73893041 9.82601973 -1.7095985100000002 -0.096857 0.263561 -0.025583
10300 -1.5618501 9.57798369 -1.62950967 -0.086404 0.220892 -0.020115
10320 -1.53955197 9.46811169 -1.5359517 -0.063034 0.194196 -0.02419
10340 -1.55735712 9.57588435 -1.57308255 -0.051279 0.19205 -0.030514
10360 -1.55466918 9.72467262 -1.6233784199999999 -0.048016 0.206948 -0.029443
10380 -1.6302552300000002 9.67767291 -1.82530746 -0.053292999999999986 0.229299 -0.019894
10400 -1.7504571599999998 9.40763304 -1.76932179 -0.05756 0.240985 -0.008187999999999999
10420 -1.7479163700000002 9.46661076 -1.7079504300000001 -0.054298 0.26224899999999995 -0.000715
10440 -1.7329463100000002 9.56241522 -1.7227635300000004 -0.049939 0.289901 0.006756999999999999
10460 -1.86347817 9.72018945 -1.81677276 -0.056335 0.288867 0.004577
10480 -2.0155626 9.619892010000001 -1.8070412400000002 -0.061742 0.268662 0.000293
10500 -1.94714766 9.51092253 -1.79161992 -0.061742 0.26760100000000003 -0.0007740000000000001
10520 -1.7010638100000002 9.56301363 -1.69522686 -0.058508 0.269742 -0.006095000000000001
10540 -1.52023608 9.565407270000001 -1.72036989 -0.059474 0.278323 -0.02
10560 -1.66154913 9.489213000000001 -1.7269622100000002 -0.048733 0.284716 -0.029547000000000007
10580 -1.81811673 9.509274450000001 -1.7392345200000001 -0.035902 0.291063 -0.029466000000000006
10600 -1.85838678 9.49550121 -1.66663071 -0.032964999999999994 0.242011 -0.019768
10620 -1.9000008 9.53053272 -1.70495838 -0.024703 0.193993 -0.00683
10640 -1.9535830200000002 9.57798369 -1.72800207 -0.026794 0.203588 -0.006856999999999999
10660 -2.02948299 9.55059417 -1.69058673 -0.035104 0.23777 -0.022983
10680 -1.99969002 9.53427033 -1.6950797100000001 -0.029654000000000007 0.243159 -0.043248
10700 -1.8034507800000001 9.577532430000002 -1.68639786 -0.039256 0.235765 -0.050783
10720 -1.6518176100000002 9.59369931 -1.6271160300000003 -0.049963 0.22197600000000006 -0.056181
10740 -1.6293625200000001 9.56645694 -1.61334279 -0.070243 0.206123 -0.070189
10760 -1.64957112 9.58516461 -1.65031668 -0.078807 0.185968 -0.08411
10780 -1.69207785 9.62648433 -1.7142386400000003 -0.083103 0.163676 -0.100135
10800 -1.7139345300000002 9.536820930000001 -1.69432434 -0.07133400000000001 0.15836 -0.112865
10820 -1.7205268500000002 9.477539100000001 -1.66064661 -0.05735 0.172207 -0.124535
10840 -1.8046476000000002 9.53486874 -1.66483548 -0.052068 0.16047 -0.124483
10860 -1.8299475900000002 9.652225770000001 -1.6015217400000001 -0.058771 0.106113 -0.111642
10880 -1.8419157900000003 9.6133095 -1.6163348400000004 -0.062255 0.050701 -0.104117
10900 -1.87006068 9.521252460000001 -1.6392411900000001 -0.049567 0.024029 -0.10506300000000003
10920 -1.86047631 9.46332441 -1.63519947 -0.024962 0.037796 -0.105977
10940 -1.8552377700000002 9.59040315 -1.64478384 -0.002621 0.04615 -0.083399
10960 -1.84745844 9.58591998 -1.5971759099999998 0.012047 0.026761 -0.042679
10980 -1.9154123100000002 9.652225770000001 -1.5964303499999999 0.006281 -0.025593 0.001145
11000 -1.90928106 9.620490420000001 -1.5464385900000002 0.013567 -0.052305999999999984 0.015116999999999997
11020 -1.8432695700000001 9.600438780000001 -1.50961185 0.043526 -0.040663 0.007834
11040 -1.87634889 9.61076871 -1.54343673 0.05749600000000001 -0.025768 0.000435
11060 -1.96137216 9.688306950000001 -1.48161411 0.054228 -0.036426 0.004698
11080 -1.93248171 9.6133095 -1.45407744 0.039134 -0.057735 0.018507
11100 -1.9064361600000002 9.600281820000001 -1.4561767799999998 0.031626999999999995 -0.057743 0.027000000000000003
11120 -1.95718329 9.59804514 -1.4895504000000002 0.034871 -0.055593 0.019543
11140 -2.0299244400000003 9.63141876 -1.55601315 0.030786 -0.033136 0.001326
11160 -2.04385464 9.472898970000001 -1.55840679 0.010587 -0.038306 -0.020173
11180 -1.9755868500000002 9.521252460000001 -1.57756572 -0.006708 -0.09468 -0.026631
11200 -1.9327760100000002 9.58023018 -1.5200889300000002 -0.005732 -0.114923 -0.026598
11220 -1.9848769200000003 9.57543309 -1.51275105 0.000842 -0.079779 -0.029802
11240 -2.15387379 9.60208686 -1.5214329000000002 0.0070989999999999985 -0.107516 -0.02545
11260 -2.2091040900000003 9.53067987 -1.7007597 0.018384 -0.201325 -0.018842
11280 -1.96182342 9.42619356 -1.6518176100000002 0.035367 -0.227987 -0.026166
11300 -1.6705252800000003 9.32875083 -1.62801855 0.037659 -0.196024 -0.029396
11320 -1.6850440800000002 9.474095790000002 -1.6393883400000002 0.030134 -0.196049 -0.016630000000000002
11340 -2.04055848 9.51406173 -1.6850440800000002 0.035305 -0.211066 0.00479
11360 -2.27975571 9.47589102 -1.7865383400000001 0.040673 -0.190896 0.01762
11380 -2.29727637 9.449551170000001 -1.76946894 0.03987 -0.12912 0.02074
11400 -2.18485377 9.46676772 -1.64717748 0.024049 -0.076913 0.032313
11420 -2.12438493 9.56660409 -1.5061685400000002 0.012237 -0.080123 0.046122
11440 -2.1953308500000004 9.55822635 -1.4889519900000001 0.016576 -0.080074 0.030129000000000006
11460 -2.31433596 9.52738371 -1.59777432 0.022246 -0.026744 0.008735
11480 -2.40999327 9.55388052 -1.6483743 0.02239 -0.002213 0.001227
11500 -2.3830452 9.53996013 -1.5160472100000002 0.013749 -0.018192 0.008665
11520 -2.39247261 9.596691360000001 -1.39060674 -0.002402 -0.032061 0.027798000000000003
11540 -2.5652169000000002 9.56331774 -1.43506566 -0.0131 -0.028867 0.037333
11560 -2.59200801 9.453592890000001 -1.6416348300000003 -0.00011 0.000963 0.025635
11580 -2.3773554000000003 9.44476389 -1.66559085 0.004411 0.03937 0.007458
11600 -2.34353052 9.480835260000001 -1.6145396100000002 0.013028 0.044718 -0.005307
11620 -2.40758982 9.417962970000001 -1.54343673 0.012961000000000002 0.032987 -0.002088
11640 -2.31208947 9.41587344 -1.4778765 0.005473 0.039362 0.008534
11660 -2.104029180000001 9.52259643 -1.4775822 -0.003076 0.043623 0.015946000000000002
11680 -2.02633398 9.53412318 -1.5452319600000002 -0.011549 0.059623 0.018003
11700 -2.1218343300000004 9.612563940000001 -1.67157495 -0.020963 0.084226 0.000814
11720 -2.07662985 9.42080787 -1.70944155 -0.031531 0.085414 -0.020626
11740 -1.9297839600000002 9.42948972 -1.58595327 -0.033584 0.095043 -0.029198
11760 -1.9134699300000002 9.593248050000001 -1.44943731 -0.032373 0.129119 -0.027097000000000003
11780 -2.14414227 9.57169548 -1.4890991400000002 -0.039827 0.133402 -0.026086
11800 -2.3553515700000003 9.580377330000001 -1.58011632 -0.040941000000000005 0.125936 -0.02288
11820 -2.34157833 9.6101703 -1.66258899 -0.04739 0.121672 -0.01651
11840 -2.09279673 9.47050533 -1.55646441 -0.045295 0.105715 -0.023953
11860 -1.9407123000000002 9.500896710000001 -1.4223420900000001 -0.052643 0.115397 -0.041108
11880 -2.06270946 9.61031745 -1.3760879400000001 -0.057848 0.140995 -0.044382
11900 -2.22377985 9.55597986 -1.4573736000000002 -0.061049 0.14525 -0.040137
11920 -2.3743633500000003 9.461676330000001 -1.60301286 -0.069641 0.139924 -0.032712
11940 -2.34801369 9.52828623 -1.5648421500000003 -0.055676 0.160119 -0.033709
11960 -2.13366519 9.49040982 -1.49973318 -0.035319 0.169674 -0.043193
11980 -1.9699068600000003 9.51421869 -1.43865612 -0.038371 0.185733 -0.060326
12000 -1.9217005200000001 9.49865022 -1.37833443 -0.06623899999999999 0.16025 -0.057284
12020 -2.03591835 9.58157415 -1.3937557500000002 -0.07856 0.06215900000000001 -0.025197
12040 -2.14174863 9.58576302 -1.40617521 -0.018156 0.009595 0.013748
12060 -2.19728304 9.46361871 -1.43042553 0.048277 0.096622 0.037601
12080 -2.17063908 9.56316078 -1.50526602 0.093493 0.202928 0.053804
12100 -2.153569680000001 9.62677863 -1.46829213 0.151801 0.15040599999999998 0.084189
12120 -2.1338123400000004 9.55059417 -1.3919507100000001 0.154638 0.088533 0.103516
12140 -2.09234547 9.55957032 -1.40722488 0.130205 0.100383 0.09158
12160 -2.18410821 9.6799194 -1.49658417 0.111376 0.15701600000000002 0.06467
12180 -2.34202959 9.59070726 -1.4338688400000001 0.069825 0.154029 0.04836
12200 -2.3472681300000002 9.55119258 -1.43566407 0.056311 0.23715100000000006 0.052432000000000006
12220 -2.28859452 9.57184263 -1.37623509 0.046002 0.30435100000000004 0.039456
12240 -2.1495279600000003 9.580377330000001 -1.43805771 0.029639 0.229817 0.044778
12260 -2.13395949 9.540705690000001 -1.36890702 0.007918999999999999 0.140427 0.040468
12280 -2.14608465 9.48337605 -1.38207204 0.022783 0.105298 0.021389
12300 -2.3586477300000004 9.57094992 -1.1461709699999998 0.026261000000000003 0.14266900000000002 -0.003204
12320 -2.35265382 9.73111779 -1.3418117999999999 0.013589 0.161927 -0.012931
12340 -2.21958117 9.38458935 -1.53415647 0.013459 0.144835 -0.00116
12360 -2.1369515400000005 9.46256904 -1.35138636 0.044336 0.14255 0.010809
12380 -2.02678524 9.3354903 -1.78518456 0.029702 0.19486 -0.004315
12400 -2.17796715 8.9916498 -1.7841447000000001 -0.030462 0.319785 -0.024123
12420 -2.37945474 9.10092339 -1.54658574 -0.064789 0.26350500000000004 -0.039246
12440 -2.14698717 9.42709608 -1.68279759 -0.057997 0.095239 -0.057142999999999985
12460 -1.80854217 9.223666110000002 -1.48491027 -0.035588 0.045298000000000005 -0.108197
12480 -1.90613205 9.46002825 -1.5236793900000003 -0.058142999999999986 0.206406 -0.15129
12500 -2.04564987 9.70087356 -1.47667968 -0.095124 0.28430900000000003 -0.15378499999999998
12520 -1.85509062 9.68606046 -1.20858219 -0.092748 0.131841 -0.122594
12540 -1.63369854 9.6827643 -1.2752019000000003 -0.08040599999999999 0.042263 -0.109574
12560 -1.84341672 9.64279836 -1.44824049 -0.088174 0.180905 -0.141853
12580 -1.94714766 9.61510473 -1.49449464 -0.095129 0.285366 -0.151649
12600 -2.05672536 9.990974880000001 -1.38192489 -0.090173 0.233021 -0.119501
12620 -2.31688656 9.822870720000001 -1.64732463 -0.06729199999999999 0.14116900000000002 -0.079699
12640 -2.4152318100000008 9.71823726 -1.9056906 -0.067373 0.121998 -0.08074400000000001
12660 -2.2945786200000002 9.3329397 -1.8588380400000002 -0.07034800000000001 0.16465 -0.088297
12680 -2.1189894300000005 9.14463675 -1.7925224400000002 -0.05757 0.165645 -0.081799
12700 -2.02139955 9.33623586 -1.6730660700000002 -0.039692000000000005 0.118667 -0.07093200000000001
12720 -2.2213764 9.52978716 -1.4605127999999998 -0.040922 0.087757 -0.06556000000000001
12740 -2.3962200300000003 9.68186178 -1.53790389 -0.03852 0.13361099999999998 -0.079489
12760 -2.41942068 9.64115028 -1.5786153900000002 -0.022498 0.148426 -0.068714
12780 -2.38199553 9.628573860000001 -1.4193500399999999 -0.02158 0.14086400000000002 -0.04306
12800 -2.6643077100000006 9.73275606 -1.50886629 -0.021743 0.124804 -0.022744
12820 -2.8830020400000005 9.59744673 -1.74717081 -0.016705 0.071471 -0.009822
12840 -2.65906917 9.5267853 -1.71108963 -0.0007700000000000001 0.053318 -0.012892
12860 -2.02738365 9.43458111 -1.57577049 -0.004625 0.12584800000000002 -0.03224
12880 -1.7817412500000003 9.51002001 -1.4480933400000002 -0.014198 0.138639 -0.025914
12900 -2.24562672 9.5959458 -1.5563172600000001 -0.018892 0.065065 -0.004488000000000001
12920 -2.57134815 9.477686250000001 -1.7095985100000002 -0.0073 0.029883 -0.007567
12940 -2.34980892 9.399108150000002 -1.6536128400000003 0.000225 0.033091 -0.017131999999999998
12960 -1.9734973199999999 9.44371422 -1.6136469 -0.002726 0.075764 -0.030026
12980 -2.0142088200000003 9.477244800000001 -1.55945646 -0.015442 0.092862 -0.032274000000000004
13000 -2.20461111 9.425448000000001 -1.74207942 -0.017969 0.014006 -0.023644
13020 -2.4051961800000003 9.3645279 -1.8425141999999999 -0.022476 -0.040304 -0.024674
13040 -2.31897609 9.42335847 -1.7115408900000002 -0.024207 0.027966 -0.046138
13060 -2.19324132 9.471555 -1.55361951 -0.025125 0.049322000000000005 -0.057923
13080 -2.2132929600000004 9.5034375 -1.4468867100000002 -0.034813 0.031242 -0.056899
13100 -2.2559566500000003 9.397607220000001 -1.7098928100000002 -0.035087 -0.017807 -0.045088
13120 -2.1764760300000003 9.37874259 -1.76782086 -0.02993 -0.05618 -0.043934
13140 -2.0678008500000002 9.34072884 -1.81467342 -0.027599 -0.022061 -0.053576
13160 -2.1661461 9.42035661 -1.69986699 -0.029436 0.035505 -0.06220800000000001
13180 -2.32316496 9.533828880000002 -1.56230136 -0.036058 0.002441 -0.046189
13200 -2.45864106 9.54684675 -1.7208211500000001 -0.043962 -0.078557 -0.030117
13220 -2.5653640500000003 9.45643779 -1.70390871 -0.0492 -0.06678200000000001 -0.039782
13240 -2.4277984200000002 9.48188493 -1.6407421200000003 -0.035029000000000005 -0.014573 -0.054705
13260 -2.3141888100000005 9.409428270000001 -1.57457367 -0.037153 -0.006069 -0.048322
13280 -2.3875381800000004 9.41856138 -1.5657446700000002 -0.029824 -0.025317 -0.036495
13300 -2.5418592900000005 9.49789485 -1.5483809699999997 -0.019482 -0.07763300000000001 -0.016059999999999998
13320 -2.5896143700000005 9.46796454 -1.6597440900000002 -0.019654 -0.106434 -0.006409999999999999
13340 -2.44561338 9.38638458 -1.5453889200000002 -0.013946 -0.038216 -0.021413
13360 -2.289192930000001 9.48547539 -1.4760812700000003 -0.005286 -0.008427 -0.019254
13380 -2.4370786800000004 9.52589259 -1.45108539 0.002942 -0.051169 0.006495
13400 -2.66670135 9.43517952 -1.60376823 0.012198 -0.097133 0.037597000000000005
13420 -2.5845229800000005 9.4399668 -1.5437408400000001 0.020867 -0.064152 0.04082
13440 -2.41987194 9.430392240000002 -1.6573504500000003 0.041584 0.022114 0.028036
13460 -2.38843089 9.45374004 -1.53341091 0.06284400000000001 0.015606 0.038875
13480 -2.48378409 9.45942984 -1.5675399000000003 0.066819 -0.030292000000000006 0.05819
13500 -2.66385645 9.410036490000001 -1.7263638000000001 0.057987 -0.08782100000000001 0.066747
13520 -2.64125421 9.3673728 -1.66902435 0.040076 -0.064215 0.039886000000000005
13540 -2.4010073100000002 9.476940690000001 -1.5482338199999999 0.046932 0.012559 0.015267
13560 -2.3373894600000003 9.53158239 -1.43700804 0.047966 0.011465 0.021685
13580 -2.54470419 9.414519660000002 -1.52667144 0.024313 -0.019384 0.031173000000000006
13600 -2.69574876 9.3967047 -1.6022673 0.003018 -0.011844 0.028878
13620 -2.64724812 9.39162312 -1.62232875 -0.0077459999999999985 -0.040539 0.021362
13640 -2.43648027 9.42395688 -1.57008069 -0.010951 -0.057508 0.005338
13660 -2.37106719 9.40000086 -1.4901488100000002 -0.007693000000000002 -0.065956 -0.015993
13680 -2.49681177 9.43503237 -1.50078285 -0.00865 -0.057367 -0.032034
13700 -2.68631154 9.345663270000001 -1.64657907 -0.004306 -0.028666000000000007 -0.02029
13720 -2.58467994 9.416619 -1.6175316599999998 -0.007698 -0.047924 0.003212
13740 -2.31134391 9.46691487 -1.61858133 0.003903 -0.061877 0.019335
13760 -2.21524515 9.47095659 -1.41964434 0.025173 -0.063072 0.033372000000000006
13780 -2.3635821600000004 9.44505819 -1.5627526200000001 0.034703 -0.07059700000000001 0.041994
13800 -2.6156599200000006 9.349852140000001 -1.6949227500000001 0.067618 -0.097378 0.050804
13820 -2.5355808900000003 9.37964511 -1.79776098 0.094562 -0.026141 0.06158300000000001
13840 -2.2858967700000004 9.4513464 -1.7351927999999999 0.111045 0.095184 0.07649700000000001
13860 -2.2094082 9.55029006 -1.3540841099999998 0.122785 0.123794 0.104317
13880 -2.35505727 9.47858877 -1.41830037 0.109671 0.075816 0.125651
13900 -2.5903599300000004 9.546101190000002 -1.5467328900000001 0.080684 0.031193 0.121233
13920 -2.35609713 9.56270952 -1.6061618700000002 0.045635 0.04525 0.099605
13940 -2.09114865 9.55119258 -1.6796583900000002 0.023826 0.134981 0.056609000000000013
13960 -2.18650185 9.61390791 -1.5640965900000001 0.009522 0.240635 0.021123
13980 -2.22437826 9.59489613 -1.49509305 -0.019024 0.284467 0.00698
14000 -2.3394888000000007 9.556578270000001 -1.64462688 -0.043739 0.251504 0.013259
14020 -2.40938505 9.53142543 -1.6483743 -0.058651 0.246272 0.002479
14040 -2.31598404 9.45568242 -1.63146186 -0.064631 0.311391 -0.026488
14060 -2.19099483 9.38084193 -1.4732363700000002 -0.062094 0.379645 -0.047922
14080 -2.09279673 9.32276673 -1.4630535900000003 -0.05874500000000001 0.403108 -0.057543
14100 -2.10926772 9.28474317 -1.52726985 -0.066189 0.406339 -0.059735
14120 -2.30340762 9.369619290000001 -1.4921010000000001 -0.065185 0.382938 -0.069312
14140 -2.4277984200000002 9.44027091 -1.63265868 -0.078342 0.308397 -0.065036
14160 -2.46192741 9.52708941 -1.4329663200000002 -0.085977 0.291298 -0.044771
14180 -2.49306435 9.45942984 -1.4868624600000002 -0.100669 0.355227 -0.035341000000000004
14200 -2.4578856900000003 9.361830150000001 -1.6407421200000003 -0.108032 0.396726 -0.017286000000000003
14220 -2.2387401000000002 9.305844480000001 -1.6992685800000003 -0.11438 0.4339310000000001 0.008259
14240 -1.9437043500000002 9.39566484 -1.6703781300000002 -0.113409 0.434903 0.030697
14260 -1.9916065800000002 9.5205069 -1.47233385 -0.10386 0.426334 0.03398
14280 -2.21479389 9.57169548 -1.3924019699999999 -0.064199 0.448644 0.015
14300 -2.47929111 9.54474741 -1.4043799799999999 -0.031103 0.439 0.000288
14320 -2.5791372900000002 9.70177608 -1.52951634 -0.02917 0.404862 0.011028
14340 -2.37001752 9.660014910000001 -1.46859624 -0.063449 0.380454 0.017228999999999998
14360 -2.18575629 9.52259643 -1.3611178800000001 -0.083618 0.383798 -0.002144
14380 -2.37945474 9.33623586 -1.4004854100000002 -0.098372 0.400988 -0.02577
14400 -2.6818185600000004 9.39117186 -1.4292287099999998 -0.12171400000000003 0.43832 -0.017435
14420 -2.76594912 9.47260467 -1.4462883000000002 -0.14307999999999998 0.446857 -0.00264
14440 -2.8791172800000004 9.53606556 -1.49898762 -0.146405 0.424476 0.002706
14460 -3.0578456700000003 9.655816230000001 -1.64657907 -0.133723 0.3978 0.002829
14480 -3.04706448 9.47260467 -1.77530589 -0.115576 0.401989 0.005087
14500 -2.70427365 9.22426452 -1.83502917 -0.108214 0.379588 0.006235
14520 -2.5566822000000005 9.62708274 -1.9088298000000001 -0.097794 0.332645 0.014913999999999997
14540 -2.4382755 9.53546715 -1.73938167 -0.086313 0.287816 0.026802
14560 -2.23964262 9.37844829 -1.64612781 -0.07059299999999999 0.240825 0.042995
14580 -2.12647446 9.30854223 -1.4736876300000001 -0.047362 0.204456 0.060296
14600 -2.1076196400000002 9.33279255 -1.37563668 -0.027307 0.17236300000000002 0.0765
14620 -2.3352901200000002 9.37141452 -1.53924786 -0.027556 0.131823 0.091506
14640 -2.61700389 9.273667679999999 -1.720674 -0.031001 0.091299 0.10542
14660 -2.8298612700000003 9.306295740000001 -1.88562915 -0.024571 0.096607 0.10439
14680 -2.8632447000000005 9.38548206 -1.8989511300000002 -0.032953 0.12435999999999997 0.097887
14700 -2.69709273 9.47514546 -1.71318897 -0.046846 0.12438699999999997 0.103131
14720 -2.40579459 9.56630979 -1.49778099 -0.056625 0.094554 0.112715
14740 -2.1582098100000007 9.68606046 -1.4531749200000001 -0.055664 0.072176 0.113818
14760 -2.03531994 9.54564993 -1.4329663200000002 -0.03967 0.062562 0.106465
14780 -2.14339671 9.60208686 -1.44104976 -0.030083 0.058272 0.105469
14800 -2.33035569 9.627828300000001 -1.4980851 -0.035523 0.046526 0.117197
14820 -2.4059515500000006 9.44775594 -1.61304849 -0.055879999999999985 0.038032 0.127748
14840 -2.48753151 9.31423203 -1.63610199 -0.063314 0.054003 0.136221
14860 -2.5655112 9.31153428 -1.60286571 -0.067553 0.06995900000000001 0.145785
14880 -2.5563879 9.3127311 -1.58505075 -0.074059 0.057155 0.15643800000000002
14900 -2.52644778 9.41362695 -1.52218827 -0.063554 0.018777 0.154424
14920 -2.54171214 9.381891600000001 -1.55990772 -0.036877 0.007017 0.141807
14940 -2.5631175600000002 9.39281994 -1.59612624 -0.010383 -0.032491 0.142043
14960 -2.5286942700000004 9.36512631 -1.61499087 -0.002141 -0.08477 0.15498599999999998
14980 -2.37481461 9.36692154 -1.60541631 -0.002289 -0.106122 0.16676300000000002
15000 -2.2760181 9.390426300000001 -1.5792138 -0.017172999999999997 -0.093291 0.16771
15020 -2.36193408 9.52663815 -1.6090067700000001 -0.029874 -0.070876 0.16759300000000002
15040 -2.433193920000001 9.560315880000001 -1.6211319300000002 -0.02344 -0.065563 0.165495
15060 -2.3543019000000003 9.52349895 -1.56649023 -0.017019 -0.053898 0.173002
15080 -2.29038975 9.588156660000001 -1.48730391 -0.039442000000000005 -0.041104 0.189921
15100 -2.24428275 9.56301363 -1.46261214 -0.057574 -0.032549 0.197261
15120 -2.33260218 9.508528890000001 -1.48131981 -0.038265 -0.005997 0.200566
15140 -2.40145857 9.448952760000001 -1.4994290700000001 -0.000911 0.012983 0.216826
15160 -2.3322980700000002 9.4746942 -1.49554431 0.025459 -0.034062 0.237367
15180 -2.22168051 9.489517110000001 -1.40782329 0.052795 -0.113031 0.248341
15200 -2.20790727 9.541009800000001 -1.3458535200000001 0.067251 -0.207939 0.260314
15220 -2.1721302000000002 9.55911906 -1.3271360399999999 0.09129 -0.303958 0.27556
15240 -2.13246837 9.485328240000001 -1.4314752 0.113565 -0.358263 0.250148
15260 -2.1721302000000002 9.489517110000001 -1.48117266 0.108106 -0.400795 0.235209
15280 -2.30041557 9.45883143 -1.4672522700000001 0.120009 -0.385833 0.212841
15300 -2.43348822 9.41647185 -1.52503317 0.105155 -0.348573 0.231917
15320 -2.36717262 9.34477056 -1.4931408600000002 0.104232 -0.330405 0.21800100000000006
15340 -2.1612018600000003 9.4368276 -1.5507746100000002 0.079416 -0.401653 0.208304
15360 -2.01989862 9.596544210000001 -1.5473313000000002 0.100394 -0.507087 0.182949
15380 -1.9230543000000002 9.73784745 -1.4754828599999998 0.147456 -0.505022 0.158706
15400 -1.72965015 9.7607538 -1.44090261 0.163104 -0.5743590000000001 0.168518
15420 -1.46530008 9.57408912 -1.41770196 0.206303 -0.694886 0.168974
15440 -1.2933111599999998 9.549691650000002 -1.39479561 0.236806 -0.7961779999999999 0.165044
15460 -1.15499997 9.54160821 -1.33806438 0.235643 -0.8376379999999999 0.144793
15480 -1.1192229 9.60252831 -1.2713073300000002 0.218607 -0.8492200000000001 0.125461
15500 -1.18613691 9.689346810000002 -1.3052891699999998 0.210885 -0.910958 0.120145
15520 -1.3178557800000001 9.688149990000001 -1.45437174 0.210252 -1.050512 0.121387
15540 -1.36695483 9.60747255 -1.5170968800000002 0.202101 -0.991786 0.09455
15560 -1.31441247 9.46077381 -1.46829213 0.17140899999999998 -0.778306 0.015013
15580 -1.2434665500000002 9.52603974 -1.52802522 0.140757 -0.772637 -0.04396
15600 -1.18418472 9.72542799 -1.5178424400000001 0.239609 -1.052244 -0.003387
15620 -0.99213435 9.74473407 -1.41590673 0.34403 -1.251025 0.065963
15640 -0.91325214 9.79457868 -1.4678506800000002 0.248101 -0.976981 0.08203300000000001
15660 -0.69724575 9.78814332 -1.39689495 0.06502899999999999 -0.655645 0.068592
15680 -0.5330459700000001 9.78156081 -1.3350723300000003 -0.031193 -0.544194 -0.013407
15700 -0.41777847 9.68470668 -1.39464846 0.012292 -0.430096 -0.07948
15720 -0.5959084500000001 9.668843910000001 -1.5075125100000002 0.027844 -0.073212 -0.09692
15740 -0.9351088200000001 9.81239364 -1.55691567 -0.003968 0.239959 -0.064429
15760 -1.20828789 9.767493270000001 -1.6723205100000003 0.039543 0.243845 -0.008582
15780 -1.34315577 9.4946085 -1.86647022 0.145333 0.090952 0.039355
15800 -1.24750827 9.60297957 -1.75150683 0.134257 -0.029266000000000007 0.009521
15820 -1.19541717 9.69039648 -1.55960361 -0.029937 0.16121 -0.06237300000000001
15840 -1.14840765 9.69144615 -1.44748512 -0.151912 0.309753 -0.074097
15860 -0.9391505400000001 9.73815156 -1.42279335 -0.15604300000000002 0.172068 -0.004515
15880 -0.85681521 9.95789556 -1.4335647300000003 -0.06166 -0.11831300000000003 0.070224
15900 -0.9443890800000001 10.40920461 -1.2900150000000001 0.081705 -0.296592 0.040475
15920 -0.9479795400000001 10.821744540000001 -0.8255311200000001 0.125319 -0.216331 -0.088578
15940 -1.02896109 10.740164580000002 -0.92208114 0.05165 -0.092094 -0.190733
15960 -1.04108625 10.58599062 -1.2734066700000002 -0.002098 0.045553 -0.200899
15980 -0.8180460900000001 9.948311190000002 -1.31366691 0.010345 0.032457 -0.133497
16000 -1.01429514 9.47365434 -1.29630321 0.093141 -0.218494 -0.052480999999999986
16020 -1.00800693 9.342671220000001 -1.66782753 0.105296 -0.346435 -0.036208
16040 -0.41568894000000006 9.05751414 -2.0419024500000003 0.061862 -0.300386 -0.059003
16060 0.25701219000000003 8.75589588 -2.42720001 0.047501 -0.189478 -0.076337
16080 0.6257014200000001 8.42163975 -2.75397111 0.067097 -0.106437 -0.08058
16100 0.71206866 8.2134225 -2.84857875 0.10683 -0.057539 -0.088911
16120 1.03060917 8.553358620000001 -3.3852151800000003 0.110031 -0.026781 -0.057949
16140 1.37458701 9.39131901 -3.52307511 0.070005 -0.095038 -0.003662
16160 1.02805857 11.420802 -3.08853135 0.049323 -0.17703 0.005912
16180 -0.03951468 12.085272540000002 -2.51671626 0.054791 -0.181174 -0.028227
16200 -0.96878655 10.81291554 -1.62367272 0.035374 -0.05939 -0.096885
16220 -0.9394448400000001 9.87421626 -1.1337417 -0.021316 0.107146 -0.13595
16240 -0.11975067000000002 9.480835260000001 -1.4055768 -0.068009 0.149972 -0.14915
16260 -0.046548450000000005 9.22546134 -2.17093338 -0.078927 0.079761 -0.164091
16280 -0.9442321200000001 9.13789728 -2.41567326 -0.07562 0.068173 -0.199305
16300 -1.9981989000000002 9.28818648 -2.19847986 -0.087713 0.186619 -0.239065
16320 -2.50114779 9.55882476 -1.7744131800000003 -0.137276 0.291289 -0.264115
16340 -2.3879796300000002 10.141107120000001 -1.2567885300000001 -0.167484 0.24122800000000005 -0.239692
16360 -1.78683264 10.153683540000001 -1.2445162200000002 -0.17416800000000002 0.226144 -0.19165
16380 -1.4124634200000001 9.42470244 -1.50990615 -0.177339 0.270743 -0.153273
16400 -1.43700804 9.2950731 -1.5167927700000001 -0.141975 0.32275 -0.136001
16420 -1.6528672800000002 9.19493262 -1.5268284 -0.11813 0.394088 -0.147677
16440 -1.84611447 9.493558830000001 -1.60166889 -0.131524 0.482621 -0.164975
16460 -1.95343587 9.833946209999999 -1.7408826 -0.15077100000000002 0.470979 -0.167231
16480 -2.07693396 9.77991273 -1.85614029 -0.146748 0.415575 -0.1682
16500 -1.9976004900000002 9.43472826 -1.89191736 -0.194182 0.509622 -0.202835
16520 -1.69671798 9.27711099 -1.83548043 -0.242543 0.605919 -0.26632100000000003
16540 -1.32504651 9.46436427 -1.69432434 -0.296618 0.623383 -0.324406
16560 -1.5064628400000002 9.75461274 -1.75629411 -0.339999 0.675845 -0.35255
16580 -2.00762631 9.775723860000001 -1.89026928 -0.37622 0.712093 -0.32828
16600 -2.17976238 9.625287510000001 -1.86092757 -0.375843 0.638266 -0.248066
16620 -1.9378674 9.764942670000002 -1.58624757 -0.343629 0.522799 -0.171849
16640 -1.55407077 9.661810140000002 -1.34764875 -0.282316 0.435078 -0.132853
16660 -1.5619972500000001 9.620941680000001 -1.3940500500000002 -0.217473 0.369921 -0.145135
16680 -2.13515631 9.55463589 -1.71842751 -0.1824 0.319811 -0.165122
16700 -2.23186329 9.728115930000001 -1.89625338 -0.156863 0.303747 -0.165991
16720 -1.8040491900000002 9.727821630000001 -1.6393883400000002 -0.125039 0.297107 -0.131577
16740 -1.3835729700000001 9.72003249 -1.5539138099999998 -0.104133 0.249965 -0.082233
16760 -1.31830704 9.55193814 -1.65002238 -0.095972 0.199735 -0.048996
16780 -1.6667876700000002 9.38458935 -1.95852726 -0.089494 0.225245 -0.040438
16800 -2.0507314500000002 9.22246929 -2.13096744 -0.06808099999999999 0.248581 -0.033908999999999995
16820 -2.20985946 9.27216675 -2.03501583 -0.025511 0.23985 -0.018645
16840 -2.16435087 9.496854990000001 -1.79761383 0.019043 0.208699 0.0073430000000000014
16860 -2.07573714 9.636961410000001 -1.69238196 0.032605 0.176547 0.043799
16880 -2.1764760300000003 9.79877736 -1.76168961 0.015305 0.157304 0.075749
16900 -2.3252643 9.72528084 -1.7438746500000002 0.006693999999999999 0.15726600000000002 0.092781
16920 -2.29307769 9.75296466 -1.44075546 0.032409 0.197593 0.108932
16940 -2.1576114 9.74877579 -1.2380710499999998 0.033538 0.226291 0.123858
16960 -2.0899518300000004 9.601929900000002 -1.2332837700000001 0.047076 0.165472 0.136849
16980 -2.0570196600000004 9.29476899 -1.3564777500000003 0.070073 0.05674600000000001 0.133944
17000 -2.1115044 9.26378901 -1.43267202 0.087032 0.020514 0.122359
17020 -2.3403815100000003 9.317822490000001 -1.6163348400000004 0.090228 0.0014 0.104246
17040 -2.80127493 9.20929446 -1.6696325699999999 0.103982 -0.030581 0.097974
17060 -3.1608310500000005 9.326955600000002 -1.58415804 0.111364 -0.040232 0.107652
17080 -3.1760954100000003 9.35539479 -1.4862640500000002 0.090118 -0.014613 0.112812
17100 -2.95605711 9.23594823 -1.41755481 0.066623 -0.026223000000000003 0.106253
17120 -2.55309174 9.2634849 -1.27370097 0.060159 -0.06233 0.083821
17140 -2.31239358 9.38863107 -1.2846293100000001 0.07002 -0.028182 0.060346
17160 -2.34353052 9.429195420000001 -1.20933756 0.06932200000000001 0.033688 0.039965
17180 -2.48348979 9.48353301 -1.1567952000000001 0.060595 0.005961999999999999 0.054895000000000006
17200 -2.58167808 9.429195420000001 -1.27279845 0.04938 -0.084672 0.085911
17220 -2.50997679 9.322315470000001 -1.46979306 0.039424 -0.16134600000000002 0.088076
17240 -2.3384391300000003 9.2631906 -1.55795553 0.075788 -0.157148 0.07230199999999999
17260 -2.12603301 9.283399200000002 -1.47637557 0.099566 -0.10709 0.054244000000000014
17280 -2.07513873 9.56076714 -1.30813407 0.105867 -0.13372699999999998 0.050049
17300 -2.01391452 9.680969070000002 -1.1608369200000002 0.096771 -0.246662 0.061880999999999985
17320 -1.99714923 9.57035151 -1.16473149 0.086762 -0.333993 0.065127
17340 -2.0853117 9.50164227 -1.31711022 0.075223 -0.303008 0.052188
17360 -2.2848471000000004 9.521252460000001 -1.3187583 0.07019 -0.244366 0.043532
17380 -2.4540009300000003 9.421710390000001 -1.39075389 0.07231 -0.249691 0.041417
17400 -2.6090774100000003 9.44041806 -1.44524844 0.088135 -0.29446700000000003 0.036244
17420 -2.57105385 9.477244800000001 -1.43776341 0.087881 -0.363658 0.023513
17440 -2.4676172100000002 9.55583271 -1.4004854100000002 0.081298 -0.423214 0.004315
17460 -2.32736364 9.45194481 -1.42548129 0.07910199999999999 -0.462519 -0.021287
17480 -2.11090599 9.51915312 -1.3566249000000001 0.086809 -0.437929 -0.050107
17500 -2.00358459 9.52230213 -1.3049850600000001 0.086987 -0.405941 -0.057624
17520 -2.03501583 9.508980150000001 -1.3088796300000003 0.075146 -0.418726 -0.047009
17540 -2.25446553 9.58936329 -1.4180060700000001 0.042819 -0.489986 -0.047143
17560 -2.34681687 9.60103719 -1.51035741 0.01264 -0.5697300000000001 -0.059002
17580 -2.0275308000000005 9.429038460000001 -1.5640965900000001 0.009482 -0.598328 -0.097443
17600 -1.83803103 9.46466838 -1.4745803400000002 0.03859 -0.57694 -0.143201
17620 -2.11450626 9.52978716 -1.30723155 0.081504 -0.534436 -0.15363800000000002
17640 -2.4441222600000003 9.608365260000001 -1.3259392199999998 0.12016 -0.456895 -0.13103499999999998
17660 -2.50818156 9.520801200000001 -1.61065485 0.078308 -0.46015 -0.08004800000000001
17680 -2.32107543 9.39655755 -1.77695397 0.051807000000000006 -0.598788 -0.019167
17700 -2.05013304 9.429195420000001 -1.6102035900000002 0.038751 -0.636104 1.8e-05
17720 -2.05253649 9.52754067 -1.3666605300000003 0.075642 -0.5030560000000001 -0.004168
17740 -2.26224486 9.553134960000001 -1.31426532 0.104105 -0.350786 -0.01271
17760 -2.32631397 9.49475565 -1.4284831500000004 0.153195 -0.32548 0.010033
17780 -2.24638209 9.58786236 -1.5153016500000003 0.201983 -0.332274 0.068066
17800 -2.15311842 9.53486874 -1.55032335 0.220942 -0.320887 0.134414
17820 -2.23440408 9.430392240000002 -1.63115775 0.25254 -0.376533 0.169957
17840 -2.39277672 9.47244771 -1.66019535 0.260037 -0.391388 0.14866400000000002
17860 -2.4691181400000004 9.484876980000001 -1.5402975300000001 0.25000100000000003 -0.29954200000000003 0.099338
17880 -2.5213563900000002 9.51376743 -1.54508481 0.213413 -0.168239 0.062595
17900 -2.50069653 9.377849880000001 -1.60466094 0.199635 -0.139462 0.071008
17920 -2.37615858 9.50133816 -1.64747178 0.151804 -0.07335499999999999 0.097294
17940 -2.1710805300000002 9.44416548 -1.6486686 0.12442 0.017243 0.108737
17960 -2.2162948200000003 9.49609962 -1.5988239899999999 0.113174 0.122758 0.105319
17980 -2.28948723 9.36347823 -1.6208278200000001 0.082652 0.194324 0.08365
18000 -2.4632811900000005 9.45538812 -1.41830037 0.050847 0.207347 0.051364
18020 -2.5247997 9.50688081 -1.41635799 0.066606 0.133864 0.03234
18040 -2.2698770400000003 9.49401009 -1.8184208400000001 0.0931 0.094356 0.032576
18060 -1.8422199000000001 9.35988777 -1.96615944 0.106926 0.10488 0.052955
18080 -1.62307431 9.58726395 -1.33447392 0.098185 0.093055 0.08709299999999999
18100 -1.5759274500000002 9.656718750000001 -1.37728476 0.057539 0.08992 0.107109
18120 -2.02124259 9.56256237 -1.65794886 0.048282 0.150738 0.090943
18140 -2.44157166 9.55402767 -1.81587024 0.067946 0.221106 0.058943
18160 -2.27391876 9.536369670000001 -1.97319321 0.058814 0.292644 0.025673
18180 -2.00238777 9.561669660000002 -1.9369746900000002 0.006161 0.427131 0.005905
18200 -1.8887683500000003 9.457183350000001 -1.8618300900000002 -0.074388 0.533987 -0.0065450000000000005
18220 -1.8251505000000001 9.47679354 -1.78144695 -0.15093399999999998 0.585422 -0.015691
18240 -1.9350225 9.65342259 -1.84386798 -0.190307 0.5994430000000001 -0.02453
18260 -2.20446396 9.8128449 -1.95418143 -0.185819 0.631454 -0.041631
18280 -2.21165469 9.59938911 -2.032170930000001 -0.169318 0.709295 -0.07473099999999999
18300 -1.8541979100000001 9.53158239 -1.63445391 -0.169929 0.797766 -0.087667
18320 -1.45393029 9.621392940000002 -1.30873248 -0.192549 0.761579 -0.076028
18340 -1.3443525900000002 9.68022351 -1.3415076900000003 -0.221935 0.642332 -0.066467
18360 -1.5214329000000002 9.76704201 -1.57936095 -0.208094 0.590268 -0.112237
18380 -1.69013547 9.76508982 -1.8977543100000003 -0.162653 0.670249 -0.17291099999999998
18400 -1.96017534 9.65327544 -1.9377202500000001 -0.157389 0.847247 -0.217966
18420 -2.07617859 9.493558830000001 -1.73668392 -0.203961 0.951718 -0.195992
18440 -2.1115044 9.389072520000001 -1.7052526800000003 -0.280246 0.886784 -0.141963
18460 -2.0520852300000003 9.39595914 -1.94700051 -0.323327 0.8239719999999999 -0.114409
18480 -1.9981989000000002 9.37366101 -2.1595635900000003 -0.282638 0.855792 -0.115234
18500 -1.8359316900000002 9.49879737 -2.21269455 -0.22672 0.937688 -0.130972
18520 -1.88368677 9.796373910000002 -2.0441489400000004 -0.16563599999999998 0.981219 -0.14769300000000002
18540 -1.81512468 9.545345820000001 -2.04639543 -0.133894 0.911908 -0.158064
18560 -1.79522019 9.647889750000001 -2.01525849 -0.139904 0.758541 -0.161114
18580 -1.71049122 9.817632180000002 -1.84611447 -0.142785 0.5722079999999999 -0.181192
18600 -1.6190325900000002 9.66989358 -1.69432434 -0.135543 0.499834 -0.203481
18620 -1.41201216 9.6568659 -1.6293625200000001 -0.135164 0.593539 -0.193985
18640 -1.2975000300000004 9.569154690000001 -1.6078099500000003 -0.144358 0.707462 -0.170694
18660 -1.4606599500000002 9.55777509 -1.7191730700000003 -0.156434 0.67537 -0.12694
18680 -1.8510489 9.64249425 -1.6613921699999998 -0.16703800000000002 0.513241 -0.06591799999999999
18700 -2.1278282400000004 9.51061842 -1.9746941400000002 -0.164451 0.388547 -0.053989
18720 -2.11016043 9.36797121 -2.0966913000000007 -0.122958 0.333127 -0.083539
18740 -1.95314157 9.45194481 -1.7732163600000002 -0.057717 0.340471 -0.111935
18760 -1.9829247300000001 9.40659318 -1.71708354 -0.01076 0.342442 -0.112677
18780 -2.2478732100000003 9.44311581 -1.91930688 0.005954999999999999 0.28265100000000004 -0.093256
18800 -2.45804265 9.94531914 -2.135911680000001 -0.008418 0.189945 -0.07401
18820 -2.2492269900000004 9.8532621 -2.060168670000001 -0.041816000000000006 0.142025 -0.049612
18840 -1.63310013 9.588764880000001 -1.67262462 -0.043907 0.148437 -0.05284
18860 -1.28792547 9.47170215 -1.4379105600000002 -0.003059 0.199496 -0.069711
18880 -1.4542245900000002 9.22830624 -1.4768268300000003 0.030138 0.234505 -0.06204700000000001
18900 -1.99504989 9.29297376 -1.8657246600000001 0.017981 0.160961 -0.041741
18920 -2.35879488 9.44386137 -2.22916554 0.002234 -0.004162 -0.026685000000000004
18940 -2.57988285 9.311387130000002 -2.25939996 -0.000187 -0.076558 -0.035155
18960 -2.45759139 9.28294794 -2.1171942 0.036379 -0.035046 -0.058453
18980 -2.36073726 9.3995496 -1.81108296 0.060075 0.002207 -0.071154
19000 -2.37960189 9.45778176 -1.6578017100000002 0.06307 -0.025573 -0.052938
19020 -2.46357549 9.60328368 -1.6284600000000002 0.033737 -0.118249 -0.028455
19040 -2.37465765 9.783208890000001 -1.69716924 0.020522 -0.198146 -0.016694
19060 -2.07782667 9.58187826 -1.6742727000000002 0.037645 -0.198158 -0.028325
19080 -1.7033103 9.45074799 -1.61828703 0.067814 -0.142826 -0.038868
19100 -1.6973163900000001 9.472751820000001 -1.6896842100000002 0.08807999999999999 -0.13123 -0.025922000000000004
19120 -2.1525200100000004 9.3354903 -1.9158635700000002 0.103709 -0.182547 0.006299
19140 -2.6440991100000004 9.36333108 -2.04788655 0.116037 -0.256223 0.038527
19160 -2.80606221 9.255107160000001 -2.07813078 0.13191 -0.277614 0.046142
19180 -2.67313671 9.28039734 -2.0270893500000002 0.15149200000000002 -0.191403 0.048305
19200 -2.4267487500000002 9.286989660000001 -1.81617435 0.127065 -0.153023 0.061972
19220 -2.2402410300000004 9.34671294 -1.70465427 0.093604 -0.212669 0.088521
19240 -2.35071144 9.377545770000001 -1.61663895 0.114629 -0.260766 0.110093
19260 -2.6622181800000004 9.541009800000001 -1.5193433699999999 0.126633 -0.218128 0.093031
19280 -2.87342748 9.48727062 -1.66827879 0.115142 -0.1871 0.06941
19300 -2.7737284500000006 9.2432763 -1.9077801300000001 0.108823 -0.175335 0.062942
19320 -2.53422711 9.206606520000001 -1.72605969 0.105646 -0.16257 0.070381
19340 -2.43633312 9.32111865 -1.5275739600000002 0.085261 -0.177455 0.08094
19360 -2.7217943100000004 9.47365434 -1.55481633 0.07363099999999999 -0.150796 0.08402899999999999
19380 -2.99976066 9.52214517 -1.7681249700000001 0.06854600000000001 -0.100688 0.078588
19400 -2.9303058600000003 9.3329397 -1.97708778 0.061288 -0.062279 0.06994199999999999
19420 -2.5735946400000005 9.2925225 -1.79970336 0.056026 -0.046281 0.069885
19440 -2.22572223 9.365420610000001 -1.68654501 0.054959 -0.044155 0.072011
19460 -2.29263624 9.38443239 -1.7402841900000001 0.043334 -0.021735 0.069765
19480 -2.61640548 9.349410690000001 -1.92155337 0.01474 0.004017 0.048168
19500 -2.78436249 9.34506486 -2.09234547 -0.009616 0.021241 0.024475
19520 -2.62823634 9.33129162 -2.07603144 -0.01916 0.013899000000000002 0.004121
19540 -2.2748212800000003 9.32456196 -1.9799326800000001 -0.007319 0.026683 -0.006495
19560 -2.08157409 9.36257571 -1.9353266100000002 0.017286000000000003 0.035145 -0.012743
19580 -2.20955535 9.42484959 -2.03546709 0.023663 0.024491 -0.018026
19600 -2.3852916900000003 9.32306103 -2.18889549 -0.003105 0.005401 -0.016052
19620 -2.215392300000001 9.37919385 -1.9923521400000002 -0.039325 0.014063 -0.019521
19640 -1.98217917 9.60956208 -1.77695397 -0.07203899999999999 0.09089 -0.023052
19660 -2.0184075 9.52993431 -1.82470905 -0.104474 0.231625 -0.024527
19680 -2.22811587 9.27306927 -2.0547731700000003 -0.136957 0.356402 -0.031324
19700 -2.3685264 9.266182650000001 -2.18575629 -0.160097 0.436354 -0.025178
19720 -2.43573471 9.40329702 -2.0401072200000003 -0.16858399999999998 0.466134 -0.006048
19740 -2.3692719600000003 9.52723656 -1.90134477 -0.134737 0.421193 0.014542
19760 -2.23065666 9.51855471 -1.9243982700000002 -0.093187 0.411447 0.01805
19780 -2.18051775 9.55133973 -2.05132986 -0.1217 0.455309 -0.0035700000000000007
19800 -2.28350313 9.46452123 -2.01436578 -0.179984 0.514219 -0.032895
19820 -2.28005982 9.44550945 -1.8532953900000002 -0.22584 0.502725 -0.049223
19840 -2.23784739 9.45029673 -1.8965574900000002 -0.272331 0.582865 -0.06994700000000001
19860 -2.1746808 9.489664260000001 -2.0101671000000003 -0.313368 0.6737029999999999 -0.10667
19880 -2.1427983000000004 9.51721074 -2.0540276100000003 -0.337853 0.65792 -0.13459400000000002
19900 -2.15028333 9.417668670000001 -2.0151113400000003 -0.34103 0.639916 -0.158094
19920 -2.15566902 9.414519660000002 -1.8955078200000002 -0.32571500000000003 0.679457 -0.202903
19940 -2.1927900600000005 9.47813751 -1.8230609700000002 -0.323208 0.766784 -0.198725
19960 -2.29548114 9.59415057 -1.95388713 -0.331867 0.78474 -0.152875
19980 -2.3640334200000006 9.4746942 -2.1198919500000004 -0.343427 0.653482 -0.085489
20000 -2.2614993 9.333538110000001 -2.2001279400000002 -0.33060300000000004 0.476378 -0.029625
20020 -2.16779418 9.44416548 -2.14938081 -0.28991100000000003 0.317329 0.015728
20040 -2.16195723 9.50717511 -2.0877053400000003 -0.246702 0.258348 0.075926
20060 -2.12917221 9.56630979 -2.03876325 -0.205214 0.287804 0.132794
20080 -1.9549368000000003 9.60208686 -1.9989444600000001 -0.20111 0.28870500000000004 0.170209
20100 -1.68654501 9.62947638 -1.92693906 -0.206511 0.289725 0.186193
20120 -1.4141115 9.54998595 -1.8094348800000002 -0.205377 0.315245 0.196851
20140 -1.30483791 9.5469939 -1.83548043 -0.199338 0.465455 0.190291
20160 -1.5340093200000002 9.43158906 -1.95118938 -0.207044 0.6338600000000001 0.173998
20180 -2.14129737 9.35060751 -2.0381648400000003 -0.209966 0.6924739999999999 0.170698
20200 -2.68810677 9.34132725 -2.09219832 -0.205188 0.606019 0.20823000000000005
20220 -2.94841512 9.66645027 -2.09009898 -0.184656 0.493824 0.27581500000000003
20240 -2.74260132 9.78036399 -2.00178936 -0.138256 0.41042 0.313634
20260 -2.46491946 9.77797035 -2.02364604 -0.069231 0.351537 0.32701
20280 -2.3017595400000004 9.59534739 -2.0824668 -0.04168 0.318383 0.335791
20300 -2.24622513 9.170682300000001 -1.8067469400000002 -0.043967 0.27581300000000003 0.327284
20320 -2.15492346 9.02563164 -1.69372593 -0.050382 0.256725 0.31124
20340 -2.2023744300000003 9.55447893 -1.69118514 -0.094013 0.268647 0.298101
20360 -2.22586938 9.55957032 -1.7187218100000001 -0.146198 0.306046 0.31478
20380 -2.3568525 9.365273460000001 -2.00178936 -0.202622 0.371071 0.352759
20400 -2.4550407900000004 9.301802760000001 -2.04295212 -0.247095 0.458528 0.365155
20420 -2.5536901500000004 9.20945142 -2.0600117100000004 -0.238392 0.457586 0.326761
20440 -2.74559337 9.16648362 -2.153569680000001 -0.242487 0.407888 0.238133
20460 -3.2741365500000006 9.23145525 -2.29637385 -0.277349 0.37967 0.132172
20480 -3.5839952100000003 9.44835435 -2.5077303000000004 -0.347459 0.377002 0.061183
20500 -3.18327633 9.286989660000001 -2.6095188600000006 -0.403519 0.4179479999999999 -0.006559000000000001
20520 -2.47001085 9.32276673 -2.35879488 -0.406106 0.525666 -0.035557
20540 -1.8503033400000002 9.46361871 -1.8853250400000001 -0.355637 0.605356 -0.027829000000000003
20560 -1.58505075 9.48188493 -1.66064661 -0.313692 0.500581 0.030282
20580 -1.69671798 9.68606046 -1.63295298 -0.310282 0.362933 0.08389400000000001
20600 -1.63265868 9.727674480000001 -1.4319264600000001 -0.298623 0.35751900000000003 0.095732
20620 -1.3657580100000002 9.52948305 -1.24196562 -0.255752 0.368155 0.062903
20640 -1.3817777400000002 9.44072217 -1.19781081 -0.21624 0.333038 0.019427
20660 -1.65585933 9.56361204 -1.3997398499999998 -0.211059 0.252247 -0.027435
20680 -1.88802279 9.42649767 -1.60571061 -0.273927 0.210095 -0.08764
20700 -1.9959524100000001 9.379341 -1.6154421300000001 -0.333533 0.21997600000000006 -0.109434
20720 -1.95014952 9.428891310000001 -1.5898478400000002 -0.369744 0.259415 -0.0841
20740 -1.8133294500000001 9.508980150000001 -1.37384145 -0.41172 0.211487 -0.050149
20760 -1.6753125600000003 9.43831872 -1.27025766 -0.4484010000000001 0.108335 -0.063091
20780 -1.5612516900000002 9.386080470000001 -1.3301379000000002 -0.467432 0.074603 -0.13582
20800 -1.37758887 9.41243013 -1.38267045 -0.476301 0.132583 -0.24171
20820 -1.0698295500000001 9.66210444 -1.28657169 -0.477634 0.213938 -0.339032
20840 -0.7813763100000001 9.999656730000002 -1.1186244900000002 -0.494013 0.310102 -0.396954
20860 -0.69231132 10.13841918 -0.8556183900000001 -0.524722 0.364526 -0.394033
20880 -0.77613777 10.08632808 -0.5285529900000001 -0.591136 0.348603 -0.35068
20900 -0.9369040500000001 9.78170796 -0.45146601000000003 -0.6578039999999999 0.273038 -0.310456
20920 -1.0674261 9.81718092 -0.54591669 -0.705062 0.209261 -0.304295
20940 -1.04946399 10.05833034 -0.46687752000000005 -0.701795 0.208249 -0.320294
20960 -1.0282155300000004 10.053248759999999 -0.5858826300000002 -0.659216 0.179367 -0.327438
20980 -1.00889964 9.8159841 -0.70084602 -0.61138 0.15145999999999998 -0.316385
21000 -1.14167799 9.677378610000002 -0.7791298200000001 -0.594372 0.152406 -0.301313
21020 -1.41904593 9.556274160000001 -0.77374413 -0.598625 0.194874 -0.261873
21040 -1.65031668 9.37694736 -0.69380244 -0.545575 0.223074 -0.167535
21060 -1.5423968700000001 9.41138046 -0.6216597000000001 -0.622616 0.011049 -0.091957
21080 -1.3201022700000002 9.6101703 -0.56687085 -0.788435 -0.144745 -0.148464
21100 -1.2000573 10.061773650000001 -0.43245423 -0.807766 -0.0388 -0.252352
21120 -1.1612881800000001 10.20532338 -0.07050447000000001 -0.694892 0.088887 -0.313684
21140 -1.0309034700000002 10.054592730000001 0.20372427 -0.608409 0.064242 -0.352572
21160 -1.04916969 9.840391380000002 0.10642868999999999 -0.4758310000000001 0.076767 -0.402937
21180 -1.12192065 9.70103052 -0.15253569 -0.259672 -0.258465 -0.406339
21200 -1.23433344 9.746235 -0.3617928 -0.08264400000000001 -0.656806 -0.311656
21220 -1.37384145 10.021356449999999 -0.39712842 0.091595 -0.8553 -0.108291
21240 -1.3723503300000002 10.242748529999998 -0.26689086 0.216301 -0.8642200000000001 0.148965
21260 -1.2189121200000002 10.213259670000001 -0.07543890000000002 0.231539 -0.645437 0.30154699999999995
21280 -0.9184906800000001 9.974356740000003 0.14579622 0.169869 -0.301379 0.361564
21300 -0.72524349 9.86583852 0.28934595 0.04513 -0.003897 0.401972
21320 -0.67748841 9.7897914 0.38933928 -0.112358 0.128582 0.442363
21340 -0.7996327200000001 9.847268190000001 0.51972399 -0.15348399999999998 0.097434 0.54146
21360 -1.02491937 10.13423031 0.6468027300000001 -0.158959 -0.054287 0.6591199999999999
21380 -1.2966073200000001 10.46263968 0.90861201 -0.097103 -0.278285 0.677999
21400 -1.2581325 10.29050361 1.14017706 0.124014 -0.534404 0.599755
21420 -1.12880727 9.791586630000001 1.27250415 0.299415 -0.588739 0.449363
21440 -1.1091970800000002 9.32635719 1.50466761 0.519849 -0.752207 0.378473
21460 -1.20020445 9.41931675 1.6093010700000001 0.696952 -0.826031 0.305029
21480 -1.5946351200000002 10.360556820000001 1.8100332900000002 0.665361 -0.617703 0.182764
21500 -2.3632878600000002 11.555365770000002 2.2441356 0.534053 -0.51451 0.065278
21520 -3.2084291700000005 11.967464249999999 2.7598080600000006 0.33478 -0.574086 -0.048201
21540 -3.4646958000000003 10.46459187 3.0425714999999998 0.155293 -0.642651 -0.062185
21560 -2.9373396300000003 8.81561916 2.62314495 0.025032 -0.121662 -0.232542
21580 -2.25057096 7.85207115 2.5761452400000002 0.179304 0.622871 -0.342445
21600 -2.12228559 7.27173117 2.6440991100000004 0.492042 1.2009999999999998 -0.268362
21620 -2.3540076 7.31363949 1.85614029 0.667499 1.253985 -0.084539
21640 -2.067948 7.941440250000001 0.54441576 0.6164229999999999 0.631799 -0.024278
21660 -1.3966006500000003 8.55560511 -0.09475478999999999 0.580272 -0.01485 0.013686000000000002
21680 0.04850064 8.8350822 0.22153923 0.691181 -0.597441 0.155145
21700 0.40864536 9.27651258 1.21082868 0.724351 -0.951628 0.255175
21720 -0.34607718 9.623786579999999 2.7149076900000004 0.5846439999999999 -0.912897 0.280855
21740 -1.19840922 9.71060508 3.58085601 0.333337 -0.658127 0.190111
21760 -1.5153016500000003 9.880651620000002 3.63608631 0.258848 -0.219719 0.10998
21780 -1.27744839 9.87122421 3.2672597400000005 0.473473 0.274968 0.090549
21800 -0.78092505 9.47140785 3.0734043300000002 0.8245549999999999 0.558055 0.121481
21820 -0.69066324 9.00093006 2.79049374 0.989127 0.4135390000000001 0.154862
21840 -1.1858328 8.58315159 2.7994797000000005 0.935703 -0.06145800000000001 0.172189
21860 -1.78429185 7.97930685 2.8827077400000003 0.787774 -0.481616 0.14392
21880 -0.997677 7.578587970000001 2.3460713100000006 0.587638 -0.648059 0.11603
21900 -0.00628821 7.7607596700000006 2.63945898 0.569861 -0.592504 0.091266
21920 -0.10628154000000001 8.45546463 2.93913486 0.670995 -0.448865 0.046923
21940 -0.53154504 9.36302697 2.5581831299999997 0.753081 -0.5086229999999999 0.001639
21960 -1.07296875 9.76374585 2.5273404900000003 0.708865 -0.653189 -0.038009
21980 -1.63265868 10.603197360000001 3.09361293 0.51572 -0.680138 -0.05748300000000001
22000 -2.48348979 11.942468370000002 3.6718633800000005 0.404322 -0.527469 -0.04457
22020 -2.83944564 10.140214410000002 3.69027675 0.403794 -0.180147 -0.054633
22040 -1.97484129 8.603811450000002 2.74918383 0.3686 0.025712 -0.089325
22060 -0.31165389 8.93716506 1.28836692 0.288513 0.003646 -0.096266
22080 1.1364394500000001 10.1714985 0.50579379 0.236944 -0.060154 -0.08052100000000001
22100 1.57652586 11.468547270000002 0.38649438 0.250741 -0.07406 -0.07827
22120 0.57914316 11.58561 0.99916812 0.29099 -0.165708 -0.104577
22140 -0.33889626 11.55193227 1.17296208 0.34567600000000004 -0.353341 -0.115705
22160 -1.06488531 10.64586105 1.6841513700000001 0.419167 -0.578531 -0.075379
22180 -1.48131981 9.49086108 2.24607798 0.477691 -0.547042 -0.008781
22200 -1.3675532400000001 9.283399200000002 2.48887548 0.488619 -0.437566 0.043498
22220 -0.8063721899999999 9.235791270000002 2.07827793 0.48117 -0.408876 0.067978
22240 -0.55115523 9.31168143 0.52121511 0.432888 -0.456696 0.08052100000000001
22260 -0.42421383 9.61840089 -1.6455294 0.364541 -0.479859 0.071527
22280 -0.1761876 10.00279593 -2.5903599300000004 0.314735 -0.417847 0.058280999999999986
22300 -0.19040229 9.7231815 -1.49509305 0.27257800000000004 -0.364188 -0.004039
22320 -0.7095278700000001 9.261993780000001 0.00014715 0.266694 -0.321265 -0.076774
22340 -1.5069141000000001 9.469161360000001 0.89648685 0.250543 -0.372269 -0.094981
22360 -2.1534225300000003 9.879601950000001 0.9108585 0.249183 -0.399051 -0.0565
22380 -1.8829314000000001 10.102043700000001 -0.02080701 0.252842 -0.496158 -0.017894
22400 -0.8946916200000001 10.12120263 -0.81175788 0.282302 -0.581509 -0.01117
22420 -0.20238030000000004 10.01327301 -1.2361286699999998 0.281456 -0.536747 -0.015506
22440 0.0028449 9.89157996 -1.29345831 0.253664 -0.5547340000000001 -0.022086
22460 -0.29668383 9.89232552 -0.6631167600000001 0.248038 -0.616514 -0.018842
22480 -0.51972399 9.80805762 0.028586340000000002 0.248119 -0.58355 -0.003928
22500 -0.42406668000000003 9.8014653 -0.07320222000000003 0.221443 -0.579217 0.001221
22520 -0.22244175000000002 9.78589683 -0.71641449 0.202971 -0.643112 0.011856
22540 -0.44143038000000007 9.83738952 -1.22819238 0.211525 -0.620844 0.030047000000000008
22560 -1.2901719600000003 9.7579089 -1.2501962100000001 0.212635 -0.599589 0.041778
22580 -1.80075303 9.69354549 -0.90142128 0.216706 -0.633731 0.051464
22600 -1.6151380200000003 9.43099065 -1.04213592 0.23795700000000006 -0.646614 0.058038
22620 -1.2521484 9.16932852 -1.63534662 0.246717 -0.584906 0.069771
22640 -0.75083778 9.16723899 -1.90823139 0.204234 -0.533658 0.077954
22660 -0.62525016 9.24791643 -1.8119854800000001 0.182132 -0.4792 0.064911
22680 -0.5096883600000001 9.496698030000001 -1.22041305 0.161073 -0.424767 0.057217
22700 -0.54890874 9.792783450000002 -1.1508111 0.122757 -0.4075760000000001 0.053723
22720 -0.78871419 10.15308513 -1.22010894 0.08669400000000001 -0.384981 0.028873000000000006
22740 -1.14646527 10.03273605 -1.4835663000000001 0.061579 -0.307003 -0.002381
22760 -1.64942397 9.751326390000001 -1.8808418700000002 0.019331 -0.236449 -0.027336000000000003
22780 -1.93308012 9.70266879 -1.75509729 0.01526 -0.208673 -0.043423
22800 -1.80614853 9.64459359 -1.98547533 0.032061 -0.249289 -0.024026
22820 -1.5153016500000003 9.51346332 -2.2646385 0.038017 -0.310185 0.01455
22840 -1.33672041 9.36333108 -2.4051961800000003 0.03671 -0.330554 0.047682
22860 -1.56784401 9.4630203 -2.36193408 0.036538 -0.334951 0.08186900000000001
22880 -1.81782243 9.44640216 -2.2734675 0.034011 -0.401075 0.103301
22900 -1.79850654 9.3386295 -2.39950638 0.073394 -0.444795 0.080131
22920 -1.5796650600000002 9.57513879 -2.46342834 0.092923 -0.412743 0.039634
22940 -1.5147032400000002 9.733207320000002 -2.2758709500000003 0.076815 -0.443549 0.032083
22960 -1.4748844500000002 9.51211935 -2.23784739 0.043598000000000005 -0.466904 0.040427
22980 -1.4923952999999999 9.39431106 -2.324813040000001 0.017066 -0.426369 0.049804
23000 -1.65526092 9.66135888 -2.306850930000001 -0.021063 -0.362327 0.051592
23020 -1.7877351600000002 9.48801618 -2.333799 -0.035496 -0.266337 0.035345
23040 -1.68324885 9.078919560000001 -2.4957621000000003 -0.043422 -0.140568 0.025514
23060 -1.6013745900000003 9.154662570000001 -2.6262841500000005 -0.06872 -0.064875 0.032718000000000004
23080 -1.6278615900000002 9.51616107 -2.5683561 -0.049545 -0.072394 0.031793
23100 -1.63190331 9.54849483 -2.55204207 -0.04635 -0.076654 0.028616000000000006
23120 -1.53250839 9.68919966 -2.53692486 -0.054702 -0.048876 0.015704
23140 -1.3939029000000003 9.857303820000002 -2.42271684 -0.055395000000000014 0.007693000000000002 -0.011079
23160 -1.2970487700000002 9.77407578 -2.24248752 -0.057342 0.019538 -0.041018
23180 -1.54463355 9.731716200000001 -2.1808120500000006 -0.057328 0.01849 -0.045289
23200 -1.96421706 9.97630893 -2.20266873 -0.06282 -0.01134 -0.039948
23220 -2.20192317 9.72512388 -2.27422287 -0.06403099999999999 -0.043294 -0.039916
23240 -2.22646779 9.5498388 -2.27826459 -0.064213 -0.081653 -0.037732
23260 -2.04668973 9.54115695 -2.35609713 -0.05908 -0.127473 -0.038705
23280 -1.87589763 9.38802285 -2.4020569800000002 -0.059118 -0.149788 -0.052564
23300 -1.91691324 9.195678180000002 -2.39591592 -0.06774 -0.177421 -0.061134
23320 -1.95448554 9.18864441 -2.4647723100000003 -0.051809 -0.186029 -0.053535
23340 -1.98547533 9.27995589 -2.59860033 -0.035772000000000005 -0.156347 -0.031028
23360 -2.26733625 9.36902088 -2.6958959100000004 -0.015693000000000002 -0.166138 0.00224
23380 -2.32631397 9.465413940000001 -2.72837682 0.020402 -0.167483 0.04095
23400 -1.9559864700000003 9.560315880000001 -2.6906573700000003 0.022589 -0.123942 0.072956
23420 -1.5314685300000002 9.63785412 -2.6110197900000003 0.010935 -0.099426 0.079252
23440 -1.31756148 9.71839422 -2.3845461300000004 0.008916 -0.064303 0.08880700000000001
23460 -0.9888480000000001 9.57154833 -2.3128448400000003 0.008036 -0.028059 0.083413
23480 -0.84992859 9.480835260000001 -2.40160572 0.005075 0.007178 0.065188
23500 -0.9023238000000001 9.6420528 -2.2826006100000003 -0.007339 0.06804500000000001 0.039386
23520 -0.94633146 9.373955310000001 -2.20221747 -0.030675 0.08946699999999999 0.03065
23540 -1.03674042 9.4453623 -2.31613119 -0.043617 0.045887 0.017796
23560 -1.1319464700000001 9.61689996 -2.39382639 -0.049817 0.068369 -0.004708
23580 -1.3956981300000002 9.596240100000001 -2.45159748 -0.062566 0.06103400000000001 -0.024016
23600 -1.77485463 9.54295218 -2.30416299 -0.070188 0.011056 -0.040029
23620 -1.88772849 9.39581199 -2.2646385 -0.06590599999999999 0.0004440000000000001 -0.053872
23640 -1.9160107200000003 9.50733207 -2.2150980000000002 -0.07647899999999999 0.012238 -0.063575
23660 -2.0401072200000003 9.5413041 -2.1106116900000003 -0.074541 -0.021897 -0.053904
23680 -2.09190402 9.517956300000002 -2.03247504 -0.055525 -0.046533 -0.036648
23700 -2.0710970100000003 9.564661710000001 -1.9505909700000001 -0.033082 -0.025357 -0.023699
23720 -2.03187663 9.54175536 -1.8796450500000002 -0.022663 -0.05638500000000001 0.000982
23740 -1.9679546700000001 9.44805024 -1.78384059 0.002563 -0.111983 0.030072
23760 -1.8000074700000002 9.409133970000001 -1.8558361800000003 0.032368 -0.11533 0.042035
23780 -1.6060147200000001 9.564357600000001 -1.9550839500000001 0.045214 -0.101544 0.046379
23800 -1.3677102000000003 9.55418463 -2.01944736 0.051524 -0.103769 0.064586
23820 -1.19242512 9.38114604 -2.12902506 0.041745 -0.120869 0.08697200000000001
23840 -1.20140127 9.29312091 -2.15866107 0.03099 -0.129397 0.09759
23860 -1.26786402 9.42649767 -2.3079006 0.029038 -0.097397 0.08899
23880 -1.25887806 9.47544957 -2.3586477300000004 0.025948 -0.083495 0.07826799999999999
23900 -1.2696592500000001 9.47230056 -2.2309607700000003 0.027106 -0.073869 0.067582
23920 -1.26875673 9.55088847 -1.9779903 0.028053 -0.102626 0.065489
23940 -1.35692901 9.50209353 -1.9031399999999998 0.020532 -0.112196 0.067585
23960 -1.61334279 9.501936570000002 -1.80794376 0.02601 -0.095111 0.052646000000000005
23980 -1.80823806 9.492509160000001 -1.7884807200000001 0.031383 -0.1004 0.038804000000000005
24000 -1.90688742 9.64997928 -1.7812998 0.020863 -0.072645 0.033354
24020 -1.8666173700000002 9.68994522 -1.839375 -0.014224 -0.044829 0.034141000000000005
24040 -1.8756033300000001 9.8159841 -1.8507546000000001 -0.023864 -0.058623 0.02875
24060 -1.9446068699999999 9.639649350000001 -1.9203565500000002 -0.016367 -0.061805999999999986 0.019193
24080 -2.0767770000000003 9.63576459 -1.95343587 -0.031169 -0.041476 0.009449
24100 -2.12618016 9.63141876 -1.90658331 -0.045005 -0.043519 -0.000259
24120 -1.97679348 9.56375919 -1.92155337 -0.047062 -0.040261 -0.014163999999999996
24140 -1.8134766 9.508823190000001 -1.8741024 -0.039464 -0.023196 -0.025883
24160 -1.7931208500000002 9.448952760000001 -1.93846581 -0.035077 -0.0008230000000000001 -0.030154000000000007
24180 -1.7441689500000002 9.315576 -1.9218574800000001 -0.041272 0.053494000000000014 -0.021721
24200 -1.6429788 9.38727729 -1.95448554 -0.068871 0.11207 0.005785
24220 -1.66842594 9.43323714 -1.97335017 -0.082755 0.13863 0.035564
24240 -1.7938664100000001 9.37141452 -2.0531349000000003 -0.07106799999999999 0.14173 0.049528
24260 -1.8194705100000002 9.389975040000001 -2.05567569 -0.046606 0.121417 0.046521
24280 -1.65944979 9.48203208 -2.0098728 -0.016888 0.08298 0.042505
24300 -1.4988306599999999 9.54624834 -1.9088298000000001 0.009607 0.048777 0.048075
24320 -1.52218827 9.624532140000001 -1.9170603900000003 0.023102 -0.027996 0.054677
24340 -1.66363866 9.6221385 -1.9908610200000003 0.044046 -0.128155 0.042133
24360 -1.78593993 9.592953750000001 -2.0420496000000004 0.05569 -0.17283900000000002 0.017702000000000002
24380 -1.7962600499999999 9.55463589 -1.9755868500000002 0.047199 -0.17489200000000002 0.005895
24400 -1.73878326 9.59444487 -1.9437043500000002 0.028010000000000004 -0.16102 0.016425
24420 -1.674567 9.64354392 -1.99145943 0.017149 -0.180251 0.039875
24440 -1.69716924 9.537566490000001 -2.00897028 0.008605 -0.172802 0.04942
24460 -1.6443325800000002 9.552536550000001 -1.9998371700000002 0.022709 -0.13020199999999998 0.03985
24480 -1.6018160399999999 9.656267490000001 -1.88936676 0.034583 -0.122692 0.016422
24500 -1.57652586 9.67363119 -1.81423197 0.028115 -0.15243800000000002 0.00146
24520 -1.57277844 9.6133095 -1.73204379 0.023828 -0.16198900000000002 -0.003899
24540 -1.6272631800000001 9.60716844 -1.7624351699999998 0.020589 -0.163073 0.003557
24560 -1.64822715 9.64638882 -1.9031399999999998 0.029043 -0.171663 0.013242
24580 -1.6564577400000002 9.59833944 -1.94984541 0.041917 -0.155729 0.013311000000000002
24600 -1.5886510200000001 9.62333532 -1.99714923 0.046252 -0.147196 0.006920999999999999
24620 -1.4904529199999998 9.639649350000001 -2.0122664400000003 0.04085 -0.159969 0.009036
24640 -1.3507879500000002 9.66570471 -2.02663809 0.032301 -0.158891 0.013248
24660 -1.15529427 9.688149990000001 -1.9413107100000002 0.016624 -0.094885 0.004511
24680 -0.9717786 9.6654006 -1.8067469400000002 0.003081 -0.038314 -0.01168
24700 -0.9334607400000001 9.5321808 -1.69223481 -0.0022010000000000003 -0.034004 -0.0192
24720 -1.1304455400000002 9.55342926 -1.7419322700000002 -0.0074870000000000015 -0.024394 -0.020317
24740 -1.46410326 9.53861616 -1.9247023800000003 -0.010597 0.000101 -0.016097
24760 -1.8479097000000002 9.4485015 -2.00642949 -0.000918 0.010746 -0.022453
24780 -1.9989444600000001 9.37111041 -2.0430992700000004 0.014141999999999997 0.027780000000000003 -0.033052
24800 -1.9263406500000002 9.47904003 -1.9260463500000002 0.016347999999999998 0.043752 -0.033057
24820 -1.76887053 9.63456777 -1.7501628599999999 0.003656 0.07996900000000001 -0.021441
24840 -1.81751832 9.6799194 -1.5736809600000001 -0.020647 0.134375 -0.019544
24860 -1.7402841900000001 9.671688810000001 -1.5347548800000002 -0.036449 0.161135 -0.037849
24880 -1.56904083 9.58860792 -1.5193433699999999 -0.043859 0.1697 -0.042184
24900 -1.32998094 9.504781470000001 -1.4642504099999998 -0.049121 0.177209 -0.050777
24920 -1.27250415 9.52618689 -1.47233385 -0.055441 0.186853 -0.059379
24940 -1.4879023200000001 9.56944899 -1.5871500900000002 -0.049045 0.180461 -0.064667
24960 -1.6557023700000002 9.48832029 -1.78697979 -0.05004 0.194321 -0.066828
24980 -1.89505656 9.568997730000001 -1.9107721800000002 -0.048877 0.215623 -0.066847
25000 -2.07333369 9.65881809 -1.8522457200000002 -0.047801 0.212445 -0.072177
25020 -1.97813745 9.65447226 -1.7612383500000002 -0.059507 0.206145 -0.085069
25040 -1.79686827 9.58980474 -1.80194985 -0.06590800000000001 0.195558 -0.095783
25060 -1.8552377700000002 9.521850870000002 -1.7700673500000002 -0.075525 0.191334 -0.096913
25080 -1.9154123100000002 9.53098398 -1.7741090700000002 -0.077582 0.210508 -0.094815
25100 -1.8070412400000002 9.60971904 -1.7895303900000001 -0.074285 0.237107 -0.08948500000000001
25120 -1.55960361 9.56211111 -1.75315491 -0.075362 0.244529 -0.079888
25140 -1.5239835 9.5785821 -1.70271189 -0.067989 0.239113 -0.06380599999999999
25160 -1.6661892600000001 9.63277254 -1.71063837 -0.056172 0.26779200000000003 -0.053078
25180 -1.69267626 9.645192 -1.74132405 -0.050622 0.316771 -0.052034
25200 -1.7052526800000003 9.60986619 -1.8244049400000002 -0.05045 0.346632 -0.060617
25220 -1.71063837 9.57169548 -1.89820557 -0.053483 0.376501 -0.06815399999999999
25240 -1.7142386400000003 9.55897191 -1.76737941 -0.08507100000000001 0.451253 -0.08663
25260 -1.6723205100000003 9.53517285 -1.8510489 -0.119866 0.5260130000000001 -0.104061
25280 -1.66349151 9.55717668 -1.86197724 -0.156125 0.525092 -0.108586
25300 -1.56933513 9.612259830000001 -1.8884740500000001 -0.162833 0.453754 -0.111746
25320 -1.4436003599999998 9.68905251 -1.8509017500000002 -0.142725 0.410037 -0.119027
25340 -1.38895866 9.69743025 -1.82351223 -0.109696 0.395029 -0.124118
25360 -1.38581946 9.66210444 -1.78219251 -0.08312 0.378936 -0.118571
25380 -1.51215264 9.64219995 -1.71318897 -0.060941 0.341522 -0.105549
25400 -1.72710936 9.56795787 -1.6992685800000003 -0.055875 0.287154 -0.100103
25420 -1.8143791200000001 9.53966583 -1.73938167 -0.075074 0.293591 -0.094904
25440 -1.6730660700000002 9.56990025 -1.66454118 -0.10256300000000003 0.35757 -0.086632
25460 -1.6464221100000003 9.604480500000001 -1.6546625100000003 -0.110834 0.414067 -0.088899
25480 -1.65196476 9.57184263 -1.6777160100000001 -0.103107 0.458833 -0.101721
25500 -1.75360617 9.572745150000001 -1.7013581100000001 -0.10294 0.481264 -0.116704
25520 -1.7661727800000002 9.63291969 -1.69986699 -0.107385 0.438681 -0.119885
25540 -1.69283322 9.70701462 -1.6759109699999999 -0.100319 0.359782 -0.109052
25560 -1.68519123 9.655973190000001 -1.70914725 -0.095133 0.332046 -0.103639
25580 -1.71378738 9.5669082 -1.7122864500000001 -0.099401 0.337366 -0.098335
25600 -1.7283061800000001 9.49625658 -1.72441161 -0.081557 0.282931 -0.08745800000000001
25620 -1.7298071099999999 9.465119640000001 -1.7911784700000002 -0.05955 0.197619 -0.083991
25640 -1.7443259100000001 9.4598811 -1.9116747 -0.039501 0.15703399999999998 -0.075253
25660 -1.67546952 9.49984704 -1.9970020800000001 -0.025617 0.16973 -0.065558
25680 -1.5313115700000002 9.528737490000001 -1.8984998700000002 -0.013881 0.189848 -0.045206
25700 -1.40976567 9.6884541 -1.67202621 -0.011992 0.150366 -0.030187
25720 -1.37025099 9.7493742 -1.49224815 -0.011031 0.131171 -0.025882
25740 -1.51485039 9.735757920000001 -1.5018227100000001 -0.025751 0.16006199999999998 -0.04525
25760 -1.6658851500000003 9.7203366 -1.4612583600000002 -0.040457 0.192149 -0.064622
25780 -1.8574842599999999 9.661810140000002 -1.5271227 -0.056398 0.210297 -0.060484
25800 -2.12408082 9.47813751 -1.6013745900000003 -0.05868 0.188952 -0.048722
25820 -2.39741685 9.37694736 -1.7793476099999999 -0.049304 0.146278 -0.041124
25840 -2.59800192 9.36856962 -1.8312915600000002 -0.025986 0.119535 -0.03345
25860 -2.60293635 9.41871834 -1.87874253 -0.003639 0.108795 -0.031143
25880 -2.4670188000000004 9.412871580000001 -1.75585266 0.01109 0.071425 -0.022447
25900 -2.2499725500000007 9.46047951 -1.8149775300000002 0.027834 0.0074150000000000015 -0.013702
25920 -1.9995428700000002 9.51900597 -1.7580893400000002 0.036508 0.043583 -0.008347
25940 -1.8190192500000002 9.615850290000001 -1.64732463 0.025003 0.094757 -0.008493
25960 -1.7970154200000001 9.581122890000001 -1.5304188600000002 -0.002726 0.093801 -0.01189
25980 -1.8851778900000002 9.57932766 -1.4575207500000003 -0.016763 0.073542 0.00513
26000 -1.98442566 9.52603974 -1.49898762 -0.011328 0.095894 0.005139
26020 -2.1315658500000003 9.54400185 -1.59224148 0.002565 0.093744 -0.002239
26040 -2.25566235 9.486220950000002 -1.59927525 0.005655 0.072415 0.001015
26060 -2.34322641 9.4829346 -1.5603589800000002 0.005545 0.048975 0.002112
26080 -2.3466697200000004 9.47993274 -1.61065485 0.013908000000000002 0.004229999999999999 -0.004181
26100 -2.3095486800000007 9.41542218 -1.5660389700000001 0.026657 -0.012838 -0.009411
26120 -2.43528345 9.409428270000001 -1.656909 0.021448 0.01806 -0.006283
26140 -2.62763793 9.47949129 -1.7431290900000003 0.0012109999999999998 0.029832 -0.002166
26160 -2.5643143800000003 9.40195305 -1.7010638100000002 4.3e-05 0.009587 -1.2e-05
26180 -2.18291139 9.41961105 -1.59224148 0.0054210000000000005 0.018095 -0.0010539999999999998
26200 -1.9532887200000002 9.46256904 -1.54388799 0.008759999999999999 0.047916 -0.002137
26220 -1.95343587 9.545345820000001 -1.3924019699999999 0.013917 0.020153 0.009685
26240 -2.1468400200000004 9.53981298 -1.43252487 0.023423 0.009424 0.020448
26260 -2.2227301800000006 9.61945056 -1.4582663100000002 0.030997000000000007 0.037078 0.024738
26280 -2.17018782 9.572293890000001 -1.45976724 0.034183 0.040237 0.031166000000000006
26300 -2.12767128 9.536820930000001 -1.4144058000000002 0.01818 0.043476 0.034254
26320 -2.24937414 9.50149512 -1.44943731 -0.000961 0.043599 0.020234
26340 -2.37915063 9.453445740000001 -1.65555522 -0.006267 0.036216000000000005 0.006319
26360 -2.41672293 9.35090181 -1.7697730500000002 -0.006257 0.027736 -0.004352
26380 -2.270034 9.31303521 -1.7272565100000001 -0.010558 0.018172 -0.0065060000000000005
26400 -2.1603091500000002 9.430235280000002 -1.63325709 -0.006339 0.01281 -0.001129
26420 -2.11375089 9.61840089 -1.5314685300000002 0.00321 0.005302 0.00322
26440 -2.05328205 9.596397060000001 -1.5926927400000002 0.010592 -0.016021 0.001163
26460 -1.90164888 9.58157415 -1.65046383 0.01051 -0.033069 0.002252
26480 -1.96586514 9.505232730000001 -1.6563105900000004 0.013884 0.008452 0.005427
26500 -2.2498254 9.52903179 -1.69821891 0.005406 0.021265 0.005352
26520 -2.33784072 9.43936839 -1.6962765300000002 -0.00432 -0.006398 0.005319
26540 -2.23021521 9.43263873 -1.6564577400000002 -0.009568 0.003246 -0.004344
26560 -2.25820314 9.49909167 -1.59508638 -0.014759 0.020369 -0.019357
26580 -2.26539387 9.4658652 -1.64462688 -0.00941 0.018241 -0.024658000000000003
26600 -2.24578368 9.4516407 -1.6994157300000001 -0.005195 0.006508 -0.024614
26620 -2.16958941 9.49984704 -1.74207942 5.3e-05 -0.0073799999999999985 -0.019218
26640 -2.03127822 9.540705690000001 -1.69238196 0.001067 -0.008492 -0.008527
26660 -2.0119623300000002 9.53022861 -1.6528672800000002 -0.001052 0.002139 -0.001078
26680 -2.13919803 9.47978559 -1.7610912000000003 -0.007458 0.003218 0.001012
26700 -2.2233285900000004 9.48397446 -1.79476893 -0.007492 -0.009544 -0.004313
26720 -2.15492346 9.43652349 -1.78982469 -0.008564 -0.009545 -0.003252
26740 -2.08231965 9.44295885 -1.78025013 -0.002182 -0.010645 -2e-06
26760 -2.1215400300000002 9.4399668 -1.73249505 0.010563 -0.02029 0.003304
26780 -2.10013461 9.49385313 -1.73653677 0.019098 -0.016076 0.007631999999999998
26800 -2.06825211 9.55927602 -1.6842985200000002 0.022275 -0.013986000000000002 0.015128999999999997
26820 -2.1670388099999998 9.59070726 -1.60121763 0.027527 -0.021504 0.025857
26840 -2.25311175 9.517956300000002 -1.6235255700000002 0.031737 -0.026876 0.033371
26860 -2.35490031 9.553134960000001 -1.6387899300000002 0.029628 -0.025786 0.029082
26880 -2.28305187 9.54265788 -1.6328058300000001 0.026417000000000003 -0.031088 0.025862
26900 -2.1948894 9.469308510000001 -1.59777432 0.016868 -0.029947 0.015111
26920 -2.2203365400000004 9.41631489 -1.65031668 0.007358 -0.018161 0.006484
26940 -2.21644197 9.46646361 -1.6837001100000002 0.000976 -0.021305 -0.001034
26960 -2.20701456 9.497149290000001 -1.7055567900000002 -0.0033159999999999995 -0.03086 -0.005325
26980 -2.23634646 9.52558848 -1.61768862 -0.001187 -0.037238 -0.010643
27000 -2.11106295 9.49101804 -1.5949294200000002 -0.00015800000000000002 -0.045764 -0.010625
27020 -2.01480723 9.524391660000001 -1.58939658 0.008324 -0.050084 -0.003082
27040 -2.06046297 9.53517285 -1.5660389700000001 0.014706 -0.050124 0.001235
27060 -2.28619107 9.55014291 -1.5926927400000002 0.023217 -0.050175 0.006636
27080 -2.35281078 9.536968080000001 -1.6061618700000002 0.032708 -0.059855999999999986 0.02167
27100 -2.24218341 9.497453400000001 -1.6696325699999999 0.036961 -0.054578 0.030238
27120 -2.17258146 9.477244800000001 -1.6377402600000002 0.038009 -0.054599 0.034519
27140 -2.104029180000001 9.47035818 -1.64178198 0.042214 -0.064218 0.038833
27160 -2.04953463 9.492813270000001 -1.6242711300000001 0.043262 -0.067422 0.039913
27180 -2.0622582 9.54804357 -1.6685829000000003 0.044314 -0.067439 0.043125
27200 -2.13321393 9.557029530000001 -1.6227800100000003 0.046439 -0.065333 0.04741
27220 -2.2020703200000002 9.537566490000001 -1.64911986 0.048529 -0.072805 0.04957
27240 -2.2299111000000003 9.464962680000001 -1.66827879 0.050653 -0.077065 0.047454
27260 -2.19248595 9.44730468 -1.72740366 0.047462 -0.07280199999999999 0.049563
27280 -2.18575629 9.42066072 -1.70764632 0.049658 -0.058961 0.049561
27300 -2.2020703200000002 9.43876998 -1.7025549300000002 0.049644 -0.063218 0.048498
27320 -2.1374028 9.4598811 -1.6829545500000003 0.047529 -0.057888 0.049544
27340 -2.105226 9.47949129 -1.70974566 0.041191000000000005 -0.045078 0.048415
27360 -2.1444365700000003 9.512570610000001 -1.6518176100000002 0.037942 -0.055720000000000006 0.048406
27380 -2.18186172 9.5062824 -1.6585472700000001 0.035775 -0.06847400000000001 0.043067
27400 -2.1604563000000003 9.53427033 -1.6078099500000003 0.032704000000000004 -0.051372 0.031273
27420 -2.19324132 9.524990070000001 -1.5892494300000002 0.026365 -0.041745 0.026943
27440 -2.20177602 9.53891046 -1.5736809600000001 0.025168 -0.072625 0.024838
27460 -2.24682354 9.524990070000001 -1.5817644000000004 0.018686 -0.097079 0.018415
27480 -2.30535981 9.529188750000001 -1.6075058400000002 0.009237 -0.074628 0.006569
27500 -2.32900191 9.47679354 -1.6256151 0.003009 -0.054293 -0.01166
27520 -2.32092828 9.50688081 -1.6175316599999998 -0.00444 -0.059555 -0.021319
27540 -2.2826006100000003 9.47889288 -1.61245008 -0.009808 -0.066993 -0.021347
27560 -2.24218341 9.41542218 -1.6287641099999999 -0.010784 -0.0372 -0.011778
27580 -2.13665724 9.40628907 -1.63714185 -0.010669 -0.004207 -0.004342
27600 -2.1751222500000003 9.43891713 -1.6363962900000002 -0.00643 -0.003186 0.003164
27620 -2.2230244800000003 9.47454705 -1.6247223900000003 -0.000125 -0.02027 0.007503
27640 -2.2020703200000002 9.492509160000001 -1.59508638 -5.8e-05 -0.0096 0.003217
27660 -2.12917221 9.477391950000001 -1.62262305 -0.010582 0.019212 -9.9e-05
27680 -2.20357125 9.49445154 -1.66109787 -0.020002 0.055482 -0.004484
27700 -2.2387401000000002 9.51121683 -1.63086345 -0.024202 0.069349 -0.005599
27720 -2.21658912 9.493107570000001 -1.65585933 -0.026394 0.056574 -0.005598
27740 -2.131713 9.45553527 -1.6528672800000002 -0.030517 0.08111900000000001 -0.013136000000000002
27760 -2.13366519 9.48353301 -1.64687337 -0.030277 0.132261 -0.015336
27780 -2.14129737 9.48832029 -1.6561536300000002 -0.023838 0.147126 -0.008901000000000001
27800 -2.17796715 9.49984704 -1.62127908 -0.016461 0.135348 -0.000288
27820 -2.15671869 9.49805181 -1.6245752400000002 -0.019772 0.126773 0.015722999999999997
27840 -2.18260728 9.49445154 -1.63460106 -0.02292 0.144869 0.022087
27860 -2.1787225200000004 9.50793048 -1.62068067 -0.031301 0.173682 0.01665
27880 -2.19054357 9.54191232 -1.5877485 -0.03022 0.16838599999999998 0.008119
27900 -2.2701811500000004 9.517809150000001 -1.6078099500000003 -0.035588 0.154582 0.00169
27920 -2.30864616 9.47380149 -1.6540640999999998 -0.048337 0.15679500000000002 -0.008015999999999999
27940 -2.26329453 9.51181524 -1.6377402600000002 -0.06416799999999999 0.185652 -0.017778
27960 -2.18425536 9.501789420000001 -1.619631 -0.082113 0.217716 -0.028626
27980 -2.21973813 9.553134960000001 -1.6051122000000002 -0.087385 0.222034 -0.038283
28000 -2.3571468 9.53053272 -1.6245752400000002 -0.090609 0.213535 -0.041499
28020 -2.34397197 9.5062824 -1.58415804 -0.098044 0.218896 -0.043694
28040 -2.2659922800000003 9.55029006 -1.54658574 -0.10333 0.227446 -0.045879
28060 -2.24174196 9.57139137 -1.5657446700000002 -0.097967 0.227453 -0.05225
28080 -2.24952129 9.533220660000001 -1.63206027 -0.093748 0.216785 -0.052207
28100 -2.19264291 9.47365434 -1.6826504400000002 -0.08747100000000001 0.202859 -0.038259
28120 -2.06660403 9.40000086 -1.75764789 -0.076774 0.21664 -0.030724
28140 -2.10626586 9.42320151 -1.77066576 -0.074616 0.22302 -0.029649
28160 -2.26224486 9.51211935 -1.6531615800000001 -0.06830599999999999 0.211246 -0.021044
28180 -2.2674834 9.55193814 -1.60571061 -0.057771 0.188808 -0.013464
28200 -2.1453390900000002 9.528884640000001 -1.6049650500000001 -0.045079 0.173811 -0.003742
28220 -2.01001995 9.47904003 -1.62921537 -0.033421 0.162031 0.001695
28240 -2.0419024500000003 9.529188750000001 -1.6660323000000001 -0.027149 0.150223 0.018846
28260 -2.22572223 9.51421869 -1.6878889799999999 -0.019738 0.14484 0.026382
28280 -2.25341586 9.493107570000001 -1.8037450800000001 -0.016605 0.132037 0.028557
28300 -2.07213687 9.43068654 -1.80524601 -0.011381 0.10964000000000003 0.030758
28320 -1.93382568 9.42350562 -1.75135968 -0.007094 0.10752 0.024382
28340 -1.97215335 9.48547539 -1.73638962 -0.009161 0.11077 0.012613
28360 -2.12947632 9.5466996 -1.7145329400000002 -0.014557 0.088452 0.004058
28380 -2.19922542 9.49834611 -1.7130418200000002 -0.017787 0.077828 -0.000224
28400 -2.1963805200000004 9.52708941 -1.64612781 -0.017748 0.077862 -0.00877
28420 -2.1544722000000003 9.5148171 -1.6139412000000002 -0.012409 0.069359 -0.018335
28440 -2.19174039 9.57588435 -1.64447973 -0.010395 0.050147 -0.010819
28460 -2.21449959 9.66630312 -1.6536128400000003 -0.009458 0.036236 0.0041600000000000005
28480 -2.1516273 9.56705535 -1.59927525 0.002124 0.021204 0.023489
28500 -2.08980468 9.50747922 -1.5667943400000004 0.012706 0.015785 0.037456
28520 -2.05373331 9.52663815 -1.5825099599999999 0.029843 0.037005 0.043958
28540 -2.17452384 9.530081460000002 -1.6015217400000001 0.037292 0.041206 0.052551
28560 -2.2540142700000003 9.561816810000002 -1.6542112500000001 0.046697 0.0070459999999999984 0.062274
28580 -2.25655506 9.545345820000001 -1.6281657 0.051936 -0.008973 0.067672
28600 -2.22437826 9.48442572 -1.5962832 0.057333 -0.00257 0.060224
28620 -2.1862075500000007 9.46780758 -1.5236793900000003 0.05107 0.014552 0.046272
28640 -2.19353562 9.46990692 -1.4861070900000002 0.046789 0.009249 0.044112
28660 -2.14967511 9.4513464 -1.57203288 0.042535 0.005032 0.03661
28680 -2.12692572 9.52379325 -1.5582596400000002 0.041425 -0.0141 0.027013
28700 -2.15686584 9.48203208 -1.48865769 0.040263 -0.046012 0.016364
28720 -2.19353562 9.46406997 -1.4718924000000002 0.040234 -0.066197 0.002502
28740 -2.2107521700000006 9.453141630000001 -1.52443476 0.034885 -0.08316699999999999 -0.0114
28760 -2.14474068 9.49415724 -1.52054019 0.032828 -0.075664 -0.021038
28780 -2.16794133 9.553282110000001 -1.5064628400000002 0.028546 -0.078845 -0.021064
28800 -2.1654005400000003 9.474252750000002 -1.4266879200000002 0.030603 -0.094836 -0.019961000000000003
28820 -2.12438493 9.544453110000001 -1.3841713800000002 0.02957 -0.08207 -0.014643000000000003
28840 -2.16689166 9.52199802 -1.4310239400000002 0.027436 -0.07463600000000001 -0.00719
28860 -2.1490767 9.477087840000001 -1.4070777300000001 0.030556 -0.085329 0.000323
28880 -2.15207856 9.54715086 -1.43372169 0.040114 -0.091767 0.003602
28900 -2.1718359 9.61689996 -1.41021693 0.047625 -0.079023 0.006843000000000001
28920 -2.21644197 9.57035151 -1.45033002 0.048735 -0.071561 0.004705
28940 -2.2499725500000007 9.509578560000001 -1.4801229900000001 0.050883 -0.06943400000000001 0.003649
28960 -2.2125474 9.49879737 -1.52518032 0.041368 -0.050226 0.003558
28980 -2.11854798 9.512570610000001 -1.47667968 0.032958 -0.02356 0.002397
29000 -2.09399355 9.48936996 -1.45257651 0.023485 0.004175 0.001227
29020 -2.1095620200000003 9.49865022 -1.49478894 0.013978999999999998 0.023392 -0.001001
29040 -2.27676366 9.52589259 -1.54314243 0.009746 0.02768 -0.00424
29060 -2.27511558 9.477990360000002 -1.4900016600000001 0.006573999999999999 0.027717 -0.010672
29080 -2.19578211 9.47574387 -1.4188987800000001 0.002397 0.041606 -0.017128
29100 -2.0975840100000003 9.46945566 -1.37998251 -0.002875 0.05229 -0.020383
29120 -2.16689166 9.49984704 -1.40153508 -0.0124 0.07042899999999999 -0.019405
29140 -2.24368434 9.5381649 -1.38911562 -0.022992 0.090693 -0.0163
29160 -2.2646385 9.564661710000001 -1.4009366699999999 -0.020887 0.089599 -0.010943
29180 -2.22886143 9.576188460000001 -1.42248924 -0.013428 0.091687 -0.006620999999999999
29200 -2.1903964200000003 9.51975153 -1.5012243 -0.015509 0.10129 -0.008784
29220 -2.2001279400000002 9.565112970000001 -1.5322140900000003 -0.014466 0.099143 -0.005569
29240 -2.23889706 9.580681440000001 -1.5919373700000001 -0.017691 0.098072 -0.001317
29260 -2.2561038 9.53187669 -1.58684598 -0.018729 0.098101 -0.007734
29280 -2.1442894200000007 9.55029006 -1.60092333 -0.019724 0.107718 -0.014163
29300 -1.98232632 9.53966583 -1.55481633 -0.030349 0.112038 -0.019584
29320 -1.92425112 9.493558830000001 -1.62606636 -0.038942 0.097162 -0.021761000000000003
29340 -1.9431059400000001 9.5239404 -1.67935428 -0.045329 0.099319 -0.022877
29360 -2.03696802 9.524990070000001 -1.72800207 -0.046343 0.104675 -0.0293
29380 -2.0749817700000004 9.537419340000001 -1.71947718 -0.054892 0.095143 -0.035757
29400 -2.0907072 9.51466014 -1.67367429 -0.059188 0.085583 -0.038979
29420 -2.09638719 9.51121683 -1.7088431400000001 -0.052849 0.07065199999999999 -0.039984
29440 -2.0969856 9.47065248 -1.68399441 -0.046554000000000005 0.04401 -0.04311
29460 -2.03052285 9.48846744 -1.6272631800000001 -0.041239 0.036548 -0.046268
29480 -2.0368110600000007 9.49640373 -1.61469657 -0.045477 0.040832 -0.04844
29500 -2.04340338 9.55148688 -1.5886510200000001 -0.055089 0.034491 -0.052772
29520 -2.04250086 9.580524480000001 -1.5545220300000002 -0.060385 0.041971 -0.053887
29540 -2.06720244 9.58231971 -1.5955278300000002 -0.064594 0.05583 -0.052866
29560 -2.0688505200000002 9.58217256 -1.63115775 -0.05927 0.055803 -0.050692
29580 -2.11675275 9.57064581 -1.66095072 -0.044334 0.057873 -0.048454
29600 -2.11075884 9.54115695 -1.6935787800000002 -0.036875 0.058899 -0.045198
29620 -2.10821805 9.53876331 -1.6696325699999999 -0.033742 0.051401 -0.037689
29640 -1.9989444600000001 9.52738371 -1.68324885 -0.029517 0.050287 -0.029113
