time Ax Ay Az Gx Gy Gz
20 -0.09909081000000002 9.83754648 1.04108625 0.203624 0.628005 -0.049589
40 -0.2573163 9.902959560000001 1.06398279 0.232836 0.7184520000000001 -0.049501
60 -0.24743763 9.908492400000002 1.05335856 0.227785 0.798297 -0.032547
80 -0.31344912 9.78185511 1.0324044 0.137881 0.738939 -0.028826
100 -0.5405211900000001 9.81777933 1.0547025300000001 0.029596 0.6582060000000001 0.007909000000000001
120 -0.50100651 9.7582032 1.05799869 -0.016066 0.47299 0.0121
140 -0.42002496 9.820025820000001 1.02566493 -0.040088 0.337834 -0.000713
160 -0.38979054 9.84202965 0.98584614 -0.01123 0.30701100000000003 -0.043201
180 -0.38484630000000003 9.83679111 1.02477222 0.012351 0.314454 -0.060137
200 -0.33889626 9.80236782 0.96534324 0.015542 0.33035 -0.041975
220 -0.28515708 9.79742358 0.9541206 0.019647 0.312153 -0.023764
240 -0.35416062000000004 9.747883080000001 1.03853565 0.023674 0.269485 -0.012999
260 -0.39548034000000004 9.838890450000001 0.92806524 0.022449 0.234335 -0.012962
280 -0.46598481 9.867035340000001 0.69410655 0.007326000000000002 0.197086 -0.008747
300 -0.43365105000000004 9.98528508 0.69604893 -0.002165 0.22480300000000006 -0.005644
320 -0.46104057 10.09725642 0.50444982 0.003404 0.266373 -0.016341
340 -0.33634566000000005 10.15069149 0.5953100400000001 0.003356 0.253598 -0.018461
360 -0.19594493999999998 9.81329616 0.76550373 -0.007408 0.222781 -0.028111
380 -0.16974243 9.77617512 0.7021899899999999 0.006375 0.192948 -0.038659
400 -0.02185668 9.69354549 0.53259471 0.009522 0.156815 -0.06316000000000001
420 -0.04715667 9.7610481 0.43948800000000005 0.004107 0.13342 -0.068508
440 -0.17378415000000003 9.796530870000002 0.3529638 0.010239 0.067376 -0.07479
460 -0.33485454 9.85850064 0.29488860000000006 0.016593 0.050335000000000005 -0.08113300000000001
480 -0.31614687 9.98468667 0.24519114 0.030553 0.051429 -0.100265
500 -0.27513126000000004 9.849965939999999 0.28934595 0.066812 0.05235 -0.09574
520 -0.34398765000000003 9.82990449 0.3930867 0.113744 0.045812 -0.099677
540 -0.33949467 9.91717425 0.47660904000000004 0.142549 0.04465 -0.100543
560 -0.27482715 9.947418480000001 0.5174775 0.159801 0.09568 -0.089805
580 -0.25746345000000004 9.8996634 0.5402268900000001 0.14915699999999998 0.108471 -0.08241799999999999
600 -0.33590421000000004 9.94127742 0.64321227 0.166207 0.110516 -0.07589299999999999
620 -0.33066567 9.80385894 0.54666225 0.186516 0.096687 -0.098166
640 -0.22063671 9.740093940000001 0.52331445 0.198482 0.119131 -0.126953
660 -0.20507805 9.82257642 0.51358293 0.18157 0.14161300000000002 -0.139918
680 -0.24997842000000003 9.94367106 0.6036975900000001 0.166974 0.195017 -0.162522
700 -0.36090009000000006 9.95969079 0.67449636 0.160794 0.232371 -0.17436300000000002
720 -0.22663062000000003 10.128383549999999 0.7309332900000001 0.170539 0.264295 -0.174336
740 -0.09655002 10.025849430000001 0.7277842800000001 0.183294 0.261025 -0.166765
760 -0.13861530000000005 9.85595004 0.7810722000000001 0.198048 0.235347 -0.151674
780 -0.32991030000000005 9.81823059 0.8604154800000001 0.210385 0.144703 -0.138653
800 -0.4107447 9.819584370000001 0.9443890800000001 0.227383 0.098957 -0.16838599999999998
820 -0.46927115999999996 9.76060665 1.0816506000000001 0.220598 0.048771 -0.133118
840 -0.43858548 9.64638882 1.16308341 0.227812 0.01775 -0.10739
860 -0.5468094 9.85146687 1.07446968 0.207091 -0.064277 -0.08927
880 -0.6059440800000001 9.799522920000001 0.97612443 0.228658 -0.010036 -0.085984
900 -0.52106796 9.813590460000002 0.8180460900000001 0.216192 0.093224 -0.057362
920 -0.47002653 9.81434583 0.6970986 0.169518 0.186995 -0.023625
940 -0.44966097000000005 9.9141822 0.65204127 0.138948 0.267007 -0.026077
960 -0.49696479000000005 9.98782587 0.50774598 0.148145 0.395947 -0.044338
980 -0.4713705 10.003100040000001 0.33889626 0.147457 0.4567640000000001 -0.067922
1000 -0.38679849 10.051149420000002 0.14969079000000002 0.134 0.512351 -0.104406
1020 0.13981212 9.89592579 0.09325386000000001 0.107697 0.5721890000000001 -0.127099
1040 0.22617936000000002 9.875717190000001 0.07409493 0.089795 0.579888 -0.1721
1060 0.16466085 9.649537830000002 0.31270356000000005 0.096182 0.546962 -0.201923
1080 -0.28216503000000004 9.69802866 0.43140456000000005 0.137972 0.548039 -0.241157
1100 -0.6970986 9.53232795 0.71401104 0.137852 0.5107970000000001 -0.251792
1120 -1.51635132 9.68306841 0.70473078 0.145311 0.505458 -0.254938
1140 -1.85300109 9.65327544 0.6039918900000002 0.140851 0.4851430000000001 -0.23251
1160 -1.92349575 9.55074132 0.6544349100000001 0.177005 0.476422 -0.214087
1180 -1.92229893 9.62409069 0.53857881 0.238461 0.397316 -0.198601
1200 -1.9842785100000002 9.72153342 0.43783992 0.313825 0.312892 -0.196898
1220 -1.92530079 9.851614020000001 0.26090676 0.371028 0.223204 -0.195315
1240 -1.8959590800000001 9.83470158 0.12708855 0.332146 0.185781 -0.127173
1260 -1.6235255700000002 9.768385980000001 -0.03517866 0.279285 0.121784 -0.061229999999999986
1280 -1.5962832 9.837095220000002 -0.1591182 0.216563 -0.005009 -0.000617
1300 -1.56619593 10.13377905 -0.32182686000000005 0.149354 -0.17336300000000002 0.067495
1320 -1.7272565100000001 10.17224406 -0.6026479200000002 0.095778 -0.386535 0.143238
1340 -1.5358045500000002 10.14574725 -0.9279180900000001 0.096747 -0.633731 0.15531199999999998
1360 -1.50078285 10.002952890000001 -1.40183919 0.144512 -0.642604 0.20159
1380 -1.5349118400000004 10.08317907 -1.80330363 0.043905 -0.515219 0.400482
1400 -1.2960089099999998 10.142156790000001 -2.15311842 -0.075706 -0.14366800000000002 0.5615399999999999
1420 -1.2955576500000001 10.0849743 -2.19248595 -0.183996 0.13505699999999998 0.4835140000000001
1440 -1.38761469 9.89547453 -2.2227301800000006 -0.259305 0.389182 0.401478
1460 -1.6217303400000003 9.65073465 -2.21149773 -0.320378 0.499398 0.33147600000000005
1480 -1.7305526699999998 9.57214674 -2.19264291 -0.329864 0.435873 0.24176
1500 -1.5393950100000002 9.293876280000001 -2.14863525 -0.28028800000000004 0.198591 0.130247
1520 -1.2880726200000001 9.15631065 -2.25416142 -0.21665 0.031458 0.046516
1540 -1.1241671400000002 8.91396441 -2.4878258100000004 -0.17081300000000002 -0.044068 -0.020365
1560 -0.6230036700000001 8.98072146 -2.3204770200000002 -0.11436 -0.091031 -0.046616000000000005
1580 -0.47287143000000004 9.10197306 -2.03276934 -0.054803 -0.11687 -0.030143
1600 -1.11308184 8.88492681 -1.7893832400000003 -0.036729000000000005 -0.084097 0.016943
1620 -2.11375089 8.299495440000001 -1.2404745000000001 -0.016822999999999998 -0.101468 0.081197
1640 -1.7283061800000001 9.14029092 -0.87762222 0.008029000000000001 -0.199839 0.15093099999999998
1660 -1.3088796300000003 9.46751328 -0.48244599000000005 0.019118 -0.288518 0.20667
1680 -1.61604054 9.51840756 -0.46448388 0.003856 -0.32058600000000004 0.247197
1700 -2.03052285 9.66614616 -0.70833105 -0.062203 -0.25874 0.289385
1720 -2.1200391 9.807302250000001 -1.08524106 -0.137706 -0.172317 0.320794
1740 -1.8197648100000001 9.75910572 -1.5521185800000001 -0.185346 -0.090124 0.320356
1760 -1.61738451 9.795029940000001 -1.90164888 -0.215992 -0.051559 0.293387
1780 -1.28252997 10.21490775 -2.0258827200000002 -0.21768 -0.029936 0.215367
1800 -0.7605693 10.42656831 -2.0187018 -0.246915 0.083202 0.186176
1820 -0.36209691 10.165514400000001 -1.8741024 -0.358744 0.13681400000000002 0.196008
1840 -0.20522520000000002 9.923315310000001 -1.67815746 -0.431262 0.160435 0.212563
1860 -0.25566822 9.84202965 -1.4522822100000001 -0.458904 0.183959 0.21447600000000006
1880 -0.33859215 9.75431844 -1.21861782 -0.448413 0.169971 0.24020500000000006
1900 -0.47226321000000004 9.799375770000001 -0.89498592 -0.375718 0.219717 0.25774
1920 -0.67434921 9.78605379 -0.6843750300000001 -0.275639 0.202207 0.287304
1940 -0.82284318 9.78275763 -0.51628068 -0.08976 0.279229 0.312004
1960 -0.9394448400000001 9.772280550000001 -0.41478642000000004 0.068715 0.38211 0.287342
1980 -1.12880727 9.739946790000001 -0.26090676 0.153784 0.505591 0.236503
2000 -1.12087098 9.50403591 -0.11945637 0.13988299999999998 0.6688970000000001 0.168899
2020 -1.05186744 9.58666554 -0.10313253 0.007659 0.663053 0.146618
2040 -0.8993317500000001 9.51601392 -0.06660990000000001 -0.15217999999999998 0.476092 0.153219
2060 -0.9699833700000001 9.64818405 0.14025357000000002 -0.264098 0.265545 0.155912
2080 -0.7824259800000002 9.847719450000001 0.27797616 -0.336488 0.096286 0.188738
2100 -0.55429443 9.91896948 0.30611124000000006 -0.335165 -0.024335 0.248722
2120 -0.5469663599999999 10.10219085 0.35939916000000005 -0.273756 -0.071653 0.306896
2140 -0.64950048 10.45815651 0.5622307200000001 -0.235829 -0.181497 0.304097
2160 -0.79424703 10.591974720000001 0.91145691 -0.1458 -0.213274 0.180853
2180 -1.07895285 10.43809506 0.77838426 -0.117899 -0.212165 0.145795
2200 -1.28792547 10.014028380000001 0.58019283 -0.087514 -0.140726 0.103187
2220 -1.01069487 9.552536550000001 0.46178613 -0.037122 -0.118399 0.070395
2240 -0.5786919 9.342818370000002 0.40371093 -0.024037 -0.083179 0.042668
2260 -0.13067901 9.51152094 0.26150517 -0.028179000000000006 -0.07032100000000001 0.027667
2280 0.3412899 9.71823726 0.08636724000000001 -0.010927 -0.063853 -0.006404000000000001
2300 1.0722231899999999 9.59235534 -0.2721294 0.043895 -0.004261 -0.038144
2320 1.6115475600000002 9.82631403 -0.46149183000000005 0.066486 0.008559 -0.066845
2340 1.93023522 10.177639560000001 -0.23456691000000002 0.005497 -0.014728 -0.051217
2360 1.81782243 10.30083354 -0.20611791 -0.06161000000000001 0.024858 -0.035714
2380 1.55287395 10.22658165 -0.30072555 -0.078723 0.014269 -0.036888
2400 1.4522822100000001 9.93393954 -0.46463103000000006 -0.080875 0.010016 -0.036897000000000006
2420 1.37518542 9.4516407 -0.48289725 -0.064618 0.053687 -0.049658
2440 1.20245094 9.68261715 0.16854561000000004 -0.023646 0.113345 -0.085768
2460 1.18882485 9.82346913 0.53379153 0.030061 0.15804400000000002 -0.12177
2480 0.9629496000000001 9.91358379 0.59157243 0.063402 0.191058 -0.148285
2500 0.8039785500000001 9.87392196 0.5001138 0.090342 0.211363 -0.187647
2520 0.96444072 9.82332198 0.64859796 0.097902 0.22415 -0.195088
2540 1.03389552 9.78036399 0.88945308 0.084965 0.203916 -0.185538
2560 1.19735955 9.82197801 0.79020531 0.069799 0.172995 -0.16530899999999998
2580 1.0844955 9.91972485 0.42257556000000007 0.077157 0.14316199999999998 -0.17056
2600 1.01638467 9.95878827 0.5373819900000001 0.095423 0.136848 -0.20567600000000005
2620 0.99887382 10.102338000000001 0.53034822 0.122411 0.164622 -0.248252
2640 0.89828208 10.06042968 0.5553441 0.151595 0.214725 -0.282295
2660 0.76356135 9.915084720000001 0.55429443 0.154723 0.195552 -0.285453
2680 0.79499259 9.87227388 0.5701670100000001 0.143825 0.152945 -0.276929
2700 0.8958884400000001 9.90415638 0.55923867 0.121047 0.094336 -0.252444
2720 0.9711801900000001 9.82946304 0.62525016 0.114502 0.081498 -0.233245
2740 0.97911648 9.85011309 0.67224987 0.129653 0.135749 -0.2268
2760 0.8722365300000001 10.013871420000001 0.80233047 0.120267 0.22615900000000005 -0.184252
2780 0.64440909 9.949655159999999 0.8866081800000001 0.157886 0.279326 -0.192603
2800 0.30161826 9.85431177 0.9563572800000001 0.21364 0.312271 -0.221098
2820 0.16211025 9.65417796 1.00815408 0.263994 0.344113 -0.235742
2840 0.17678601 9.691750260000001 0.9729754200000001 0.322815 0.357829 -0.25350900000000004
2860 0.18695898 9.715843620000001 0.8559225 0.419832 0.291648 -0.304021
2880 0.22228479 9.799522920000001 0.74829699 0.513352 0.149882 -0.364075
2900 0.28979721 9.820928339999998 0.62943903 0.544262 0.10943 -0.39799
2920 0.23321313 9.78470001 0.5462109900000001 0.543751 0.235127 -0.396018
2940 0.07603731000000002 9.91896948 0.5060979 0.456628 0.364133 -0.347654
2960 -0.14849397 9.977800049999999 0.49966254000000004 0.363596 0.371693 -0.292766
2980 -0.45295713 9.99172044 0.33066567 0.271992 0.169601 -0.29101
3000 -0.38694564000000004 10.23017211 0.68916231 0.202922 0.025901 -0.259262
3020 -0.5707654200000002 10.174941810000002 0.7039852200000001 0.118366 0.000489 -0.224569
3040 -0.7288339500000001 10.16955612 0.79050942 0.13561800000000002 0.075922 -0.189293
3060 -0.81535815 9.923913720000002 0.8529304500000001 0.15819 0.14602 -0.156111
3080 -0.93959199 9.61675281 0.9336078900000001 0.168535 0.31959 -0.147715
3100 -0.83076966 9.62154009 1.02432096 0.125359 0.427407 -0.16631500000000002
3120 -0.6980011199999999 9.892178370000002 0.98660151 0.021176 0.468419 -0.208756
3140 -0.5273561700000001 10.01597076 0.7189552800000001 0.02288 0.557045 -0.262268
3160 -0.42855966000000006 10.024956720000002 0.30880899 0.055778 0.711571 -0.30603400000000003
3180 -0.43709436 9.84487455 -0.12199716 0.088249 0.777655 -0.343279
3200 -0.5825864700000001 9.64863531 -0.18037647 0.119111 0.753075 -0.35051
3220 -0.7912549800000002 9.66045636 -0.30641535000000003 0.144284 0.661356 -0.34594400000000003
3240 -1.19915478 9.537115230000001 -0.29922462000000005 0.115903 0.539928 -0.324622
3260 -1.43281917 9.50329035 -0.36030168 0.067176 0.425929 -0.278883
3280 -1.8182736900000003 9.71090919 -0.37512459000000004 0.045134 0.307606 -0.240429
3300 -1.8377269200000002 9.962977140000001 -0.7249393800000001 0.032626 0.181762 -0.194421
3320 -2.1257289 9.88095573 -1.1693716200000002 0.007633 0.141125 -0.133655
3340 -2.14115022 9.64504485 -1.7173778400000002 -0.007811 0.090859 -0.070674
3360 -2.1731798700000002 9.51975153 -2.25236619 -0.046362 0.108902 -0.02076
3380 -2.41927353 9.810304109999999 -2.1721302000000002 -0.094548 0.107851 0.017361
3400 -2.5045911 10.07090676 -2.2312648800000003 -0.152346 0.097276 0.047949
3420 -2.4766031700000006 9.8302086 -2.12603301 -0.206751 0.12824000000000002 0.07744
3440 -2.3117951700000003 9.752670360000002 -2.02872762 -0.244019 0.175118 0.108098
3460 -2.18186172 9.640257570000001 -1.8938597400000001 -0.287425 0.253023 0.1109
3480 -1.9603224900000003 9.55074132 -1.84940082 -0.349308 0.304163 0.162745
3500 -1.6224759000000002 9.40882986 -1.93113774 -0.4250930000000001 0.329858 0.196366
3520 -1.4004854100000002 9.25540146 -2.0507314500000002 -0.5337649999999999 0.403579 0.236104
3540 -1.2600748800000001 9.13325715 -2.1305161800000003 -0.5884050000000001 0.406748 0.290198
3560 -1.18389042 9.139545360000001 -2.02573557 -0.603485 0.396062 0.311471
3580 -1.4150042100000002 9.23654664 -1.8874243800000001 -0.599126 0.438568 0.333879
3600 -1.5705319500000001 9.378301140000001 -1.6178357700000001 -0.5499350000000001 0.45017 0.320321
3620 -1.8681183 9.464815530000001 -1.50631569 -0.427404 0.385941 0.292417
3640 -2.0448945000000003 9.441163620000001 -1.42413732 -0.232264 0.323635 0.253268
3660 -2.2179330900000003 9.34341678 -1.38447549 -0.090631 0.235907 0.224459
3680 -2.270034 9.32037309 -1.4223420900000001 -0.003517 0.12598900000000002 0.197435
3700 -2.33708535 9.290884230000001 -1.38641787 0.108254 -0.004065999999999999 0.123607
3720 -2.2718292300000003 9.258393510000001 -1.25753409 0.266991 -0.139569 0.039432
3740 -2.1604563000000003 9.11933676 -1.10679363 0.353427 -0.17805 -0.002644
3760 -1.9609209000000003 8.917407720000002 -0.8671451400000001 0.331439 -0.104392 -0.02212
3780 -1.7402841900000001 9.2230677 -0.75382983 0.289928 -0.097796 -0.037374
3800 -1.53655011 9.44191899 -0.59695812 0.227891 -0.109391 -0.014291
3820 -1.5069141000000001 9.617645520000002 -0.39098736000000006 0.136949 -0.08384 0.068362
3840 -1.5679911599999998 9.79758054 -0.41194152000000006 0.0097 -0.031667 0.184911
3860 -1.5771242700000003 9.833651910000002 -0.40371093 -0.107688 0.057837 0.281184
3880 -1.6220246400000002 9.993819779999999 -0.52301034 -0.231487 0.104916 0.336875
3900 -1.61499087 10.18960776 -0.8178989400000001 -0.295624 0.110334 0.369535
3920 -1.5769673100000001 10.35831033 -0.93405915 -0.314019 0.046507 0.363079
3940 -1.6404380100000002 10.346489279999998 -0.8057737800000001 -0.304187 0.07002 0.33534400000000003
3960 -1.7316023400000002 10.387495079999999 -1.0743127199999998 -0.347411 0.158696 0.308223
3980 -1.57652586 10.34573391 -1.2536395200000001 -0.423712 0.293107 0.327814
4000 -1.4636520000000002 10.10922462 -0.8958884400000001 -0.516261 0.37855 0.352695
4020 -1.35887139 9.79847325 -0.46702467 -0.559045 0.354198 0.352427
4040 -1.3500423900000003 9.620490420000001 -0.50265459 -0.493274 0.249656 0.331656
4060 -1.08719325 9.533220660000001 -0.6502460400000001 -0.328275 0.094909 0.2593
4080 -0.8722365300000001 9.493107570000001 -0.5768966700000001 -0.110716 0.004952000000000001 0.189364
4100 -0.78481962 9.425752110000001 -0.35221824000000007 0.083832 0.049172 0.151142
4120 -0.8104139100000001 9.37156167 -0.08203122 0.27837 0.126275 0.14812899999999998
4140 -0.97836111 9.52259643 0.06751241999999999 0.373689 0.196297 0.136955
4160 -1.01489355 9.61840089 0.17827713000000003 0.327438 0.303175 0.08949299999999999
4180 -1.0071044100000002 9.69249582 0.09595161 0.158945 0.302767 0.071225
4200 -0.9982754100000001 9.70507224 -0.12319398000000001 -0.033519 -0.000281 0.099111
4220 -0.83645946 9.7408395 -0.3094074 -0.140547 -0.318404 0.09343
4240 -0.7126670700000001 9.898466580000001 -0.23291883000000002 -0.211957 -0.5153300000000001 0.117752
4260 -0.56507562 9.80206371 0.02080701 -0.237461 -0.469528 0.141017
4280 -0.5709125700000002 9.6448977 0.39443067000000004 -0.225198 -0.334353 0.159089
4300 -0.8108651700000001 9.936333180000002 0.71820972 -0.117381 -0.105604 0.13711600000000002
4320 -0.86295627 10.0878192 0.6352759800000002 -0.001995 0.112597 0.082095
4340 -0.6816870899999999 10.383904620000001 0.15253569 0.097722 0.228343 0.087984
4360 -0.34638129 10.60379577 -0.27781920000000004 0.14993099999999998 0.197332 0.072365
4380 -0.04969746 10.23421383 -0.6647648400000001 0.155548 0.231517 0.043519
4400 0.1041822 9.67049199 -0.7207505100000001 0.081338 0.310709 0.017262
4420 0.2459367 9.26663391 -0.29189655000000003 0.012135 0.324873 -0.0014
4440 0.5441214600000001 9.25315497 0.35161983 -0.026588 0.23454 -0.021851
4460 0.86625243 9.35539479 0.8184973500000001 -0.055734000000000006 0.15900699999999998 -0.021957
4480 0.9937824300000001 9.588764880000001 0.905463 -0.086907 0.112222 -0.016774
4500 0.9279180900000001 9.96163317 0.6736036500000001 -0.116346 0.010965 0.022674
4520 0.8077161600000001 10.0502469 0.41358960000000006 -0.12213 -0.076419 0.035564
4540 0.7286868000000001 10.358006220000002 0.18067077 -0.120433 -0.185036 0.023965
4560 0.39292974 10.61771616 0.09160578000000001 -0.11088900000000003 -0.224378 -0.002623
4580 0.11750418000000001 10.51383807 -0.320787 -0.092877 -0.268054 -0.018465
4600 -0.08277678 10.2349692 -0.58932594 -0.080228 -0.318102 -0.034336
4620 0.09894366 9.94591755 -0.94767543 -0.064999 -0.278637 -0.059917
4640 0.21001248 9.711801900000001 -1.06518942 -0.06275499999999999 -0.276424 -0.082337
4660 0.26090676 9.45942984 -0.9322639200000001 -0.084877 -0.232594 -0.101776
4680 0.18126918000000003 9.54998595 -0.55354887 -0.102774 -0.195182 -0.117972
4700 0.13113027000000002 9.69219171 -0.2894931 -0.103754 -0.197224 -0.13934100000000002
4720 0.35102142000000003 9.88574301 -0.17753157 -0.102414 -0.157727 -0.160747
4740 0.5469663599999999 9.96223158 -0.33126408 -0.090554 -0.132193 -0.162833
4760 0.8137100700000001 10.14320646 -0.37436922000000006 -0.077593 -0.070559 -0.136116
4780 1.11023694 10.03467843 -0.49935843 -0.056170000000000005 -0.029178 -0.113586
4800 1.31830704 9.98184177 -0.65055015 -0.041215 -0.007993 -0.096418
4820 1.4780236500000004 9.942474240000003 -0.6027950700000001 -0.046525 -0.0068920000000000006 -0.100729
4840 1.3135197600000001 9.888283800000002 -0.47646189000000005 -0.019441 0.079322 -0.105991
4860 1.1394315000000002 9.87256818 -0.33291216 0.019345 0.12727 -0.142101
4880 0.9726811200000001 9.831258270000001 -0.13696722 0.074081 0.15495499999999998 -0.18662
4900 0.7738912800000001 9.83140542 0.09086022 0.097753 0.177334 -0.208916
4920 0.66581451 9.86867361 0.25806186000000003 0.097892 0.216714 -0.20042
4940 0.48559500000000005 9.75491685 0.42990363000000004 0.093519 0.215574 -0.178016
4960 0.34398765000000003 9.846826740000001 0.46702467 0.048613 0.000369 -0.134257
4980 0.48993102000000005 9.883496520000001 0.54037404 0.026441000000000003 -0.10321500000000003 -0.052026
5000 0.41358960000000006 9.95759145 0.50340015 0.0069310000000000005 -0.137373 -0.017935
5020 0.33844500000000005 10.078695900000001 0.47346984000000003 0.048592 -0.145959 -0.03793
5040 0.13711437 9.991573290000002 0.57465018 0.11214 -0.050152 -0.07606399999999999
5060 -0.17558919000000003 9.934842060000001 0.6484508099999999 0.106988 0.000957 -0.065484
5080 -0.44457939 9.86568156 0.54666225 0.098333 -0.006547 -0.046307
5100 -0.6086320199999999 10.048157370000002 0.5644772100000001 0.107072 -0.185596 -0.033197000000000004
5120 -0.61462593 9.883202220000001 0.59635971 0.096493 -0.394389 -0.024458
5140 -0.44621766 9.79443153 0.52960266 0.064252 -0.475122 -0.053422
5160 -0.23860863000000002 9.820477080000002 0.38096154000000004 0.080638 0.053324 -0.084963
5180 0.0085347 9.96507648 0.47601063 0.088223 0.273982 -0.127921
5200 0.25686504 10.14799374 0.6968043 0.057530999999999985 0.086621 -0.133237
5220 0.4221243 9.91628154 0.5903756099999998 0.014001 -0.332977 -0.125526
5240 0.18381978000000002 9.7260264 0.5667237 -0.006620999999999999 -0.627008 -0.103929
5260 -0.3614985 9.78844743 0.67329954 -0.024355 -0.517304 -0.083897
5280 -0.65263968 9.740241090000001 0.63842499 -0.024442 -0.04333 -0.065277
5300 -0.8442486 9.71330283 0.5951628900000002 -0.072324 0.248617 -0.03928
5320 -0.85068396 9.75446559 0.33110712 -0.096608 0.310467 -0.034188
5340 -0.7048877400000001 9.887685390000001 0.2140542 -0.018732 0.290032 -0.052845
5360 -0.5972622300000001 9.894424859999999 0.29938158000000004 0.047925 0.151372 -0.06715700000000001
5380 -0.7625116799999999 9.69743025 0.45280998 0.0572 0.077839 -0.068066
5400 -0.52929855 9.711801900000001 0.20387142 0.024142 0.094944 -0.054432000000000015
5420 -0.9689337 9.70447383 1.02506652 0.010211 0.086449 -0.049178
5440 -1.17041148 9.57813084 1.1036544300000002 0.015267 0.011913 -0.061865
5460 -1.1180260800000001 9.5466996 0.77688333 0.007248 -0.111627 -0.062831
5480 -0.83750913 9.63441081 0.46163898000000003 -0.00356 -0.114897 -0.035129
5500 -0.6631167600000001 9.867035340000001 -0.03233376 -0.024969 -0.109581 -0.013921
5520 -0.7999368299999999 9.873765 -0.17662905 -0.026252 -0.146904 -0.0032
5540 -1.2271525200000002 9.72976401 -0.22632651000000004 -0.031768 -0.168268 0.016017
5560 -1.4383618200000001 9.73066653 -0.48065076 -0.040279 -0.15124 0.027686
5580 -1.3259392199999998 9.83858634 -0.60354063 -0.051957 -0.127806 0.038257
5600 -1.30933089 9.74293884 -0.12439080000000001 -0.048829 -0.14061300000000002 0.0415
5620 -1.3275873 9.712106010000001 -0.004188870000000001 -0.045652 -0.145951 0.041529
5640 -1.3910580000000001 9.936333180000002 -0.03053853 -0.040116000000000006 -0.10335 0.039376
5660 -1.4756300100000002 10.05818319 -0.03382488 -0.044264 -0.079887 0.036113
5680 -1.3817777400000002 9.999205470000001 -0.005542650000000001 -0.038781 -0.054309 0.028641000000000007
5700 -1.33521948 9.87675705 0.030391380000000003 -0.037551 -0.02446 0.022202
5720 -1.2295461600000002 9.81793629 -0.04445892 -0.038498 0.005358 0.025362
5740 -1.01728719 9.73800441 -0.21120930000000002 -0.047062 0.01279 0.039179000000000005
5760 -1.03120758 9.724231170000001 -0.19444401 -0.056754999999999986 0.006376 0.053006
5780 -0.97013052 9.784405710000001 -0.20627487000000003 -0.059042 -0.018156 0.062636
5800 -0.9367569000000001 9.733207320000002 -0.12259557 -0.055995 -0.045889 0.069102
5820 -0.9348047100000001 9.79712928 -0.031136940000000002 -0.048603 -0.060838 0.071309
5840 -1.03060917 9.759409830000001 0.14804271000000002 -0.034772000000000004 -0.075774 0.06501599999999999
5860 -1.05395697 9.7781175 0.23366439 -0.02418 -0.098161 0.059777
5880 -1.0662292800000002 9.863739180000001 0.3101529600000001 -0.009244 -0.103518 0.054547000000000005
5900 -1.05051366 9.747431820000001 0.26734212 -0.002882 -0.117368 0.049268
5920 -1.1030560200000001 9.78261048 0.23785326 -0.0017329999999999995 -0.105628 0.042852
5940 -1.08074808 9.783807300000001 0.27872172 -0.004895 -0.100278 0.039619
5960 -0.97971489 9.74279169 0.32332778999999995 -0.00912 -0.087492 0.042777
5980 -0.8783775899999999 9.79413723 0.30730806 -0.018698 -0.078949 0.045904
6000 -0.8243343 9.867633750000001 0.24533829000000001 -0.030385 -0.06189 0.05221
6020 -0.7253906400000001 9.88454619 0.17513793000000002 -0.033336000000000005 0.003064 0.06172
6040 -0.6560829899999999 9.88215255 0.15582204 -0.008616 0.032848 0.051172
6060 -0.6153714899999999 9.85759812 0.14998509000000002 -2.4e-05 0.037114 0.042681
6080 -0.58798197 9.92346246 0.19819143 -0.013056 -0.015035 0.041589
6100 -0.60085269 9.944867880000002 0.27587682 -0.045254 -0.052229 0.046753
6120 -0.61207533 9.909542069999999 0.26165232000000005 -0.044000000000000004 -0.014931 0.042441
6140 -0.5376861000000001 9.953549729999999 0.21824307 -0.035398 -0.005352 0.037147
6160 -0.43050204000000003 9.916879950000002 0.19339434 -0.015691 0.094762 0.025406
6180 -0.38335518 9.759252870000001 0.14505066000000003 0.001589 0.120354 0.00413
6200 -0.39592179 9.75416148 0.22079367 -0.005917 0.118224 0.010489
6220 -0.37407492000000003 9.79413723 0.31330197000000004 -0.031632 0.098057 0.014609
6240 -0.37541889 9.854753220000003 0.384552 -0.02303 0.11506199999999997 0.016783000000000003
6260 -0.36269532000000004 9.862542359999999 0.36359784 -0.023087 0.106523 0.021067
6280 -0.41463927 9.80251497 0.34906923 -0.015543 0.132029 0.029632
6300 -0.53932437 9.82886463 0.45415395000000003 -0.011098 0.155514 0.01361
6320 -0.64455624 9.735453810000001 0.58617693 -0.008792 0.192795 0.01251
6340 -0.60444315 9.79517709 0.6500988900000001 -0.005644 0.1747 0.006146
6360 -0.64261386 9.811049670000001 0.47406825 0.004972 0.162945 0.006235
6380 -0.7081740900000001 9.79488279 0.36793386 0.009244 0.153385 -0.004405
6400 -0.6905160899999999 9.768385980000001 0.47436255000000005 0.009316 0.161937 -0.011893
6420 -0.73137474 9.86897772 0.45235872000000005 0.0072879999999999985 0.186442 -0.01087
6440 -0.6914088 9.97525926 0.6629696099999999 0.008320999999999999 0.186408 -0.003385
6460 -0.52960266 9.62663148 0.50669631 0.005078 0.177893 -0.002329
6480 -0.5319963 9.926307360000001 0.47211606000000006 0.005068 0.178945 0.000874
6500 -0.5167221300000001 9.78829047 0.38515041 0.001863 0.175769 -0.00128
6520 -0.59740938 9.743537250000001 0.34802937000000006 0.004164 0.213046 -0.001312
6540 -0.4742154 10.130934150000002 0.22123512000000004 0.019349 0.265205 -0.004478
6560 -0.37092590999999997 9.89143281 0.21840003000000002 0.034487000000000004 0.307771 -0.006562999999999999
6580 -0.34248672 9.80550702 0.14205861 0.049437 0.306671 -0.01073
6600 -0.40146444000000003 9.92824974 0.22244175000000002 0.045069 0.276888 -0.0182
6620 -0.38424789000000004 9.89756406 0.23665644 0.038596 0.257749 -0.021425
6640 -0.38036313000000005 9.893973599999999 0.30147111000000004 0.034329000000000005 0.25352 -0.025722
6660 -0.41418801000000005 9.915084720000001 0.27363033000000003 0.024626 0.234366 -0.022561
6680 -0.43693740000000003 9.79038981 0.26210358 0.017115000000000002 0.230109 -0.017266999999999998
6700 -0.41014629 9.85415481 0.32377905 0.008579999999999999 0.234383 -0.013059
6720 -0.40505490000000005 9.727517520000001 0.36927783000000003 0.010752 0.24502 -0.010921
6740 -0.45849978 9.91956789 0.46867275 0.004457 0.266356 -0.013129
6760 -0.45460521000000004 9.894876120000001 0.48079791 0.008758 0.270615 -0.016309
6780 -0.45999090000000004 9.88963758 0.37960776 0.017325999999999998 0.276981 -0.017325
6800 -0.52510968 9.95160735 0.37736127 0.026937 0.283322 -0.012994
6820 -0.5379804 9.81194238 0.43813422 0.035376 0.26092600000000005 -0.013974
6840 -0.60054858 9.78844743 0.5300441100000001 0.023535 0.237531 -0.014027
6860 -0.65055015 9.85864779 0.55893456 0.008542000000000001 0.221617 -0.017315999999999998
6880 -0.6102801 9.922118489999999 0.52196067 -0.00662 0.172663 -0.016291
6900 -0.5569921800000001 9.87242103 0.45879408 -0.013184 0.147076 -0.005622
6920 -0.50355711 9.77063247 0.41208867000000005 -0.013227 0.141733 -0.001342
6940 -0.5116405499999999 9.759704130000001 0.38828961 -0.013265 0.134272 -0.000265
6960 -0.5450141700000001 9.78185511 0.36913068000000004 -0.008974 0.138522 -0.001308
6980 -0.57974157 9.83679111 0.35147268 -0.002621 0.132091 0.003017
7000 -0.62465175 9.80581113 0.37451637000000004 0.000475 0.110766 0.005202
7020 -0.66775689 9.813590460000002 0.31330197000000004 0.003603 0.093715 0.004178
7040 -0.6319896300000001 9.82676529 0.27153099 0.012143 0.08413999999999999 -0.006431999999999999
7060 -0.5833418400000001 9.88125003 0.26539974000000005 0.017415 0.06602899999999999 -0.010645
7080 -0.5935148100000001 9.858794940000001 0.31165389 0.016305 0.056446 -0.010641
7100 -0.57854475 9.85146687 0.27662238 0.010851 0.034077 -0.006377000000000001
7120 -0.5472606600000001 9.85745097 0.22872015 0.007564 0.013852 -0.007442
7140 -0.50879565 9.845178660000002 0.25193061 0.004344 0.009602 -0.00746
7160 -0.42901092 9.82272357 0.17124336 -0.003196 -0.001046 -0.002157
7180 -0.39472497000000006 9.866731230000001 0.13247424000000002 -0.00865 -0.02872 -0.003228
7200 -0.49442400000000003 9.83934171 0.11735703 -0.011975 -0.052161 0.001051
7220 -0.54816318 9.818377739999999 0.09624591 -0.017434 -0.07028999999999999 0.010651
7240 -0.5269049100000001 9.85790223 0.10762551000000001 -0.022797 -0.075602 0.011688
7260 -0.53393868 9.83948886 0.15103476000000002 -0.023917 -0.08307300000000001 0.015962999999999998
7280 -0.52795458 9.83754648 0.17693316 -0.016487 -0.08631599999999999 0.02136
7300 -0.55893456 9.81373761 0.26494848000000004 -0.012392 -0.116192 0.029973000000000007
7320 -0.56911734 9.82556847 0.30775932000000006 0.004922 -0.067228 0.02469
7340 -0.58962024 9.829610190000002 0.33305931000000005 0.012836000000000002 0.023327 0.016083
7360 -0.5858826300000002 9.822272309999999 0.33500169 0.033423 0.072344 -0.0052
7380 -0.60654249 9.835299990000001 0.31928607000000003 0.044087 0.053204 -0.023261
7400 -0.56792052 9.8415882 0.3176379900000001 0.036604000000000005 0.054278 -0.019042
7420 -0.49487526 9.81329616 0.31644117000000005 0.032399000000000004 0.07662999999999999 -0.010554
7440 -0.5322906000000001 9.81898596 0.35805518999999997 0.039881 0.089349 -0.000904
7460 -0.55100808 9.847719450000001 0.38560167000000006 0.023984 0.132999 0.019225
7480 -0.52226478 9.829158930000002 0.34667559 0.024142 0.174519 0.025582
7500 -0.53468424 9.839783160000001 0.32512302000000004 0.02307 0.16497 0.017041
7520 -0.5276504700000001 9.74129076 0.33500169 -0.017031 0.032985 0.024408000000000003
7540 -0.55564821 9.736954740000002 0.32377905 -0.036829 -0.102224 0.021238
7560 -0.56687085 9.811500930000001 0.32363190000000003 -0.020004 -0.157673 0.020359
7580 -0.63871929 9.87765957 0.34203546 -0.006029 -0.134286 0.020426
7600 -0.78556518 9.90310671 0.37826379000000004 0.000525 -0.106586 0.014027
7620 -0.8195470199999999 9.82542132 0.48723327000000005 0.008099 -0.095908 0.001248
7640 -0.8207438400000001 9.88079877 0.49502241 0.021747 -0.150264 -0.003928
7660 -0.74664891 9.896524200000002 0.49756320000000004 0.027321 -0.08004299999999999 0.013112
7680 -0.65399346 9.90190989 0.32827203 0.025792 0.065859 0.024665
7700 -0.6059440800000001 9.858353490000002 0.2832147 0.014382 0.154253 0.040495
7720 -0.55429443 9.796079610000001 0.2803698 0.018043 0.245897 0.029721
7740 -0.50280174 9.808499070000002 0.19683765 0.009757 0.27904 0.007188
7760 -0.5313978900000002 9.889333470000002 0.17528508000000004 0.006340999999999999 0.209894 -0.014112
7780 -0.5417278200000001 9.938138219999999 0.22543380000000002 0.016663999999999998 0.127853 -0.019275
7800 -0.41358960000000006 9.804015900000001 -0.00808344 0.021965 0.130987 -0.00856
7820 -0.41299119 9.77063247 -0.34607718 0.026281 0.151174 0.001058
7840 -0.30042144 9.79069392 -0.36240102 0.023003 0.146873 0.013859
7860 -0.35566155000000005 9.86388633 -0.12020193000000001 0.014339 0.122385 0.018103
7880 -0.6316855199999999 9.88844076 0.03053853 0.011023 0.093646 0.014912
7900 -0.76550373 9.86553441 0.13531914 0.008703 0.046803 0.009615
7920 -0.79319736 9.763893 0.17198892 0.014925999999999997 0.009488 0.011843
7940 -0.6692578200000001 9.879307650000001 0.16330707 0.012985 0.051045 0.010708
7960 -0.8937891 10.009231289999999 0.44921952000000004 0.024022 0.128789 0.006412
7980 -1.08554517 9.97930098 0.7234482600000001 0.028486 0.17245 0.006387
8000 -1.3623147 9.93169305 0.77688333 0.032777999999999995 0.17776199999999998 0.006409999999999999
8020 -1.1951130600000002 9.561669660000002 0.8252368200000001 0.029534 0.163942 0.002133
8040 -0.86056263 9.57663972 0.59935176 0.026281 0.144808 -0.005343
8060 -0.42317397000000007 9.837840779999999 0.36867942 0.021936 0.13308299999999998 -1.7e-05
8080 -0.17303859 9.98139051 0.24683922000000003 0.013287 0.108608 0.001022
8100 -0.26794053 9.95639463 0.21479976 0.0013449999999999998 0.068148 0.006331
8120 -0.39712842 9.867928049999998 0.26105391000000006 -0.003076 0.038318 0.010612
8140 -0.47780586 9.82078119 0.24414147 -0.011745 0.008520999999999999 0.010589
8160 -0.49906413000000005 9.832307940000002 0.19010799 -0.019247 0.002151 0.011613
8180 -0.49203036 9.87511878 0.1588239 -0.026748 -0.00528 0.01157
8200 -0.44502084000000003 9.82631403 0.08607293999999999 -0.034207 -0.003123 0.011516
8220 -0.42556761000000004 9.883496520000001 0.18681183 -0.040593 0.002217 0.0136
8240 -0.6036975900000001 9.78934014 0.3381507 -0.043789 0.0011710000000000002 0.011443
8260 -0.69276258 9.76733631 0.42556761000000004 -0.045909 0.003314 0.010357
8280 -0.6117810300000001 9.83274939 0.33200964 -0.045913 0.001187 0.009292
8300 -0.59635971 9.791586630000001 0.2806641000000001 -0.034111 0.013938 0.007220999999999998
8320 -0.56373165 9.83320065 0.24892875000000003 -0.021318 0.007519 0.003046
8340 -0.45924534000000006 9.8478666 0.20462679 -0.003196 1.5e-05 -0.001091
8360 -0.41149026 9.866436929999999 0.14579622 0.012841 0.002111 -0.006322
8380 -0.39548034000000004 9.879003540000001 0.14490351 0.028848 -0.002184 -0.011546
8400 -0.38888802 9.85685256 0.14369688 0.043837 0.007359 -0.01359
8420 -0.43813422 9.83814489 0.18322137000000002 0.051339 0.013729 -0.014614
8440 -0.42556761000000004 9.779314320000001 0.18965673000000005 0.058754 0.004107 -0.012414
8460 -0.44173449000000004 9.72856719 0.21780162 0.059778 -0.00124 -0.008126999999999999
8480 -0.48050360999999997 9.736954740000002 0.19609209 0.057596 -0.005519 -0.001727
8500 -0.4939727400000001 9.78529842 0.22962267000000003 0.057519000000000015 -0.017258000000000003 0.003629
8520 -0.5225590800000001 9.76688505 0.25162650000000003 0.038479 0.032821 0.017318
8540 -0.55728648 9.79173378 0.25911153 0.088353 -0.040802 0.003874
8560 -0.5921708400000001 9.823626090000001 0.22572810000000001 0.058577 -0.015149 0.007906
8580 -0.5824393200000001 9.858049379999999 0.18097488 0.050133 0.001938 0.004621
8600 -0.60489441 9.87361785 0.21345579 0.044832 -0.003318 -0.008228000000000001
8620 -0.61327215 9.90550035 0.14654178 0.028729 -0.034121 -0.016847
8640 -0.6195603599999999 9.93603888 0.13022775 0.016931 -0.052172 -0.021179
8660 -0.67898934 9.94711437 0.06811083000000001 -0.004488000000000001 -0.075512 -0.02664
8680 -0.6557886900000001 9.98348985 0.027095220000000003 -0.016315 -0.104199 -0.035232
8700 -0.58872753 9.920774520000002 -0.0013439700000000003 -0.03249 -0.141432 -0.034229
8720 -0.6054928200000002 9.894719160000001 -0.0028449 -0.048651 -0.172286 -0.030029000000000007
8740 -0.6108785100000002 9.90116433 0.00523854 -0.049756 -0.178682 -0.027892
8760 -0.5872266 9.890235990000003 0.01241946 -0.049713 -0.160607 -0.019369
8780 -0.5843817000000001 9.85250673 0.058977720000000004 -0.040054 -0.142552 -0.013984
8800 -0.5477119200000001 9.883496520000001 0.07724394 -0.027242 -0.139405 -0.01283
8820 -0.5526463500000001 9.87556023 0.13217994000000002 -0.012229 -0.125596 -0.015948
8840 -0.63123426 9.739642680000001 0.055083150000000004 -0.007937999999999999 -0.118163 -0.013791
8860 -0.52106796 9.75776175 0.23276187000000004 -0.005693999999999999 -0.096852 -0.017006999999999998
8880 -0.57959442 9.756113670000001 0.22902426 -0.009827 -0.071254 -0.021342
8900 -0.5697157500000001 9.71000667 0.25791471 -0.013056 -0.08187799999999999 -0.025624
8920 -0.6390234 9.71000667 0.22917141000000002 -0.012153 -0.111735 -0.01917
8940 -0.59621256 9.743841360000001 0.24174783000000002 -0.006856999999999999 -0.109666 -0.008453
8960 -0.59695812 9.724525470000001 0.265851 -0.004584 -0.064988 0.005392
8980 -0.61776513 9.74324295 0.25147935000000005 -0.001158 -0.002199 0.018155
9000 -0.5945644800000001 9.7664436 0.15747012000000002 0.009722 0.04994 0.023505
9020 -0.58677534 9.84278502 0.07603731000000002 0.011946 0.072295 0.025628
9040 -0.558189 9.89053029 0.00987867 0.041217 0.156427 0.006497
9060 -0.49935843 9.85685256 -0.031136940000000002 0.066865 0.152131 -0.007205
9080 -0.5724135 9.8794548 -0.03517866 0.05635900000000001 0.198998 0.003343
9100 -0.5956141500000001 9.820477080000002 -0.01586277 0.043806 0.24807 -0.003217
9120 -0.52226478 9.89292393 -0.00209934 0.032926 0.198053 -0.006433
9140 -0.5171733900000002 9.899967509999998 -0.025143030000000004 -0.013208 0.156604 0.009321
9160 -0.5772007800000001 9.911641410000001 -0.046548450000000005 -0.088099 0.126969 0.025927
9180 -0.6036975900000001 9.8564013 -0.06780672000000001 -0.079765 0.059917 0.003639
9200 -0.59411322 9.85745097 -0.10987200000000001 -0.055462 -0.0029760000000000003 -0.006793
9220 -0.55728648 9.92765133 -0.09714843000000001 -0.062988 -0.0072450000000000014 0.0017059999999999998
9240 -0.55175364 9.995310900000002 -0.06556023 -0.053362 0.01184 0.015635
9260 -0.6093873900000002 9.937981259999999 -0.03458025 -0.048258 -0.028701 0.026405
9280 -0.68632722 9.84083283 0.00958437 -0.045048000000000005 -0.021277 0.031759
9300 -0.7328756700000001 9.81119682 0.05718249 -0.075901 -0.003055 0.030452
9320 -0.8182030499999999 9.845629920000002 0.09684432000000001 -0.117456 0.014113999999999996 0.035481
9340 -0.87553269 9.85056435 0.11675862 -0.093855 0.022635 0.015338999999999997
9360 -0.8207438400000001 9.8794548 0.24324876 -0.071609 -0.035939 -0.007932
9380 -0.79903431 9.91956789 0.029341710000000003 -0.066275 -0.044446 -0.016429
9400 -0.84753495 9.72932256 0.02769363 -0.06937 -0.010389 -0.005812
9420 -0.74230308 9.83065986 -0.0023936400000000003 -0.07130700000000001 0.040721 0.001586
9440 -0.65189412 9.84098979 -0.10073889000000001 -0.090712 -0.009258 -0.003826
9460 -0.57569985 9.8387433 -0.2573163 -0.08632000000000001 0.006753 -0.015567
9480 -0.36284247000000003 9.79742358 -0.19683765 -0.06590399999999999 0.245429 -0.046708
9500 -0.00074556 10.15997175 -0.13486788 -0.107075 -0.08167 0.00363
9520 -0.01152675 9.779314320000001 -0.20761884 -0.086727 -0.055147 0.013352
9540 -0.1707921 9.69878403 -0.3379937400000001 -0.121828 -0.037954 0.006675
9560 -0.31464594 9.73111779 -0.19714176 0.017353 0.140244 0.077922
9580 -0.43514217000000005 9.84951468 -0.18965673000000005 0.044008 -0.035881 0.143495
9600 -0.64710684 9.78993855 -0.11077452 -0.07487200000000001 -0.085851 -0.04421
9620 -0.7789826700000001 9.76180347 -0.08053029000000002 -0.175322 -0.220286 0.095198
9640 -0.7836228 9.76613949 0.025751250000000003 0.006629 -0.124909 0.062163
9660 -0.68183424 9.79758054 0.27078543 -0.05948 -0.354775 0.060928
9680 -0.67554603 9.841284090000002 0.25088094 -0.116237 -0.186176 0.038951
9700 -0.70428933 9.83664396 0.15851979 -0.135655 -0.020891 0.014034
9720 -0.7434999 9.74967831 0.14804271000000002 -0.215463 0.013524 0.001682
9740 -0.81744768 9.81777933 0.25701219000000003 -0.08162799999999999 -0.161475 -0.040956
9760 -0.51477975 9.58651839 -0.024848730000000003 0.019911 -0.112857 -0.032831
9780 -0.51537816 9.692790120000002 0.22153923 -0.056992 0.124888 -0.013377000000000002
9800 -1.27190574 10.65229641 1.12101813 -0.030843 0.005497999999999999 -0.016246
9820 -0.41553198 9.9864819 0.29010132000000005 -0.021275 0.022411 0.008368
9840 -0.47570652 9.88199559 0.38589597 0.002388 0.046903 -0.009657
9860 -0.7117743599999999 9.71899263 0.5095412100000001 -0.009487 -0.014718 -0.04064
9880 -0.6253973100000001 8.44663563 0.7530842700000001 0.00356 0.051237 -0.028883
9900 -1.00201302 9.337579830000001 0.6655202100000001 0.03628 0.231069 -0.0075200000000000015
9920 -0.56072979 10.979970029999999 0.5252568299999999 0.081772 0.136139 -0.016694999999999998
9940 -0.4543011 10.57446387 1.1006623800000002 0.105663 -0.022612 -0.03128
9960 -0.75697884 8.39349486 0.8405011800000001 0.07600599999999999 0.031795 -0.025147
9980 -1.01369673 10.29334851 0.89813493 -0.024154 0.074697 -0.010947
10000 -0.6632737200000001 10.257424290000001 0.89574129 -0.02103 0.078862 0.010434
10020 -0.57899601 9.656267490000001 0.8556183900000001 0.036873 0.139397 0.006488
10040 -0.7234482600000001 10.105781310000001 1.03225725 0.012625 -0.05007 -0.01053
10060 -0.39532338 9.992770109999999 0.91834353 0.043784 -0.023457 -0.032779
10080 -0.37257399 9.52020279 0.69231132 0.051674 0.077688 -0.025376
10100 -0.96204708 9.691299 1.15619679 -0.022131 0.07353 0.01257
10120 -0.6487549200000001 9.81 0.7352693100000001 -0.031857 0.031013 -0.002399
10140 -0.57256065 9.911043 0.98210853 -0.007219 0.012980000000000002 -0.042796
10160 -0.53618517 9.65896524 0.82373589 -0.039867 -0.107373 -0.020437
10180 -0.6372281700000001 9.77287896 0.8201454300000001 0.000669 -0.112824 -0.02442
10200 -0.42466509 9.9429255 0.68048046 0.041406 -0.129767 -0.085002
10220 -0.40535900999999996 9.721386270000002 0.9348047100000001 0.050013 -0.080927 -0.05189
10240 -0.35910486 10.200084839999999 1.13763627 0.054559 0.002064 -0.0306
10260 -0.15522363 9.86897772 0.6536893500000001 0.066227 -0.009708 -0.027299
10280 -0.50908995 9.41631489 0.21360294000000002 0.079305 -0.167488 -0.008845
10300 -0.4128440400000001 9.88424208 0.22632651000000004 0.042233 -0.088604 0.010023
10320 -0.4176313200000001 9.857303820000002 0.51732054 0.043981 0.092367 0.039713
10340 -0.58004568 9.77976558 0.92582856 0.078996 0.020987 0.011207
10360 -0.6360313500000001 9.85011309 0.69036894 0.147078 -0.011257 0.023474
10380 -0.50504823 9.833504759999999 0.8298769500000001 0.142701 -0.04317 0.016007
10400 -0.41882814000000007 9.858049379999999 0.7738912800000001 0.131181 0.037699 0.048938
10420 -0.8313680700000001 9.71734455 0.6616256400000001 0.256263 0.113885 0.06894199999999999
10440 -0.82059669 9.93185001 0.5198711400000001 0.369901 0.212653 0.046108
10460 -0.86999004 9.599085 0.70039476 0.292459 0.023505 -0.004397
10480 -0.8978308200000001 10.173744990000001 0.5536960200000001 0.196816 0.118602 0.006564
10500 -0.7051820400000001 9.75895857 0.6385721400000001 0.106233 0.126436 -0.009034
10520 -0.45790137000000003 9.56810502 0.5402268900000001 0.104926 0.04559 -0.036713
10540 -0.5396284800000001 9.6767802 0.5313978900000002 0.046005 -0.002167 -0.030654
10560 -0.6911145000000001 9.628730820000001 0.448317 0.017372 0.046893 -0.020235
10580 -0.7849667699999999 9.949655159999999 0.567018 -0.035307 -0.027553 -0.0055520000000000005
10600 -0.6860231099999999 10.34678358 0.5786919 -0.077174 -0.055223 0.024101
10620 -0.5809383900000001 9.62632737 0.49457115 -0.081336 0.00218 0.058181
10640 -0.89888049 9.407790000000002 0.7396151400000001 -0.079092 0.025612 0.057099
10660 -0.6590750400000001 10.28271447 0.89574129 -0.034164 0.042538 0.047777
10680 -0.38904498 10.00205037 0.83076966 -0.022447 0.01065 0.020126
10700 -0.6483036600000001 9.497002140000001 0.38200140000000005 -0.051559 -0.064853 0.012542
10720 -1.0583028 9.787996170000001 0.52076385 -0.035149 0.005479 -0.00773
10740 -0.65653425 9.954148140000001 0.6753988800000001 -0.037263 0.017175 -0.000282
10760 -0.64650843 9.959386680000001 1.0207305 -0.04986 0.043928 -0.019633
10780 -0.5965068599999999 9.57019455 0.32542713 -0.027355 0.092745 0.007168000000000002
10800 -0.8628091200000001 9.72497673 0.13861530000000005 -0.004079999999999999 0.103098 0.061796
10820 -0.56821482 9.66614616 -0.12484206 -0.002947 0.115886 0.059651
10840 -0.40985199 9.471555 0.13486788 0.005603 0.12754 0.068242
10860 -0.38290392 9.992318850000002 0.17035065000000002 -0.052351 0.15809700000000002 -0.063593
10880 -0.5330459700000001 9.935734770000002 0.36329373000000004 -0.01426 0.17465799999999998 0.024246
10900 -0.54321894 9.90550035 0.19938825000000002 0.002225 0.004318 -0.016013
10920 -0.7048877400000001 9.66749994 0.13381821000000002 -0.011846 -0.010667 0.013818
10940 -0.76161897 9.73051938 0.02664396 -0.042291 0.089614 0.003863
10960 -0.9367569000000001 10.14291216 0.11795544000000001 -0.128913 0.064269 0.023586000000000003
10980 -0.82478556 9.59564169 0.15701886 -0.074016 -0.075432 0.013466999999999998
11000 -0.6976970100000001 9.75731049 -0.01886463 -0.072074 -0.13078199999999998 0.000732
11020 -0.9232779600000001 10.017913140000003 -0.22304016000000004 -0.080125 -0.010428 0.013341
11040 -0.67000338 9.61885215 -0.28889469 -0.103534 0.0013800000000000002 0.011025
11060 -0.7234482600000001 10.232869860000001 -0.19190322 -0.099506 -0.04341 0.019657
11080 -0.49771035 9.939335040000001 -0.12094749 -0.06341000000000001 -0.10205 0.0007559999999999999
11100 -0.51972399 9.77960862 -0.040711500000000005 -0.058138 -0.128649 -0.011992
11120 -0.6529437900000001 9.948311190000002 0.018413370000000002 -0.058855 -0.038149 0.0007059999999999999
11140 -0.5902186500000001 9.47844162 0.24803604 -0.061835 0.022536 0.012358
11160 -0.5291514 9.73979964 0.22123512000000004 -0.064251 -0.04349 0.009221
11180 -0.5936619599999999 9.90190989 0.3526695 -0.071882 -0.069073 0.019883
11200 -0.8135629200000001 10.99987452 0.35461188 -0.088823 -0.057228 0.002658
11220 -0.47751156 9.14777595 0.39697146000000005 -0.111332 -0.07209700000000001 0.011065
11240 -0.30985866000000006 9.421259130000001 -0.058977720000000004 -0.114528 -0.049801 0.032379000000000005
11260 -0.1995354 9.85400766 0.01856052 -0.111668 -0.111652 0.046365
11280 -0.49157910000000005 11.02412484 0.48094506000000004 -0.1215 -0.152142 0.05703
11300 -0.7661021400000001 9.24762213 0.05568156 -0.128088 -0.190482 0.060238
11320 -0.59426037 9.51930027 0.034727400000000005 -0.112788 -0.111696 0.058108000000000014
11340 -0.17394111 10.018962810000001 0.12364524000000002 -0.087674 -0.001987 0.039983
11360 -0.29833191000000003 9.84382488 0.15851979 -0.042818 -0.007406 0.02428
11380 -0.48110202 9.88095573 0.28081125 -0.018319 -0.031929 0.008459
11400 -0.6276438 9.75162069 0.37541889 -0.024686000000000003 -0.018083 0.014806
11420 -0.5846858100000001 9.743684400000001 0.26614530000000003 -0.038373 0.023506 0.015725
11440 -0.61506738 9.924060870000002 0.36898353 -0.03501 0.056531 0.012502
11460 -0.5373819900000001 9.765246780000002 0.47900268000000007 -0.007339 0.035154000000000005 0.006313
11480 -0.59815494 9.87047865 0.46343421000000007 0.016075 0.011679 -0.004176
11500 -0.5936619599999999 10.103093370000002 0.34982460000000004 0.019414 0.047866000000000006 0.001142
11520 -0.52540398 9.803260530000001 0.36329373000000004 0.004531 0.066002 0.007425
11540 -0.5701670100000001 9.79173378 0.33155838000000004 -0.01275 0.01919 0.007364
11560 -0.44053767000000005 9.7897914 0.39098736000000006 -0.025677 -0.015889 -0.00015900000000000002
11580 -0.53917722 9.85955031 0.50579379 -0.014888 0.018132 0.00735
11600 -0.66282246 9.82751085 0.57914316 -0.001115 -0.002161 0.008541
11620 -0.73826136 9.9864819 0.70833105 0.005229 -0.01921 0.004334
11640 -0.68063742 9.73815156 0.7038380700000001 -7.2e-05 -0.005369 0.010689
11660 -0.70173873 9.66913821 0.9172938600000001 -0.00965 0.006357 0.017016
11680 -0.55400013 9.724829580000002 1.02417381 -0.012817 0.015947 0.019118
11700 -0.49143195 9.85715667 0.9617527800000001 -0.020337 0.008499 0.023348
11720 -0.38844657000000005 9.88844076 0.76161897 -0.014845 0.044695 0.024408000000000003
11740 -0.4316988600000001 9.81688662 0.67449636 0.004555 0.082999 0.019153
11760 -0.49502241 9.86223825 0.73302282 0.006943 0.124597 0.004162
11780 -0.5070004200000001 9.899967509999998 0.8370578700000001 0.016663999999999998 0.146951 -7.2e-05
11800 -0.5123861099999999 9.843677730000001 0.8702941500000001 0.022008 0.152245 0.003163
11820 -0.48124917000000006 9.82241946 0.79919127 0.027362 0.159671 0.006396
11840 -0.44157753 9.79682517 0.8063721899999999 0.032806 0.189458 0.011737
11860 -0.43110045 9.800121330000001 0.7535355300000001 0.043485 0.187308 0.007541
11880 -0.4176313200000001 9.842932170000001 0.6385721400000001 0.051001 0.198995 0.008647
11900 -0.34159401 9.85340925 0.6548861700000002 0.040183 0.162826 0.005413
11920 -0.30462012 9.82661814 0.7493368500000002 0.022965 0.12668 0.002135
11940 -0.36554022 9.79218504 0.7430584500000001 0.004708 0.101172 0.003108
11960 -0.35446473 9.80565417 0.6911145000000001 -0.005051 0.064991 0.002018
11980 -0.37018035000000005 9.80626239 0.7274899800000001 -0.008357999999999999 0.046872 0.007359
12000 -0.46089342000000005 9.78110955 0.77104638 -0.006334 0.026607 0.011672
12020 -0.5342427900000001 9.77646942 0.8464852800000001 -0.002095 0.020201 0.01171
12040 -0.64440909 9.77871591 0.87133401 0.000105 0.041473 0.018107
12060 -0.63572724 9.76988691 0.9657945 0.005507 0.05849 0.02026
12080 -0.62075718 9.69683184 0.96459768 0.016209 0.064849 0.019258
12100 -0.4972689 9.73006812 0.91339929 0.011889 0.042535 0.008574
12120 -0.51028677 9.751326390000001 0.8020361700000002 0.00433 0.014895 0.001079
12140 -0.54816318 9.85295799 0.6965001900000001 0.001225 0.038333 0.003164
12160 -0.52315749 9.899967509999998 0.6652161000000001 -0.008319 0.06176 0.01375
12180 -0.46702467 9.88888221 0.68452218 -0.011433 0.089434 0.022238
12200 -0.43125741 9.90924777 0.6198644700000001 -0.01139 0.103265 0.026494
12220 -0.48409407000000004 9.895170420000001 0.6577310700000001 -0.009285 0.091561 0.021182
12240 -0.48199473000000004 9.84532581 0.5709125700000002 -0.010381 0.080929 0.016915
12260 -0.45266283000000007 9.796530870000002 0.49442400000000003 -0.009362 0.069212 0.015869
12280 -0.42332112000000005 9.834995880000001 0.50085936 -0.004028 0.059644 0.006305
12300 -0.40999914 9.871675470000001 0.55010556 0.004497999999999999 0.054301 0.003166
12320 -0.42765714000000005 9.87211692 0.5748071400000002 0.005536 0.046844 0.002115
12340 -0.43470072 9.870625800000001 0.53288901 0.007612000000000002 0.036176 0.00428
12360 -0.40864536 9.85190832 0.5695686 0.008707 0.045747 0.00748
12380 -0.40430934 9.84922038 0.6227093699999999 0.003397 0.051092 0.007436
12400 -0.4176313200000001 9.76659075 0.71820972 -0.003009 0.050049 0.007392
12420 -0.4316988600000001 9.77032836 0.82089099 -0.010501 0.044749 0.007347
12440 -0.46642626 9.76404996 0.83421297 -0.013711 0.040507 0.005193
12460 -0.4337982 9.73724904 0.84184515 -0.010477 0.045831 0.003073
12480 -0.39577464 9.73815156 0.8693916300000001 -0.002994 0.050062 0.004188
12500 -0.41104881000000004 9.79173378 0.75263301 0.0033590000000000004 0.038326 0.003179
12520 -0.39053610000000005 9.828707670000002 0.69859953 0.003354 0.03726 0.00318
12540 -0.43753581 9.79802199 0.6616256400000001 -0.003057 0.035152 0.003138
12560 -0.44846415 9.845178660000002 0.59845905 -0.005195 0.035155 0.004192
12580 -0.44577621000000006 9.917772660000002 0.5550498 -0.000913 0.041519 0.007418000000000002
12600 -0.45535077 9.875717190000001 0.5397756300000001 0.003344 0.038313 0.006384
12620 -0.47077209 9.88634142 0.51088518 0.008679000000000001 0.030867 -0.001047
12640 -0.46957527000000004 9.85595004 0.5472606600000001 0.003296 0.022355 0.001063
12660 -0.46957527000000004 9.84831786 0.58019283 -0.001019 0.015961000000000003 0.005314
12680 -0.44038071 9.84113694 0.58992435 -0.002086 0.017026 0.006372999999999999
12700 -0.44157753 9.80610543 0.58109535 -0.001038 0.0117 0.005319
12720 -0.43035489 9.80985285 0.64560591 -0.001033 0.012766 0.005318
12740 -0.39412656000000007 9.83664396 0.6706017900000001 -0.001033 0.014888 0.007451
12760 -0.39682431 9.80925444 0.65937915 0.003249 0.017006999999999998 0.006409999999999999
12780 -0.40565331 9.80461431 0.6810788700000001 0.009626 0.005293 6e-05
12800 -0.42241860000000003 9.815689800000001 0.70652601 0.004335 0.011716 -0.003189
12820 -0.42077052000000004 9.81449298 0.71820972 -0.003153 0.013847 0.003165
12840 -0.4090966200000001 9.837840779999999 0.67748841 -0.011692 0.015994 0.006307
12860 -0.40820391000000006 9.84697389 0.5944173300000001 -0.003138 0.017043 0.003161
12880 -0.42136893000000003 9.838890450000001 0.5953100400000001 0.003272 0.01809 0.002136
12900 -0.4016115900000001 9.8418825 0.5840874 0.0054210000000000005 0.021278 0.002147
12920 -0.39352815 9.84083283 0.65339505 0.00965 0.013802000000000002 0.003254
12940 -0.41119596 9.83320065 0.66701133 0.00321 0.005302 0.00322
12960 -0.4251163500000001 9.787397760000001 0.6836294700000001 0.004301 0.010625 0.003221
12980 -0.40550616000000006 9.81823059 0.6247989 0.001124 0.014901 0.002125
13000 -0.37601730000000005 9.808499070000002 0.5855785200000001 0.001134 0.018093 0.003189
13020 -0.38096154000000004 9.822272309999999 0.5998030200000001 0.001115 0.013832 0.003195
13040 -0.37960776 9.836948069999998 0.65743677 0.001129 0.018089 0.004258
13060 -0.39742272 9.86867361 0.6198644700000001 0.003311 0.029795 0.005326
13080 -0.38679849 9.84922038 0.65144286 0.005473 0.032996 0.002132
13100 -0.40117014 9.820477080000002 0.67329954 0.003344 0.033008 0.001049
13120 -0.42466509 9.774968490000001 0.6976970100000001 0.004425999999999999 0.035139 -1.4e-05
13140 -0.41897529 9.75296466 0.7048877400000001 0.002306 0.038342 -3.3e-05
13160 -0.40266126 9.83274939 0.6536893500000001 0.003378 0.042587 0.003174
13180 -0.42736284 9.85400766 0.6460571700000001 0.004435000000000001 0.037269 -1.7e-05
13200 -0.42750999 9.827814960000001 0.67509477 0.002292 0.034085000000000004 -0.0010960000000000002
13220 -0.41089185000000006 9.84697389 0.6813829800000001 0.003383 0.042591 0.002105
13240 -0.41239278 9.82766781 0.6694049700000001 0.006593000000000001 0.045771 0.003192
13260 -0.39637305000000006 9.8415882 0.65787822 0.005531 0.04684 0.003183
13280 -0.44607051 9.84637548 0.62794791 0.003392 0.04366 0.001036
13300 -0.43574058 9.82661814 0.66072312 0.001239 0.041529 0.00316
13320 -0.4337982 9.80925444 0.67584033 0.00444 0.039396 0.001049
13340 -0.41568894000000006 9.82406754 0.70833105 0.002302 0.039399 0.002102
13360 -0.42586191 9.81389457 0.71641449 0.00765 0.040454 2e-06
13380 -0.42825555000000004 9.833504759999999 0.7144623 0.005531 0.045779 0.002116
13400 -0.43365105000000004 9.811343970000001 0.6899176800000001 0.004507 0.057492 0.004231
13420 -0.45071064 9.82062423 0.7036909200000001 0.002421 0.059664 -0.004332
13440 -0.44757144 9.8213796 0.7006890600000001 0.001311 0.051142 -0.003261
13460 -0.4451778 9.82766781 0.6824326500000001 -0.004018 0.052226 -0.0033
13480 -0.43993926 9.8159841 0.70982217 -0.000851 0.043697 -0.004335
13500 -0.42136893000000003 9.843383430000001 0.69979635 -0.001918 0.046883 -0.001142
13520 -0.42721569 9.82766781 0.7018858800000001 -0.004037 0.052209000000000005 0.000973
13540 -0.42182019000000004 9.7954812 0.65653425 0.001283 0.052177 0.004215
13560 -0.40835106000000004 9.80925444 0.6297431400000001 0.001283 0.051116 0.003148
13580 -0.39667716000000003 9.843677730000001 0.6710530499999999 0.001283 0.046872 -0.001119
13600 -0.39936510000000003 9.847268190000001 0.67329954 0.000168 0.035162 -0.00218
13620 -0.41029344 9.83379906 0.6629696099999999 0.002273 0.030885000000000006 -2.4e-05
13640 -0.42750999 9.8418825 0.66222405 0.004411 0.034065 0.002124
13660 -0.42346827 9.819133110000001 0.6698562300000002 0.0012109999999999998 0.037259 0.005302
13680 -0.42122178 9.820182780000001 0.6649218 0.000168 0.044711 0.007421
13700 -0.41045040000000005 9.80101404 0.65653425 0.001244 0.047899 0.008493
13720 -0.41808258000000004 9.80820477 0.6765957 0.0023350000000000003 0.047917 0.00316
13740 -0.43619184 9.859246200000001 0.6837766200000001 0.0034020000000000005 0.046852 0.0021
13760 -0.43679025000000005 9.858353490000002 0.69545052 0.004469 0.044726 -2.6e-05
13780 -0.43245423 9.791135370000001 0.72838269 0.002349 0.046868 -0.001112
13800 -0.41793543000000005 9.846669780000001 0.7062317100000001 0.001302 0.053255 0.001009
13820 -0.46223739 9.80969589 0.67898934 0.001268 0.044737 -4.8e-05
13840 -0.44008641 9.77960862 0.67315239 0.002282 0.038321 0.005308
13860 -0.39428352 9.81628821 0.62420049 0.000129 0.036189 0.0074319999999999985
13880 -0.39832524 9.81868185 0.6182163900000001 0.003301 0.027664 0.005329
13900 -0.41613039 9.843226470000001 0.62510301 0.004372999999999999 0.029787 0.006402
13920 -0.41449212 9.86478885 0.6497947800000001 0.006506999999999999 0.03084 0.007483
13940 -0.4192794 9.84382488 0.6277909500000002 0.006555 0.039371 0.005336
13960 -0.41897529 9.827069400000001 0.6149202300000001 0.005483 0.033005 -4e-06
13980 -0.43125741 9.79053696 0.60563997 0.002263 0.029816 0.001046
14000 -0.42077052000000004 9.78874173 0.6283893599999999 -0.002043 0.024491 0.004227000000000001
14020 -0.43424946000000003 9.85939335 0.6634208699999999 0.001115 0.017015 0.0063950000000000005
14040 -0.4263131700000001 9.83425032 0.6623712000000002 0.004325 0.019134 0.0064150000000000006
14060 -0.47481381 9.84083283 0.6635680199999999 0.009698 0.028699 0.007509
14080 -0.46582785000000004 9.84922038 0.7165616400000001 0.00975 0.038295 0.00536
14100 -0.45460521000000004 9.79398027 0.68303106 0.005473 0.035118 0.004266
14120 -0.47496096000000004 9.78170796 0.65129571 0.002287 0.035142 0.001039
14140 -0.46194309 9.84637548 0.64635147 0.0065260000000000006 0.024491 -0.00319
14160 -0.43649595 9.82616688 0.62929188 0.009755 0.036177 0.002158
14180 -0.4451778 9.81269775 0.6412698900000001 0.008669 0.030859 0.001089
14200 -0.39443067000000004 9.851614020000001 0.6159699000000001 0.007626000000000002 0.041494 0.006409000000000001
14220 -0.38544471 9.83274939 0.6134291099999999 0.002273 0.041495 0.010645
14240 -0.40655583 9.815091390000003 0.6487549200000001 0.004397 0.039357 0.010662
14260 -0.4107447 9.839037600000001 0.65459187 0.00977 0.043617 0.006422
14280 -0.40894947000000004 9.85984461 0.6481565100000001 0.010846 0.043622 0.004293
14300 -0.41478642000000004 9.82646118 0.64859796 0.016204 0.044685 5.600000000000001e-05
14320 -0.41509053000000007 9.77960862 0.6890151600000001 0.015113 0.039363 5.5e-05
14340 -0.4128440400000001 9.818829 0.6730052400000001 0.011922 0.043626 0.002164
14360 -0.41658165 9.83814489 0.6566814000000001 0.01088 0.050017 0.003217
14380 -0.41913225000000004 9.82856052 0.6616256400000001 0.010851 0.046809 0.006425
14400 -0.44742429 9.825715620000002 0.6441147900000002 0.008688 0.041486 0.007484999999999999
14420 -0.44217594000000005 9.80445735 0.65743677 0.005531 0.051084 0.007451
14440 -0.42197715 9.80655669 0.6709058999999999 0.010822 0.037234 0.003233
14460 -0.43934085000000006 9.921215970000002 0.65519028 0.012946 0.035095999999999995 0.00325
14480 -0.4568517 9.854753220000003 0.65055015 0.011894 0.038296 0.003239
14500 -0.45370269 9.817485029999999 0.71206866 0.007654999999999999 0.046824 0.005335
14520 -0.42541065000000006 9.77677353 0.7234482600000001 0.008741 0.052143 0.006404000000000001
14540 -0.42750999 9.75895857 0.67150431 0.008693000000000001 0.040429 0.00535
14560 -0.40176855 9.771682140000001 0.60698394 0.0075299999999999985 0.020188 0.006436
14580 -0.42676443000000003 9.835594290000001 0.63258804 0.006444 0.018053 0.008568000000000001
14600 -0.47242017000000003 9.88095573 0.6210612900000001 0.008597 0.021246 0.0075099999999999984
14620 -0.44891541000000007 9.86627997 0.63483453 0.010774 0.031887 0.008579999999999999
14640 -0.45295713 9.884399040000002 0.64306512 0.010803 0.038278 0.008572
14660 -0.46089342000000005 9.839940120000001 0.6730052400000001 0.00866 0.038277 0.010694
14680 -0.45206442 9.79353882 0.62420049 0.0033159999999999995 0.032982 0.007458
14700 -0.43215012 9.823920390000001 0.6095345400000001 0.00011 0.031928 0.007437
14720 -0.42661728 9.866878380000001 0.6122224800000001 0.00122 0.040451 0.006365999999999999
14740 -0.41268708000000004 9.84592422 0.6506973 0.005516 0.044705 0.004254
14760 -0.45670455000000004 9.82497006 0.6450075000000001 0.00977 0.041495 0.004288
14780 -0.41718006 9.80550702 0.5996558700000001 0.009765 0.040429 0.004289
14800 -0.40101318 9.850711500000001 0.6637151700000001 0.010798 0.035091000000000004 0.00644
14820 -0.41913225000000004 9.79428438 0.63826803 0.008645 0.030837 0.00643
14840 -0.42227145000000005 9.82497006 0.60788646 0.007520999999999998 0.021241 0.009639
14860 -0.4337982 9.84847482 0.6017454 0.005363000000000001 0.014861 0.008564
14880 -0.41268708000000004 9.834397469999999 0.62809506 0.001144 0.022346 0.00532
14900 -0.39816828 9.76688505 0.6198644700000001 -0.003086 0.034066 0.008481
14920 -0.40835106000000004 9.82511721 0.62001162 -0.002009 0.040436 0.012753
14940 -0.39173292000000004 9.844727400000002 0.5812425 -0.002057 0.030845 0.013833000000000002
14960 -0.41598324 9.82542132 0.6421626 0.001115 0.021259 0.010663
14980 -0.40521186000000003 9.81 0.6316855199999999 -0.000976 0.02661 0.006368
15000 -0.39068325000000004 9.80790066 0.64261386 -0.004152 0.031947 0.006339
15020 -0.42676443000000003 9.823773240000003 0.63139122 0.001187 0.029811 0.003175
15040 -0.43289568 9.79488279 0.58318488 0.011851 0.019159 -0.006351
15060 -0.43439661 9.813139200000002 0.5550498 0.011822 0.011707 -0.007409999999999998
15080 -0.43229727000000007 9.80416305 0.55938582 0.0065450000000000005 0.02557 -0.006396
15100 -0.42092748 9.844727400000002 0.55280331 0.001235 0.035159 -0.002173
15120 -0.42676443000000003 9.83738952 0.5695686 0.001244 0.03835 -0.001109
15140 -0.41253993 9.87556023 0.52001829 0.003344 0.029825 -0.002151
15160 -0.4281084 9.91208286 0.50669631 0.0065260000000000006 0.024491 -0.00319
15180 -0.41568894000000006 9.82886463 0.52286319 0.010779 0.019159 -0.00529
15200 -0.41658165 9.808499070000002 0.61642116 0.00864 0.018101 -0.005304
15220 -0.43993926 9.836496810000002 0.62420049 0.005464 0.022377 -0.0064
15240 -0.4107447 9.78529842 0.621954 0.008712000000000001 0.033019 -0.006391
15260 -0.40789980000000003 9.77467419 0.6198644700000001 0.009817 0.040476 -0.007461
15280 -0.3924882900000001 9.804015900000001 0.6255444600000001 0.009813 0.043655 -0.003192
15300 -0.38140299 9.81494424 0.6032463299999998 0.006559000000000001 0.031948000000000004 -0.0032
15320 -0.37706697 9.81434583 0.60833772 0.002234 0.024485 0.002121
15340 -0.37391796 9.85266369 0.6478524 0.005445 0.027665 0.003207
15360 -0.38245266 9.807007950000001 0.66416643 0.00445 0.041526 0.001046
15380 -0.37587015 9.82212516 0.65263968 0.00554 0.04791 0.002114
15400 -0.39816828 9.79218504 0.6768900000000001 0.006606999999999999 0.048967 0.003188
15420 -0.39038895 9.80670384 0.59276925 0.004425999999999999 0.037261 0.00212
15440 -0.37482048 9.85400766 0.50774598 0.004386999999999999 0.027678 0.001063
15460 -0.38051028000000003 9.858353490000002 0.47346984000000003 0.004368 0.023417 0.001069
15480 -0.38964339 9.85431177 0.5123861099999999 0.004368 0.0266 0.004268999999999999
15500 -0.393381 9.86239521 0.51223896 0.0022440000000000003 0.034043000000000004 0.009586
15520 -0.4167288 9.85715667 0.5333402700000001 0.005445 0.030848 0.006408
15540 -0.44666892 9.8478666 0.5513023800000001 0.002206 0.023399 0.007462999999999998
15560 -0.43544628 9.84802356 0.5468094 -0.002047 0.025548 0.006362
15580 -0.47914983 9.87436341 0.54936 0.0033159999999999995 0.027677 0.002124
15600 -0.48139632000000004 9.813590460000002 0.54936 -0.00199 0.036209 0.004213000000000001
15620 -0.49352148 9.79758054 0.5996558700000001 -0.001971 0.04047 0.004207
15640 -0.49277592000000003 9.847572300000001 0.5858826300000002 0.00015800000000000002 0.037276 0.00209
15660 -0.44038071 9.7784118 0.5724135 0.003354 0.038321 0.004247
15680 -0.4504163400000001 9.84532581 0.57569985 0.00975 0.036173 0.003226
15700 -0.43185582000000006 9.91313253 0.57435588 0.018266 0.030821 0.002225
15720 -0.43724151 9.85909905 0.5828905799999998 0.020381 0.025491 0.001178
15740 -0.44577621000000006 9.80131815 0.5686660799999999 0.025686 0.019081 0.001223
15760 -0.44681607 9.80490861 0.55713933 0.024653 0.026542000000000003 0.001206
15780 -0.42901092 9.81119682 0.57361032 0.024672 0.026559 -0.003066
15800 -0.42825555000000004 9.86194395 0.55175364 0.021395 0.007404000000000002 -0.005201
15820 -0.44157753 9.868379310000002 0.54321894 0.011745 0.001029 -0.0009880000000000002
15840 -0.42241860000000003 9.87541308 0.55010556 0.002143 0.0042450000000000005 0.002146
15860 -0.39787398 9.89277678 0.5587874100000001 0.005382 0.011695 0.001091
15880 -0.39996351 9.87720831 0.5998030200000001 0.008621 0.023389 0.004303
15900 -0.39756987000000005 9.80490861 0.6559358399999999 0.014008 0.035088 0.004326
15920 -0.39787398 9.791586630000001 0.65399346 0.017175 0.02762 0.004357
15940 -0.4252635 9.759851280000001 0.67779252 0.016065 0.014854 0.001161
15960 -0.41463927 9.77601816 0.6586335900000001 0.0074870000000000015 0.005296 0.001114
15980 -0.39383226000000005 9.76419711 0.63962181 0.005406 0.010655 -0.0053170000000000005
16000 -0.40804695 9.82631403 0.6081807600000001 0.012898 0.019139 -0.002071
16020 -0.40220999999999996 9.85281084 0.5496543 0.012916999999999998 0.025522 5.8e-05
16040 -0.3962259 9.88469334 0.5300441100000001 0.010755 0.023381 0.004318
16060 -0.40700709 9.90909081 0.5225590800000001 0.003268 0.021269 0.006405
16080 -0.42421383 9.86897772 0.51298452 -0.001024 0.014896 0.005315
16100 -0.42272271 9.842932170000001 0.5192727300000001 -0.004248 0.010642 0.006365999999999999
16120 -0.44472654 9.850711500000001 0.5376861000000001 -0.001052 0.009566 0.00639
16140 -0.42182019000000004 9.82062423 0.55204794 0.003244 0.017003 0.007478
16160 -0.42901092 9.787544910000001 0.57315906 0.005416 0.025518 0.007483
16180 -0.41509053000000007 9.838890450000001 0.5793001200000001 0.006502 0.026592 0.0042840000000000005
16200 -0.41643450000000004 9.86883057 0.50459697 0.006502 0.02447 0.002151
16220 -0.45310428 9.832602240000002 0.48603645 0.008636 0.022341 3.2e-05
16240 -0.43245423 9.801171 0.512082 0.004349 0.019156 0.001074
16260 -0.42257556000000007 9.759409830000001 0.5773479300000001 -0.002023 0.023448 -0.001112
16280 -0.41313834 9.78574968 0.5740517699999999 -0.0031100000000000004 0.018129 -0.002181
16300 -0.42272271 9.81239364 0.51253326 -0.006324000000000001 0.021311 0.004201
16320 -0.42691158 9.89622009 0.48574215000000004 -0.011654 0.0277 0.009497
16340 -0.45699885 9.86627997 0.42332112000000005 -0.01053 0.039418 0.008422
16360 -0.47825712 9.83410317 0.43200297000000004 -0.006248 0.038355 0.00418
16380 -0.41957370000000005 9.829158930000002 0.51687909 0.002297 0.034089999999999995 -0.002164
16400 -0.41373675 9.808351920000002 0.54666225 0.010827 0.027689 -0.007437
16420 -0.40969503 9.829158930000002 0.5613282000000002 0.011827 0.01065 -0.009545
16440 -0.43050204000000003 9.85086846 0.54517113 0.011827 0.011711 -0.008478
16460 -0.43874244 9.82886463 0.49906413000000005 0.0065260000000000006 0.022369 -0.005324000000000001
16480 -0.448317 9.84577707 0.47226321000000004 0.002234 0.019180000000000003 -0.003214
16500 -0.46074627 9.83065986 0.42945237 0.003244 0.007454 -0.002123
16520 -0.4316988600000001 9.82511721 0.43649595 -0.002129 -0.001049 -0.00215
16540 -0.43574058 9.79189074 0.45565488000000004 -0.009587 0.003229 -7.099999999999999e-05
16560 -0.4252635 9.878405129999999 0.48483963 -0.0063100000000000005 0.021323 0.000997
16580 -0.44023356 9.917772660000002 0.47106639 -0.00521 0.030899 0.003129
16600 -0.4713705 9.88199559 0.48947976000000004 -0.004148 0.02983 0.003137
16620 -0.46118772 9.82990449 0.49621923000000007 -0.006296 0.02558 0.00206
16640 -0.4596966 9.81418887 0.50399856 -0.00842 0.028779 0.003109
16660 -0.42332112000000005 9.76554108 0.49906413000000005 -0.009458 0.034113 0.002027
16680 -0.393381 9.77003406 0.45654759 -0.011577 0.036256 0.000941
16700 -0.38904498 9.82511721 0.46058931000000003 -0.009415 0.043701 0.002015
16720 -0.39113451 9.85281084 0.45535077 -0.01262 0.047952 0.007328
16740 -0.41179437 9.857303820000002 0.47361699000000007 -0.013682 0.053265 0.011587
16760 -0.37855809 9.9170271 0.47541222 -0.013649 0.0586 0.009444
16780 -0.36763956000000003 9.88574301 0.48065076 -0.014716 0.057542 0.008369
16800 -0.38709279 9.79428438 0.44802270000000005 -0.018964 0.066062 0.012602
16820 -0.37572300000000003 9.82886463 0.44352972000000007 -0.021088 0.069261 0.013651
16840 -0.36704115 9.823920390000001 0.50280174 -0.006128 0.076657 0.015882
16860 -0.37736127 9.81119682 0.54127656 -0.008265999999999999 0.073478 0.013735
16880 -0.3930867 9.82631403 0.55639377 -0.012567 0.061791999999999986 0.009447
16900 -0.40071888000000006 9.82856052 0.50759883 -0.012582 0.057535 0.008384
16920 -0.4128440400000001 9.80101404 0.48813579 -0.009415 0.052189 0.01055
16940 -0.42136893000000003 9.829610190000002 0.48619341000000005 -0.005104 0.058578 0.007367
16960 -0.45221157000000006 9.83470158 0.52436412 0.006684000000000001 0.067072 0.004234
16980 -0.48619341000000005 9.86194395 0.50280174 0.008870000000000001 0.083027 0.008501
17000 -0.51867432 9.880053210000002 0.49172625000000003 0.00566 0.08302899999999999 0.010615
17020 -0.52315749 9.87421626 0.49711194 -0.001856 0.073464 0.011643
17040 -0.5322906000000001 9.859697460000001 0.5116405499999999 -0.010448 0.058588 0.009466
17060 -0.5298969600000001 9.83934171 0.53408583 -0.009415 0.051128 0.009483
17080 -0.54067815 9.83080701 0.53558676 -0.007267 0.056438 0.011627
17100 -0.5225590800000001 9.81464013 0.54097245 -0.010472 0.058567 0.014807
17120 -0.49143195 9.86852646 0.5020561800000001 -0.009376 0.06601599999999999 0.015872999999999998
17140 -0.46732878 9.85445892 0.55549125 -0.006147 0.070274 0.013754
17160 -0.49846572000000006 9.85431177 0.5742087300000001 -0.005075 0.070275 0.012693
17180 -0.48498678000000006 9.835143030000001 0.58617693 -0.0008179999999999999 0.062825 0.007391
17200 -0.44143038000000007 9.81628821 0.5806440900000001 -0.000794 0.064968 0.004184
17220 -0.45025938000000004 9.787692060000001 0.6026479200000002 0.00135 0.06602999999999999 0.003129
17240 -0.43140456000000005 9.71449965 0.60578712 0.0013310000000000002 0.05964700000000001 0.001001
17260 -0.44981793 9.74488122 0.5975565300000001 -0.005018 0.068204 -0.002259
17280 -0.41748417 9.79428438 0.58872753 -0.000621 0.090585 -0.008666
17300 -0.40176855 9.922716900000001 0.58528422 0.013541 0.159762 -0.004383
17320 -0.4122456300000001 9.90805095 0.53708769 0.027491 0.183128 0.001026
17340 -0.42841251 9.860590170000002 0.5471135100000001 0.039752 0.05422 -0.0072689999999999986
17360 -0.41628735 9.818829 0.5610339 0.017734 -0.09379 -0.004029
17380 -0.39278259 9.77737194 0.57600396 -0.020568 -0.07022 -0.004327
17400 -0.41208867000000005 9.77886306 0.59695812 -0.020352 -0.030771 -0.012921
17420 -0.41418801000000005 9.8245188 0.58318488 0.007454 -0.024442 -0.021281
17440 -0.39861954000000005 9.817632180000002 0.6081807600000001 0.013855 -0.015976 -0.012701
17460 -0.39383226000000005 9.81373761 0.62211096 -0.027863 -0.023356 0.004108
17480 -0.39816828 9.828109260000002 0.6009998400000001 -0.06315599999999999 -0.034981 0.011354
17500 -0.42691158 9.843226470000001 0.53783325 -0.068428 -0.00732 0.025169
17520 -0.4288539600000001 9.837095220000002 0.54426861 -0.047961 0.0522 0.041259
17540 -0.44502084000000003 9.8532621 0.5513023800000001 -0.032814 0.115995 0.058374
17560 -0.43963515000000003 9.83858634 0.56492847 -0.026288 0.150036 0.064786
17580 -0.44202879000000006 9.83379906 0.56402595 -0.011309 0.146839 0.052076
17600 -0.41493357000000003 9.82197801 0.58677534 0.009014 0.14151 0.035133
17620 -0.41598324 9.88454619 0.5912683200000002 0.008981 0.128748 0.029808
17640 -0.42646032 9.863739180000001 0.5751014400000001 -0.013519 0.110704 0.032879000000000005
17660 -0.40041477000000003 9.835594290000001 0.5465151 -0.015586 0.13835699999999998 0.045647
17680 -0.36059598 9.72198468 0.5674692600000001 0.000355 0.114904 0.036175
17700 -0.3469797 9.74204613 0.58872753 0.017386000000000002 0.090407 0.020302
17720 -0.38828961 10.0007064 0.7018858800000001 0.011942 0.06168 0.016028
17740 -0.47630493 10.169850420000001 0.5288472900000001 -0.010525 0.048971 0.016955
17760 -0.5545985400000001 10.3508253 0.22273605000000002 -0.026451 0.069254 0.020023
17780 -0.47945394 9.95160735 0.21240612000000003 -0.032785 0.088435 0.024227
17800 -0.41344245 9.552683700000001 0.42481224000000006 -0.030599 0.103328 0.027428
17820 -0.37451637000000004 9.46840599 0.59845905 -0.028383 0.11718599999999997 0.023152
17840 -0.39428352 9.560472840000001 0.6165683100000001 -0.026106 0.141709 0.015659
17860 -0.51283737 9.67468086 0.45909819 -0.023809 0.178982 0.016696000000000003
17880 -0.57989853 9.67932099 0.5185173599999999 -0.017374 0.177928 0.008196
17900 -0.51523101 9.735757920000001 0.6822855 -0.011992 0.173708 -0.006716
17920 -0.44906256 9.712106010000001 0.87718077 -0.008739 0.18011 -0.012042
17940 -0.44561925 9.855802890000001 0.9090632700000001 -0.016193 0.185454 -0.009965
17960 -0.52166637 9.95205861 0.82418715 -0.025857 0.179066 -0.002547
17980 -0.51867432 9.96657741 0.6875240400000001 -0.031287 0.164146 0.003844
18000 -0.47032083 9.9056475 0.5526463500000001 -0.032483 0.13538699999999998 0.003873
18020 -0.42870681 9.937529999999999 0.41463927 -0.029460000000000007 0.097022 0.005011
18040 -0.40251411 9.88903917 0.34547877 -0.022102 0.074617 0.007228
18060 -0.40400523 9.870772950000003 0.42062337 -0.015749000000000003 0.07030800000000001 0.013687
18080 -0.32976315 9.836192700000002 0.52719921 -0.023246 0.066065 0.015776
18100 -0.2817137700000001 9.779314320000001 0.60250077 -0.023121 0.099066 0.021076
18120 -0.33574725 9.783208890000001 0.60384474 -0.033924 0.079886 0.031707
18140 -0.39936510000000003 9.81688662 0.57330621 -0.029599 0.077801 0.016784999999999998
18160 -0.43559343 9.81554265 0.6869256300000001 -0.014581 0.100102 0.021134
18180 -0.5123861099999999 9.779010210000001 0.7667103599999999 -0.008175 0.097962 0.017977
18200 -0.5322906000000001 9.76659075 0.75712599 -0.007051000000000002 0.110741 0.017969
18220 -0.49591512000000004 9.80101404 0.7246450799999999 -0.005917 0.12459 0.016891
18240 -0.43948800000000005 9.791292330000001 0.65129571 -0.005940999999999999 0.118203 0.01583
18260 -0.39158577000000006 9.884840490000002 0.6509916 -0.007051000000000002 0.111802 0.019035
18280 -0.41239278 9.90759969 0.62390619 -0.003865 0.106473 0.016928
18300 -0.39802113000000006 9.860590170000002 0.6403673700000001 -0.000741 0.09154 0.019106
18320 -0.40670298000000005 9.85850064 0.62929188 0.002407 0.081933 0.021276
18340 -0.39233133000000003 9.775272600000001 0.6267510900000001 0.001374 0.091515 0.023393
18360 -0.36044883 9.77018121 0.56462436 0.000364 0.105363 0.024437
18380 -0.27797616 9.85670541 0.48034665000000004 -0.011352 0.108604 0.023282
18400 -0.23545962 9.8936793 0.48783168000000005 -0.011352 0.107543 0.022216
18420 -0.23890293 9.903253860000001 0.4912749900000001 -0.00818 0.096896 0.017978
18440 -0.25207776000000004 9.881397179999999 0.51358293 -0.009285 0.084134 0.013714
18460 -0.27527841000000003 9.85311495 0.54606384 -0.006128 0.071352 0.010548
18480 -0.30926025 9.78021684 0.54561258 -0.0083 0.06496 0.012677
18500 -0.34922619 9.759409830000001 0.6285463200000001 -0.011472 0.070302 0.01158
18520 -0.34428195 9.76464837 0.69036894 -0.006138 0.066039 0.00735
18540 -0.42286986 9.768238830000001 0.6947049599999999 -0.001904 0.058567 0.007389
18560 -0.29249496 9.78245352 0.93405915 0.004536 0.063884 0.004222999999999999
18580 -0.35671122 9.83035575 0.8652027600000002 0.002412 0.066022 0.004205
18600 -0.35521029 9.79802199 0.7626686400000001 0.004545 0.062831 0.001019
18620 -0.36374499000000005 9.8014653 0.6942537000000001 -0.0007740000000000001 0.06604600000000001 0.000978
18640 -0.37512459000000004 9.8159841 0.68872086 -0.001851 0.060736 -0.002227
18660 -0.3671883 9.875717190000001 0.65519028 0.002369 0.043702 -0.008584999999999999
18680 -0.37227969 9.828266220000001 0.6753988800000001 0.001283 0.041567 -0.0064540000000000005
18700 -0.36704115 9.79457868 0.66820815 -0.000866 0.040501 -0.004331000000000001
18720 -0.37512459000000004 9.81554265 0.65144286 0.0034020000000000005 0.041547 -0.0032340000000000003
18740 -0.38948643000000005 9.837840779999999 0.6230036700000001 0.008717 0.036206 -0.004258
18760 -0.38484630000000003 9.83095416 0.69096735 0.008712000000000001 0.040446 0.001077
18780 -0.39488193 9.83454462 0.66416643 0.004502 0.054304999999999985 0.002098
18800 -0.38515041 9.82901178 0.6993450900000001 0.004522 0.060688 0.004227000000000001
18820 -0.3700332 9.82601973 0.78601644 0.006659999999999999 0.060685 0.003173
18840 -0.36748260000000005 9.833504759999999 0.7894597500000001 0.005593 0.06175 0.004233
18860 -0.37048446 9.811049670000001 0.77958108 0.013071 0.05961 1.5e-05
18880 -0.37407492000000003 9.856254150000002 0.7394581800000001 0.017324000000000003 0.052154999999999986 -0.004219
18900 -0.36479466 9.84068568 0.72973647 0.016319 0.060702 -0.009578
18920 -0.37347651000000004 9.84577707 0.7550266499999999 0.013138 0.063914 -0.010672
18940 -0.37032750000000003 9.81987867 0.7741855799999999 0.018554 0.07457799999999999 -0.018126
18960 -0.36987624 9.849367529999999 0.7427543400000001 0.027113 0.068203 -0.029808
18980 -0.36284247000000003 9.825715620000002 0.75218175 0.023917 0.072462 -0.026631
19000 -0.34906923 9.81688662 0.77658903 0.022855 0.071409 -0.028774
19020 -0.35521029 9.864631890000002 0.77239035 0.027103 0.067133 -0.028739
19040 -0.33889626 9.831101310000001 0.7933543200000001 0.03349 0.062854 -0.029757
19060 -0.35176698 9.82646118 0.795591 0.036676 0.06070800000000001 -0.028664
19080 -0.3094074 9.841284090000002 0.74859129 0.037695 0.051113 -0.027576
19100 -0.31959018000000006 9.829158930000002 0.73481805 0.041938 0.042589 -0.03074
19120 -0.31959018000000006 9.82766781 0.73347408 0.055836 0.040444 -0.039186
19140 -0.32662395 9.822870720000001 0.73137474 0.076183 0.048929 -0.047601
19160 -0.31030011 9.82497006 0.72284985 0.092277 0.060625 -0.056049
19180 -0.31883481 9.799218810000001 0.7188081300000001 0.101865 0.05103 -0.062379
19200 -0.35221824000000007 9.7954812 0.70532919 0.105133 0.060627 -0.06771
19220 -0.33514884 9.77766624 0.75712599 0.095579 0.076619 -0.062456
19240 -0.30625839 9.775723860000001 0.7890084900000001 0.089072 0.05957100000000001 -0.05607
19260 -0.32213097 9.833504759999999 0.8176046400000001 0.08140800000000001 0.020165 -0.0518
19280 -0.29338767 9.78215922 0.79305021 0.06945599999999999 -0.018181 -0.04222
19300 -0.3008727 9.796226760000001 0.8135629200000001 0.051219000000000015 -0.026696 -0.02845
19320 -0.2601612 9.87601149 0.8012807999999999 0.034183 -0.008569 -0.01791
19340 -0.28470582000000005 9.85371336 0.7849667699999999 0.033092 -0.008587000000000001 -0.012577
19360 -0.30297204000000005 9.81449298 0.82598238 0.037283 -0.027768 -0.014659
19380 -0.31030011 9.822272309999999 0.7893126 0.037196 -0.046942000000000005 -0.014635
19400 -0.26135802 9.83080701 0.70264125 0.032905000000000004 -0.061803 -0.02426
19420 -0.23156505000000002 9.82152675 0.6740451000000001 0.029484 -0.122465 -0.035957
19440 -0.22632651000000004 9.817485029999999 0.6719555700000001 0.039994 -0.158717 -0.036905
19460 -0.22228479 9.82990449 0.66956193 0.025962 -0.195948 -0.038024
19480 -0.22692492 9.87002739 0.6749476200000001 0.005682 -0.187398 -0.027494
19500 -0.17453952 9.88648857 0.6484508099999999 -0.010206 -0.153288 -0.019103
19520 -0.17438256000000002 9.85130991 0.64620432 -0.016415 -0.087313 0.00427
19540 -0.15582204 9.88260381 0.65459187 -0.037474 0.018048 0.047785
19560 -0.11824974 9.92810259 0.6867686700000001 -0.033135000000000005 0.001121 0.014722
19580 -0.14818986 9.915084720000001 0.73481805 -0.009904 -0.075566 -0.008518000000000001
19600 -0.16046217000000002 9.839783160000001 0.70128747 0.010534 -0.051085000000000005 -0.021225
19620 -0.12288987000000001 9.83006145 0.7056333 0.020294 -0.029758 -0.035071
19640 -0.09700128 9.77048532 0.75158334 0.033188 -0.023355 -0.048876
19660 -0.11061756 9.75162069 0.74859129 0.043804 -0.046782 -0.060523
19680 -0.14400099 9.7348554 0.68048046 0.048057 -0.054236 -0.064756
19700 -0.20911977 9.802966230000001 0.6117810300000001 0.035259 -0.043577 -0.055245
19720 -0.25312743 9.796079610000001 0.49411989 0.026686 -0.037216 -0.040358
19740 -0.34802937000000006 9.82721655 0.45834282000000004 0.014855000000000004 -0.046809 -0.028678
19760 -0.44068482 9.796226760000001 0.3731724 0.007291 -0.0596 -0.020169
19780 -0.54785907 9.76254903 0.39667716000000003 0.0007700000000000001 -0.078782 -0.012712
19800 -0.6394746600000001 9.78156081 0.37946061000000003 -0.004603 -0.079859 -0.0052710000000000005
19820 -0.6631167600000001 9.78021684 0.35790804000000004 -0.01098 -0.06920499999999999 1.2e-05
19840 -0.6595263 9.78634809 0.29159244 -0.013066 -0.058545000000000014 -1.6e-05
19860 -0.62180685 9.8936793 0.33978897 -0.015194999999999997 -0.057472 -3.2e-05
19880 -0.5912683200000002 9.872872290000002 0.29922462000000005 -0.014128 -0.055353999999999993 0.002109
19900 -0.6286934700000001 9.82886463 0.2870994600000001 -0.015272 -0.072394 0.002123
19920 -0.6203059200000002 9.80626239 0.28245933 -0.014238 -0.075611 0.006407
19940 -0.5936619599999999 9.823626090000001 0.36164565000000004 -0.011033 -0.071374 0.009628
19960 -0.5643300600000001 9.8128449 0.4192794 -0.003522 -0.057568 0.013936000000000002
19980 -0.61462593 9.85850064 0.4122456300000001 -0.001297 -0.033092 0.018193
20000 -1.0204263900000001 9.899810550000002 0.35776089000000005 -0.004386999999999999 -0.001153 0.025608
20020 -0.9216298800000001 9.9056475 0.45594918 -0.006396 0.032918 0.03196
20040 -1.02941235 9.920323260000002 0.45071064 -0.005234 0.060585 0.038342
20060 -1.11577959 9.88634142 0.3646377 -0.008386 0.076554 0.04364
20080 -1.10575377 9.82152675 0.36927783000000003 -0.013658000000000002 0.095726 0.04892
20100 -1.06069644 9.79473564 0.36314658000000005 -0.015719999999999998 0.118079 0.055286
20120 -0.9786652200000001 9.81538569 0.34862778 -0.012476 0.130838 0.058497
20140 -0.9328623300000001 9.81733788 0.37063161000000006 -0.00707 0.151042 0.062782
20160 -0.90995598 9.836045550000001 0.31494024000000004 -0.005869 0.18511 0.06702000000000001
20180 -0.84289482 9.869880240000002 0.32916474 -0.010041 0.209613 0.070164
20200 -0.82373589 9.81898596 0.35491599000000007 -0.010036 0.213861 0.073363
20220 -0.7908037200000001 9.816739470000002 0.33410898 -0.009036 0.206371 0.080857
20240 -0.77539221 9.817033770000002 0.33231375 -0.012289 0.197847 0.08405
20260 -0.78407406 9.8245188 0.3715243200000001 -0.012328 0.190386 0.085128
20280 -0.80996265 9.84577707 0.36209691 -0.013385 0.202069 0.094719
20300 -0.83540979 9.845178660000002 0.37063161000000006 -0.015519 0.198894 0.091504
20320 -0.87567984 9.85864779 0.36583452 -0.005922 0.200978 0.094773
20340 -0.8759741400000002 9.827069400000001 0.37855809 -0.011299 0.194592 0.097948
20360 -0.8584632900000001 9.80251497 0.41045040000000005 -0.017728999999999998 0.196711 0.106446
20380 -0.80682345 9.800121330000001 0.43215012 -0.022001 0.204149 0.114953
20400 -0.83660661 9.83934171 0.43888959000000005 -0.023121 0.201984 0.124562
20420 -0.8123562900000001 9.82332198 0.44097912 -0.024221 0.19347 0.123497
20440 -0.8057737800000001 9.82122264 0.48813579 -0.016628999999999998 0.214774 0.117113
20460 -0.8069706000000001 9.787996170000001 0.50983551 -0.007984 0.236063 0.113941
20480 -0.79319736 9.80281908 0.5773479300000001 -0.007936 0.248837 0.11606199999999997
20500 -0.7756865100000001 9.78515127 0.56477151 -0.007906999999999999 0.255229 0.116054
20520 -0.7984359000000001 9.82152675 0.56163231 -0.013232 0.254195 0.112813
20540 -0.8330161500000001 9.82257642 0.53169219 -0.005893 0.219041 0.1065
20560 -0.84184515 9.841284090000002 0.47391129 0.001537 0.193516 0.08949299999999999
20580 -0.83750913 9.867182490000001 0.44891541000000007 0.00911 0.226475 0.099118
20600 -0.79574796 9.84008727 0.41658165 -0.003745000000000001 0.221168 0.105444
20620 -0.7920005400000001 9.87017454 0.41643450000000004 -0.023361 0.131744 0.107558
20640 -0.77808015 9.899810550000002 0.43619184 -0.035063 0.176377 0.144807
20660 -0.76760307 9.932291460000002 0.43544628 -0.028407 0.25721700000000003 0.169319
20680 -0.71506071 9.878856390000001 0.41882814000000007 -0.021064 0.234799 0.17474
20700 -0.6965001900000001 9.88334937 0.39532338 -0.018247 0.143201 0.168468
20720 -0.70323966 9.878110829999999 0.42796125 0.003846 0.07281900000000001 0.16764400000000002
20740 -0.6095345400000001 9.80655669 0.40086603 0.037765 0.029003 0.173279
20760 -0.58318488 9.82241946 0.39368511 0.06755499999999999 0.024582 0.187379
20780 -0.52286319 9.82586277 0.3586536 0.091017 0.020247 0.185412
20800 -0.48319155 9.848621970000002 0.34772526 0.093371 0.052266 0.168296
20820 -0.45400680000000004 9.82676529 0.4197306600000001 0.061308 0.010948 0.139283
20840 -0.44188164 9.83918475 0.42197715 0.056863 0.001256 0.169175
20860 -0.39383226000000005 9.775419750000001 0.45699885 0.072216 0.08539400000000001 0.160628
20880 -0.37227969 9.780658290000002 0.51628068 0.063513 0.054505 0.167016
20900 -0.38215836 9.846071370000002 0.48304440000000004 0.039951 0.033286 0.165811
20920 -0.39158577000000006 9.875717190000001 0.50235048 0.014299 0.03015 0.17311300000000002
20940 -0.40610457000000005 9.915084720000001 0.5415708599999999 0.009998 0.026952 0.17736
20960 -0.40849821 9.8734707 0.6074352000000001 0.018556 0.035432 0.180614
20980 -0.39548034000000004 9.78859458 0.6084848700000001 0.023891 0.031169 0.176384
21000 -0.35671122 9.819427410000001 0.59935176 0.033181 -0.037046 0.17760399999999998
21020 -0.3376994400000001 9.80026848 0.59157243 0.07662999999999999 -0.106424 0.173724
21040 -0.36554022 9.84577707 0.56851893 0.116142 -0.122443 0.149451
21060 -0.44966097000000005 9.72078786 0.53723484 0.09082 -0.084967 0.123589
21080 -0.21031659 9.942621390000001 0.54936 0.053820000000000014 -0.042093 0.090161
21100 -0.20312586 9.8415882 0.62015877 0.047625 -0.027034 0.05912000000000001
21120 -0.30536568000000003 9.86732964 0.58138965 0.058548 0.007107 0.036719
21140 -0.31913892 9.80940159 0.5545985400000001 0.070389 0.008221 0.014368
21160 -0.23620518 9.862091099999999 0.6673154400000001 0.089799 0.038045 -0.001558
21180 -0.12903093000000002 9.88215255 0.74200878 0.096205 0.04121 0.0006190000000000001
21200 -0.0779895 9.87601149 0.7819747200000001 0.106959 0.065652 0.006004
21220 -0.09040896000000001 9.77108373 0.68781834 0.098559 0.103998 0.014441999999999997
21240 -0.10508471999999999 9.683813970000001 0.66028167 0.118007 0.155076 0.011308
21260 -0.03712104000000001 9.67527927 0.53843166 0.151372 0.180684 -0.028016000000000003
21280 0.13307265000000001 9.811049670000001 0.53379153 0.14288499999999998 0.15423199999999998 -0.065429
21300 0.5201654400000001 9.87151851 0.56492847 0.08102100000000001 0.128997 -0.094671
21320 0.45445806 9.85415481 0.37736127 0.032310000000000005 0.196335 -0.10898499999999997
21340 0.46867275 9.72932256 0.28695231 0.02004 0.284916 -0.139094
21360 0.59830209 9.72183753 0.3182364 0.013816 0.317987 -0.145589
21380 0.79424703 9.772133400000001 0.37018035000000005 0.004511 0.386189 -0.14360499999999998
21400 0.9018725400000001 9.807155100000001 0.37736127 -0.023891 0.488504 -0.131116
21420 0.9324110700000001 9.787250610000001 0.34547877 -0.036392 0.541868 -0.14515899999999998
21440 0.9262700100000001 9.81554265 0.41913225000000004 -0.026795 0.539708 -0.14615699999999998
21460 0.9982754100000001 9.85670541 0.59157243 -0.08622 0.390708 -0.12929000000000002
21480 1.03374837 9.85371336 0.75293712 -0.085513 0.337334 -0.102511
21500 0.84573972 9.75312162 0.62644698 -0.028998000000000006 0.334989 -0.09784
21520 0.76790718 9.73635633 0.42705873000000005 0.028805 0.362544 -0.112427
21540 0.8234415900000001 9.73635633 0.42136893000000003 0.060991 0.220527 -0.056472
21560 0.9282222 9.72018945 0.43229727000000007 0.088928 0.06687 -0.016556
21580 1.03419963 9.731716200000001 0.44712018000000003 0.14311300000000002 0.02404 -0.008645
21600 1.10874582 9.891884070000001 0.48034665000000004 0.187036 0.052696000000000014 -0.020126
21620 1.06518942 9.899359290000001 0.34547877 0.23183 0.018574 -0.050747
21640 1.2100831200000002 9.937981259999999 0.22063671 0.243312 -0.046414 -0.05913
21660 1.21606722 9.823920390000001 0.19728891 0.233039 -0.183846 -0.047275
21680 1.2320869500000002 9.76688505 0.35880075000000006 0.23332600000000006 -0.153882 -0.08149400000000001
21700 1.14571971 9.71823726 0.45790137000000003 0.22653 -0.024878 -0.102003
21720 1.08134649 9.98738442 0.4685256 0.18145 0.07041900000000001 -0.184693
21740 1.09227483 10.05294465 0.27932013 0.138977 0.100455 -0.199984
21760 1.162485 10.121801040000001 0.173637 0.108412 0.153946 -0.230176
21780 1.20978882 9.97585767 0.05747679000000001 0.079913 0.198881 -0.253933
21800 1.19047293 9.87735546 -0.0028449 0.049543 0.091381 -0.250803
21820 1.22924205 9.7929306 -0.00494424 0.068022 -0.07909 -0.26007
21840 1.0506608100000001 9.74518533 0.016765290000000002 0.088487 -0.26455500000000004 -0.251143
21860 0.5870794500000001 9.75431844 -0.029184750000000002 0.095294 -0.380818 -0.219968
21880 0.5686660799999999 9.73066653 -0.07320222000000003 0.093198 -0.330909 -0.178386
21900 0.52001829 9.880053210000002 -0.32063004 0.073503 -0.114944 -0.090138
21920 0.29383893 9.98139051 -0.52974981 0.01275 -0.06056900000000001 -0.048972
21940 0.05598567000000001 10.14291216 -0.53379153 0.118781 0.017943 -0.06115
21960 -0.01317483 10.098894690000002 -0.44188164 0.154911 -0.024752 -0.071525
21980 0.1591182 10.460246040000001 -0.30446316 0.188624 -0.152571 -0.104241
22000 0.5089428 10.47311676 0.019011780000000002 0.238392 -0.285704 -0.15392899999999998
22020 0.6041390400000001 10.24334694 0.10972485000000001 0.30007399999999995 -0.402805 -0.227056
22040 0.8884034100000001 9.943523910000001 0.43349409 0.344112 -0.337973 -0.227899
22060 1.0942270200000002 9.78814332 0.64141704 0.265263 -0.093688 -0.243718
22080 1.34449974 9.764795520000002 0.8628091200000001 0.309917 -0.132177 -0.24763
22100 1.6218774900000001 9.93005478 0.8934948 0.27596 -0.065053 -0.221247
22120 1.5694822800000003 9.81269775 1.05156333 0.213231 -0.016896 -0.221747
22140 1.16697798 9.42994098 0.94633146 0.163189 0.027931 -0.199722
22160 0.42272271 8.85094497 0.5890218299999999 0.121692 0.078042 -0.174438
22180 0.03202965 9.178461630000001 0.32617269000000004 0.080228 0.12605999999999998 -0.15876600000000002
22200 -0.05747679000000001 9.33848235 0.01826622 0.050475 0.17613800000000002 -0.135537
22220 -0.11092167 9.680969070000002 -0.07439904 0.015489 0.235874 -0.125176
22240 -0.07768538999999999 9.7926363 -0.20192904000000003 -0.018401 0.301997 -0.114815
22260 0.0230535 9.93304683 -0.08547453 -0.047163 0.32547800000000005 -0.101159
22280 0.14190165000000002 9.89592579 -0.09265545000000001 -0.076011 0.331906 -0.085346
22300 0.24533829000000001 9.99980388 -0.32452461 -0.06985 0.29878000000000005 -0.064964
22320 0.26973576 9.942621390000001 -0.51791895 -0.06601900000000001 0.226229 -0.040275
22340 0.23980545000000003 9.803564640000001 -0.5423262300000001 -0.064221 0.194093 0.002507
22360 0.0038945700000000004 9.77048532 -0.5236087500000001 -0.076047 0.223761 0.052593
22380 -0.39816828 9.59998752 -0.30252078000000004 -0.07801799999999999 0.289695 0.08240499999999999
22400 -0.64725399 10.01073222 -0.39892365 -0.051183 0.32476 0.081479
22420 -0.8048810700000001 10.07121087 -0.44742429 -0.000954 0.303442 0.041265
22440 -0.7964935200000001 10.002197520000001 -0.53618517 0.054508 0.252307 -0.006352
22460 -0.7375158 10.12868766 -0.6875240400000001 0.08544199999999999 0.213998 -0.043475
22480 -0.77298876 10.06342173 -0.5825864700000001 0.100517 0.226802 -0.061545
22500 -0.56088675 9.968068529999998 -0.8137100700000001 0.114343 0.215044 -0.06357
22520 -0.66896352 10.002197520000001 -0.81715338 0.133355 0.181915 -0.053781
22540 -1.06802451 9.847572300000001 -0.7056333 0.14491800000000002 0.168989 -0.028046
22560 -1.28941659 9.92810259 -0.80053524 0.153405 0.168916 -0.017305
22580 -1.5832555200000002 9.819731520000001 -0.87118686 0.168432 0.197592 -0.008690999999999999
22600 -1.48969755 9.83724237 -0.93630564 0.192138 0.244403 -0.013926
22620 -1.5187449600000003 9.736199370000001 -1.00501488 0.228373 0.24212 -0.007261
22640 -1.4931408600000002 9.739642680000001 -0.93570723 0.23131 0.179275 -0.011433
22660 -1.52922204 9.71823726 -0.8440916400000001 0.229836 0.084488 -0.015594
22680 -1.5138007199999999 9.57648276 -0.8577177300000002 0.231634 -0.007064 -0.032556
22700 -1.53895356 9.60103719 -0.88914897 0.230375 -0.077257 -0.060249
22720 -1.52278668 9.62708274 -0.90442314 0.195514 -0.03757 -0.097931
22740 -1.33702452 9.76090095 -0.8240400000000001 0.123643 0.093787 -0.117829
22760 -1.2617229600000002 9.77692068 -0.71805276 0.025995 0.201739 -0.122922
22780 -1.1596401 9.74143791 -0.8900514900000001 -0.083944 0.19571 -0.118342
22800 -1.0330028100000002 9.73306017 -1.07266464 -0.185776 0.101209 -0.107181
22820 -0.9274668300000001 9.73815156 -1.16801784 -0.26321300000000003 -0.017909 -0.08834199999999999
22840 -0.85936581 9.70476813 -1.06174611 -0.343875 -0.11793900000000003 -0.04498
22860 -0.8340658200000001 9.7058178 -0.9768699900000001 -0.420847 -0.082798 0.02494
22880 -0.84573972 9.707308920000001 -1.02417381 -0.492332 -0.007220999999999998 0.101256
22900 -0.93884643 9.80131815 -1.16547705 -0.583751 0.104799 0.13893
22920 -1.07117352 9.894572010000001 -1.28417805 -0.683991 0.349112 0.134712
22940 -0.9867486599999999 9.883947779999998 -1.19795796 -0.802883 0.713875 0.128073
22960 -0.9985697100000002 10.023455790000002 -1.2162241800000002 -0.908594 1.0852959999999998 0.043537
22980 -0.98285409 9.974808 -1.20154842 -0.8808219999999999 1.015202 -0.034158999999999995
23000 -0.91160406 9.882446850000001 -1.20304935 -0.66977 0.425659 -0.105637
23020 -0.8659483200000001 9.84382488 -1.29720573 -0.35084 -0.102611 -0.142256
23040 -0.82179351 9.833053500000002 -1.3271360399999999 -0.116997 -0.24956 -0.093433
23060 -0.722997 9.848170710000002 -1.34674623 -0.004895 -0.196829 -0.057466
23080 -0.7852708800000001 9.895170420000001 -1.37728476 0.112574 -0.161063 -0.046009
23100 -0.8385588 9.76883724 -1.50781662 0.20778600000000005 0.234483 0.05563
23120 -0.82748331 9.827363700000001 -1.6844456700000001 0.14809 0.401312 0.212028
23140 -0.88450884 9.78230637 -1.73204379 0.045974 0.101893 0.319589
23160 -1.0204263900000001 9.67632894 -1.6593026400000002 0.095764 -0.24013 0.293669
23180 -1.0298538000000002 9.48592665 -1.5181465500000002 0.017072999999999998 -0.514317 0.198399
23200 -1.04812002 9.27187245 -1.36097073 -0.13206199999999998 -0.449934 0.211162
23220 -1.18343916 9.20436003 -1.17760221 -0.224058 -0.037319 0.202513
23240 -1.1976636600000001 9.27665973 -0.95142285 -0.308079 0.229411 0.172742
23260 -1.2039420600000001 9.239234580000002 -0.8490358800000001 -0.359715 0.060511 0.097823
23280 -1.19795796 9.24522849 -0.86565402 -0.328332 -0.12795299999999998 0.048077
23300 -1.1805942600000001 9.09075042 -0.9383951700000001 -0.310291 -0.170541 0.026893
23320 -1.02087765 9.05976063 -0.9273196800000001 -0.338795 -0.048157 0.082085
23340 -0.8810655300000001 9.114696630000001 -0.9243276300000001 -0.395185 0.01902 0.11472
23360 -0.8416980000000001 9.22157658 -0.7351221600000001 -0.292833 0.012237 0.12398900000000003
23380 -0.68812245 9.43891713 -0.46613196000000007 -0.13688 0.011863 0.08235
23400 -0.85936581 9.544453110000001 -0.05538726 -0.067275 0.041559 0.055024
23420 -1.38716343 9.73396269 0.16989939 -0.036067 0.11702 0.07116900000000001
23440 -1.7654272199999999 10.587933 0.17348985 0.032519 0.171166 0.057691999999999986
23460 -1.57277844 11.195966610000001 -0.12288987000000001 0.117398 0.050556 0.042416
23480 -0.9198346500000001 11.418702660000001 -0.5225590800000001 0.199947 -0.129636 0.011177
23500 -0.96773688 11.180398140000001 -1.19930193 0.209925 -0.311719 -0.017362
23520 -1.4516838 10.07435007 -1.65390714 0.172494 -0.343499 -0.029333
23540 -1.51290801 9.75910572 -2.0975840100000003 0.123634 -0.248707 0.017206
23560 -0.7412632200000001 9.81987867 -1.4395586400000002 0.051361 -0.134683 0.069966
23580 -0.37855809 9.6767802 -0.56297628 0.037453 -0.12512 0.088016
23600 -0.34488036 9.6133095 0.03517866 0.05869 -0.15499200000000002 0.080725
23620 -0.5198711400000001 9.50838174 0.13666311 0.073726 -0.13903900000000002 0.0744
23640 -0.79903431 9.53472159 -0.34906923 0.07285599999999999 -0.100665 0.069004
23660 -0.80113365 9.49805181 -0.55639377 0.038865 -0.06964400000000001 0.06659
23680 -0.35341506000000006 9.61300539 -0.31090833 -0.007995 -0.06092 0.056638
23700 -0.34188831000000003 9.680517810000001 -0.016461180000000002 -0.054913 -0.066039 0.045635
23720 -0.6029422200000001 9.699833700000001 -0.10283823 -0.107218 -0.082858 0.034609
23740 -0.60668964 9.81299205 -0.06945480000000001 -0.157394 -0.095445 0.028933
23760 -0.41703291000000003 9.89292393 0.07993188000000001 -0.198988 -0.089982 0.030772000000000008
23780 -0.40206285 9.78589683 0.34383069000000005 -0.232003 -0.066473 0.041194
23800 -0.22527684 9.6221385 0.37541889 -0.25732 0.016630000000000002 0.060138
23820 -0.40041477000000003 9.75640797 0.29114118 -0.306362 0.053967 0.089658
23840 -0.37556604 10.070161200000001 0.07349652000000001 -0.361017 0.026354 0.116017
23860 -0.45221157000000006 10.030793670000001 -0.11616021000000001 -0.418546 0.059518 0.130528
23880 -0.3972755700000001 10.114168860000001 0.00344331 -0.456919 0.076659 0.139852
23900 -0.39697146000000005 10.17808101 -0.08067743999999999 -0.467597 0.06926 0.134446
23920 -0.2989303200000001 10.094558670000001 0.07619427 -0.427152 6.8e-05 0.086747
23940 -0.37781253 9.935440470000001 0.23770611 -0.449801 -0.055242999999999993 0.085591
23960 -0.44561925 9.765246780000002 0.27482715 -0.330389 -0.110901 0.048041
23980 -0.46807434000000003 9.712106010000001 0.182466 -0.195248 -0.205054 0.033082
24000 -0.40416219000000003 9.93005478 0.12873663 -0.02664 -0.21303200000000005 0.017178
24020 -0.22423698 9.91972485 0.11166723 0.097032 -0.016301 -0.003574000000000001
24040 -0.25866027 10.026153540000001 -0.016618140000000003 0.094962 0.277553 0.038764
24060 -0.35371917 10.061175240000003 0.034874550000000004 0.104207 0.44367 0.047161
24080 -0.34518447 9.917772660000002 0.20761884 0.089434 0.473575 0.04061
24100 -0.35566155000000005 9.787397760000001 0.26764623000000004 -0.006667 0.235219 0.057336
24120 -0.36583452 9.70103052 0.35386632 -0.006243 0.061701 0.026583
24140 -0.36479466 9.68620761 0.393381 -0.01741 -0.055415 0.020246
24160 -0.35461188 9.69818562 0.48349566000000005 -0.060075 -0.049952 0.023145
24180 -0.35131572000000005 9.709113960000002 0.58677534 -0.087636 0.012901 0.046373
24200 -0.36299943 9.72213183 0.6108785100000002 -0.08540199999999999 0.055424 0.06663
24220 -0.36299943 9.72856719 0.5999501700000001 -0.067203 0.07027 0.067807
24240 -0.32572143000000003 9.740545200000001 0.51148359 -0.038335 0.07234600000000001 0.056254999999999986
24260 -0.28245933 9.7465293 0.44637462000000006 -0.015719999999999998 0.09792 0.035016000000000005
24280 -0.25207776000000004 9.73920123 0.40400523 -0.001621 0.132028 0.017979
24300 -0.29997999 9.74324295 0.41104881000000004 0.015544999999999996 0.143724 0.00847
24320 -0.28381311 9.70476813 0.45879408 0.021912 0.142611 0.014925
24340 -0.28800198 9.724231170000001 0.6397689599999999 0.016487 0.130878 0.023448
24360 -0.24908571000000002 9.7465293 0.7951495500000001 0.011057 0.114896 0.028772
24380 -0.28515708 9.832307940000002 0.93001743 0.005612 0.094658 0.033033
24400 -0.32766381 9.81464013 0.99153594 -0.005157 0.07762999999999999 0.03832
24420 -0.3179421 9.87691401 1.20694392 -0.014783 0.073398 0.039327
24440 -0.26614530000000003 10.0789902 1.13508567 -0.019021 0.077682 0.037155
24460 -0.04969746 10.224188009999999 1.0779129900000002 -0.01684 0.078778 0.027555
24480 -0.29264211 10.40755653 0.7426071900000001 -0.006123 0.076662 0.014814
24500 -0.42062337 10.27074627 0.24578955000000002 0.002493 0.087314 0.007383
24520 -0.36209691 10.130482890000001 0.16555356 0.008947 0.094766 0.003146
24540 -0.30416886 9.939335040000001 0.5587874100000001 0.012143 0.091567 0.001036
24560 -0.17348985 9.68186178 0.97536906 0.012109 0.085172 0.002112
24580 -0.16076628 9.63980631 1.23462774 0.009918 0.074518 0.004247
24600 0.09355797 9.533976030000002 1.6374459600000002 0.008784 0.060669000000000015 0.005325
24620 -0.01122264 9.608365260000001 1.3404580200000002 0.006606999999999999 0.053211 0.007456
24640 -0.06571719 9.677525760000002 1.05994107 0.001254 0.047908 0.006357
24660 -0.03562992 9.74503818 1.0761079500000001 0.000144 0.039385 0.007428
24680 0.01047708 9.80461431 1.17011718 -0.000889 0.042602 0.003144
24700 -0.032932170000000004 9.84577707 1.19526021 0.005531 0.045779 0.002116
24720 -0.13172868000000001 9.89547453 1.10290887 0.009827 0.047912 -0.002129
24740 -0.16675038 9.88289811 1.03465089 0.009851 0.051116 -0.00427
24760 -0.16286562000000002 9.879307650000001 0.9424368900000001 0.006655 0.051132 -0.00536
24780 -0.08023599000000001 9.84412899 0.95501331 0.006670000000000001 0.054327 -0.005364
24800 -0.01272357 9.816141060000001 1.02761712 0.003421 0.046869 -0.002173
24820 0.013469130000000001 9.755515260000001 1.04034069 0.000168 0.034101 -0.003247
24840 0.01227231 9.752523210000001 1.05949962 -0.002004 0.027709 -0.001118
24860 0.00628821 9.727968780000001 1.06698465 0.000129 0.030884 0.002098
24880 -0.026192700000000003 9.763147440000001 1.06638624 -0.002004 0.033014 0.004217
24900 -0.029783160000000003 9.779167170000001 1.0841913900000002 0.001191 0.028754 0.00104
24920 -0.05658408 9.80086689 1.09198053 0.003325 0.027686 -1.2e-05
24940 -0.06406911000000001 9.78649524 1.09811178 0.0076019999999999985 0.027679 -0.002119
24960 -0.06601149 9.75685923 1.10320317 0.00864 0.023406 3e-05
24980 -0.03458025 9.800121330000001 1.05156333 0.009741 0.029798 -0.001038
25000 -0.03697389 9.80071974 1.01833686 0.009755 0.035116 0.001091
25020 -0.030685680000000003 9.81823059 1.01743434 0.0065450000000000005 0.03618 0.004272
25040 -0.00045126000000000004 9.80535987 1.03465089 0.004416 0.036191 0.003189
25060 -0.01317483 9.799974180000001 1.0398894300000001 0.002278 0.033011 0.001042
25080 -0.01092834 9.799522920000001 1.01444229 -0.000933 0.02877 -0.001112
25100 -0.04999176 9.78844743 0.98524773 0.0012109999999999998 0.029832 -0.002166
25120 -0.07753824000000002 9.78620094 0.99153594 0.001215 0.03408 0.001033
25140 -0.07724394 9.78574968 1.01698308 0.00443 0.040448000000000005 0.004252000000000001
25160 -0.07993188000000001 9.854753220000003 1.0005219 0.004459 0.045779 0.003177
25180 -0.09984618 9.827363700000001 0.9939295800000001 0.006612000000000001 0.046849 -1.4e-05
25200 -0.11001915 9.808803180000002 0.9909375300000001 0.003364 0.039391 0.0031780000000000003
25220 -0.09236115 9.83814489 0.97641873 0.002249 0.028742 0.003184
25240 -0.09220419 9.851015610000001 1.0008162 0.00012 0.030876 0.004234
25260 -0.09430353000000001 9.81434583 1.02865698 0.00012 0.031937 0.005301
25280 -0.06406911000000001 9.816582510000002 1.02282003 0.001191 0.032998 0.005307
25300 -0.07724394 9.74668626 1.01444229 0.001182 0.030868 0.0053100000000000005
25320 -0.06316659000000001 9.73650348 0.99423369 0.000125 0.03088 0.003166
25340 -0.07648857 9.783650340000001 1.01877831 -0.0019760000000000003 0.036222 0.001008
25360 -0.10687995 9.80505576 1.0096550100000001 -0.000923 0.033023000000000004 0.001019
25380 -0.11525769000000001 9.84547296 1.00530918 0.004386999999999999 0.024495 -0.002137
25400 -0.11077452 9.83274939 1.00681011 0.001191 0.026632 -0.001094
25420 -0.13517199 9.820477080000002 1.0057604400000002 -0.000942 0.030884 0.003159
25440 -0.13367106 9.829158930000002 1.00291554 0.002321 0.044721 0.003164
25460 -0.13816404 9.78455286 1.01549196 0.004469 0.046848 0.002108
25480 -0.13142457 9.78500412 1.03674042 0.005512 0.039396 -1.2e-05
25500 -0.11900511 9.79353882 1.0330028100000002 0.003344 0.029825 -0.002151
25520 -0.13801689 9.78185511 1.0324044 0.001225 0.033027999999999995 -0.00217
25540 -0.14579622 9.79593246 1.03674042 0.00123 0.037276 0.001029
25560 -0.13247424000000002 9.80176941 1.0428814800000001 0.001201 0.033007 0.003171
25580 -0.12094749 9.80176941 1.0532114099999998 0.002249 0.027681 0.002117
25600 -0.12783411 9.78185511 1.04228307 0.004386999999999999 0.027678 0.001063
25620 -0.09295956000000001 9.791439480000001 1.0295595 0.004344 0.020212 0.0032090000000000005
25640 -0.10792962 9.811049670000001 1.04991525 0.0075400000000000016 0.020197 0.0043
25660 -0.11256975000000001 9.81538569 1.03285566 0.007573000000000002 0.028715 0.005357
25680 -0.11047041 9.79084107 1.0204263900000001 0.007606999999999998 0.036172 0.005348
25700 -0.06586434000000001 9.80086689 1.04138055 0.005493 0.04044 0.005328
25720 -0.08292393 9.800121330000001 1.0434798900000002 0.003368 0.043639 0.006377000000000001
25740 -0.08786817 9.78529842 1.02506652 0.005608 0.062823 0.002095
25760 -0.08397360000000001 9.78156081 1.0404878400000002 0.006631000000000001 0.056415 0.005315
25780 -0.11001915 9.77452704 1.03914387 0.00024 0.054324 0.001
25800 -0.10942074000000002 9.78889869 1.0440783 -0.01152 0.047978 -0.00014199999999999998
25820 -0.12888378 9.81119682 1.03374837 -0.017993000000000002 0.033082 0.0009
25840 -0.13022775 9.787692060000001 1.0343467800000004 -0.012606 0.044782 0.000923
25860 -0.10523187 9.81373761 1.0267146 -0.006205 0.04582 0.002034
25880 -0.10733121 9.80820477 1.0060547400000002 -0.0008560000000000001 0.051119 0.004201
25900 -0.09864936 9.883202220000001 1.0093509 0.000197 0.050042 0.006347
25920 -0.10762551000000001 9.84951468 1.01145024 -0.000875 0.04898 0.00634
25940 -0.10882233000000001 9.80925444 1.02566493 0.00444 0.045762 0.00745
25960 -0.15178032 9.80775351 1.02282003 0.003344 0.040435000000000006 0.008517
25980 -0.12005478000000001 9.759556980000001 0.99468495 0.001172 0.035102999999999995 0.011714
26000 -0.10073889000000001 9.77048532 0.9904862700000001 -0.000995 0.029776 0.013841999999999998
26020 -0.08981055 9.76704201 0.9954305100000002 5.3e-05 0.026572 0.014921
26040 -0.10673280000000002 9.819133110000001 0.98390376 0.007578 0.035085000000000005 0.01069
26060 -0.09939492000000001 9.83963601 1.0005219 0.014008 0.039332 0.008593
26080 -0.12544047 9.847719450000001 0.9860031 0.022639 0.057425 0.005425999999999999
26100 -0.10283823 9.837095220000002 0.9746235 0.0377 0.080825 0.001228
26120 -0.0896634 9.81868185 0.99348813 0.04522 0.089334 -0.001935
26140 -0.10956789 9.77601816 1.00635885 0.037743 0.091474 0.002283
26160 -0.11975067000000002 9.81045126 1.0220744700000002 0.03237 0.08190900000000001 0.001189
26180 -0.09400923 9.79038981 1.0207305 0.02915 0.082964 0.006506999999999999
26200 -0.09100737 9.78036399 1.04782572 0.022759 0.089361 0.010727
26220 -0.15118191 9.74997261 1.0503665100000001 0.013175999999999998 0.092595 0.009587
26240 -0.12498921000000002 9.755966520000001 1.07536239 0.00246 0.080919 0.008459
26260 -0.10762551000000001 9.80206371 1.0585971 -0.007195 0.068173 0.00734
26280 -0.12139875000000001 9.810304109999999 1.05111207 -0.015778 0.055428 0.0051600000000000005
26300 -0.10762551000000001 9.807459210000001 1.0235754000000001 -0.018988 0.053309 0.00514
26320 -0.12663729 9.80041563 0.95247252 -0.016849 0.052245000000000014 0.00302
26340 -0.12828537000000004 9.817033770000002 0.9562101300000001 -0.012572 0.055421000000000005 0.0041140000000000005
26360 -0.12169305 9.821075490000002 0.93779676 -0.004023 0.06070900000000001 0.006303
26380 -0.10583028000000001 9.81449298 0.8916995700000001 0.003455 0.062814 0.006353
26400 -0.14878826999999997 9.86194395 0.8928963900000001 0.011975 0.060649 0.007483
26420 -0.09954207 9.84876912 0.91459611 0.020491 0.05635800000000001 0.007548
26440 -0.13486788 9.8444331 0.94812669 0.021539 0.052094000000000015 0.007561
26460 -0.1041822 9.80445735 0.97342668 0.021486 0.040376 0.007576
26480 -0.12678444 9.79772769 0.9849534300000001 0.021457 0.032923 0.006517
26500 -0.12244842 9.830502899999999 0.99333117 0.019319 0.032926 0.00757
26520 -0.11406087000000001 9.79413723 1.02566493 0.019357 0.040387 0.0064930000000000005
26540 -0.12020193000000001 9.771230880000001 1.0268617500000001 0.023668 0.04996 0.006511
26560 -0.14923953 9.839940120000001 1.0220744700000002 0.026926 0.06061 0.004383
26580 -0.11810259 9.88110288 1.03120758 0.022711 0.071282 0.003272
26600 -0.10807677000000002 9.86149269 1.05665472 0.017377 0.069178 0.001101
26620 -0.12229146 9.829610190000002 1.06578783 0.008789 0.055368 -0.001078
26640 -0.14714019 9.77273181 1.04542227 0.000192 0.039428 -0.003254
26660 -0.05837931 9.71854137 1.04946399 -0.012687 0.023489 -0.002255
26680 -0.025898400000000002 9.655816230000001 1.0698295500000001 -0.01596 0.011765 0.00201
26700 -0.043860510000000005 9.676181790000001 1.07641206 -0.014922 0.007492 0.004159
26720 -0.04595004000000001 9.73425699 1.08284742 -0.008492 0.011739 0.002062
26740 -0.07139718 9.792783450000002 1.06263882 -0.004215 0.014916 0.003156
26760 -0.0868185 9.82272357 1.06653339 0.001124 0.014901 0.002125
26780 -0.11420802000000001 9.82332198 1.04617764 0.011831 0.021264 5.5e-05
26800 -0.09145863 9.767189160000001 0.9894464100000001 0.017204 0.029768 8.2e-05
26820 -0.11945637 9.77003406 0.9455859000000001 0.01719 0.025511 -0.000981
26840 -0.09849240000000001 9.79593246 0.88945308 0.018257 0.022324 -0.004174000000000001
26860 -0.10673280000000002 9.807302250000001 0.8749342800000001 0.018257 0.024446 -0.00204
26880 -0.13666311 9.850417199999999 0.8704413 0.020405 0.031879000000000005 0.002238
26900 -0.11106882000000001 9.86343507 0.85277349 0.01828 0.034017 0.002221
26920 -0.10313253 9.87151851 0.82837602 0.015066 0.028710000000000006 6.8e-05
26940 -0.11360961 9.867035340000001 0.8777791800000001 0.010774 0.022338 -0.001022
26960 -0.08816247 9.84622833 0.90022446 0.006468000000000001 0.014891 2.6e-05
26980 -0.08996751000000001 9.833946209999999 0.93899358 3.8e-05 0.009583 0.001056
27000 -0.0896634 9.811049670000001 0.960399 -0.001014 0.011722 -2.2e-05
27020 -0.09729558 9.77452704 0.9692378100000001 -0.001005 0.013852 -2.5e-05
27040 -0.08772102000000001 9.73635633 1.01234295 6.7e-05 0.015975 0.001048
27060 -0.04340925 9.743390100000001 1.0591955100000001 0.001134 0.015971 0.001056
27080 -0.06002739000000001 9.74997261 1.06952544 0.00433 0.013834 1.3e-05
27100 -0.07079877000000001 9.799218810000001 1.05111207 0.005397 0.01383 2e-05
27120 -0.04879494 9.835594290000001 1.03165884 0.011817 0.017006999999999998 -0.001007
27140 -0.07304525999999999 9.77003406 1.0264203 0.015027 0.020188 7.900000000000001e-05
27160 -0.08532738000000001 9.775419750000001 0.9759674700000001 0.021462 0.027622000000000004 0.000115
27180 -0.07603731000000002 9.77692068 0.9123496200000001 0.022534 0.028684 0.000121
27200 -0.07349652000000001 9.79428438 0.86130819 0.021457 0.026557 0.000116
27220 -0.11391372000000001 9.795775500000001 0.8372050200000001 0.021471 0.028692 -0.000955
27240 -0.12678444 9.84083283 0.8035272900000001 0.01829 0.032964 -0.000983
27260 -0.13666311 9.952352910000002 0.83032821 0.014013 0.03297 0.001124
27280 -0.13262139 9.951754500000002 0.85412727 0.004392 0.029804 0.002129
27300 -0.13546629000000002 9.88334937 0.8975365200000001 0.00011 0.024501 -3.1e-05
27320 -0.13816404 9.861041430000002 0.86625243 -0.00309 0.02239 -0.002187
27340 -0.12080034 9.76568823 0.8855585100000001 -0.003081 0.024521 -0.002189
27360 -0.06720831000000001 9.73336428 0.9304686900000001 0.000115 0.023444 -0.002166
27380 -0.06002739000000001 9.763598700000001 0.9729754200000001 -0.002019 0.025574 -4.7e-05
27400 -0.07364366999999998 9.77976558 0.98689581 -0.003071 0.030895 0.002075
27420 -0.08786817 9.823920390000001 0.9577110600000001 0.002282 0.033016000000000004 -2.6e-05
27440 -0.08846658 9.84458025 0.9710330400000001 0.008712000000000001 0.031958 -0.007458
27460 -0.07933347 9.854910180000001 1.0011203100000001 0.008722 0.034088 -0.00746
27480 -0.0782838 9.79892451 0.9717786 0.013008 0.039396 -0.006369
27500 -0.11092167 9.7692885 0.9511187400000001 0.017305 0.045772 -0.006347
27520 -0.0896634 9.763598700000001 0.9324110700000001 0.017338 0.055351 -0.004222999999999999
27540 -0.1013373 9.780511140000002 0.93331359 0.017343 0.054294000000000016 -0.006358
27560 -0.12753 9.81478728 0.9349518600000001 0.018405 0.051103 -0.008483
27580 -0.12828537000000004 9.85745097 0.90322632 0.016257 0.047915 -0.008494
27600 -0.13726152 9.867928049999998 0.86999004 0.010884 0.042595 -0.00532
27620 -0.12603888 9.85190832 0.9113097600000001 0.009789 0.037268 -0.004252000000000001
27640 -0.12334113000000002 9.83948886 0.8973795600000001 0.014056 0.038314 -0.003156
27660 -0.11929941000000001 9.80550702 0.8958884400000001 0.018372 0.047891 -0.0042060000000000005
27680 -0.13037490000000002 9.816141060000001 0.9247788900000001 0.018333 0.040429 -0.003128
27700 -0.11945637 9.82676529 0.9574069500000001 0.014018 0.034036000000000004 0.001123
27720 -0.11436498 9.795029940000001 0.96654006 0.012961000000000002 0.034048 -0.001021
27740 -0.0865242 9.77092677 0.97836111 0.01297 0.035118 -0.002091
27760 -0.09086022 9.77946147 0.99588177 0.012961000000000002 0.034048 -0.001021
27780 -0.07663572 9.784405710000001 1.00501488 0.014018 0.031914 -0.001011
27800 -0.09236115 9.77946147 0.9949792500000001 0.012965 0.034052 -0.00209
27820 -0.10987200000000001 9.780658290000002 1.0000706400000001 0.010827 0.034055 -0.001036
27840 -0.10912644 9.771378030000001 0.9726811200000001 0.012994 0.041505 -0.001031
27860 -0.11226564 9.7897914 0.94379067 0.014051 0.040432 4.6e-05
27880 -0.10238697000000001 9.80236782 0.9139977 0.009784 0.040446 1.7e-05
27900 -0.13636880999999998 9.828266220000001 0.88795215 0.010841 0.039373000000000005 0.001093
27920 -0.13307265000000001 9.83454462 0.90277506 0.007645 0.04045 0.00107
27940 -0.12199716 9.790988220000001 0.9253773000000001 0.009803 0.042586 -0.002123
27960 -0.11226564 9.812246490000001 0.88929612 0.011937 0.0447 2.6e-05
27980 -0.1041822 9.919420740000001 0.8783775899999999 0.009803 0.045769 0.001078
28000 -0.11077452 9.90879651 0.91265373 0.007689 0.050037 0.001058
28020 -0.14235291 9.85371336 0.896634 0.009841 0.052169000000000014 -0.001066
28040 -0.15672456 9.79742358 0.89139546 0.010899 0.048973 -0.002123
28060 -0.10014048 9.74099646 0.8858626199999999 0.011942 0.044704 -0.001042
28080 -0.08053029000000002 9.76044969 0.89797797 0.010894 0.048969 -0.0010550000000000002
28100 -0.10373094000000001 9.80535987 0.88450884 0.01088 0.048956 0.00215
28120 -0.11061756 9.849073230000002 0.8590617000000002 0.007654999999999999 0.046824 0.005335
28140 -0.1300806 9.836192700000002 0.8539703100000001 0.006583 0.043641 0.003195
28160 -0.1240965 9.850417199999999 0.8098155 0.008717 0.043633 0.00321
28180 -0.13472073 9.81538569 0.82748331 0.009779 0.040442 0.001085
28200 -0.14130323999999997 9.84532581 0.80502822 0.0033590000000000004 0.038326 0.003179
28220 -0.1591182 9.826912440000001 0.8157996000000001 0.000168 0.040467 0.003154
28240 -0.17767872 9.795029940000001 0.8300241 0.002349 0.047929 -4.5e-05
28260 -0.15193728 9.80865603 0.8674492500000001 0.002364 0.052186 0.001018
28280 -0.14773860000000003 9.82526436 0.87718077 0.00234 0.045799 -4.2e-05
28300 -0.15163317 9.81299205 0.8885505600000001 0.001263 0.040489 -0.003248
28320 -0.16839846000000003 9.8216739 0.8496342900000001 0.001254 0.041542 -4.4e-05
28340 -0.18411408 9.82332198 0.85951296 0.000192 0.045794 0.003147
28360 -0.13936086 9.783954450000001 0.86070978 -0.0008990000000000002 0.042593 0.00528
28380 -0.16450389 9.810304109999999 0.86056263 0.000168 0.040467 0.003154
28400 -0.17035065000000002 9.820025820000001 0.84708369 0.00123 0.039398 0.003163
28420 -0.1793268 9.820477080000002 0.86370183 0.00444 0.038335 -1.8e-05
28440 -0.1793268 9.834995880000001 0.87253083 0.005521 0.040466 -0.001082
28460 -0.173637 9.808351920000002 0.8494871400000001 0.005512 0.042579 0.003189
28480 -0.17229302999999999 9.81 0.8306225100000001 0.004459 0.044718 0.0021100000000000003
28500 -0.1588239 9.82032993 0.8394515100000001 0.002325 0.044725 0.002095
28520 -0.19654335 9.827814960000001 0.83780343 -0.0008849999999999998 0.043667 0.003143
28540 -0.16466085 9.82078119 0.8357139 -0.005176 0.037294 0.002052
28560 -0.17198892 9.813139200000002 0.82927854 -0.0041140000000000005 0.034102999999999994 -7.2e-05
28580 -0.13053186 9.81434583 0.8184973500000001 -0.000918 0.034088 0.001018
28600 -0.15358536 9.80909748 0.8244814500000002 -0.0019760000000000003 0.038344 0.0031420000000000003
28620 -0.14354973000000004 9.810304109999999 0.79888716 0.001239 0.04259 0.004227000000000001
28640 -0.15373251000000002 9.81074556 0.80367444 0.001249 0.04472 0.004224
28660 -0.15387966000000003 9.828266220000001 0.80218332 0.000201 0.046863 0.002078
28680 -0.16765290000000002 9.7986204 0.8157996000000001 0.005536 0.045783 0.001048
28700 -0.16630893 9.7866522 0.82912158 0.00234 0.047921 0.002091
28720 -0.16002072 9.8415882 0.8026345800000001 0.000192 0.045794 0.003147
28740 -0.16390548000000002 9.88170129 0.83032821 0.001297 0.05219 0.00101
28760 -0.17035065000000002 9.81688662 0.85247919 0.002349 0.051112 0.003156
28780 -0.19145196 9.831258270000001 0.84559257 0.000182 0.045785 0.0052840000000000005
28800 -0.15762708 9.78485697 0.8379603900000001 -0.0008939999999999998 0.044719 0.006346
28820 -0.16016787000000002 9.775723860000001 0.78915564 -0.005167000000000001 0.043669 0.0063170000000000006
28840 -0.14340258 9.79009551 0.7839171000000001 -0.006248 0.041538 0.007381
28860 -0.13172868000000001 9.84307932 0.7927559100000001 -0.004133 0.036208 0.006334
28880 -0.14954364 9.846669780000001 0.77943393 -0.000933 0.036197 0.0063560000000000005
28900 -0.17004654 9.84592422 0.7699967099999999 -0.000918 0.039393 0.006352
28920 -0.17198892 9.85295799 0.77478399 -0.000918 0.039393 0.006352
28940 -0.17812998000000002 9.80131815 0.83122092 0.001235 0.042586 0.005295
28960 -0.17019369 9.801171 0.78826293 0.002292 0.040451 0.005305
28980 -0.16615197 9.836496810000002 0.795591 -0.000918 0.03621 0.003152
29000 -0.16466085 9.829610190000002 0.7973960400000001 -0.004124 0.036217 0.004198
29020 -0.18516375000000002 9.848170710000002 0.8165549700000001 -0.005171 0.039421 0.003118
29040 -0.19833858000000001 9.80131815 0.8071177500000001 -0.001947 0.042614 0.001
29060 -0.18590931 9.81434583 0.8155053 -0.0041140000000000005 0.038347000000000006 0.004195
29080 -0.16645608 9.79758054 0.7984359000000001 -0.007324 0.034106 0.002042
29100 -0.18875421000000003 9.823174830000001 0.79933842 -0.003038 0.03623 -6.8e-05
29120 -0.19369845 9.8418825 0.8063721899999999 -0.004104 0.040478 0.004192
29140 -0.17678601 9.837840779999999 0.8015849100000001 -0.005176 0.041538 0.00632
29160 -0.20163474 9.875717190000001 0.7937957700000001 -0.006267 0.036216000000000005 0.006319
29180 -0.20238030000000004 9.848170710000002 0.80532252 -0.003042 0.037287 0.0020670000000000003
29200 -0.20971818000000003 9.816739470000002 0.80218332 -0.001961 0.04154 0.003138
29220 -0.17917965 9.80760636 0.8069706000000001 -0.000909 0.03834 0.003149
29240 -0.19833858000000001 9.80865603 0.82808172 -0.000909 0.039401 0.004215999999999999
29260 -0.17842428 9.80385894 0.8126604000000001 0.001235 0.041525 0.004228
29280 -0.17573634 9.79802199 0.79799445 -0.0019760000000000003 0.041527 0.006342
29300 -0.15418377 9.82526436 0.8190957600000001 -0.004138 0.039387 0.010603
29320 -0.16540641000000003 9.84083283 0.8014377600000001 -0.004128 0.039396 0.008466
29340 -0.15672456 9.85190832 0.8152011900000001 -0.004118999999999999 0.042587 0.009531
29360 -0.16106058000000004 9.828707670000002 0.81206199 -0.001956 0.044727 0.00527
29380 -0.15282999000000003 9.80895033 0.85277349 0.00016299999999999998 0.042585000000000005 0.0063560000000000005
29400 -0.16884972000000004 9.7954812 0.83691072 0.000168 0.042589 0.005288
29420 -0.16241436 9.80490861 0.82777761 0.000168 0.042589 0.005288
29440 -0.173637 9.8014653 0.8253839700000001 -0.000889 0.044724 0.005278
29460 -0.18786150000000001 9.818377739999999 0.79050942 -0.000904 0.04365 0.0074150000000000015
29480 -0.17318574 9.851162760000001 0.8273263500000001 -0.004133 0.036208 0.006334
29500 -0.15657741000000003 9.82841337 0.84184515 -0.005205 0.034086 0.005261
29520 -0.17394111 9.810304109999999 0.80861868 -0.007334 0.03622 0.006312
29540 -0.14280417 9.90056592 0.8108651700000001 -0.007329 0.037285000000000006 0.0063100000000000005
29560 -0.15043635 9.852359580000002 0.8704413 -0.007334 0.035159 0.0052450000000000005
29580 -0.15792137999999997 9.831552570000001 0.8717852700000001 -0.007324 0.035167000000000004 0.003108
29600 -0.18067077 9.820477080000002 0.8258352300000001 -0.006267 0.034094 0.004185
29620 -0.16600482 9.75491685 0.8083145700000001 -0.0052 0.035151 0.00526
29640 -0.12379239 9.73815156 0.8157996000000001 -0.003062 0.03727 0.00634
