time Ax Ay Az Gx Gy Gz
20 5.1540857099999995 8.266857569999999 -0.44217594000000005 -0.03127 0.025278 0.099094
40 4.66609707 8.652459240000002 -0.37706697 -0.035427 0.032818 0.081964
60 4.44321387 8.901387990000002 -0.23860863000000002 -0.044703 0.041629 0.017794
80 4.385580120000001 8.78658156 -0.16555356 -0.076723 -0.017688 -0.038969
100 4.59080532 8.82384975 -0.37616445 -0.107456 0.015494999999999997 -0.052045000000000015
120 4.859648370000001 8.79990354 -0.42915807000000006 -0.150092 0.031593 -0.044886
140 4.86264042 8.45277669 -0.11226564 -0.16830499999999998 0.022039 -0.037523
160 5.10797871 8.4158028 -0.37781253 -0.178782 0.075297 -0.026983
180 5.74805178 8.61233634 -0.28231218 -0.209755 0.105084 0.010151
200 5.57141292 8.24081202 0.15942230999999998 -0.114862 0.106823 0.025766000000000004
220 5.2474867199999995 8.4132522 0.329616 -0.122392 0.07814600000000001 0.010795
240 4.77941238 9.118591200000001 -0.17543223 -0.143734 0.045325 -0.021358
260 4.19039055 9.14029092 -0.19564083 -0.13304100000000002 0.048492 -0.023424
280 4.30130241 8.75214846 -0.10298538000000002 -0.13096 0.05056 -0.009525
300 4.490507879999999 8.326580850000001 0.49157910000000005 -0.12883599999999998 0.060093 0.002228
320 4.812344550000001 8.09307342 0.42870681 -0.12784600000000002 0.045167 0.00439
340 5.07384972 8.496480240000002 0.20761884 -0.112968 0.031271 0.003444
360 5.273983530000001 9.15676191 -0.31778514 -0.092649 0.037609 -0.000695
380 5.17308768 8.939862810000001 -0.18172044 -0.07449299999999999 0.037562 -0.004841
400 4.69917639 8.654254470000001 0.7960422600000001 -0.060604999999999985 0.042836 -0.003683
420 4.46775849 8.76981627 0.34892208 -0.057428 0.043864 0.002747
440 4.438416780000001 8.72206119 0.11465928000000002 -0.052228 0.022506 0.011357
460 4.671786870000002 8.56728882 0.37092590999999997 -0.034188 7.7e-05 0.010443
480 5.055887610000001 8.557998750000001 0.4713705 -0.029882 0.003279 0.005128
500 5.05259145 8.637185070000001 0.40026762 -0.018074 0.014972999999999997 0.000923
520 4.924904489999999 8.636292359999999 0.32631984 -0.021198 0.033089 0.001946
540 4.782855690000001 8.60321304 0.44472654 -0.051022000000000005 0.035358 -0.006811
560 4.70112858 8.668322009999999 0.37347651000000004 -0.059485 0.036513 -0.021827000000000003
580 4.7111544 8.793468180000001 0.23995260000000002 -0.043382 0.053523 -0.027077
600 4.689003420000001 8.816217570000001 0.36419625 -0.007075 0.062975 -0.024699
620 4.7503747800000005 8.71847073 0.54876159 0.026003 0.06816799999999999 -0.020202
640 4.838537250000001 8.6939163 0.59935176 0.049593 0.080925 -0.03394
660 4.88689074 8.71832358 0.5623778700000001 0.065802 0.11076 -0.049889
680 4.90634397 8.69512293 0.6122224800000001 0.051029000000000005 0.131116 -0.066041
700 4.846767840000001 8.630298450000002 0.65533743 0.02455 0.158966 -0.081217
720 4.78704456 8.61054111 0.7662591000000001 9.3e-05 0.157002 -0.101682
740 4.627779210000001 8.689727430000001 0.6942537000000001 -0.023397 0.147518 -0.107175
760 4.62268782 8.75514051 0.73931103 -0.052216999999999986 0.13911800000000002 -0.112706
780 4.61849895 8.75753415 0.77059512 -0.067114 0.139204 -0.121356
800 4.58496837 8.76262554 0.7813763100000001 -0.06277 0.150929 -0.126682
820 4.50054351 8.852141790000001 0.8360082000000001 -0.043615 0.145514 -0.1212
840 4.410576 8.880885090000001 0.83540979 -0.016034 0.1283 -0.102826
860 4.44290976 8.84255742 0.7774817399999999 0.0008529999999999999 0.117469 -0.072784
880 4.60083114 8.69976306 0.6277909500000002 -0.00474 0.091793 -0.040743
900 4.72791969 8.681349690000001 0.61686261 0.009062 0.092746 -0.024625
920 4.8199767300000005 8.68943313 0.58947309 0.00713 0.114153 -0.048166
940 4.847964660000001 8.525821950000001 0.6969514500000001 0.000944 0.143014 -0.067475
960 4.795128 8.50530924 0.53663643 0.015981 0.17488099999999998 -0.057796000000000014
980 4.82327289 8.59333437 0.29084688000000003 0.027568 0.181074 -0.018199
1000 4.87416717 8.67580704 0.26435007 0.029184 0.112702 0.028901
1020 4.91323059 8.77520196 0.36254817 0.007612000000000002 0.071189 0.039486
1040 4.8585987 8.77175865 0.37601730000000005 0.032317 0.104143 0.035344
1060 4.78150191 8.75514051 0.38664153 0.032797 0.163986 -0.011731
1080 4.6997748 8.681045580000001 0.32033574000000004 0.009494 0.176949 -0.03648
1100 4.688846460000001 8.68015287 0.21300453 -0.006490000000000001 0.163229 -0.054734000000000005
1120 4.78734867 8.66757645 0.34188831000000003 -0.007667 0.144037 -0.049376
1140 5.01666723 8.93342745 0.55040967 -0.002405 0.156686 -0.020514
1160 4.91083695 8.94958452 0.6950090700000001 -0.000324 0.15450999999999998 -0.010882
1180 4.80665475 8.91516123 0.7876645200000001 -0.003539 0.13541 -0.026904
1200 4.414019310000001 8.7488523 0.8169964200000002 -0.001333 0.136527 -0.041845
1220 4.01734215 8.50471083 0.5761511099999999 0.045753 0.171504 -0.038356
1240 4.09638132 8.54423532 0.43110045 0.088604 0.217136 -0.031706
1260 4.37001165 8.783432549999999 0.9066598200000001 0.101469 0.24155 -0.020965
1280 4.64679099 9.26887059 1.29495924 0.095039 0.241547 -0.014601
1300 4.446353070000001 8.83777014 1.14526845 0.091767 0.229823 -0.010336
1320 4.58286903 8.60829462 0.8306225100000001 0.090671 0.234045 0.000333
1340 4.83779169 8.65619685 0.7445495700000001 0.08227999999999999 0.26815500000000003 0.002368
1360 4.78195317 8.70904332 0.75158334 0.07588400000000001 0.273486 0.006589
1380 4.575835260000001 8.74676277 0.6785380799999999 0.081117 0.251097 0.006654
1400 4.37780079 8.931475260000001 0.5776520400000001 0.076859 0.246877 0.000221
1420 4.23005238 9.111106170000001 0.48603645 0.077945 0.24689 -0.004045
1440 4.28648931 8.999438940000001 0.72718587 0.069415 0.239497 -0.012641
1460 4.3439661 8.873547210000002 0.8066763 0.054316 0.199086 -0.016967
1480 4.31897022 8.88447555 0.86505561 0.018789 0.14163 -0.003255
1500 4.28977566 8.89076376 0.81056106 -0.008265999999999999 0.073478 0.013735
1520 4.430637450000001 8.73897363 0.80427285 -0.028772 0.035144 0.027528
1540 4.51341423 8.69197392 0.93869928 -0.025509 0.050042 0.0286
1560 4.59693657 8.89824879 0.9710330400000001 -0.013529 0.086292 0.010477
1580 4.50279 9.011112840000001 0.8405011800000001 0.009000000000000001 0.095874 -0.007537999999999999
1600 4.452337170000001 8.90588097 0.72194733 0.015387 0.083107 -0.017091
1620 4.4062399800000005 8.85513384 0.6974027100000001 0.024974 0.069267 -0.027688
1640 4.36357629 8.808879690000001 0.72673461 0.032385000000000004 0.063885 -0.020152
1660 4.41327375 8.777448450000001 0.7155119700000001 0.038747 0.07231699999999999 -0.003027
1680 4.54709196 8.701401330000001 0.73407249 0.0398 0.08291 0.010854
1700 4.7066614200000005 8.51309838 0.5978606400000002 0.036628 0.091435 0.012957
1720 4.956639840000001 8.323294500000001 0.52271604 0.02816 0.09789 0.004344
1740 5.061126150000001 8.457259859999999 0.69336099 0.022797 0.079846 -0.007421
1760 4.944367530000001 8.84376405 0.9515699999999999 0.011057 0.07033400000000001 -0.016036
1780 4.63346901 9.08161731 1.07521524 0.003584000000000001 0.07035599999999999 -0.01502
1800 4.26448548 9.04179852 1.07266464 0.00034 0.065024 -0.010763
1820 4.06150677 8.97413895 1.05186744 -0.000789 0.05224 -0.009686
1840 4.06868769 8.85917556 0.9592021800000001 -0.001904 0.039469 -0.011814
1860 4.25460681 8.736727140000001 0.92463174 0.00555 0.040491 -0.0074909999999999985
1880 4.41581454 8.711584109999999 0.8840575800000001 0.011985 0.054291999999999986 -0.0010539999999999998
1900 4.55472414 8.804239560000001 0.89259228 0.010942 0.060683 -1e-06
1920 4.57598241 8.90647938 0.92971332 0.004593 0.06924 -0.003261
1940 4.421955600000001 8.93162241 0.94618431 0.004632 0.071396 -0.009673
1960 4.2950142 8.93866599 0.88765785 0.006712999999999999 0.063915 -0.005376
1980 4.282889040000001 8.85723318 0.8360082000000001 -0.002985 0.052192 0.004185
2000 4.30160652 8.79675453 0.8074218599999999 -0.0031 0.034053 0.011685
2020 4.42001322 8.8350822 0.8027817300000001 0.006459 0.028676 0.016031999999999998
2040 4.42300527 8.83956537 0.90142128 0.006459 0.02231 0.009631
2060 4.422701160000001 8.856183510000001 0.89079705 0.008645 0.026593 0.002163
2080 4.40878077 8.867259 0.7939527300000001 0.014071 0.040449 -0.004226
2100 4.3767511200000015 8.825193720000001 0.86549706 0.008727 0.043642 0.001073
2120 4.3007040000000005 8.84255742 0.8740317600000002 -0.007286 0.048994 0.008431999999999999
2140 4.24098072 8.84315583 0.8750814299999999 -0.012615 0.054322 0.012661
2160 4.29053103 8.87369436 0.8675963999999999 -0.009386 0.058579999999999986 0.010542
2180 4.39156422 8.86651344 0.85382316 -0.01041 0.058623 0.00092
2200 4.51595502 8.868161520000001 0.75846996 -0.007137 0.065041 -0.008679000000000001
2220 4.52793303 8.83313001 0.74844414 -0.002827 0.073553 -0.009728
2240 4.48138458 8.82071055 0.80472411 0.001398 0.0735 -8.4e-05
2260 4.37914476 8.91126666 0.7791298200000001 -0.005128 0.05749600000000001 0.011641
2280 4.340826900000001 8.97593418 0.8270320499999999 -0.007358 0.040442 0.01592
2300 4.307139360000002 8.92339182 0.91774512 -0.004229 0.025513 0.017029
2320 4.27271607 8.8413606 0.85786488 -0.0053100000000000005 0.015955 0.010625
2340 4.321363860000002 8.82250578 0.84289482 -0.008506 0.012787 0.006334
2360 4.3983036900000005 8.83972233 0.8514295199999999 -0.019151 0.013907 0.001985
2380 4.34561418 8.83178604 0.8761311 -0.029805 0.020323 0.005107
2400 4.20580206 8.873243100000002 0.8403540300000001 -0.025547 0.0203 0.007273000000000002
2420 4.20026922 8.905135410000002 0.7945511400000002 -0.01807 0.021343 0.006256
2440 4.401747 8.87758893 0.83167218 -0.01694 0.025639 -0.003356
2460 4.55906997 8.824448160000001 0.85801203 -0.020107 0.032046 -0.004454
2480 4.56490692 8.765019180000001 0.83346741 -0.017998 0.036261 0.005169
2500 4.54904415 8.80978221 0.8012807999999999 -0.018031 0.037292 0.013713
2520 4.5234400500000005 8.82250578 0.7791298200000001 -0.01596 0.023436 0.013745
2540 4.47015213 8.77580037 0.84933018 -0.01386 0.01385 0.011636
2560 4.38139125 8.76742263 0.80682345 -0.005301 0.018086 0.010622
2580 4.388572170000001 8.81247015 0.75638043 0.0054210000000000005 0.034010000000000006 0.014949
2600 4.4424585 8.88447555 0.7481400300000001 0.005459 0.042532 0.014939
2620 4.506076350000002 8.825497830000002 0.8539703100000001 0.004411 0.038309 0.006391
2640 4.470004980000001 8.796460230000001 0.92073717 -0.007329 0.03198 0.000976
2660 4.35159828 8.90633223 0.83750913 -0.000913 0.039397 0.0052840000000000005
2680 4.31402598 8.91920295 0.80562663 0.007593000000000002 0.046769 0.019221
2700 4.423299570000001 8.813971080000002 0.79769034 0.0043630000000000006 0.04251 0.02134
2720 4.50143622 8.77520196 0.8652027600000002 -0.004181 0.031922000000000006 0.012749
2740 4.45039479 8.828342730000001 0.93016458 -0.003076 0.036196 0.008478
2760 4.32959445 8.83941822 0.85681521 0.000149 0.043633 0.010627
2780 4.3325865 8.83313001 0.75697884 0.005497 0.049993 0.013861000000000002
2800 4.45833108 8.89360866 0.8035272900000001 0.012985 0.049984 0.009641
2820 4.4914104 8.89944561 0.9455859000000001 0.022567 0.04569 0.009713
2840 4.428538110000001 8.85797874 0.91310499 0.040627 0.044497 0.025864
2860 4.36013298 8.86352139 0.86340753 0.04577 0.0146 0.038757
2880 4.3553457 8.87429277 0.8675963999999999 0.027475 -0.038527 0.020537
2900 4.466257560000001 8.80902684 0.95995755 -0.018372 -0.07229400000000001 -0.020332
2920 4.462372800000001 8.73389205 0.97522191 -0.039551 -0.07950499999999999 -0.063199
2940 4.36791231 8.835523649999999 0.8931906900000001 -0.053305 -0.06344 -0.07293
2960 4.34307339 8.91351315 0.82837602 -0.065088 -0.056014 -0.054862
2980 4.38423615 8.83163889 0.8674492500000001 -0.07044600000000001 -0.049651 -0.043157
3000 4.44560751 8.7832854 0.92463174 -0.065151 -0.048643 -0.033508
3020 4.4099775900000004 8.823996900000001 0.9574069500000001 -0.04799 -0.021035 -0.025946
3040 4.31418294 8.94165804 0.91055439 -0.00187 0.053292 -0.005422
3060 4.34561418 8.999438940000001 1.0062117 0.041078 0.139327 0.020405
3080 4.321216710000001 8.85513384 1.12176369 0.07537999999999999 0.191342 0.036601
3100 4.28843169 8.52642036 1.07521524 0.092527 0.209387 0.037766
3120 4.5075772800000005 8.59108788 0.8617594500000001 0.083977 0.198794 0.030242
3140 4.85485128 8.87040801 0.6987466800000001 0.068869 0.16155799999999998 0.031251999999999995
3160 5.11845579 8.873095950000002 0.91774512 0.035432 0.101934 0.05246
3180 5.14629657 8.595129600000002 1.0623445200000001 0.006233 0.033781 0.07157100000000001
3200 4.872519090000001 8.48660157 0.97088589 -0.00678 -0.016229 0.06834
3220 4.47045624 8.54423532 0.8081674200000002 -0.025959 -0.037361 0.041527
3240 4.1008743 8.77041468 0.72553779 -0.040761 -0.030823000000000007 0.017915
3260 3.96660483 9.00257814 0.6611743800000001 -0.065198 -0.025343 0.0006450000000000001
3280 4.020942420000001 9.202859100000001 0.5653699200000001 -0.04143 0.046987 0.007128
3300 4.0576122 9.242825040000001 0.59097402 -0.035904000000000005 0.088518 0.006045
3320 4.0055211 9.146431980000001 0.6203059200000002 -0.015548 0.110805 0.009363
3340 3.97228482 9.02952621 0.55744344 -0.000616 0.117115 0.016937
3360 4.116442770000001 9.0724842 0.40730139000000004 0.013171 0.109567 0.027725
3380 4.36776516 8.90602812 0.36733545 0.033389 0.100961 0.031082
3400 4.665047400000001 8.70964173 0.45699885 0.046163 0.090281 0.026912
3420 4.80979395 8.643473279999998 0.57974157 0.033332 0.071202 0.014028
3440 4.618646100000001 8.76981627 0.75547791 0.02052 0.057445 0.002206
3460 4.38483456 8.93477142 0.8652027600000002 0.00556 0.05111 0.001042
3480 4.2568434900000005 9.00243099 0.91938339 -0.009424 0.044753 0.005218
3500 4.29816321 8.96890041 0.84724065 -0.019103 0.028804000000000007 0.006239
3520 4.339031670000001 8.75978064 1.08554517 -0.007382 0.031933 0.012726
3540 4.402796670000001 8.796008970000003 1.08344583 0.013936000000000002 0.035024 0.020349000000000003
3560 4.44889386 8.83178604 1.0178856 0.035307 0.043468 0.021555
3580 4.5514377900000005 8.82594909 0.94183848 0.03969 0.062653 0.015152
3600 4.62058848 8.79361533 0.86625243 0.034466000000000004 0.075502 0.0033490000000000004
3620 4.70187414 8.75514051 0.82299033 0.013205 0.086254 -0.003223
3640 4.62986874 8.74676277 0.84708369 -0.015634000000000002 0.08102000000000001 -0.001281
3660 4.46670882 8.77953798 0.95890788 -0.038148 0.056597 -0.001407
3680 4.376299860000001 8.79900102 0.97072893 -0.045798 0.014022 -0.003543
3700 4.40952633 8.76996342 0.8414037000000001 -0.034211 -0.014799 0.000848
3720 4.50683172 8.712928080000001 0.8852544000000001 -0.024706 -0.031893 0.005209
3740 4.50458523 8.78029335 0.8698428900000001 -0.007612000000000002 -0.027688 0.004255
3760 4.40653428 8.93237778 0.86011137 0.012802 0.002077 0.002223
3780 4.321216710000001 8.97339339 0.9830012400000001 0.026811 0.041409 0.010816
3800 4.23275013 9.05871096 1.01204865 0.026854000000000003 0.056302 0.016138999999999997
3820 4.16253996 8.95498002 0.9156457800000001 0.023725 0.076536 0.020364
3840 4.2231657600000005 8.784629370000001 0.7788257100000001 0.013047 0.07232100000000001 0.018158
3860 4.47150591 8.70409908 0.7125199200000001 0.002297 0.060615 0.024507
3880 4.81279581 8.617878990000001 0.74650176 -0.00099 0.044634 0.02771
3900 4.9852359900000005 8.482707000000001 0.73781991 -0.004229 0.027635000000000003 0.019163
3920 4.96083852 8.48824965 0.6815301300000001 -0.033015 0.010777 -0.002381
3940 4.77042642 8.52207453 0.71206866 -0.074738 -0.036925 -0.025044
3960 4.648282110000001 8.69871339 0.73586772 -0.107998 -0.088965 -0.035892
3980 4.56220917 8.96694822 0.76535658 -0.136999 -0.135723 -0.039239
4000 4.460420610000002 8.97459021 0.7825731300000001 -0.139191 -0.136828 -0.027502
4020 4.330791270000001 8.91291474 0.8333202600000001 -0.100391 -0.07082999999999999 -0.04868
4040 4.27824891 8.93042559 0.75652758 -0.046741000000000005 -0.00284 -0.048393
4060 4.38184251 8.87040801 0.7342196400000001 0.000451 0.063 -0.037465
4080 4.57104798 8.81681598 0.59501574 0.025118 0.104408 -0.024527
4100 4.6372066200000015 8.80110036 0.5709125700000002 0.044561 0.158665 -0.023393
4120 4.555930770000001 8.77969494 0.73167885 0.045657 0.174602 -0.013792
4140 4.4060830200000005 8.78672871 0.9243276300000001 0.055297000000000006 0.201128 0.004401
4160 4.29591672 8.774897850000002 1.0264203 0.054172000000000005 0.200019 0.016145
4180 4.28962851 8.669518830000001 0.9292718700000001 0.057239 0.17230299999999998 0.018339
4200 4.61460438 8.52327135 0.69200721 0.050655 0.13078399999999998 0.017278
4220 4.97311083 8.45636715 0.59426037 0.037676 0.093536 0.019371
4240 5.2147017 8.64827037 0.7716447900000001 0.024691 0.056284 0.022533
4260 5.029537950000001 8.92863036 1.06787736 0.0235 0.041323 0.035363
4280 4.5792785700000005 9.09343836 1.22430762 0.031972 0.04442 0.052509
4300 4.085757090000001 9.08221572 1.23627582 0.018036 0.030616 0.053498
4320 3.69910575 9.015605820000001 1.08614358 -0.007587999999999998 0.009469 0.036254
4340 3.7127318400000004 8.948387700000001 0.89393625 -0.031102 -0.023379 0.012631
4360 3.99249342 8.960512860000001 0.8162508599999999 -0.046048 -0.033945 0.003995
4380 4.336785180000001 8.98191828 0.7593724800000001 -0.040641 -0.009497 0.012547
4400 4.54440402 8.943904530000001 0.71356959 -0.027719 0.022395 0.017937
4420 4.53063078 8.89540389 0.6385721400000001 -0.021232 0.03412 0.01049
4440 4.52867859 8.733293640000001 0.62001162 -0.004023 0.067075 0.012705
4460 4.530925080000001 8.69108121 0.61716672 0.012037 0.08723 0.020269
4480 4.49635464 8.74331946 0.6352759800000002 0.030193 0.097793 0.026791
4500 4.53077793 8.85364272 0.7213489200000001 0.037623 0.088184 0.025787
4520 4.51895688 8.76472488 0.77089923 0.029007 0.05843300000000001 0.014015
4540 4.53991104 8.63658666 0.95516046 0.02361 0.041421 0.010794
4560 4.525686540000001 8.655902549999999 0.8590617000000002 0.009726 0.037212 0.009634
4580 4.564612620000001 8.81367678 0.7189552800000001 -0.009511 0.031945 0.011643
4600 4.631369670000001 8.93342745 0.70128747 -0.025571 0.01179 0.004079
4620 4.635107280000001 8.860078080000001 1.00320984 -0.039436 0.007599 -0.001353
4640 4.39740117 8.7744564 1.2055901400000002 -0.024476 0.016056 0.001945
4660 4.19802273 8.84630484 1.1687732100000001 0.003272 0.025517 0.009604
4680 4.22780589 8.88447555 1.08344583 0.025758 0.043548 0.009738
4700 4.4000989200000005 8.851994640000001 1.02446811 0.017271 0.039376 -0.0052710000000000005
4720 4.53512376 8.85319146 0.99707859 0.00864 0.015979 -0.007437999999999998
4740 4.565809440000001 8.84450961 0.9592021800000001 -0.004220000000000001 0.011729 0.001024
4760 4.476146040000001 8.753649390000001 0.91385055 -0.019223 -0.002072 0.0020050000000000003
4780 4.47943239 8.709337620000001 0.83780343 -0.02783 -0.012716 0.007298999999999998
4800 4.597534980000001 8.68434174 0.80682345 -0.008631 -0.004299 0.017037
4820 4.73839677 8.688530609999999 0.7924517999999999 -0.003301 -0.006444 0.016009
4840 4.71369519 8.64287487 0.84305178 -0.004315 -2.8000000000000006e-05 0.010652
4860 4.607570610000001 8.72356212 0.8797215600000001 -0.002196 -0.017024 -0.003198
4880 4.520752110000001 8.90633223 0.88945308 0.008449 -0.00329 0.016087
4900 4.49755146 8.89869024 0.97312257 0.012644 -0.003368 0.032139
4920 4.49260722 8.79017202 1.03419963 0.015869 0.001947 0.032155
4940 4.45173876 8.84600073 0.89558433 0.018046 -0.001205 0.019356
4960 4.47883398 8.81920962 0.7833186900000001 0.027705 0.000934 0.008738
4980 4.49889543 8.69631975 0.7455992400000001 0.021376 0.011631 0.003339
5000 4.63346901 8.589734100000001 0.7427543400000001 0.009626 0.008476000000000001 0.003261
5020 4.7662375500000005 8.709190470000001 0.74514798 -0.009683 -0.009588 0.008490000000000001
5040 4.81114773 8.87564655 0.81999828 -0.032183 -0.028693 0.010494
5060 4.6331649 8.82220167 0.9035206200000001 -0.044048 -0.057414 0.010448
5080 4.432285530000001 8.77250421 0.74110626 -0.052578 -0.062685 0.003986
5100 4.296966390000001 8.827744319999999 0.7144623 -0.05897 -0.074325 -0.009931
5120 4.37165973 8.756935740000001 0.6589278900000001 -0.053554 -0.068966 -0.022718
5140 4.53481965 8.679103200000002 0.84289482 -0.057735 -0.057204 -0.03024
5160 4.55068242 8.808879690000001 0.8975365200000001 -0.038441 -0.018994 -0.011995
5180 4.47105465 8.98087842 0.91444896 -0.019208000000000003 0.005368 0.006268
5200 4.38662979 8.97548292 0.92777094 -0.014855000000000004 0.031955000000000004 0.013742
5220 4.36342914 8.83972233 0.8906499 0.0076409999999999985 0.05848200000000001 0.020275
5240 4.460577570000001 8.78029335 0.83361456 0.03969 0.061592 0.014085
5260 4.52867859 8.61189489 0.83256489 0.062075 0.051948 0.008912999999999999
5280 4.740643260000001 8.60695065 0.79888716 0.05986900000000001 0.044464 0.017453
5300 4.8011121 8.638381890000002 0.78721326 0.039503 0.02323 0.017338
5320 4.7264187600000005 8.627757660000002 0.8110123200000001 0.0256 0.013699 0.015116
5340 4.66983468 8.80963506 0.8720893800000001 0.014931 0.012676 0.013975
5360 4.52254734 8.83941822 0.8207438400000001 0.011683 -0.001149 0.010765
5380 4.42135719 8.7343335 0.79185339 0.020222 -0.003296 0.007623
5400 4.43602314 8.848551330000001 0.7081740900000001 0.04267 0.00303 0.004567
5420 4.50398682 8.864414100000001 0.7890084900000001 0.05775 0.023264 -0.007104000000000002
5440 4.44754989 8.756935740000001 0.9279180900000001 0.075093 0.07119299999999999 -0.019863
5460 4.35355047 8.778498120000002 0.88001586 0.089269 0.134016 -0.025186
5480 4.36956039 8.94674943 0.89050275 0.097173 0.235173 -0.020987
5500 4.40564157 8.936262540000001 0.7731457200000001 0.076114 0.286423 -0.031882
5520 4.481826030000001 8.79017202 0.70922376 0.046323 0.28341700000000003 -0.053451
5540 4.56220917 8.756935740000001 0.7857123300000001 0.032382 0.274913 -0.04606
5560 4.65666966 8.78852394 0.71775846 0.020335 0.233298 -0.018317
5580 4.6824111 8.79226155 0.6912616500000001 0.008201 0.168264 0.005183
5600 4.65966171 8.749156410000001 0.70084602 -0.003894 0.100082 0.016936
5620 4.62867192 8.71652835 0.86534991 -0.009611 0.02655 0.028741000000000006
5640 4.50832284 8.760977460000001 1.03958532 -0.012076 -0.033152999999999995 0.042687
5660 4.3177734 8.8871733 1.06787736 -0.034643 -0.06717100000000001 0.044709
5680 4.14637308 8.93207367 0.99333117 -0.054856 -0.067049 0.031749
5700 4.0995205200000004 8.95079115 0.99124164 -0.051617 -0.062782 0.027494
5720 4.115991510000001 8.99479881 0.8961827400000001 -0.046206 -0.043635 0.029643
5740 4.18065903 8.935968240000001 0.90591426 -0.055798 -0.047837 0.023172
5760 4.181855850000001 9.011858400000001 0.6824326500000001 -0.0665 -0.073293 0.004971
5780 4.3444173600000004 8.935968240000001 0.28261629000000005 -0.079336 -0.094499 -0.008979000000000001
5800 4.65038145 8.73598158 0.17678601 -0.087871 -0.101896 -0.016507
5820 4.96488024 8.53794711 0.13876245 -0.089995 -0.10506300000000003 -0.021858
5840 5.1190542 8.500227660000002 0.13277835000000002 -0.102769 -0.096504 -0.019822
5860 5.11426692 8.60620509 0.2026746 -0.099535 -0.080571 -0.011274
5880 4.9174194600000005 8.598720060000002 0.25866027 -0.097406 -0.075277 -0.004857
5900 4.86264042 8.494989120000001 0.32167971 -0.080288 -0.051952 0.008052
5920 4.8529089 8.53419969 0.34982460000000004 -0.067452 -0.042418 0.010265
5940 4.924904489999999 8.640186930000002 0.48574215000000004 -0.063165 -0.047721 0.000688
5960 4.98987612 8.68044717 0.71641449 -0.051353 -0.038145 -0.006719
5980 4.925208600000001 8.62206786 0.7933543200000001 -0.040637 -0.025408 -0.004524
6000 4.850368110000002 8.70993603 0.8822623500000001 -0.021385 -0.00209 0.008399
6020 4.68480474 8.67850479 0.87702381 -0.019237 0.011708 0.019079
6040 4.50293715 8.62835607 0.87417891 -0.014974 0.01275 0.021244
6060 4.4074368 8.66727234 0.85741362 -0.004296 0.013782 0.020249
6080 4.394409120000001 8.65904175 0.84873177 0.006401 0.019076 0.019248
6100 4.4976986100000005 8.674610220000002 0.78436836 0.012845 0.024397 0.015013999999999996
6120 4.555930770000001 8.7514029 0.72389952 0.012913 0.034005 0.009661
6140 4.69304514 8.87489118 0.7461976499999999 0.006540000000000001 0.037236 0.006407
6160 4.70441493 8.87280165 0.7632670500000001 0.0044210000000000005 0.042562 0.008522
6180 4.50323145 8.85543795 0.8529304500000001 0.018228 0.045641 0.025706
6200 4.27032243 8.92698228 0.8331632999999999 0.007534999999999998 0.03823 0.023505
6220 4.130059050000001 8.98896186 0.8858626199999999 0.002215 0.028712 0.010661
6240 4.2022116 8.97368769 0.80802027 -0.005234 0.020267 -0.002199
6260 4.386776940000001 8.8063389 0.8008393500000001 -0.028772 -0.005175 -0.013013
6280 4.49724735 8.74900926 0.8494871400000001 -0.052363 -0.02748 -0.008876
6300 4.46641452 8.828342730000001 0.88166394 -0.068457 -0.034932 0.003839
6320 4.4250948 8.90602812 0.9048645900000001 -0.07487200000000001 -0.026435000000000004 0.015534
6340 4.41296964 8.90303607 0.90247095 -0.070638 -0.041333 0.008105
6360 4.41896355 8.87938416 0.8990276400000001 -0.06108400000000001 -0.06262999999999999 -0.002483
6380 4.46955372 8.85888126 0.905463 -0.034422 -0.056365 0.006241
6400 4.51790721 8.821004850000001 0.8502327000000002 -0.002412 -0.038436 0.023533
6420 4.584213 8.778498120000002 0.80936424 0.027484 -0.020482 0.036538
6440 4.636461060000001 8.74436913 0.8990276400000001 0.053127 -0.000378 0.048442
6460 4.51865277 8.663387580000002 0.94513464 0.058505 0.01874 0.058069
6480 4.47105465 8.806790160000002 0.91774512 0.056424 0.034709 0.062307000000000015
6500 4.51580787 8.86620933 0.8071177500000001 0.038364 0.040146 0.050423
6520 4.54484547 8.733293640000001 0.7756865100000001 0.008578 0.04351 0.034187
6540 4.66549866 8.6011137 0.7189552800000001 -0.024552 0.01811 0.02117
6560 4.8440799000000005 8.5174344 0.5881291200000001 -0.03424 -0.005275 0.016859
6580 4.972512419999999 8.589586950000001 0.64111293 -0.027815 -0.002093 0.014763
6600 4.87132227 8.717421060000001 0.6524925300000001 -0.007462999999999998 0.017006 0.015949
6620 4.60427445 8.80394526 0.6717986100000001 0.0074680000000000015 0.011645 0.011788
6640 4.452494130000001 8.91470997 0.7087725 0.016027 0.014819 0.009707
6660 4.48557345 8.90992269 0.71955369 0.009707 0.032951 0.00964
6680 4.49559927 8.89854309 0.8231374800000001 0.01719 0.037182 0.010755
6700 4.42030752 8.88447555 0.89214102 0.009678 0.03717 0.020316
6720 4.40937918 8.78029335 0.91175121 -5.8e-05 0.016925 0.029888
6740 4.421955600000001 8.80215003 0.8587674 -0.011855 0.00524 0.031957
6760 4.3957629 8.72595576 0.8066763 -0.009722 -0.001134 0.025571
6780 4.51401264 8.73583443 0.69905079 -0.005435 -0.004315 0.018127
6800 4.65516873 8.816364720000001 0.76730877 -0.002239 -0.008574 0.01495
6820 4.66609707 8.74301535 0.68872086 -0.006531 -0.010703 0.018128
6840 4.70935917 8.6850873 0.6611743800000001 -0.001172 -0.002212 0.021359
6860 4.70965347 8.857527480000002 0.69515622 0.007458 0.014819 0.017125
6880 4.611161070000001 8.92713924 0.8372050200000001 0.021448 0.039281 0.015055
6900 4.42659573 8.824448160000001 0.84319893 0.028992 0.054177 0.012952000000000002
6920 4.40758395 8.71218252 0.8515766700000001 0.03646 0.050968 0.009803
6940 4.47225147 8.70948477 0.73766295 0.047081 0.0424 0.012025
6960 4.63840344 8.70424623 0.71910243 0.048138 0.032838 0.004567
6980 4.81294296 8.55141624 0.82059669 0.042775 0.016916 -0.005064
7000 4.91323059 8.500227660000002 0.74365686 0.047138 0.024414 -0.01893
7020 4.9308984 8.662337910000002 0.52436412 0.036686 0.052229 -0.039335
7040 4.81518945 8.75619018 0.59905746 0.033576 0.054443 -0.057519000000000015
7060 4.66160409 8.754394950000002 0.6412698900000001 0.033589999999999995 0.054456 -0.060724
7080 4.63271364 8.77355388 0.7036909200000001 0.038949 0.071435 -0.048958
7100 4.6069722 8.71787232 0.7876645200000001 0.05066 0.080921 -0.033933
7120 4.549789710000001 8.704550339999999 0.8297199900000001 0.04746 0.085176 -0.029688
7140 4.554282690000001 8.765921700000002 0.81056106 0.033552 0.07245900000000001 -0.034042
7160 4.59829035 8.852740200000001 0.7735871700000001 0.013219 0.051254 -0.041634
7180 4.62089259 8.9626122 0.79305021 -0.007166 0.032125 -0.035343
7200 4.55442984 8.80768287 0.75263301 -0.025408 0.024667 -0.019437
7220 4.54904415 8.61054111 0.7212017700000001 -0.035034 0.029985 -0.008829
7240 4.667146740000001 8.59018536 0.6104272500000001 -0.039368 0.024635 0.000762
7260 4.73600313 8.669518830000001 0.63273519 -0.034173 -0.0062770000000000005 0.0008380000000000001
7280 4.748726700000001 8.78777838 0.77119353 -0.046067 -0.046694 -0.004535
7300 4.6331649 8.971892460000001 0.8328690000000001 -0.045081 -0.061624 -0.0013039999999999998
7320 4.44979638 8.865169470000001 0.80038809 -0.022668 -0.03623 0.022321
7340 4.43602314 8.76008475 0.6650689500000001 0.006243 0.008325 0.04383
7360 4.571489430000001 8.73074304 0.6039918900000002 0.028753 0.040171 0.052492
7380 4.61819484 8.72580861 0.48723327000000005 0.028791000000000008 0.030656 0.034345
7400 4.62403179 8.721168480000001 0.43993926 0.032006 0.021108 0.021561
7420 4.62493431 8.70724809 0.37257399 0.039536 0.032809 0.019462
7440 4.67882064 8.71457616 0.29278926000000005 0.051348000000000005 0.045568 0.015255
7460 4.8065076000000015 8.61833025 0.18381978000000002 0.04723 0.06163 -0.001886
7480 4.929544620000001 8.56249173 0.21225897000000002 0.048426 0.070229 -0.022184
7500 4.958886330000001 8.659493009999998 0.22632651000000004 0.04746 0.084115 -0.030755
7520 4.8539585700000005 8.71248663 0.31419467999999995 0.05927200000000001 0.100058 -0.031761000000000005
7540 4.69917639 8.64617103 0.42167304000000005 0.074294 0.122363 -0.02848
7560 4.6527750900000004 8.54632485 0.42032907 0.081829 0.143617 -0.022045
7580 4.70202129 8.69496597 0.39861954000000005 0.085006 0.138279 -0.022016
7600 4.796628930000001 8.835523649999999 0.51059088 0.079605 0.128689 -0.0167
7620 4.723279560000001 8.84226312 0.8331632999999999 0.088087 0.122247 -0.011292
7640 4.54589514 8.945248500000002 0.9758203200000001 0.089086 0.116878 -0.001664
7660 4.3246600200000005 8.940157110000001 0.8169964200000002 0.07626000000000001 0.112658 -0.0006799999999999999
7680 4.35982887 8.82639054 0.7810722000000001 0.04956 0.099993 -0.007259999999999998
7700 4.594248629999999 8.70036147 0.8126604000000001 0.021764 0.07987999999999999 -0.014905000000000003
7720 4.70561175 8.70440319 0.88765785 0.001498 0.078894 -0.017182
7740 4.7223770400000005 8.78074461 0.9530709300000001 0.006866 0.089515 -0.013954
7760 4.637510730000001 8.888664420000001 0.90082287 0.016468 0.092665 -0.010686
7780 4.55053527 8.75813256 0.8403540300000001 0.018563 0.08943999999999999 -0.005326
7800 4.561610760000001 8.709190470000001 0.7683486300000001 0.028117000000000003 0.082998 -0.000978
7820 4.50997092 8.67580704 0.6875240400000001 0.028112 0.07875 -0.004177
7840 4.5195552900000004 8.835827759999999 0.60354063 0.024912 0.07133400000000001 -0.011668
7860 4.43602314 8.80244433 0.48693897 0.01209 0.056507 -0.022421
7880 4.53391713 8.89480548 0.31314501 0.008832 0.049041 -0.017093
7900 4.63960026 8.81427519 0.29967588 -0.0029230000000000003 0.043759 -0.018236
7920 4.70531745 8.738679330000002 0.24653511000000003 -0.019988 0.043823 -0.019424
7940 4.7572614 8.68688253 0.28829628 -0.022184 0.031043 -0.018355
7960 4.69259388 8.654401620000002 0.2806641000000001 -0.01585 0.022473 -0.01189
7980 4.65576714 8.678200680000002 0.19279593 -0.018007 0.023521 -0.005497
8000 4.716991350000001 8.664584399999999 0.31584275999999994 -0.014797 0.02564 -0.005477
8020 4.75097319 8.729546220000001 0.42541065000000006 -0.01373 0.033063 0.001998
8040 4.69109295 8.784482220000001 0.37512459000000004 -0.005157 0.043677 0.004181
8060 4.57612956 8.81187174 0.37451637000000004 0.015118 0.058465 0.01819
8080 4.507724430000001 8.78687586 0.45714600000000005 0.035345 0.068966 0.038615
8100 4.48677027 8.76742263 0.36359784 0.051277 0.072029 0.05795
8120 4.5466407 8.797804200000002 0.37661571000000005 0.060859 0.067734 0.058022
8140 4.63421457 8.74661562 0.36644274000000004 0.061945000000000014 0.064565 0.050556
8160 4.744537830000001 8.70768954 0.33710102999999997 0.067347 0.073094 0.044174
8180 4.78539648 8.6876379 0.47481381 0.075968 0.083751 0.035675
8200 4.730911740000001 8.78658156 0.48902850000000003 0.066476 0.094492 0.021708
8220 4.563710100000001 8.7599376 0.35790804000000004 0.052684 0.097792 0.00772
8240 4.54230468 8.628954479999999 0.27453285000000005 0.034619 0.111712 0.00544
8260 4.60352889 8.62297038 0.25597233 0.001575 0.111853 -0.001201
8280 4.6647531 8.72655417 0.26420292 -0.020867 0.097043 -0.007748
8300 4.69603719 8.74586025 0.32048288999999996 -0.024116 0.068365 -0.025893
8320 4.661005680000001 8.77909653 0.2633004 -0.018772 0.055623 -0.040795
8340 4.71953214 8.800501950000001 0.22318731000000003 -0.003778 0.056683 -0.052442
8360 4.80246588 8.75678859 0.30206952000000004 -0.004716 0.070595 -0.06742100000000001
8380 4.79527515 8.76681441 0.43080615000000005 -0.02379 0.090936 -0.076126
8400 4.6726795800000005 8.78598315 0.49741605 -0.052581 0.101659 -0.068864
8420 4.45264128 8.81935677 0.45549792000000006 -0.059064 0.110097 -0.042214
8440 4.38273522 8.8817778 0.47601063 -0.065551 0.113226 -0.019831
8460 4.42030752 8.94629817 0.51762465 -0.06451799999999999 0.110009 -0.015547
8480 4.47330114 8.91351315 0.6086320199999999 -0.04752 0.0823 -0.027143
8500 4.460273460000001 8.81277426 0.5851370700000001 -0.021934 0.07370499999999999 -0.031226
8520 4.538262960000001 8.768462490000001 0.6364728 0.010153 0.100191 -0.02249
8540 4.55068242 8.87564655 0.7188081300000001 0.044302 0.118117 -0.006251
8560 4.46147028 8.964554580000001 0.80861868 0.057138 0.14993199999999998 0.018367
8580 4.2716664 8.77610448 0.8110123200000001 0.06038200000000001 0.174362 0.033313
8600 4.26792879 8.78418792 0.72689157 0.04868 0.186104 0.037489
8620 4.36596993 8.8871733 0.66851226 0.031514 0.15318800000000002 0.025661
8640 4.42989189 8.89734627 0.5619266099999999 0.022965 0.13941199999999998 0.014937
8660 4.50683172 8.84615769 0.5330459700000001 0.02086 0.129896 -0.001089
8680 4.56880149 8.73193986 0.47196891 0.015502000000000004 0.106551 -0.019256
8700 4.66564581 8.61398442 0.43903674000000004 0.00479 0.089574 -0.026787
8720 4.61654676 8.48705283 0.51791895 -0.008046 0.08110099999999999 -0.027934
8740 4.55068242 8.70604146 0.5321434500000001 -0.027293 0.073702 -0.025922000000000004
8760 4.39875495 8.99150265 0.46194309 -0.044396 0.064183 -0.028166000000000007
8780 4.28484123 9.03446064 0.33170553 -0.059366 0.053596000000000005 -0.031462000000000004
8800 4.34980305 9.00497178 0.25432425000000003 -0.082827 0.046259 -0.04123
8820 4.49036073 8.94943737 0.38065743 -0.099878 0.042092 -0.04989
8840 4.50846999 8.79166314 0.5652227700000001 -0.110609 0.026159 -0.052081
8860 4.45323969 8.73553032 0.6620769 -0.112795 0.026119 -0.040346
8880 4.47703875 8.86037238 0.6152243399999999 -0.104251 0.034586 -0.033887
8900 4.5214976700000005 8.89929846 0.55175364 -0.072149 0.066389 -0.023022
8920 4.5002394 8.86860297 0.33485454 -0.037889 0.107756 -0.00788
8940 4.45548618 8.876843370000001 0.5724135 -0.00574 0.151273 0.004039
8960 4.42300527 8.913366 0.60773931 0.027410000000000004 0.186239 0.022385
8980 4.354747290000001 8.79361533 0.52121511 0.050948 0.212741 0.034266000000000005
9000 4.45488777 8.679103200000002 0.5480062200000001 0.070132 0.214779 0.040807
9020 4.64259231 8.62222482 0.5620835700000001 0.080777 0.214721 0.046223
9040 4.77791145 8.66846916 0.50504823 0.089245 0.210387 0.056970000000000014
9060 4.830905070000001 8.60800032 0.42571475999999997 0.083843 0.197614 0.05908500000000001
9080 4.89467007 8.5026213 0.44757144 0.059248 0.172185 0.046127
9100 4.90140954 8.534650950000001 0.51343578 0.035695 0.13612 0.027849
9120 4.848563070000001 8.72176689 0.53783325 0.009976 0.106399 0.023434
9140 4.6994805 8.892107730000001 0.4564004400000001 -0.026461 0.071368 0.024293
9160 4.46910246 8.89480548 0.5096883600000001 -0.061854 0.031007 0.025166
9180 4.3384234500000005 8.8729488 0.59381892 -0.08541599999999999 0.000239 0.014358
9200 4.233642840000002 8.99329788 0.6899176800000001 -0.081187 -0.019969 0.002663
9220 4.036353930000001 9.151366410000001 0.75846996 -0.06517 -0.018952 0.000637
9240 4.02378732 9.16334442 0.7940998800000001 -0.043756 0.002262 0.005033
9260 4.140094680000001 9.09075042 0.81999828 -0.030901 0.01924 0.010442
9280 4.231700460000001 9.079517970000001 0.84305178 -0.026604000000000003 0.030922 0.015798
9300 4.277954610000001 9.06335109 0.74799288 -0.029839 0.025598 0.017919
9320 4.3107396300000005 9.0289278 0.6454587600000001 -0.030968 0.01812 0.02433
9340 4.420160370000001 8.864119800000001 0.6301943999999999 -0.032116000000000006 0.008502 0.03288
9360 4.43557188 8.697065310000001 0.7506906300000001 -0.035393 -0.002165 0.03928
9380 4.449345120000001 8.66967579 0.7235954100000002 -0.032274000000000004 -0.018164 0.041458
9400 4.56251328 8.69481882 0.63273519 -0.023816 -0.036299 0.040473
9420 4.76953371 8.61548535 0.64141704 -0.002488 -0.038504 0.040624
9440 4.8737159100000005 8.56428696 0.7331797800000001 0.025331 -0.020491 0.040796
9460 4.84362864 8.59901436 0.81999828 0.050071 0.015676 0.032376
9480 4.673130840000001 8.72700543 0.80562663 0.075853 0.046513 0.023971
9500 4.489909470000001 8.81411823 0.7716447900000001 0.101659 0.07525 0.008091
9520 4.40908488 8.79735294 0.73362123 0.105046 0.111479 0.002727
9540 4.38527601 8.76891375 0.80187921 0.094493 0.139204 0.004755
9560 4.3902202500000005 8.79390963 0.9186378300000001 0.03904 0.127749 -0.01271
9580 4.456535850000002 8.84286153 0.9749178000000001 -0.012246 0.088602 -0.03545
9600 4.517760060000001 8.86501251 0.9860031 -0.050821 0.035537 -0.051675
9620 4.541853420000001 8.77565322 0.9339120000000001 -0.06274400000000001 0.00146 -0.044237
9640 4.599487170000001 8.71772517 0.9467827200000001 -0.07148 -0.035824 -0.036773
9660 4.62493431 8.76771693 0.91010313 -0.07915900000000001 -0.08054800000000001 -0.034633
9680 4.57284321 8.80708446 0.88001586 -0.088986 -0.122094 -0.026102
9700 4.4779412700000005 8.86067649 0.88301772 -0.101865 -0.140154 -0.027237
9720 4.437975330000001 8.96949882 0.9276237900000001 -0.086886 -0.126375 -0.022878
9740 4.40294382 8.971441200000001 1.05156333 -0.071835 -0.092373 -0.01427
9760 4.32645525 8.88956694 1.12101813 -0.058955 -0.06158 -0.000333
9780 4.18125744 8.943747570000001 1.12760064 -0.058940999999999986 -0.047774 0.010332
9800 4.013006130000001 9.031174290000001 1.07910981 -0.06540499999999999 -0.06054 0.011371
9820 4.08096 9.02967336 1.08643788 -0.07409299999999999 -0.10308599999999997 0.0028190000000000003
9840 4.21792722 8.8467561 1.05605631 -0.051756 -0.106407 0.014730000000000004
9860 4.47868683 8.653656060000001 0.9273196800000001 -0.053851 -0.091512 0.021106
9880 4.679271900000001 8.675512740000002 0.71012628 -0.04844 -0.06705900000000001 0.02859
9900 4.915928340000001 8.62866018 0.48065076 -0.041953 -0.053212 0.023276
9920 5.1224975100000005 8.5404879 0.44757144 -0.034499 -0.06279900000000001 0.016931
9940 5.1639643799999995 8.589891060000001 0.5146326 -0.030155 -0.052136 0.010538
9960 4.960387260000001 8.60695065 0.53618517 -0.036398 -0.030753 -0.003419
9980 4.717442610000002 8.611737930000002 0.57450303 -0.045875 -0.014694 -0.015257
10000 4.58661645 8.641079640000001 0.5855785200000001 -0.030929 -0.006249 -0.008754000000000001
10020 4.60742346 8.64841752 0.61462593 -0.015979 0.012809 0.00735
10040 4.67882064 8.645425470000001 0.6436635300000001 -0.017036000000000003 0.027676 0.020142
10060 4.7370528 8.78163732 0.64964763 -0.016022 0.015954 0.020164
10080 4.64543721 8.782088580000002 0.72673461 -0.011755 -0.001037 0.003124
10100 4.537664550000001 8.77774275 0.6786852300000001 -0.010606 -0.00309 -0.017162
10120 4.466110410000001 8.76262554 0.60788646 -0.007324 0.007581 -0.024630000000000003
10140 4.46775849 8.76831534 0.5140341900000001 -0.005095000000000001 0.034184 -0.019307
10160 4.4942553 8.594227080000001 0.7171600499999999 -0.015663 0.056592 -0.01941
10180 4.58197632 8.79900102 0.7893126 -0.024174 0.061948 -0.019476
10200 4.54395276 8.87504814 0.9291149100000001 -0.022116 0.05975 -0.004504
10220 4.450846050000001 8.896296600000001 0.9051687 -0.013682 0.061753 0.020122
10240 4.3565425200000005 8.90033832 0.81880146 -0.008453 0.05103 0.03299
10260 4.327200810000001 8.90318322 0.90411903 -0.0032630000000000003 0.021176 0.035201
10280 4.41716832 8.95333194 0.9949792500000001 0.005224 0.008371 0.033141000000000004
10300 4.414019310000001 8.95991445 0.98809263 0.019127 0.017902 0.035362
10320 4.45173876 8.772955470000001 0.9274668300000001 0.037254 0.032684 0.052561
10340 4.5438056100000015 8.609344290000001 0.95965344 0.032958 0.044344 0.070676
10360 4.5952983000000005 8.75200131 0.9798620400000001 0.028676 0.062383 0.091987
10380 4.50442827 8.83372842 0.8571193200000001 0.025375 0.050634 0.102662
10400 4.35998583 8.84764881 0.7857123300000001 0.025212 0.016537 0.104841
10420 4.27181355 8.801394660000001 0.70338681 0.04641 -0.021857 0.09756
10440 4.33124253 8.75514051 0.71506071 0.07093300000000001 -0.041054 0.081733
10460 4.392319590000001 8.78658156 0.6634208699999999 0.084918 -0.039939 0.05726000000000001
10480 4.527040320000001 8.85917556 0.5269049100000001 0.093663 -0.011134 0.039124
10500 4.65591429 8.91021699 0.5020561800000001 0.090736 0.030499 0.019823
10520 4.77013212 8.797951350000002 0.5793001200000001 0.083522 0.059398 -0.008038
10540 4.765040730000001 8.75843667 0.73003077 0.065625 0.088322 -0.03277
10560 4.56220917 8.79151599 0.7212017700000001 0.036992 0.10343 -0.05649
10580 4.327200810000001 8.896002300000001 0.63228393 -0.004486 0.108995 -0.080288
10600 4.31627247 9.01904913 0.5225590800000001 -0.031177 0.099522 -0.08580299999999999
10620 4.42360368 8.93132811 0.59949891 -0.034502 0.084569 -0.072988
10640 4.53108204 8.744663430000001 0.71341263 -0.016513999999999997 0.073763 -0.050416
10660 4.69169136 8.67356055 0.6987466800000001 -0.0070560000000000015 0.055565 -0.03644
10680 4.93329204 8.571771990000002 0.91205532 0.001292 0.020356 -0.029927
10700 5.0985513000000005 8.51339268 1.0762649100000001 -0.009511 -0.011557 -0.032098
10720 4.96488024 8.625962430000001 1.12955283 -0.006334 -0.021138 -0.036337
10740 4.569998310000001 8.85123927 1.19496591 0.009731 -0.006285 -0.035175
10760 4.219271190000001 8.95797207 1.08329868 0.006689 0.024636 -0.039509
10780 4.09817655 9.02263959 1.0547025300000001 -0.011386 0.030060000000000007 -0.048188
10800 4.11838515 8.98416477 1.06084359 -0.014572 0.033267000000000005 -0.048214
10820 4.21568073 8.924745600000001 1.0388397600000001 0.000398 0.04916 -0.039584
10840 4.20715584 8.864266950000001 0.99572481 0.023864 0.06605 -0.021282
10860 4.18634883 8.90408574 0.93255822 0.035604000000000004 0.080867 -0.007331999999999998
10880 4.22466669 8.85393702 0.9053158500000001 0.052593 0.065881 -0.00399
10900 4.390965810000001 8.85663477 0.8075690100000001 0.063252 0.069018 0.001422
10920 4.54290309 8.884024290000001 0.58798197 0.08134 0.0774 0.020765
10940 4.77073053 8.702156700000002 0.45161316 0.102558 0.06979199999999999 0.040151
10960 4.89676941 8.618183100000001 0.5816937600000001 0.106677 0.052669000000000014 0.056225
10980 4.810843620000002 8.56908405 0.6469498800000001 0.108791 0.06325399999999999 0.07118200000000001
11000 4.69244673 8.43391206 0.5638788 0.13434300000000002 0.07160599999999999 0.091645
11020 4.8361436100000015 8.50426938 0.44906256 0.14814000000000002 0.068311 0.104565
11040 4.85754903 8.65215513 0.4568517 0.130023 0.058842 0.090563
11060 4.946761169999999 8.760683160000001 0.6304887000000001 0.115101 0.03026 0.058449
11080 4.91787072 8.816511870000001 0.85606965 0.106629 0.026101 0.040236
11100 4.78958535 8.91246348 0.87118686 0.109877 0.030377 0.033843
11120 4.53436839 8.848845630000001 0.85173363 0.093989 0.040084 0.017697
11140 4.45414221 8.825193720000001 0.6857288100000001 0.095262 0.059361 -0.009025
11160 4.44171294 8.80409241 0.5343899400000001 0.102927 0.079669 -0.032498
11180 4.40923203 8.72356212 0.45565488000000004 0.088283 0.103323 -0.074291
11200 4.363125030000001 8.65485288 0.29862621000000006 0.074601 0.125819 -0.093644
11220 4.495000860000001 8.70859206 0.28650105 0.070535 0.16208699999999998 -0.102264
11240 4.59200214 8.790770430000002 0.430659 0.088724 0.1939 -0.08188200000000001
11260 4.66355628 8.74960767 0.48888135 0.101594 0.218318 -0.07220900000000001
11280 4.71773691 8.8385157 0.43274853 0.11109 0.20970300000000006 -0.057177
11300 4.744832130000001 8.89749342 0.46613196000000007 0.116324 0.189436 -0.054978
11320 4.8178773900000005 8.82355545 0.51373008 0.115204 0.184088 -0.048569
11340 4.7904878700000015 8.713085040000001 0.61237944 0.116237 0.19042 -0.034683
11360 4.608021870000002 8.76427362 0.6375224700000001 0.104454 0.194663 -0.019816
11380 4.46311836 8.81861121 0.59066991 0.097962 0.19036 -0.003833
11400 4.41925785 8.760231899999999 0.5903756099999998 0.08830700000000001 0.18292 0.000382
11420 4.438416780000001 8.685538560000001 0.79319736 0.067888 0.144662 -0.005052
11440 4.45773267 8.75918223 0.9982754100000001 0.044264 0.105351 -0.010508
11460 4.32825048 8.89809183 1.04946399 0.034528 0.080862 -0.005204
11480 4.1615001 8.991796950000001 0.90621837 0.038795 0.089335 0.003361
11500 4.11524595 9.027279720000001 0.78226902 0.048325 0.089238 0.019451
11520 4.19218578 9.08520777 0.61716672 0.038675 0.07968 0.020464
11540 4.261640580000001 8.93462427 0.5751014400000001 0.031164 0.06905700000000001 0.019357
11560 4.41192978 8.852288940000001 0.5415708599999999 0.047191 0.077511 0.022663
11580 4.448148300000001 8.818159950000002 0.5185173599999999 0.062223 0.108313 0.032342
11600 4.495746420000001 8.84496087 0.41957370000000005 0.054822 0.125375 0.034405
11620 4.46161743 8.84929689 0.27078543 0.051631 0.123272 0.030113
11640 4.490664840000002 8.78029335 0.22558095000000003 0.061242999999999985 0.125369 0.030177
11660 4.51071648 8.74241694 0.2314179 0.055985 0.139249 0.026918
11680 4.59214929 8.670274200000001 0.14429529 0.069873 0.144523 0.028077
11700 4.75262127 8.70110703 0.08636724000000001 0.06131900000000001 0.143475 0.031223
11720 4.7999152800000005 8.77804686 0.04116276 0.038934 0.147814 0.031061
11740 4.760851860000001 8.80588764 -0.16525926000000002 0.031471 0.142539 0.024606
11760 4.744537830000001 8.76217428 -0.21914559000000003 0.027228 0.145759 0.022436
11780 4.772378610000001 8.69003154 -0.17812998000000002 0.021855 0.133011 0.018142
11800 4.755162060000001 8.70694398 -0.10313253 0.010004 0.087327 -0.002178
11820 4.684961700000001 8.67850479 0.034874550000000004 0.01841 0.052169000000000014 -0.008484
11840 4.49859132 8.76053601 0.09071307 0.042943 0.05632300000000001 -0.002977
11860 4.43393361 8.88806601 0.09040896000000001 0.065467 0.093486 0.007815
11880 4.40519031 8.88117939 0.10822392 0.071906 0.124267 0.030253
11900 4.45204287 8.82145611 0.26525259 0.06983500000000001 0.141306 0.033422
11920 4.520752110000001 8.85768444 0.34593003000000005 0.072021 0.151955 0.032355
11940 4.53841011 8.89360866 0.31239945 0.07094 0.14558 0.029151
11960 4.518054360000001 8.867857410000001 0.34593003000000005 0.052794000000000015 0.133964 0.019425
11980 4.48363107 8.88522111 0.39607875000000003 0.036714 0.104244 0.006532
12000 4.47539067 8.82744021 0.42481224000000006 0.023807 0.075547 0.001138
12020 4.44261546 8.708140799999999 0.39263544 0.007698 0.058534 0.007456
12040 4.495452120000001 8.75514051 0.2806641000000001 0.007593000000000002 0.046769 0.019221
12060 4.52718747 8.808428430000001 0.20656917 8.6e-05 0.041456 0.02238
12080 4.56835023 8.85768444 0.24863445 -0.003119 0.034036000000000004 0.015958
12100 4.55083938 8.83163889 0.31134978 -0.009511 0.021335 0.000974
12120 4.47913809 8.804239560000001 0.3005784 -0.005224 0.019215 -0.0054020000000000006
12140 4.4595279 8.93462427 0.27049113 0.010822 0.035112 0.001099
12160 4.343514840000001 9.036559980000002 0.36853227000000005 0.017271 0.053169000000000015 0.008598
12180 4.31612532 8.97234372 0.43724151 0.016238 0.062752 0.010715
12200 4.39560594 8.81337267 0.5017520700000001 0.008794 0.070226 0.01279
12220 4.388876280000001 8.85932271 0.49232466 -0.006157 0.067083 0.01269
12240 4.39246674 8.88971409 0.43813422 -0.012591 0.058587 0.011587
12260 4.476146040000001 8.7861303 0.32901759 -0.01053 0.039418 0.008422
12280 4.55352732 8.76187998 0.29683098 -0.008439 0.030884 0.009515
12300 4.56176772 8.728800660000001 0.22917141000000002 -0.01273 0.021329 0.005225
12320 4.61190663 8.726407020000002 0.20402838 -0.017016999999999997 0.011778 -0.000134
12340 4.661005680000001 8.740621710000001 0.18157329000000003 -0.029834 0.008627 -0.000219
12360 4.6988820900000015 8.70754239 0.21240612000000003 -0.03945 0.009708 0.003985
12380 4.68764964 8.66413314 0.23500836000000003 -0.042684 0.007568000000000002 0.009306
12400 4.62642543 8.756337330000001 0.27243351000000005 -0.049066000000000005 0.009729 0.007122
12420 4.50159318 8.852141790000001 0.29593827000000006 -0.054362 0.010843 -0.000394
12440 4.43542473 8.9885106 0.20283156000000002 -0.045798 0.015083 -0.0024760000000000003
12460 4.4652177 8.924441490000001 0.29099403 -0.043641 0.022523 -0.000334
12480 4.45833108 8.816364720000001 0.3555144 -0.043602 0.032107 0.000723
12500 4.4250948 8.805289230000001 0.25866027 -0.03612 0.037398 0.002904
12520 4.51640628 8.76681441 0.2945844900000001 -0.031876 0.033118 0.004007999999999999
12540 4.57777764 8.74661562 0.26644941 -0.026595 0.022442 0.0051270000000000005
12560 4.65547284 8.75529747 0.21824307 -0.028781 0.014976 0.009394
12580 4.64588847 8.76711852 0.14878826999999997 -0.039483 0.007556 0.009329
12600 4.63496013 8.77250421 0.15358536 -0.044847000000000005 0.000123 0.008232
12620 4.621186890000001 8.73284238 0.15777423000000002 -0.048042 -0.000923 0.006075
12640 4.577934600000001 8.73957204 0.15193728 -0.04799 0.004429 -0.000341
12660 4.59604386 8.77789971 0.060174540000000006 -0.042593 0.018259 -0.000321
12680 4.673130840000001 8.71592994 0.08981055 -0.035111 0.028855 0.007195
12700 4.7644423200000015 8.74181853 0.10852803000000001 -0.04045 0.034175 0.013561000000000002
12720 4.7641382100000005 8.740023299999999 0.13561344 -0.044741 0.024619 0.00927
12740 4.5891572400000005 8.800649100000001 0.16390548000000002 -0.044813 0.002274 0.002889
12760 4.48526934 8.772062759999999 0.13531914 -0.050219 -0.014747 0.001805
12780 4.496501790000001 8.736727140000001 0.21001248 -0.055573 -0.013684 0.007107
12800 4.53422124 8.82594909 0.23650929 -0.059811 -0.0094 0.004935
12820 4.55442984 8.93881314 0.29309337 -0.060888 -0.020015 -0.003604
12840 4.53706614 8.77415229 0.24249339000000003 -0.057687 -0.028514 -0.012117
12860 4.617743580000001 8.70020451 0.15373251000000002 -0.06401699999999999 -0.011452 -0.011115
12880 4.75695729 8.76756978 0.08337519 -0.071413 0.010919 -0.004786
12900 4.754710800000001 8.7169698 0.19429686000000002 -0.069293 0.016204 0.003768
12920 4.6970868600000015 8.673864660000001 0.23395869 -0.06826499999999999 0.018288 0.014455
12940 4.621491000000001 8.6301513 0.21764466000000002 -0.059783 0.018212 0.026265
12960 4.64918463 8.685391410000001 0.28231218 -0.060888 0.016059 0.032669
12980 4.629270330000001 8.85064086 0.19699461000000001 -0.045971 0.008563 0.029578
13000 4.57194069 8.88657489 0.28396026 -0.037498 -0.007437 0.027521
13020 4.557726000000001 8.81247015 0.37616445 -0.051425 -0.019111000000000003 0.028507
13040 4.59020691 8.742122640000002 0.3912816600000001 -0.061012 -0.025431 0.018834
13060 4.60068399 8.733136680000001 0.35925201 -0.058855 -0.0286 0.010308
13080 4.63436172 8.729693370000001 0.26105391000000006 -0.052401 -0.014782 0.012472
13100 4.67777097 8.737031250000001 0.2555210700000001 -0.053386 0.005453 0.014575
13120 4.709212020000001 8.78118606 0.34159401 -0.051166 0.026742 0.0167
13140 4.65786648 8.793016920000001 0.35640711 -0.049009 0.027817 0.012441
13160 4.56116931 8.768766600000001 0.31225230000000004 -0.035149 0.019272 0.006139
13180 4.5137183400000005 8.768766600000001 0.2282787 -0.026557 0.030965 0.005116
13200 4.53616362 8.750058930000002 0.29144529 -0.02338 0.027749 0.007279000000000002
13220 4.636461060000001 8.79166314 0.31854051 -0.019194 0.00432 0.001997
13240 4.70591586 8.79510645 0.39667716000000003 -0.021376 -0.013753 -0.005473
13260 4.67747667 8.72191404 0.44472654 -0.020323 -0.012708 -0.001194
13280 4.6243359 8.67790638 0.5174775 -0.020266 0.001136 -0.000143
13300 4.620441330000001 8.75769111 0.5387259600000001 -0.0298 0.006534000000000001 -0.009831
13320 4.57987698 8.87160483 0.50624505 -0.037206 0.01086 -0.019502
13340 4.569547050000001 8.89105806 0.51343578 -0.039292 0.020459 -0.020597
13360 4.58227062 8.82265293 0.62211096 -0.039287 0.015158 -0.026999
13380 4.540362300000001 8.79959943 0.58019283 -0.039335 0.001323 -0.030187
13400 4.49559927 8.77370103 0.5138772300000001 -0.038234 0.003471 -0.035523
13420 4.55098653 8.808585390000001 0.46118772 -0.02857 0.014103 -0.038674
13440 4.57837605 8.81337267 0.5730119100000002 -0.017878 0.02788 -0.030071
13460 4.49110629 8.784629370000001 0.6748004700000001 -0.017859 0.040629000000000005 -0.021541
13480 4.39904925 8.83104048 0.60234381 -0.02215 0.043805 -0.013030000000000002
13500 4.44111453 8.83522935 0.49531671000000005 -0.023308 0.021447 -0.015145
13520 4.567898970000001 8.78508063 0.5194198800000001 -0.026571 0.010793 -0.01195
13540 4.64753655 8.78493348 0.5524992000000001 -0.0266 0.007584 -0.008741
13560 4.59709353 8.78118606 0.61686261 -0.022347 0.009678 -0.003373
13580 4.53122919 8.795704859999999 0.59681097 -0.013821 0.008579 -0.0022440000000000003
13600 4.56849738 8.83911411 0.5417278200000001 -0.007425 0.002186 -0.007532
13620 4.59633816 8.848551330000001 0.62615268 -0.006344 0.003257 -0.009662
13640 4.51461105 8.7861303 0.73302282 -0.01485 0.014983000000000003 -0.004396
13660 4.45414221 8.749901970000002 0.6719555700000001 -0.023375 0.020326 -0.001258
13680 4.482277290000001 8.81411823 0.65967345 -0.029757 0.025671 -0.000241
13700 4.48512219 8.82160326 0.63453042 -0.039388 0.021435 0.001834
13720 4.506076350000002 8.77953798 0.60025428 -0.045808 0.017196 0.001794
13740 4.56880149 8.83178604 0.5632803900000002 -0.046889 0.007638 -0.00461
13760 4.55472414 8.836426170000001 0.57569985 -0.04798 -0.001929 -0.008878
13780 4.5394597800000005 8.75484621 0.5619266099999999 -0.050085000000000005 0.002348 -0.011035
13800 4.5731375100000005 8.70964173 0.5653699200000001 -0.04897 0.011936 -0.012108
13820 4.60592253 8.74391787 0.58573548 -0.050032 0.021493 -0.003582
13840 4.62852477 8.75918223 0.5526463500000001 -0.045746 0.0268 -0.00249
13860 4.62283497 8.776545930000001 0.39966921 -0.045693 0.033213 -0.007839
13880 4.655315880000001 8.78388381 0.43200297000000004 -0.03922 0.04917 -0.007815
13900 4.6768782600000005 8.7627825 0.46822149 -0.022126 0.061864 -0.000234
13920 4.66011297 8.78747427 0.47885553000000003 -0.007248 0.060699 0.011622
13940 4.569694200000001 8.79151599 0.39488193 -0.01053 0.050028 0.01909
13960 4.541706270000001 8.78493348 0.33351057 -0.010602 0.042537 0.027645
13980 4.60008558 8.76338091 0.36419625 -0.011712 0.042502 0.037251
14000 4.64364198 8.71442901 0.40789980000000003 -0.007454 0.04354 0.040485
14020 4.665351510000001 8.69900769 0.43888959000000005 -0.00965 0.026516 0.037286
14040 4.61849895 8.70259815 0.45774441000000005 -0.027806 0.021257 0.036098000000000005
14060 4.6330177500000005 8.732538270000001 0.41613039 -0.034207 0.024463 0.039254
14080 4.64603562 8.73793377 0.40595742000000007 -0.02249 0.026527 0.045742000000000005
14100 4.649478930000001 8.75185416 0.3671883 -0.026739 0.033986 0.048908
14120 4.61475153 8.766216 0.41253993 -0.024557 0.037204 0.041441000000000006
14140 4.58750916 8.834179680000002 0.40700709 -0.017103 0.027616 0.035095999999999995
14160 4.5792785700000005 8.768619450000001 0.4980144600000001 -0.010664 0.035055 0.034064
14180 4.55083938 8.722512450000002 0.54352305 -0.003157 0.04249 0.033038
14200 4.504133970000001 8.785531890000001 0.56253483 0.003186 0.038172000000000005 0.041634
14220 4.47284988 8.889115680000002 0.51373008 5e-06 0.033956 0.033071
14240 4.5473960700000005 8.89465833 0.48334851000000006 0.001081 0.028656 0.025608
14260 4.655315880000001 8.81127333 0.5921708400000001 0.005372999999999999 0.029724 0.021364
14280 4.637510730000001 8.736579990000001 0.6230036700000001 0.005397 0.026562 0.012822
14300 4.57643367 8.73463761 0.6304887000000001 -0.006363000000000001 0.011727 0.003145
14320 4.584517110000001 8.77864527 0.58677534 -0.019194 -0.007351000000000002 -0.009739
14340 4.66983468 8.90902017 0.61506738 -0.026652 -0.014744 -0.019395
14360 4.668637860000001 8.829088290000001 0.62749665 -0.033025 -0.014696 -0.025849
14380 4.57882731 8.66382903 0.64022022 -0.030834 -0.010408 -0.034385
14400 4.5234400500000005 8.6734134 0.6506973 -0.022227 -0.002947 -0.04288
14420 4.52987541 8.78253984 0.59621256 -0.021045 0.00564 -0.059975
14440 4.56011964 8.85333861 0.62330778 -0.016729 0.012033 -0.064226
14460 4.52987541 8.92249911 0.6882696 -0.014538 0.026931 -0.062093
14480 4.466561670000001 8.848698480000001 0.6611743800000001 -0.002769 0.04814 -0.048151
14500 4.41117441 8.781784470000002 0.7023371400000001 0.014325 0.07144400000000001 -0.029902
14520 4.48437663 8.86187331 0.69724575 0.035671 0.087293 -0.015886
14540 4.520448 8.83956537 0.7132654800000001 0.052789 0.100008 -0.013646
14560 4.496501790000001 8.76008475 0.77972823 0.062391 0.097852 -0.015713
14580 4.482130140000001 8.81411823 0.8252368200000001 0.066678 0.105281 -0.012488
14600 4.44276261 8.83941822 0.7836228 0.058109 0.115891 0.005598
14620 4.48153173 8.836122060000001 0.92088432 0.057013 0.121174 0.017335
14640 4.467905640000001 8.7627825 0.9241804800000001 0.065577 0.129658 0.01952
14660 4.49904258 8.7975099 0.8717852700000001 0.062429 0.132899 0.010948
14680 4.51071648 8.85977397 0.81115947 0.0572 0.139378 -0.006188
14700 4.50892125 8.840320740000001 0.8180460900000001 0.060487 0.147931 -0.016859
14720 4.5135613800000005 8.7949593 0.8446900500000001 0.057354 0.157551 -0.022234
14740 4.4945496 8.76936501 0.8176046400000001 0.052039 0.16077 -0.023343
14760 4.43886804 8.73418635 0.8063721899999999 0.04347 0.16713599999999998 -0.009525
14780 4.460420610000002 8.780440500000001 0.7683486300000001 0.040227 0.171353 0.004334
14800 4.48736868 8.79825546 0.72254574 0.046551 0.164896 0.015069
14820 4.60771776 8.7630768 0.76386546 0.062472 0.153097 0.021605000000000003
14840 4.629574440000001 8.85169053 0.7481400300000001 0.075236 0.14453 0.021705
14860 4.57493274 8.81786565 0.7762849200000002 0.08591900000000001 0.14238299999999998 0.016441
14880 4.497845760000001 8.83717173 0.8183502000000001 0.098789 0.150886 0.010111
14900 4.43812248 8.948691810000001 0.76446387 0.103147 0.17005 0.009048
14920 4.416717060000001 8.93207367 0.69889383 0.09889 0.183867 0.020751
14940 4.515356610000001 8.817414390000001 0.6379737300000001 0.086102 0.19029 0.023858
14960 4.63211523 8.712928080000001 0.6108785100000002 0.073275 0.185009 0.023776
14980 4.7139993 8.792869770000001 0.5397756300000001 0.067893 0.17968 0.029086
15000 4.60666809 8.84645199 0.53903007 0.060415 0.177575 0.029036000000000006
15020 4.46147028 8.805142080000001 0.48947976000000004 0.052928 0.161669 0.017254
15040 4.39725402 8.829686700000002 0.43365105000000004 0.056105 0.139356 0.000213
15060 4.44021201 8.749901970000002 0.37601730000000005 0.06464 0.134021 -0.005061
15080 4.571489430000001 8.789122350000001 0.3962259 0.05821000000000001 0.134018 0.001303
15100 4.67418051 8.80259148 0.46627911 0.04645 0.142525 0.015097
15120 4.74782418 8.7371784 0.5150740500000001 0.04645 0.149952 0.022565
15140 4.76773848 8.693170740000001 0.6059440800000001 0.048594 0.148893 0.019377
15160 4.768788150000001 8.740474560000001 0.65144286 0.032652999999999995 0.151126 0.007512
15180 4.63182093 8.78747427 0.6328823400000001 0.021994 0.144806 -0.0011
15200 4.51925118 8.761428720000001 0.49935843 0.043235 0.132975 0.008676999999999999
15220 4.450541940000001 8.81980803 0.49322718000000004 0.069816 0.13386199999999998 0.030226
15240 4.4393193 8.89839594 0.49098069000000005 0.078327 0.140177 0.042028
15260 4.4882712 8.85364272 0.5590915200000001 0.07508300000000001 0.1306 0.042018
15280 4.5176031 8.752599720000001 0.6595263 0.079523 0.160447 0.033464999999999995
15300 4.535869320000001 8.69496597 0.6575839200000001 0.07871 0.182958 -0.000753
15320 4.59798624 8.71622424 0.6185106900000001 0.067152 0.17679 -0.046759
15340 4.671786870000002 8.76427362 0.54936 0.045733 0.15451099999999998 -0.051153
15360 4.7196891 8.75484621 0.57569985 -0.000357 0.106735 -0.051414
15380 4.62283497 8.70589431 0.6236020800000001 -0.013328 0.07798300000000001 -0.042922
15400 4.47658749 8.70964173 0.5161237200000001 -0.020867 0.077945 -0.026951
15420 4.50697887 8.766068850000002 0.47211606000000006 -0.028441 0.073634 -0.007770999999999998
15440 4.635411390000001 8.74167138 0.50804028 -0.038158 0.051284 -0.004605
15460 4.684961700000001 8.7078465 0.64111293 -0.038364 0.002295 -0.007748
15480 4.70591586 8.696614049999999 0.5987533500000001 -0.040651 -0.050884 -0.026924
15500 4.7186394300000005 8.653508910000001 0.52331445 -0.042857 -0.088076 -0.048256
15520 4.6710413100000014 8.64078534 0.47795301 -0.052377 -0.086909 -0.065416
15540 4.686904080000001 8.73822807 0.48858705 -0.063801 -0.038846 -0.086922
15560 4.68840501 8.86666059 0.58019283 -0.031689 0.022674 -0.04832
15580 4.59738783 8.936566650000001 0.8238830400000001 -0.034703 0.072719 -0.03986
15600 4.30086096 8.89360866 0.8244814500000002 -0.067733 0.065446 -0.057173
15620 4.20251571 8.86307013 0.83960847 -0.094591 0.015505 -0.065842
15640 4.20924537 8.912169180000001 0.7896069 -0.077713 -0.0017010000000000007 -0.040065
15660 4.261640580000001 8.93042559 0.6354329400000001 -0.05862000000000001 -0.010354 -0.023897
15680 4.38947469 8.97772941 0.47151765 -0.045957 -0.026437 -0.008833
15700 4.4918616600000005 8.89959276 0.38380644 -0.033423 -0.05749 0.020136
15720 4.43572884 8.80124751 0.24533829000000001 -0.026113 -0.067205 0.045837
15740 4.647987810000001 8.66846916 0.11241279000000001 -0.0315 -0.070417 0.05435
15760 4.839282810000001 8.614435680000001 0.21180771 -0.028323 -0.07893700000000001 0.051178
15780 5.000500350000001 8.76697137 0.39517623 -0.03581 -0.099087 0.035128
15800 4.98029175 8.78074461 0.47570652 -0.046489 -0.116034 0.02012
15820 4.78150191 8.51054778 0.5149269000000001 -0.051804 -0.11706 0.014743
15840 4.59454293 8.40666969 0.43903674000000004 -0.033667 -0.090598 0.041542
15860 4.66954038 8.49662739 0.30506157000000006 -0.014430000000000004 -0.052439 0.07260499999999999
15880 4.86637803 8.61653502 0.3962259 -0.026137 -0.034336 0.08425099999999999
15900 4.98059586 8.82040644 0.54816318 -0.043163 -0.050153 0.058515
15920 4.87087101 9.06215427 0.77539221 -0.064429 -0.068051 0.024206
15940 4.41686421 8.724758940000001 0.90621837 -0.048263 -0.031888 0.024273
15960 4.147874010000001 8.68044717 0.6918600600000001 -0.009654 0.005292 0.017016999999999997
15980 4.1932256400000005 8.70275511 0.31060422000000004 -0.000842 0.045827 -0.004337
16000 4.56311169 8.63808759 0.03726819 -0.023135 0.046003 -0.029063
16020 4.87146942 8.672814990000001 0.12498921000000002 -0.04786 -0.008187999999999999 -0.041984
16040 4.968166590000001 8.96680107 0.22797459 -0.076972 -0.067776 -0.033566000000000006
16060 4.79962098 8.90693064 0.3876912 -0.111376 -0.113515 -0.020929
16080 4.66939323 8.710083180000002 0.51628068 -0.131694 -0.118791 -0.015722999999999997
16100 4.511619 8.715478680000002 0.48739023 -0.13687 -0.091046 -0.023272
16120 4.3701588000000005 8.86216761 0.50834439 -0.134477 -0.042017 -0.031864
16140 4.20924537 8.87968827 0.58213521 -0.129004 -0.001594 -0.022263
16160 4.18664313 8.83477809 0.63467757 -0.117245 0.018545 -0.007252
16180 4.4074368 8.801394660000001 0.57540555 -0.090717 -0.005018 0.001509
16200 4.7485795500000005 8.83463094 0.5469663599999999 -0.052377 -0.015822 0.006064
16220 4.90485285 8.72580861 0.76461102 -0.037642 -0.06592 0.0008900000000000002
16240 4.85515539 8.818159950000002 0.95695569 -0.034480000000000004 -0.077636 -0.002278
16260 4.481826030000001 8.844803910000001 0.9292718700000001 -0.043082 -0.079788 0.010484
16280 4.14173295 8.743770720000002 0.87089256 -0.051708 -0.07559500000000001 0.034987
16300 3.99055104 8.93806758 0.74964096 -0.050608 -0.053288 0.049921
16320 4.01989275 9.091348830000001 0.76461102 -0.052660000000000005 -0.030927 0.054151
16340 4.03051698 9.13550364 0.74859129 -0.061104 -0.019145 0.045531
16360 4.17047625 9.18759474 0.59920461 -0.059955 -0.019077 0.027379
16380 4.38648264 9.24746517 0.48199473000000004 -0.057831 -0.043496 0.004993
16400 4.410428850000001 8.87055516 0.44742429 -0.05031 -0.032865 0.003964
16420 4.52389131 8.63239779 0.43140456000000005 -0.040718 -0.026541 0.012568
16440 4.50323145 8.65170387 0.44502084000000003 -0.04277 -0.015851 0.005063000000000001
16460 4.451140350000001 8.665182810000001 0.5402268900000001 -0.038474 -0.01584 -0.001317
16480 4.48332696 8.740474560000001 0.6149202300000001 -0.024581 -0.0073799999999999985 0.001974
16500 4.60862028 8.78163732 0.63453042 -0.031083 -0.020179 0.011559
16520 4.69364355 8.71248663 0.6908103900000001 -0.023687 -0.022391 0.025501
16540 4.67118846 8.720570069999999 0.74530494 -0.003474 -0.031001 0.029926
16560 4.54275594 8.9019864 0.68063742 -0.006622 -0.034126 0.014953
16580 4.3957629 8.99329788 0.5870794500000001 -0.012865 -0.032902 -0.019276
16600 4.2888829500000005 8.88208191 0.54471987 -0.029776 -0.042251 -0.064247
16620 4.432285530000001 8.81951373 0.65519028 -0.08188 -0.056767999999999985 -0.118004
16640 4.59484704 8.76891375 0.82792476 -0.1457 -0.054252 -0.159045
16660 4.714892010000001 8.65904175 0.96340086 -0.164903 -0.051002 -0.155979
16680 4.6669995900000005 8.58045384 1.0672789500000002 -0.162751 -0.017041 -0.126097
16700 4.55038812 8.70544305 1.04946399 -0.155278 0.013707 -0.096174
16720 4.4062399800000005 8.76338091 1.01728719 -0.116832 0.039071 -0.078846
16740 4.3604370900000005 8.90109369 0.9710330400000001 -0.070938 0.058025 -0.063595
16760 4.322864790000001 8.915455530000001 0.80562663 -0.036703 0.080272 -0.062316
16780 4.36163391 8.89824879 0.70637886 -0.019733 0.06314700000000001 -0.056835
16800 4.3704629100000005 8.92294056 0.7839171000000001 -0.023049 0.055629 -0.038688
16820 4.33004571 8.92878732 0.8764254 -0.023279 0.026778 -0.01622
16840 4.30190082 8.94898611 0.77298876 -0.036292000000000005 -0.003073 0.000819
16860 4.3701588000000005 8.896600710000001 0.77239035 -0.064175 -0.026446 0.0092
16880 4.5463464 8.812627110000001 0.7687998900000002 -0.084627 -0.07322100000000001 0.002707
16900 4.583614590000001 8.85678192 0.81670212 -0.083704 -0.104122 0.003822
16920 4.5473960700000005 8.727603839999999 0.8828607600000001 -0.07307899999999999 -0.099954 0.017777
16940 4.55906997 8.70544305 0.96264549 -0.078447 -0.098904 0.026284
16960 4.604872860000001 8.83836855 0.8640059400000001 -0.082704 -0.098881 0.024118
16980 4.643043570000001 8.7488523 0.7824259800000002 -0.07733200000000001 -0.094621 0.019877
17000 4.62254067 8.538545520000001 0.8394515100000001 -0.07195 -0.083987 0.019901
17020 4.76399106 8.79062328 0.7412632200000001 -0.07725 -0.06377999999999999 0.032657
17040 4.568046120000002 8.73014463 0.79170624 -0.079394 -0.048927 0.049715
17060 4.40399349 8.62850322 0.8454454200000001 -0.082676 -0.045805 0.071052
17080 4.35414888 8.6964669 0.9104072400000001 -0.094517 -0.04798 0.092337
17100 4.396508460000001 8.893010250000001 0.66851226 -0.108448 -0.05223 0.101859
17120 4.3875225 8.95916889 0.52181352 -0.097823 -0.059733 0.104079
17140 4.3724052900000006 8.92489275 0.53558676 -0.066941 -0.071563 0.105378
17160 4.47029928 8.94180519 0.53992278 -0.043504 -0.072736 0.111953
17180 4.67447481 8.853044310000001 0.58498011 -0.0264 -0.061095 0.11633
17200 4.81309011 8.71472331 0.60489441 0.001343 -0.060127 0.116523
17220 4.86039393 8.66009142 0.58019283 0.023857 -0.043131 0.109181
17240 4.8178773900000005 8.728800660000001 0.49562082 0.023838 -0.049514 0.107052
17260 4.75231716 8.7949593 0.38814245999999997 0.029081 -0.064468 0.112449
17280 4.69962765 8.74152423 0.26779338 0.038611 -0.070931 0.122138
17300 4.71189996 8.686136970000002 0.22318731000000003 0.025737 -0.084743 0.124202
17320 4.69768527 8.69811498 0.37616445 -0.007422 -0.110169 0.117594
17340 4.58017128 8.665035660000001 0.50549949 -0.030936 -0.13028399999999998 0.106773
17360 4.4453034 8.72191404 0.5379804 -0.044719 -0.125915 0.091716
17380 4.37360211 8.80798698 0.6033934800000001 -0.061578 -0.107631 0.06273300000000001
17400 4.36567563 8.868161520000001 0.6725539800000001 -0.068763 -0.077645 0.029529000000000007
17420 4.42585017 8.892558990000001 0.76131486 -0.06416000000000001 -0.034921 -0.00254
17440 4.4740467 8.79720579 0.8077161600000001 -0.064978 -0.003927 -0.027154
17460 4.555626660000001 8.74391787 0.84260052 -0.083004 0.011088 -0.036914
17480 4.59289485 8.76292965 0.8539703100000001 -0.102155 0.016507 -0.043464
17500 4.55098653 8.87399847 0.86909733 -0.106355 0.027192 -0.04778
17520 4.476440340000002 8.75410065 0.8734333500000001 -0.104169 0.035719 -0.05098
17540 4.49095914 8.689727430000001 0.84559257 -0.065728 0.039859 -0.053921
17560 4.5750897 8.789269500000001 0.8126604000000001 -0.057227 0.017518000000000002 -0.068788
17580 4.65083271 8.84076219 0.77987538 -0.037966 0.013258 -0.08574
17600 4.629574440000001 8.94151089 0.9767228400000001 -0.029311 0.021823 -0.10385
17620 4.643347680000001 9.05361957 1.09482543 -0.031272 0.03896 -0.12525
17640 4.59798624 8.95003578 1.12505985 -0.031095 0.06246 -0.14130299999999998
17660 4.599938430000001 8.79885387 1.12865031 -0.051332 0.065743 -0.14572100000000002
17680 4.540058190000001 8.6446701 1.14302196 -0.064225 0.050853 -0.140451
17700 4.51551357 8.56368855 1.12460859 -0.087931 0.018896 -0.120279
17720 4.56445566 8.57865861 1.17655254 -0.091482 -0.011112 -0.07219600000000001
17740 4.60786491 8.641079640000001 1.2340293300000003 -0.076709 -0.011309 -0.035773
17760 4.69169136 8.638234740000001 1.23882642 -0.046913 -0.01042 -0.017406
17780 4.663703430000001 8.815472009999999 1.3075356599999999 -0.028824 -0.011587 -0.007664
17800 4.40653428 8.995691520000001 1.32953949 -0.004248 0.006398 0.002099
17820 4.14533322 8.99884053 1.2332837700000001 0.021467 0.032932 0.004381
17840 4.21613199 8.86890708 1.1710197 0.045144 0.065924 -0.008315000000000001
17860 4.26717342 8.674757370000002 1.19302353 0.036714 0.063925 -0.034009
17880 4.341121200000001 8.561147759999999 1.17745506 0.022951 0.073617 -0.048004000000000005
17900 4.45503492 8.79735294 1.11592674 0.019736 0.084225 -0.034153
17920 4.49844417 8.93881314 1.07387127 0.010048 0.07569400000000001 -0.023528
17940 4.486024710000001 8.94674943 1.1618865900000004 0.001398 0.049096 -0.024622
17960 4.32555273 9.01740105 1.14212925 0.015238 0.027802 -0.039453
17980 4.31971578 8.908127460000001 1.12565826 0.071997 0.064932 -0.049787
18000 4.414617720000001 8.78508063 1.03030506 0.126796 0.14890599999999998 -0.051648
18020 4.52823714 8.70036147 0.89139546 0.150641 0.22767 -0.055855
18040 4.613701860000002 8.68119273 0.8714909700000001 0.165759 0.264915 -0.059002
18060 4.70142288 8.72804529 0.8226862200000001 0.157358 0.289468 -0.064433
18080 4.810245210000001 8.59976973 0.87986871 0.12109 0.291721 -0.063621
18100 4.8518592300000005 8.485551899999999 0.95142285 0.098657 0.306627 -0.042433
18120 4.86728055 8.489897730000001 0.9744763500000001 0.101814 0.328859 -0.010392
18140 4.8937773600000005 8.6529105 0.88481295 0.105034 0.368122 0.024831
18160 4.76070471 8.864414100000001 0.7845155100000001 0.09215 0.368094 0.042901
18180 4.708907910000001 8.979671790000001 0.76221738 0.066359 0.33512600000000003 0.051309
18200 4.58975565 8.81442234 0.8183502000000001 0.051096 0.27229000000000003 0.060897
18220 4.40803521 8.661739500000001 0.7800323400000001 0.010038 0.153139 0.05649
18240 4.30983711 8.75589588 0.8253839700000001 -0.038575 0.012717 0.049921
18260 4.22646192 8.81786565 0.8934948 -0.05488 -0.058583 0.045625
18280 4.4340807600000005 8.75783826 0.91774512 -0.050627 -0.070281 0.037124
18300 4.7342079 8.668322009999999 0.9541206 -0.02483 -0.034126 0.030849
18320 4.69139706 8.71128 0.8773279200000001 0.006377000000000001 0.017993000000000002 0.023522
18340 4.49829702 8.85123927 0.8038314000000001 0.022792 0.105306 0.019252
18360 4.25609793 8.95033989 0.77014386 0.081227 0.270293 0.001289
18380 4.0897988100000005 9.07922367 0.7086253500000002 0.116096 0.392837 -0.038148
18400 3.9633086700000004 9.16604217 0.84633813 0.107925 0.461095 -0.051112
18420 3.94400259 9.19343169 0.8777791800000001 0.082517 0.500616 -0.055613
18440 3.96854721 9.01769535 1.0086053400000003 0.061954 0.455865 -0.035403
18460 4.1155402500000005 8.849601 0.9202859100000002 0.040042 0.368426 0.005149
18480 4.32810333 8.793016920000001 0.77344002 0.026683 0.275669 0.036153
18500 4.54574799 8.87534244 0.6730052400000001 0.02109 0.236201 0.054324
18520 4.662506610000001 8.76802104 0.57225654 0.007847 0.13505799999999998 0.051156
18540 4.7801579400000005 8.54737452 0.5953100400000001 -0.007152 0.124445 0.054270000000000006
18560 4.83884136 8.461752839999999 0.55204794 -0.025595 0.052087 0.049961
18580 4.916526750000001 8.478066870000001 0.35071731 -0.047119 6e-06 0.039195
18600 4.991367240000001 8.57416563 0.20387142 -0.056654 0.009649 0.033775
18620 4.85544969 8.62746336 0.31734369000000007 -0.060773 0.041626 0.032637
18640 4.71983625 8.72865351 0.5902186500000001 -0.041435 0.077752 0.039135
18660 4.65770952 8.840320740000001 0.7945511400000002 -0.019892 0.128789 0.044561
18680 4.50487953 8.96949882 0.9154986300000001 -0.009175 0.155319 0.060626
18700 4.43108871 8.92698228 0.9669913200000001 -0.008112999999999999 0.183958 0.090506
18720 4.432128570000001 8.77505481 0.93405915 -0.011505 0.158335 0.107607
18740 4.54050945 8.637185070000001 0.96159582 -0.020194 0.126398 0.109724
18760 4.483179810000001 8.71816662 1.0389869100000002 -0.013769 0.117909 0.095893
18780 4.1339536200000015 9.04957785 0.97641873 0.018309 0.112556 0.074759
18800 3.9938472 9.16364853 1.0747639800000002 0.040771 0.10298 0.052496
18820 4.07198385 8.92234215 1.08030663 0.06336699999999999 0.15506099999999998 0.062201
18840 4.43737692 8.675512740000002 0.98285409 0.078279 0.15711 0.06978
18860 4.79871846 8.590038210000001 0.84184515 0.079269 0.128391 0.058073
18880 5.01532326 8.5575573 0.69604893 0.053554 0.077454 0.031253
18900 5.009329350000001 8.58150351 0.56732211 0.017453 0.098955 0.013882
18920 4.79063502 8.696614049999999 0.6318326700000001 -0.017696 0.059872 -0.038656
18940 4.584517110000001 8.7545421 0.8288272799999999 -0.065776 0.019657 -0.06351
18960 4.3963613100000005 8.89929846 0.8702941500000001 -0.095936 -0.045215 -0.064705
18980 4.38827787 8.94465009 0.96878655 -0.112035 -0.049488 -0.047721
19000 4.421955600000001 8.92159659 1.09511973 -0.110031 -0.045367000000000005 -0.014597
19020 4.31971578 8.90153514 1.09872 -0.107935 -0.042225 -0.002836
19040 4.20864696 8.821308960000001 1.0901853000000001 -0.091904 -0.044378 -0.011267
19060 4.107456810000001 8.808428430000001 1.1076961500000004 -0.075786 -0.018867 -0.011187
19080 4.1574583800000005 8.93058255 1.0822490100000002 -0.065083 -0.004021 -0.003654
19100 4.344868620000001 8.948240550000001 1.1653299000000001 -0.052291 0.011841 0.014575
19120 4.46641452 8.85663477 1.23358788 -0.039565 0.012789 0.032822000000000004
19140 4.5394597800000005 8.75678859 1.25184429 -0.05675 -0.007412999999999999 0.038069
19160 4.48108047 8.686136970000002 1.28417805 -0.056754999999999986 -0.0063560000000000005 0.040204
19180 4.33394028 8.7255045 1.25184429 -0.052391 0.018117 0.043408
19200 4.26328866 8.777448450000001 1.2897207000000002 -0.065275 -0.010557 0.032672
19220 4.378095090000001 8.85139623 1.38806595 -0.080182 -0.023212 0.013357
19240 4.36073139 8.85498669 1.49284656 -0.091884 -0.017836 0.011131
19260 4.32645525 8.730448740000002 1.54015038 -0.099252 -0.009232 -0.002818
19280 4.4364744 8.51922963 1.4642504099999998 -0.103419 0.007848 -0.00821
19300 4.70771109 8.49109455 1.38656502 -0.098988 0.029198 -0.023162
19320 4.87670796 8.523124200000002 1.38851721 -0.086056 0.04094 -0.040178
19340 4.87101816 8.7690609 1.20828789 -0.081803 0.030302 -0.047612
19360 4.78180602 8.65260639 1.1602385100000001 -0.084114 0.003627 -0.034775
19380 4.82267448 8.59961277 1.10559681 -0.08971699999999999 -0.023118 -0.0016649999999999998
19400 4.77297702 8.561147759999999 1.1469165300000004 -0.084651 -0.043535 0.03792
19420 4.47868683 8.60336019 1.2614286599999998 -0.060339 -0.058675 0.073361
19440 4.1872415400000005 8.766068850000002 1.25619012 0.000535 -0.030185000000000007 0.08870499999999999
19460 4.05806346 8.913366 1.1782006200000001 0.0605 0.010121 0.080526
19480 4.07003166 9.043897860000001 1.08299457 0.089612 0.050611 0.052904
19500 4.145627520000001 9.04045455 1.03764294 0.085565 0.075225 0.028275
19520 4.27630653 8.85977397 1.09227483 0.064371 0.08179299999999999 0.002481
19540 4.3581906 8.697065310000001 1.13404581 0.011009 0.06604700000000001 -0.009622
19560 4.47359544 8.77175865 1.0472175000000001 -0.041363 0.05023 -0.004626
19580 4.55892282 8.74631151 1.04557923 -0.07674199999999999 0.025796 0.009045
19600 4.53287727 8.738375220000002 0.97641873 -0.087521 0.006638 0.014335
19620 4.61070981 8.68119273 1.0300107600000001 -0.072652 -0.005145 0.017659
19640 4.70876076 8.60321304 1.0720662300000001 -0.042785 -0.006314999999999999 0.017869
19660 4.692142620000001 8.557851600000001 1.1103939 -0.002359 -0.032023 0.018184
19680 4.6669995900000005 8.649908640000001 1.1599344 0.018753 -0.074738 0.025864
19700 4.56220917 8.70170544 1.2406216500000002 0.03356 -0.074905 0.054810000000000005
19720 4.48691742 8.81591346 1.3488455700000002 0.033401 -0.099449 0.065522
19740 4.4779412700000005 8.77774275 1.4563239300000002 0.030134 -0.095253 0.084722
19760 4.549642560000001 8.62057674 1.5507746100000002 0.012915 -0.139888 0.072909
19780 4.70935917 8.53300287 1.81856799 0.006845 -0.08758200000000001 0.051435
19800 4.8716165700000005 8.64602388 1.9685530800000002 -0.000518 -0.093828 0.021481
19820 4.83105222 8.805740490000002 1.83203712 -0.017683 -0.14372100000000002 -0.007417
19840 4.61280915 8.94914307 1.5819115499999998 -0.032341 -0.06490800000000001 0.009471
19860 4.36567563 8.89749342 1.56544056 -0.010391 0.118056 0.056392
19880 4.31103393 8.83163889 1.40931441 -0.016396 -0.097906 -0.010671
19900 4.3439661 8.79675453 1.2464585999999998 -0.027806 -0.026488 -0.011911
19920 4.4180610300000005 8.73523602 1.11128661 0.050761 0.193477 0.056722
19940 4.52823714 8.57865861 1.0946782800000001 0.126074 0.330648 0.053867999999999985
19960 4.74602895 8.37732798 1.1030560200000001 0.153177 0.39672 0.024062
19980 4.9774468500000015 8.27464671 1.11443562 0.147867 0.358564 -0.019723
20000 5.06157741 8.324785620000002 1.11982131 0.092613 0.134133 -0.057209
20020 4.98268539 8.473279589999999 1.12431429 0.06323200000000001 0.009585 -0.05405
20040 4.8358395000000005 8.69003154 1.1220678 0.022054 -0.07041599999999999 0.007722
20060 4.68181269 8.79046632 1.1183203800000001 -0.012603 -0.13653900000000002 0.056703
20080 4.5466407 8.83432683 1.18898181 -0.054709 -0.225961 0.077888
20100 4.50263304 8.78777838 1.3097723400000003 -0.107158 -0.281104 0.0605
20120 4.467160080000001 8.67790638 1.53535329 -0.147828 -0.342615 0.027180000000000003
20140 4.58855883 8.68494015 1.64493099 -0.158401 -0.370079 -0.021997
20160 4.67597574 8.681948100000001 1.68578964 -0.155042 -0.35827800000000004 -0.045489
20180 4.6985779800000005 8.5692312 1.6377402600000002 -0.127112 -0.320009 -0.049616
20200 4.72373082 8.56368855 1.5706791 -0.100321 -0.279677 -0.035594
20220 4.58645949 8.677759230000001 1.3424102100000002 -0.061746 -0.231917 -0.024703
20240 4.470004980000001 8.63179938 1.1811926700000002 -0.027525 -0.200134 -0.010618
20260 4.502034630000001 8.589891060000001 1.13584104 0.0033710000000000003 -0.198158 0.0013460000000000002
20280 4.5472391100000005 8.62476561 1.09497258 0.011848 -0.192934 0.019558
20300 4.66040727 8.71832358 0.85697217 0.010657 -0.219566 0.020652
20320 4.869968490000001 8.69991021 1.04228307 0.006404000000000001 -0.225905 0.011016
20340 4.933586340000001 8.54452962 1.11293469 0.001017 -0.240787 0.007793
20360 4.44350817 8.743613759999999 1.07806014 -0.017168 -0.25562 0.003412
20380 4.01570388 8.96335776 1.08614358 -0.07795 -0.264931 -0.013024
20400 4.1586552 8.903634480000001 1.16203374 -0.116391 -0.288169 -0.029286000000000006
20420 4.75126749 8.661435390000001 1.0761079500000001 -0.139905 -0.299796 -0.031572
20440 5.58353808 8.3235888 1.21383054 -0.163385 -0.291235 -0.021064
20460 5.93231301 8.1786951 1.22041305 -0.158051 -0.276399 -0.006091
20480 5.853725100000001 8.0340957 1.3563306 -0.153755 -0.267901 -0.003935
20500 5.391340560000001 8.2307862 1.5275739600000002 -0.160051 -0.245504 -0.005076
20520 5.0826787200000005 8.40097989 1.5094647 -0.12793 -0.220049 -0.0048850000000000005
20540 4.91009139 8.41699962 1.25514045 -0.100134 -0.20418 -0.001506
20560 4.87505988 8.42537736 1.2323910599999999 -0.059516 -0.193643 -0.007645
20580 4.909787280000001 8.593177410000001 1.2760946100000001 -0.022979 -0.146851 -0.0192
20600 4.797227340000001 8.6011137 1.40483124 0.01139 -0.101143 -0.02436
20620 4.639305960000001 8.66967579 1.28956374 0.018863 -0.096921 -0.021108
20640 4.58227062 8.85438828 1.14467004 0.017897 -0.062876 -0.009408
20660 4.520448 8.85692907 1.17221652 0.01162 -0.030912 -0.005220000000000001
20680 4.5435015000000005 8.653057650000001 1.1106882 0.008549 -0.006383 -0.009546
20700 4.826863350000002 8.64482706 1.02506652 0.008583 -0.010597 -0.021291
20720 4.90889457 8.548718490000002 0.8361651600000001 0.009707 -0.009489 -0.033035
20740 4.9771525500000005 8.650811160000002 0.65847663 -0.009386 0.010835 -0.037467
20760 4.99047453 8.534650950000001 0.7632670500000001 -0.04453 0.024807 -0.037731
20780 4.96727388 8.31356298 0.77958108 -0.05629 0.023766 -0.033539
20800 4.8159350100000005 8.28048366 0.86384898 -0.048735 0.034426 -0.042045
20820 4.91473152 8.490348990000001 0.8074218599999999 -0.06780499999999999 0.062199 -0.04435
20840 5.007386970000001 8.4883968 0.8163980100000001 -0.072201 0.024963 -0.052879
20860 5.081187600000001 8.450373240000001 0.7189552800000001 -0.067939 0.021761000000000003 -0.054982
20880 5.022052919999999 8.4158028 0.74050785 -0.040287 0.015222 -0.041962
20900 4.8759624 8.46055602 0.83930436 -0.039186 0.025858 -0.038763
20920 4.72342671 8.65200798 0.8074218599999999 -0.015821 0.033109 -0.00763
20940 4.67612289 8.83747584 0.8918467200000001 0.019189 0.002042 0.005473
20960 4.57493274 8.89196058 1.0428814800000001 0.049989 -0.033203 0.00146
20980 4.453985250000001 8.90573382 1.06174611 0.067035 -0.049199 -0.009083
21000 4.35384477 8.96964597 1.00530918 0.075723 -0.023628 -0.017601
21020 4.26717342 9.00407907 0.9862974000000001 0.069485 -0.0043630000000000006 -0.03476
21040 4.3060995 8.87624496 1.04916969 0.072882 0.02657 -0.047595
21060 4.44575466 8.78388381 1.0267146 0.075145 0.058508 -0.044415
21080 4.53706614 8.77370103 1.01174454 0.066601 0.063834 -0.037004
21100 4.595141340000001 8.737776810000002 1.03165884 0.052679 0.054286 -0.034953
21120 4.599938430000001 8.69631975 1.0030626900000001 0.056951 0.060642 -0.02959
21140 4.5991830600000005 8.713085040000001 0.9686394 0.070897 0.089309 -0.017779
21160 4.6288288799999995 8.724758940000001 0.8880993 0.08054700000000001 0.105233 -0.012391
21180 4.67193402 8.77175865 0.9574069500000001 0.07632699999999999 0.10529 -0.023103
21200 4.680321570000001 8.73568728 0.94902921 0.068984 0.117098 -0.039192000000000005
21220 4.65217668 8.60036814 0.92582856 0.067826 0.106411 -0.029573
21240 4.597534980000001 8.57656908 0.9954305100000002 0.043159 0.087284 -0.020107
21260 4.51790721 8.666673930000002 0.98105886 0.036652 0.07978500000000001 -0.004118999999999999
21280 4.56430851 8.70110703 0.8768766600000001 0.05476 0.107282 0.030155
21300 4.67717256 8.69900769 0.78601644 0.059047 0.12426 0.042982
21320 5.05349397 8.47866528 0.84708369 0.054856 0.127527 0.029062
21340 5.51992023 8.49348819 0.8571193200000001 0.065663 0.131857 0.002426
21360 5.41528677 8.65530414 0.70728138 0.06466799999999999 0.126619 -0.018939
21380 5.0726529 8.65454877 0.54517113 0.051952 0.140534 -0.024386
21400 4.83300441 8.601417810000001 0.58798197 0.047771 0.15548 -0.028708
21420 4.63840344 8.68374333 0.5719622400000001 0.04769 0.157529 -0.008415
21440 4.50846999 8.72220834 0.70353396 0.046446 0.154192 0.027901
21460 4.557569040000001 8.788975200000001 0.82284318 0.050665 0.147769 0.032211000000000004
21480 4.49559927 8.741072970000001 0.7789826700000001 0.063582 0.154192 0.013065
21500 4.53391713 8.72340516 0.6991979400000001 0.080647 0.138213 -0.00175
21520 4.57404003 8.740474560000001 0.7071342300000001 0.091354 0.149881 0.0015140000000000002
21540 4.54888719 8.776850040000001 0.6137234100000001 0.090321 0.16901300000000002 0.013233000000000002
21560 4.60398015 8.752599720000001 0.43050204000000003 0.079624 0.166902 0.017434
21580 4.74961941 8.78134302 0.4939727400000001 0.07637000000000001 0.160501 0.02276
21600 4.760851860000001 8.73449046 0.65803518 0.05598 0.129696 0.018385
21620 4.79063502 8.74406502 0.64246671 0.033456 0.097838 0.012927
21640 4.80575223 8.7835797 0.57645522 0.006731999999999999 0.077725 0.004220000000000001
21660 4.72866525 8.5404879 0.57959442 -0.018806 0.082118 -0.006645999999999999
21680 4.61070981 8.61937992 0.49771035 -0.028364 0.075824 -0.022728
21700 4.467160080000001 8.82983385 0.4972689 -0.018671 0.088603 -0.030154000000000007
21720 4.41791388 8.67984876 0.4090966200000001 0.009201 0.11409 -0.034265
21740 4.6101114 8.64093249 0.45206442 0.063779 0.152245 -0.032864
21760 4.62582702 8.76831534 0.52286319 0.093814 0.190482 -0.030567
21780 4.604872860000001 8.91246348 0.6538365 0.11746199999999997 0.228753 -0.031519
21800 4.59813339 8.93491857 0.65698551 0.137934 0.274485 -0.030367
21820 4.58227062 8.83088352 0.7018858800000001 0.160616 0.333009 -0.033488
21840 4.6009782900000005 8.789122350000001 0.7155119700000001 0.163951 0.363886 -0.032436
21860 4.63046715 8.57282166 0.668061 0.151221 0.371421 -0.04108
21880 4.63555854 8.65395036 0.6104272500000001 0.13184 0.299183 -0.074238
21900 4.554282690000001 8.67176532 0.714168 0.094576 0.349249 -0.041448
21920 4.5924534 8.97024438 0.7351221600000001 0.028827 0.186546 -0.055585
21940 4.643043570000001 8.979671790000001 0.6468027300000001 0.031042 0.2386 -0.021453
21960 4.643494830000001 8.840320740000001 0.69006483 0.088161 0.376844 -0.010549
21980 4.56894864 8.69751657 0.74215593 0.098858 0.372588 -0.021151
22000 4.51700469 8.73493191 0.8381075400000001 0.150111 0.377753 -0.025073
22020 4.3981565400000004 8.65844334 0.72718587 0.169194 0.354237 -0.021705
22040 4.57598241 8.63958852 0.69276258 0.189565 0.385025 -0.013056
22060 4.74138882 8.69017869 0.6586335900000001 0.212075 0.429603 0.008408
22080 4.76384391 8.80648605 0.64770525 0.222873 0.477425 0.027651
22100 4.6051769700000005 8.77400514 0.79350147 0.228203 0.511355 0.06289600000000001
22120 4.484229480000001 8.82235863 0.92507319 0.235699 0.5357569999999999 0.081076
22140 4.378840650000001 8.935968240000001 0.9354031200000001 0.226146 0.5379550000000001 0.072461
22160 4.31478135 8.98267365 0.92403333 0.189743 0.469002 0.031702999999999995
22180 4.19637465 8.94914307 0.85516713 0.150024 0.356456 -0.027183
22200 4.160597580000001 8.93582109 0.6999435 0.130591 0.29690300000000003 -0.035788
22220 4.25564667 9.008415090000002 0.6719555700000001 0.098403 0.25335100000000005 -0.039162
22240 4.28199633 8.920095660000001 0.7999368299999999 0.08319299999999999 0.212842 -0.01892
22260 4.28034825 8.852740200000001 0.8619066000000001 0.084112 0.224378 0.025937
22280 4.399804620000001 8.93941155 0.8147597400000001 0.04435 0.15529500000000002 0.020407
22300 4.36252662 8.89000839 0.7717919400000001 0.026041 0.11807 0.021395
22320 4.50473238 8.792869770000001 0.66072312 0.029174 0.098901 0.017169
22340 4.95469746 8.555909220000002 0.34279083000000005 0.013171 0.07243200000000001 -0.009615
22360 4.88404584 8.54452962 0.51687909 0.024955 0.084104 -0.008479
22380 4.874608620000002 8.693474850000001 0.67748841 0.033589999999999995 0.130848 0.01609
22400 4.5725391 8.724906090000001 1.03135473 0.010105 0.121368 0.009529
22420 4.2568434900000005 9.10467081 0.66102723 -0.010228 0.120323 0.022207
22440 4.2628374 9.274118940000001 0.61462593 0.014382 0.152131 0.038362
22460 4.36851072 9.11649186 0.8190957600000001 0.000484 0.131995 0.024403
22480 4.4999451000000015 8.83463094 1.04946399 -0.020954 0.064076 -0.021593
22500 4.53108204 8.66712519 1.0877916599999997 0.003761 0.112954 -0.011869
22520 4.57913142 8.73987615 1.13553693 -0.02168 0.113188 -0.048366
22540 4.53451554 8.844058350000001 1.1976636600000001 -0.017279 0.14194 -0.049441000000000006
22560 4.3304969700000004 8.83403253 1.17251082 0.011694 0.203526 -0.024748
22580 4.27046958 8.8293924 1.07387127 0.015962 0.186535 -0.041788
22600 4.19068485 8.88222906 0.80187921 0.097365 0.261869 -0.037043
22620 4.28229063 8.967997890000001 0.36778670999999996 0.107 0.416771 0.111308
22640 4.52284164 8.98131987 0.23531247000000002 0.090316 0.278292 0.124188
22660 4.77118179 8.75753415 0.45745011 0.05886 0.123033 0.083575
22680 4.953647790000001 8.454267810000001 0.46942812 0.072619 0.116521 0.101839
22700 5.01786405 8.38631394 0.6297431400000001 0.126484 0.232448 0.102067
22720 4.78554363 8.54228313 0.8027817300000001 0.144014 0.261445 0.028445
22740 4.57748334 8.743770720000002 0.6541406099999999 0.10443 0.198885 -0.010208
22760 4.436170290000001 8.806790160000002 0.61192818 0.082997 0.13203199999999998 -0.056205
22780 4.52673621 8.78972076 0.5022033300000001 0.051732000000000014 0.02575 -0.090471
22800 4.689150570000001 8.74167138 0.45894123000000003 0.014941 -0.121002 -0.122586
22820 4.68195984 8.63658666 0.60833772 -0.021265 -0.074132 -0.090852
22840 4.641699600000001 8.64422865 0.74545209 -0.032723 0.022708 -0.055804999999999993
22860 4.540205340000002 8.713977750000002 0.7119215100000001 -0.027412 0.039644 -0.033357
22880 4.5276387300000005 8.837024580000001 0.82912158 -0.067505 -0.105064 -0.040929
22900 4.45892949 8.964407430000001 0.8177517900000001 -0.014807 0.046851 0.017996
22920 4.306845060000001 8.79885387 0.6203059200000002 0.045398 0.177555 0.047091
22940 4.422554010000001 8.58853728 0.54127656 0.072117 0.199786 0.059000000000000004
22960 4.555773810000001 8.78388381 1.01563911 0.091887 0.339213 0.07284600000000001
22980 4.58631234 9.01964754 0.86265216 0.096384 0.300145 -0.017871
23000 4.426448580000001 8.88806601 1.00066905 0.033763 0.056731 -0.097045
23020 4.35324636 8.8698096 1.15649109 0.020318 -0.030797 -0.041479
23040 4.44305691 8.742122640000002 1.08614358 -0.002522 -0.06612 0.020363
23060 4.59095247 8.77415229 1.33822134 -0.060171 -0.06277 0.031707
23080 4.26059091 9.223666110000002 1.01758149 -0.09309 -0.06782300000000001 -0.008041
23100 4.27271607 8.792712810000001 0.6195603599999999 -0.088976 -0.117841 -0.023971
23120 4.62448305 8.70290226 0.37512459000000004 -0.097909 -0.193496 -0.011118
23140 4.843922940000001 8.8091838 0.43858548 -0.101335 -0.221271 0.011326
23160 4.42240686 9.03012462 0.70652601 -0.091455 -0.164825 0.005982
23180 4.19248008 8.88072813 0.8747773200000001 -0.04078 -0.069037 -0.01622
23200 4.0026762 8.739729 0.5830377300000001 0.022663 0.063812 0.006486
23220 4.4180610300000005 8.62087104 0.54666225 0.047349 0.10842 0.018352
23240 4.78719171 8.63239779 0.6712002000000001 0.072036 0.1647 0.041953
23260 5.0449592700000006 8.50935096 0.68841675 0.045918 0.05929400000000001 0.050451
23280 4.92116688 8.65170387 0.9800091900000001 0.013793 0.022164 0.039592
23300 4.6243359 8.740474560000001 1.10874582 0.032159 0.093393 0.059925
23320 4.102071120000001 8.849002590000001 1.15545123 0.025552 0.051853 0.064205
23340 4.05252081 8.76397932 0.7581756600000001 0.005306 0.038152 0.044853
23360 4.43901519 9.01635138 1.0428814800000001 -0.006229 0.056409 0.018044
23380 4.34831193 9.31153428 0.98270694 -0.014773 0.042637 0.006252000000000001
23400 4.04579115 9.09448803 0.7156591200000001 -0.021189 0.038403 0.005144
23420 4.15655586 9.15631065 0.72913806 -0.023423 0.031955000000000004 0.02116
23440 4.10312079 8.93417301 0.63123426 -0.023495 0.037196 0.042517
23460 4.52972826 8.406365580000001 -0.1502892 -0.046086 -0.009576 0.037078
23480 5.1639643799999995 8.207732700000001 0.09864936 -0.074026 -0.07119600000000001 0.01987
23500 5.32397529 8.5518675 0.55280331 -0.06435199999999999 -0.058434 0.016717
23520 4.987178370000001 8.94330612 0.61462593 -0.045115 -0.059532 0.008307
23540 4.46730723 8.750058930000002 0.51523101 -0.020534 -0.05958 -0.001135
23560 4.35743523 8.56848564 0.47391129 -0.006573999999999999 -0.023473 0.014939
23580 4.567604670000001 8.657844930000001 0.57674952 -0.011755 0.010634 0.014859
23600 4.61041551 8.90662653 0.75982374 -0.016123 -0.011722 0.014858
23620 4.32420876 9.02817243 0.8619066000000001 -0.007434 0.042496 0.035145
23640 4.12063164 9.03041892 0.83915721 -0.012668 0.07761699999999999 0.047882
23660 3.8272439700000005 9.262435230000001 0.9657945 -0.031991000000000006 0.023467 0.020043
23680 3.76183089 8.967399480000001 0.9580053600000001 -0.053645000000000005 -0.063742 0.002912
23700 4.17197718 8.90019117 1.11278754 -0.047143 -0.04776 -0.0034729999999999995
23720 4.35923046 8.85812589 1.07701047 -0.039560000000000005 -0.009488 0.00935
23740 4.5750897 8.61862455 0.9143018100000001 -0.037244 0.022497 0.000779
23760 4.611161070000001 8.80454367 0.88960023 -0.046822 -0.002912 -0.030234
23780 4.307139360000002 8.85109212 0.96264549 -0.048831 0.002511 -0.052687
23800 4.30550109 8.77130739 0.94528179 -0.044372 0.032374 -0.065513
23820 4.50009225 8.89420707 0.8490358800000001 -0.03909 0.018516 -0.067595
23840 4.54155912 8.90408574 0.69245847 -0.055366999999999986 -0.042148000000000005 -0.067631
23860 4.506233310000001 8.784482220000001 0.7349750100000001 -0.062065 -0.06679299999999999 -0.025985
23880 4.49918973 8.744663430000001 0.7864677000000001 -0.062348 -0.090387 0.013567
23900 4.56311169 8.75874078 0.88361613 -0.053053 -0.141621 0.030789
23920 4.5452967300000005 8.852141790000001 0.9184906800000001 -0.04681 -0.174675 0.033012
23940 4.577630490000001 8.8786386 0.78347565 -0.033984 -0.182126 0.020292
23960 4.4936568900000005 8.89196058 0.7288339500000001 -0.01678 -0.168273 0.004371
23980 4.213591200000001 8.816364720000001 0.6969514500000001 0.0069310000000000005 -0.124641 -0.005133
24000 4.16568897 8.77220991 0.7050348900000001 0.014672 -0.072435 -0.013692
24020 4.32151101 8.983566360000001 0.75428109 0.002043 -0.044651 -0.024498
24040 4.46596326 8.976679740000002 0.8038314000000001 -0.007502 -0.018041 -0.010712
24060 4.46491359 8.90693064 0.73362123 -0.027834 -0.01272 0.008368
24080 4.55682348 8.79450804 0.82493271 -0.053535 -0.024387 0.017817
24100 4.49081199 8.747214029999999 0.9291149100000001 -0.073949 -0.066884 0.007047
24120 4.31866611 8.81591346 0.9443890800000001 -0.076236 -0.113697 -0.0057280000000000005
24140 4.4276454 8.91680931 0.6936552900000001 -0.07527 -0.15198699999999998 -0.021695
24160 4.50083781 8.76652011 0.8195470199999999 -0.06884 -0.156227 -0.032327
24180 4.506076350000002 8.75035323 0.7789826700000001 -0.061267 -0.144489 -0.04404
24200 4.416717060000001 8.81157744 0.83750913 -0.057951 -0.117873 -0.042983
24220 4.29711354 8.91980136 0.8044298100000001 -0.056779 -0.08383 -0.032336000000000004
24240 4.29367023 8.917103610000002 0.7608636000000001 -0.055534 -0.027443 -0.015308
24260 4.3304969700000004 8.81067492 0.8556183900000001 -0.039378 0.016138 -0.005637
24280 4.4652177 8.742122640000002 0.93764961 -0.021131 0.048003 0.001927
24300 4.59693657 8.68329207 1.09198053 -0.014668 0.07031699999999999 0.01049
24320 4.75800696 8.60500827 1.2621742200000001 -0.017873 0.069263 0.010469
24340 4.79333277 8.68628412 1.41215931 -0.015749000000000003 0.055454 -0.001249
24360 4.70022606 8.88686919 1.20484458 -0.008343000000000001 0.029908 -0.012915
24380 4.42494765 9.070836120000001 1.04243022 0.00016299999999999998 0.025609 -0.010714
24400 4.19039055 9.06050619 0.8928963900000001 0.005454 0.027674 0.001071
24420 4.084109010000001 8.95498002 0.71761131 0.002273 0.037251 0.006377000000000001
24440 4.08934755 8.86860297 0.58138965 0.008698000000000001 0.045738 0.009616
24460 4.219428150000001 8.81756154 0.5020561800000001 0.020429 0.050998 0.016101
24480 4.4559374400000005 8.804985120000001 0.45864693000000006 0.016152 0.055248 0.022475
24500 4.76518788 8.6734134 0.48559500000000005 0.011879 0.054198 0.022446
24520 4.93523442 8.57087928 0.62943903 0.014003 0.048877 0.019263
24540 4.92131403 8.599318470000002 0.68123583 0.004454 0.055323 0.013847
24560 4.70680857 8.704697490000001 0.71940654 -0.003004 0.044748 0.00099
24580 4.57882731 8.848247220000001 0.7044364800000001 -0.013721 0.03095 -0.002272
24600 4.46880816 8.86591503 0.7262931600000001 -0.041421 0.032142000000000004 -0.009945
24620 4.394409120000001 8.861274900000002 0.7544282400000001 -0.061705 0.012041 -0.027152
24640 4.3225606800000005 8.95842333 0.7562234700000001 -0.10117 0.001577 -0.040233
24660 4.297564800000001 8.9916498 0.78616359 -0.127841 -0.005757 -0.047887
24680 4.2209192700000004 8.920252620000001 0.77284161 -0.123564 -0.005763 -0.049994
24700 4.277954610000001 8.86067649 0.78601644 -0.108623 0.00586 -0.039222
24720 4.32510147 8.84600073 0.80996265 -0.059567 0.019465 -0.020737
24740 4.3167237300000005 8.81427519 0.7749409500000002 0.002349 0.046868 -0.001112
24760 4.39545879 8.815472009999999 0.70892946 0.052449 0.050899 0.01312
24780 4.48916391 8.81696313 0.6800390100000001 0.099506 0.090094 0.027285000000000004
24800 4.51461105 8.87923701 0.7093709100000001 0.130574 0.129358 0.038134
24820 4.47344829 8.932976190000002 0.6102801 0.133847 0.154875 0.047738
24840 4.42135719 8.85738033 0.5394813299999999 0.104037 0.161401 0.040044
24860 4.47734286 8.801551620000001 0.5686660799999999 0.065572 0.128593 0.019521
24880 4.555773810000001 8.813971080000002 0.613125 0.04091 0.093555 0.011916
24900 4.53646773 8.85378987 0.6542877600000001 0.019529 0.088286 0.016047
24920 4.52838429 8.81143029 0.74081196 -0.002808 0.091607 0.004136
24940 4.489909470000001 8.773259580000001 0.82194066 -0.00486 0.091687 -0.014038
24960 4.468209750000001 8.83387557 0.7370645400000001 -0.005802000000000001 0.12257 -0.01088
24980 4.4638639200000005 8.785531890000001 0.6620769 0.007072 0.152298 0.003059
25000 4.4595279 8.80693731 0.67764537 0.029462 0.15539 0.009621
25020 4.36671549 8.804985120000001 0.69006483 0.057162 0.15525899999999998 0.01836
25040 4.41162567 8.81187174 0.63453042 0.08168099999999999 0.163644 0.031339
25060 4.52808018 8.72670132 0.7387126199999999 0.09333 0.150794 0.037846
25080 4.51341423 8.726407020000002 0.7520346000000001 0.07724600000000001 0.127435 0.032423
25100 4.45548618 8.72430768 0.7444024200000001 0.034547 0.11377 0.023596
25120 4.4599791600000005 8.76202713 0.7819747200000001 0.005732 0.108557 0.020197
25140 4.436170290000001 8.757387000000001 0.89229798 -0.002769 0.117105 0.021195
25160 4.40683839 8.79376248 0.8972324100000001 -0.018772 0.118222 0.02215
25180 4.428538110000001 8.92968003 0.86953878 -0.028331 0.119355 0.013536
25200 4.45742856 8.999586090000001 0.81595656 -0.037928 0.108783 0.001732
25220 4.39591005 9.074877840000001 0.76775022 -0.042219 0.084373 -0.017495
25240 4.31942148 9.083108430000001 0.67958775 -0.045482 0.070536 -0.0175
25260 4.3385804100000005 9.01620423 0.63587439 -0.0391 0.07368 -0.009982
25280 4.419405 8.844362460000001 0.5394813299999999 -0.02526 0.08315499999999999 0.006126
25300 4.50743013 8.743613759999999 0.7804737900000001 -0.012472 0.088402 0.014755
25320 4.446353070000001 8.694220410000002 0.93779676 0.001374 0.089393 0.021259
25340 4.432579830000002 8.71323219 0.74485368 0.005622 0.0883 0.024495
25360 4.56925275 8.68583286 0.70428933 -0.00397 0.08622 0.020158
25380 4.65442317 8.708140799999999 0.6908103900000001 -0.007147 0.090497 0.019062
25400 4.53991104 8.805142080000001 0.7189552800000001 -0.007152 0.094737 0.024398
25420 4.42748844 8.82220167 0.6027950700000001 -0.011467 0.083038 0.023314
25440 4.47344829 8.818915319999999 0.59471163 -0.015758 0.072421 0.017957
25460 4.50188748 8.76547044 0.6921641700000001 -0.014706 0.0671 0.015835
25480 4.47284988 8.763822359999999 0.7095278700000001 -0.001904 0.077665 0.026593
25500 4.48482789 8.836573320000001 0.69979635 0.006622 0.089298 0.040524
25520 4.523744160000001 8.836720470000001 0.70458363 0.004483 0.089301 0.041578
25540 4.55637222 8.7918201 0.66671703 -0.006243 0.068067 0.032984
25560 4.5472391100000005 8.80199307 0.6271925400000001 -0.011668 0.039358 0.024437
25580 4.555626660000001 8.83327716 0.60040143 -0.002186 0.010571 0.022404
25600 4.55712759 8.844803910000001 0.67030749 0.010597 0.003082 0.019298
25620 4.5232929 8.71428186 0.8107180199999999 0.021241 0.012572 0.034315
25640 4.55383143 8.66293632 0.8370578700000001 0.027748 0.030681 0.028996
25660 4.520300850000002 8.757239850000001 0.8138572199999999 0.023533 0.034986 0.021484
25680 4.49904258 8.85319146 0.70128747 0.007506 0.019106 0.01071
25700 4.48901676 8.90124084 0.67224987 -0.019237 -0.010573 -0.003325
25720 4.502034630000001 8.94419883 0.6474011400000002 -0.037431 -0.033903 -0.014105
25740 4.50458523 8.844058350000001 0.70099317 -0.044923000000000005 -0.040264 -0.015216999999999996
25760 4.48122762 8.81770869 0.77523525 -0.042732 -0.032793 -0.020553
25780 4.4800308 8.828793990000001 0.8403540300000001 -0.048018 -0.038037 -0.036606
25800 4.467905640000001 8.83836855 0.83167218 -0.044741 -0.029492 -0.04514
25820 4.41387216 8.83568061 0.8777791800000001 -0.04798 -0.036942 -0.044085
25840 4.45548618 8.82205452 0.8060778900000001 -0.043818 -0.046599 -0.030157
25860 4.504281120000002 8.84645199 0.83645946 -0.033255 -0.04673 -0.006581999999999999
25880 4.520153700000001 8.8268418 0.8911011600000001 -0.016247 -0.041541 0.012758
25900 4.4459018100000005 8.78852394 0.9654903900000001 0.000784 -0.043756 0.01929
25920 4.40294382 8.75573892 0.94513464 0.007166 -0.052284 0.015072
25940 4.38947469 8.76666726 0.9381008700000001 0.005018 -0.067143 0.003326
25960 4.43707281 8.70350067 0.9286734600000001 -0.003584000000000001 -0.08945399999999999 -0.004183
25980 4.54484547 8.705747160000001 0.96264549 -0.021764 -0.100039 -0.005365
26000 4.61445723 8.75573892 1.00920375 -0.039886000000000005 -0.102085 -0.01083
26020 4.575384 8.828038620000001 1.0309034700000002 -0.039833 -0.09355 -0.014044999999999998
26040 4.5414021600000005 8.97818067 1.06952544 -0.034351 -0.064789 -0.018317
26060 4.4333352 8.91590679 1.0352493 -0.027801 -0.038155 -0.024714
26080 4.36806927 8.72580861 1.01040057 -0.025557 -0.025332 -0.036466000000000005
26100 4.4683569 8.71472331 0.99273276 -0.019065 -0.018907 -0.050315
26120 4.4559374400000005 8.64138375 0.97192575 -0.026528 -0.024182 -0.056770000000000015
26140 4.53317157 8.69197392 0.9967744800000001 -0.026561 -0.036944 -0.062095
26160 4.547994480000001 8.79974658 0.95516046 -0.035149 -0.048632 -0.06214
26180 4.525088129999999 8.7627825 0.9361486800000001 -0.037316 -0.051837 -0.057878
26200 4.54888719 8.73553032 0.97357383 -0.043784 -0.060363 -0.051503
26220 4.55667633 8.70993603 1.00784997 -0.047038 -0.060398 -0.039775
26240 4.56565248 8.670117240000002 1.06069644 -0.050296 -0.061499 -0.028046
26260 4.462372800000001 8.702156700000002 1.08195471 -0.051416 -0.064725 -0.019504
26280 4.44365532 8.75319813 1.0990143 -0.051420000000000014 -0.061547 -0.015235
26300 4.450846050000001 8.83298286 1.07191908 -0.049243 -0.046662 -0.009898
26320 4.538861370000001 8.82011214 1.02731301 -0.038532 -0.027563 -0.000234
26340 4.58631234 8.82759717 1.0330028100000002 -0.035341000000000004 -0.015911 0.01366
26360 4.59050121 8.84331279 1.0373388300000002 -0.031044 -0.001047 0.022217
26380 4.540362300000001 8.84780577 1.03329711 -0.022462 0.006393 0.019063
26400 4.5318276 8.82310419 1.03570056 -0.020304 0.004285 0.011603
26420 4.51056933 8.84195901 0.9979713 -0.029910000000000006 -0.009479 -0.001265
26440 4.46251995 8.83762299 0.90127413 -0.042722 -0.017931 -0.007753
26460 4.38318648 8.79854976 0.8252368200000001 -0.053415 -0.025342 -0.009955
26480 4.34546703 8.86352139 0.7699967099999999 -0.056625 -0.021095 -0.003573
26500 4.3123779 8.84630484 0.6956074800000001 -0.060912 -0.011548 0.010272
26520 4.330644120000001 8.831334779999999 0.6836294700000001 -0.06414600000000001 -0.008384 0.020927
26540 4.37959602 8.78747427 0.7226928900000001 -0.065285 -0.015871 0.029475
26560 4.42944063 8.77250421 0.7535355300000001 -0.058908 -0.015915000000000002 0.03486
26580 4.47823557 8.82011214 0.78286743 -0.043938 -0.018059 0.025354
26600 4.490664840000002 8.87175198 0.7738912800000001 -0.030069 -0.028717000000000006 0.014782
26620 4.444253730000001 8.856487620000001 0.7566747300000001 -0.0215 -0.029778 0.006297
26640 4.44021201 8.785384740000001 0.82253907 -0.020361 -0.014864 0.005218
26660 4.43018619 8.72865351 0.82672794 -0.019247 0.004273 0.013747
26680 4.4800308 8.7716115 0.83032821 -0.024504 0.024519 0.016888999999999998
26700 4.567300560000001 8.856487620000001 0.74904255 -0.033025 0.028805 0.017891999999999998
26720 4.5452967300000005 8.90348733 0.70009065 -0.042694 0.012864 0.016777
26740 4.51296297 8.876843370000001 0.6372281700000001 -0.050214 -0.005194 0.010338
26760 4.4538381000000005 8.79390963 0.67719411 -0.043808 -0.015822 -0.001354
26780 4.39904925 8.76427362 0.77059512 -0.033101 -0.016886 -0.010892
26800 4.38483456 8.82489942 0.73662309 -0.015941 0.000111 -0.013997999999999998
26820 4.399804620000001 8.85123927 0.7146094500000001 -0.006261999999999999 0.011817 -0.019287
26840 4.414617720000001 8.835974910000001 0.7048877400000001 0.001263 0.026696 -0.017117
26860 4.39306515 8.90078958 0.68512059 0.008784 0.047937 -0.007478
26880 4.36611708 8.883877140000001 0.64290816 0.009899 0.068135 0.002118
26900 4.3504014600000005 8.82789147 0.6723970199999999 0.001292 0.047942 -0.002189
26920 4.42030752 8.84151756 0.7697024100000001 -0.011486 0.05013 -0.005486
26940 4.49095914 8.81681598 0.7909508700000001 -0.012587 0.034189 -0.014019
26960 4.52089926 8.784786330000001 0.76715181 -0.008329000000000001 0.030982 -0.015053
26980 4.57404003 8.73598158 0.8039785500000001 -0.000851 0.037331 -0.010736
27000 4.59200214 8.77056183 0.8095212000000002 0.003435 0.049004 -0.003243
27020 4.51925118 8.77041468 0.83032821 0.009851 0.058543 0.003198
27040 4.44605877 8.83777014 0.83930436 0.014152 0.06704600000000001 0.004286
27060 4.35235365 8.955725580000001 0.8087658299999999 0.017338 0.062778 0.0032450000000000005
27080 4.27661064 8.92549116 0.75083778 0.024797 0.057439 0.0001
27100 4.263435810000001 8.86620933 0.7095278700000001 0.024801 0.05426 -0.004169
27120 4.28948136 8.8413606 0.77539221 0.020544 0.059588 -0.001001
27140 4.38273522 8.808879690000001 0.84109959 0.016257 0.06170800000000001 0.005376
27160 4.48751583 8.78672871 0.92552445 0.015171 0.057451 0.005372999999999999
27180 4.537664550000001 8.855879400000001 0.9533652300000001 0.010904 0.050039 -0.002124
27200 4.4828757 8.82983385 0.9662359500000001 0.009865 0.054312 -0.004274
27220 4.410880110000002 8.8555851 0.97342668 0.013085 0.063867 0.001078
27240 4.38992595 8.90033832 0.89873334 0.019482 0.069145 0.007525
27260 4.33602981 8.86591503 0.8445429000000001 0.019482 0.069145 0.007525
27280 4.34606544 8.82011214 0.8442486 0.014147 0.060676 -0.001047
27300 4.37929191 8.89824879 0.91339929 0.010904 0.043673 -0.008526
27320 4.35489444 8.95423446 0.89124831 0.005555 0.04474 -0.004291
27340 4.31986293 8.915455530000001 0.90201969 0.000216 0.050059 0.002074
27360 4.37959602 8.800197840000001 0.9243276300000001 -0.006219 0.043685 0.003105
27380 4.431235860000001 8.79002487 0.9430353 -0.005152 0.040499 -8.8e-05
27400 4.44680433 8.8498953 0.9310671 0.002321 0.047904 0.006364
27420 4.4191107 8.84929689 0.9171467100000001 0.004483 0.05641 0.008505
27440 4.406681430000001 8.81083188 0.8422964100000001 0.001283 0.054299 0.0063490000000000005
27460 4.45144446 8.743613759999999 0.80562663 -0.000866 0.048989 0.004204
27480 4.48706457 8.8063389 0.8132588100000001 0.003397 0.052153 0.008503
27500 4.45503492 8.86531662 0.85697217 -0.003033 0.0426 0.005265
27520 4.421504340000001 8.89794468 0.9029222100000001 -0.006224 0.038376 -0.001161
27540 4.4304903 8.833434120000001 0.93331359 -0.008367 0.036253 -0.001173
27560 4.392918 8.790770430000002 0.92387637 -0.006229 0.039433 0.000974
27580 4.394713230000001 8.817414390000001 0.8295728400000001 -0.00409 0.043674 0.004188
27600 4.43901519 8.8903125 0.76311009 -0.0041 0.044726 0.007392
27620 4.48871265 8.83013796 0.81730053 -0.006243 0.040481 0.005246
27640 4.53481965 8.752295610000001 0.9153416700000001 -0.008401 0.03304 0.003104
27660 4.446657180000001 8.743770720000002 0.91325214 -0.009448 0.036244 0.002024
27680 4.36926609 8.84465676 0.83511549 -0.008348000000000001 0.044758 0.003089
27700 4.38108714 8.880885090000001 0.83930436 -0.011534 0.045843 0.000929
27720 4.44889386 8.876392110000001 0.8238830400000001 -0.015802 0.042675 -0.002302
27740 4.496796090000001 8.772357060000001 0.86819481 -0.016902 0.034161000000000004 -0.003367
27760 4.5054779400000005 8.79675453 0.8244814500000002 -0.017993000000000002 0.027777 -0.004434
27780 4.42300527 8.84630484 0.7810722000000001 -0.008372 0.038371 0.002029
27800 4.418512290000001 8.83972233 0.7619132700000001 -0.005147 0.045808 0.004178
27820 4.45938075 8.7801462 0.7719489 -0.001932 0.051115 0.00633
27840 4.51910403 8.74750833 0.8180460900000001 -0.000866 0.05005 0.0052710000000000005
27860 4.42449639 8.83747584 0.85382316 -0.006205 0.043698 -9.9e-05
27880 4.36013298 8.85962682 0.8066763 -0.009472 0.030918 0.002031
27900 4.422701160000001 8.852445900000001 0.80233047 -0.012702 0.025598 0.003083
27920 4.43901519 8.83836855 0.8533719000000001 -0.014821 0.029863 0.004131
27940 4.468209750000001 8.83118763 0.8490358800000001 -0.016936 0.034131 0.004111
27960 4.44905082 8.81681598 0.83122092 -0.01583 0.041588 0.003041
27980 4.39216263 8.8151679 0.8000839800000001 -0.01583 0.040527 0.001974
28000 4.38198966 8.844058350000001 0.81684927 -0.010515 0.03837 0.00415
28020 4.396508460000001 8.80828128 0.83930436 -0.007324 0.037289 0.005242
28040 4.447854 8.853044310000001 0.8352626400000002 -0.003047 0.039405 0.005268999999999999
28060 4.47060339 8.81157744 0.83825469 -0.009439 0.04368 0.007356
28080 4.47569478 8.784482220000001 0.84124674 -0.01584 0.042641000000000005 0.006244
28100 4.43557188 8.804386710000001 0.8300241 -0.021169 0.039481 0.001938
28120 4.44905082 8.7975099 0.85741362 -0.021174 0.034172 -0.002328
28140 4.43572884 8.85348576 0.83346741 -0.020131 0.032025 0.0008869999999999998
28160 4.42748844 8.87264469 0.8051753700000001 -0.010582 0.036188 0.016971
28180 4.432285530000001 8.819062470000002 0.83960847 0.001144 0.045688 0.028791000000000008
28200 4.44964923 8.77505481 0.9053158500000001 0.009722 0.053123 0.026705
28220 4.42989189 8.77774275 0.8665467300000002 0.010836 0.054223 0.017098
28240 4.42001322 8.810380620000002 0.86130819 0.004497999999999999 0.056423 0.0053
28260 4.40968329 8.85947967 0.83750913 -0.001884 0.058584 0.003116
28280 4.432432680000001 8.884024290000001 0.78586929 -0.009338 0.067111 0.008395
28300 4.438269630000001 8.84630484 0.8405011800000001 -0.011429 0.077767 0.009435
28320 4.45338684 8.80244433 0.8566680600000001 -0.012443 0.077818 -0.002323
28340 4.4509932 8.810233470000002 0.8553240900000001 -0.019892 0.072556 -0.011982
28360 4.432285530000001 8.812323000000001 0.85068396 -0.024217 0.057665 -0.014130000000000004
28380 4.466110410000001 8.83791729 0.84319893 -0.02647 0.031041000000000006 -0.014112
28400 4.462068690000001 8.82190737 0.8039785500000001 -0.015897 0.006516 -0.017211
28420 4.4656591500000005 8.809478100000002 0.81744768 -0.008487 0.006437999999999999 -0.00434
28440 4.454289360000001 8.79166314 0.82299033 0.011783 0.035015 0.024607
28460 4.4506989 8.823996900000001 0.86669388 0.025619 0.040241000000000006 0.037515
28480 4.434227910000001 8.797058640000001 0.8777791800000001 0.026719 0.04239 0.032179
28500 4.4279397000000005 8.80708446 0.8328690000000001 0.015037 0.040355 0.018213
28520 4.43886804 8.835523649999999 0.8333202600000001 0.0033590000000000004 0.044692 0.00958
28540 4.45728141 8.885672370000002 0.85757058 -0.000875 0.047919 0.005274
28560 4.4637167700000004 8.86620933 0.84439575 0.003412 0.057470000000000014 0.010632
28580 4.4771859 8.79526341 0.84873177 0.014085 0.07123099999999999 0.023508
28600 4.47479226 8.73493191 0.89574129 0.00977 0.056349 0.019224
28620 4.41147852 8.7371784 0.88690248 0.0022440000000000003 0.028738 0.004252000000000001
28640 4.40399349 8.7775956 0.84753495 0.006487000000000001 0.014908 -0.004247
28660 4.4680626 8.81471664 0.8345170799999999 0.00433 0.006407 -0.007456
28680 4.5193983300000005 8.87280165 0.82927854 0.009664 0.010632 -0.003151
28700 4.49844417 8.89105806 0.89962605 0.010717 0.011676 0.001128
28720 4.40129574 8.887614750000001 0.94618431 0.017194 0.035064 0.007553
28740 4.3623794700000005 8.840163780000001 0.9279180900000001 0.025873 0.068053 0.008639
28760 4.450541940000001 8.7775956 0.85173363 0.008860999999999999 0.06392 -0.008565999999999999
28780 4.5722448 8.720413109999999 0.8331632999999999 -0.006157 0.038436 -0.016116
28800 4.59829035 8.82415386 0.88196805 -0.013711 0.024592 -0.01081
28820 4.520752110000001 8.89016535 0.9717786 -0.01162 0.022424 -0.003315
28840 4.3767511200000015 8.864561250000001 1.0204263900000001 -0.008376999999999999 0.026696 -0.008638
28860 4.312829160000001 8.849601 1.00171872 0.00015800000000000002 0.030910000000000007 -0.004311
28880 4.29412149 8.808879690000001 0.8753757300000001 -0.005282 -0.002056 -0.013921
28900 4.242923100000001 8.72909496 0.77733459 -0.010693 -0.007411 -0.002202
28920 4.328996040000001 8.83986948 0.84095244 -0.006459 -0.004273 0.008506
28940 4.470004980000001 8.89959276 0.90711108 -0.002153 0.005295 0.009592
28960 4.51640628 8.81756154 0.9592021800000001 -0.005368 -0.008499 -0.0010949999999999998
28980 4.48631901 8.75678859 0.9849534300000001 0.018372 0.053196 0.001128
29000 4.42121004 8.735088870000002 0.960399 -0.007554000000000002 -0.040369 -0.021365
29020 4.40339508 8.84255742 0.93315663 -0.006324000000000001 -0.014763 -0.032072
29040 4.43812248 8.89540389 0.9410929200000001 -0.00198 0.009693 -0.024595
29060 4.475096370000001 8.892411840000001 0.94498749 0.020668 0.085163 -0.003169
29080 4.51910403 8.80902684 0.94319226 0.012172 0.08947100000000001 -0.007506999999999998
29100 4.49036073 8.736727140000001 0.9755260200000001 0.005737 0.077793 -0.01181
29120 4.38797376 8.76936501 0.9834525000000001 0.010014 0.08202999999999999 -0.009649
29140 4.29247341 8.834179680000002 0.95142285 0.01209 0.061813 -0.017086
29160 4.31193645 8.86935834 0.91609704 0.009875 0.04371 -0.017079
29180 4.44979638 8.88268032 0.85786488 0.003407 0.034124 -0.01177
29200 4.59469989 8.81083188 0.92657412 0.004435000000000001 0.031964 -0.005351
29220 4.61221074 8.744810580000001 0.95501331 0.006587999999999999 0.036218 -0.005342
29240 4.55712759 8.70259815 1.00485792 0.014122999999999997 0.054289 -0.002107
29260 4.46147028 8.823996900000001 0.9961760700000001 0.019506 0.06174 -0.0052840000000000005
29280 4.3673139 8.876686410000001 0.90636552 0.022716 0.062798 -0.006331
29300 4.43018619 8.83148193 0.78182757 0.02273 0.06175 -0.010603
29320 4.50832284 8.725210200000001 0.7595196300000001 0.026964 0.062766 -0.002029
29340 4.5195552900000004 8.69227803 0.82748331 0.029088 0.071238 0.008657999999999999
29360 4.500386550000001 8.796607380000001 0.86355468 0.025911 0.073392 0.0054280000000000005
29380 4.49126325 8.828793990000001 0.8427476700000002 0.020587 0.067054 -0.003147
29400 4.540362300000001 8.816511870000001 0.7743425400000001 0.022668 0.054267 -0.004184
29420 4.639453110000002 8.81351982 0.7201521000000001 0.031169 0.060574 0.009754
29440 4.65127416 8.81097903 0.80053524 0.039723 0.077537 0.022611000000000003
29460 4.46955372 8.80079625 0.90576711 0.029007 0.061616 0.017215
29480 4.3060995 8.86740615 0.9629496000000001 0.023663 0.061627 0.019314
29500 4.287686129999999 8.8268418 0.91190817 0.036494 0.0754 0.026864
29520 4.2540084 8.85828285 0.82299033 0.036436 0.058373 0.022612
29540 4.36791231 8.731341450000002 1.01473659 0.031054 0.043495 0.018321
29560 4.3875225 8.856036360000001 0.84933018 0.043947 0.064752 0.019452
29580 4.41791388 8.90573382 0.94379067 0.069763 0.110473 0.018506
29600 4.43781837 8.98057431 0.82927854 0.07950399999999999 0.127539 0.004665
29620 4.4737425900000005 8.87548959 0.8490358800000001 0.073146 0.1276 -0.004994
29640 4.46491359 8.776251629999999 0.8469365400000001 0.070979 0.127577 0.0024690000000000003
29660 4.45637889 8.768766600000001 0.81924291 0.064558 0.13288699999999998 0.012031
29680 4.43692566 8.7630768 0.7562234700000001 0.059229 0.138215 0.01626
29700 4.46701293 8.837024580000001 0.7954438500000001 0.058181 0.143541 0.017314
29720 4.51895688 8.8442055 0.77014386 0.06564400000000001 0.144572 0.019501
29740 4.509225360000001 8.83956537 0.7999368299999999 0.080614 0.15622 0.023864
29760 4.43602314 8.77370103 0.8671451400000001 0.085972 0.158345 0.020694
29780 4.38063588 8.802895589999999 0.85277349 0.091302 0.151956 0.015397999999999997
29800 4.365077220000001 8.85738033 0.8270320499999999 0.091287 0.13815 0.004734
29820 4.38378489 8.87908986 0.81684927 0.08809600000000001 0.136048 0.000441
29840 4.45323969 8.84195901 0.78601644 0.082767 0.138193 0.001469
29860 4.46596326 8.75529747 0.8535288600000001 0.075289 0.141394 0.0067540000000000005
29880 4.42284831 8.795704859999999 0.8903457900000001 0.071007 0.14564000000000002 0.014196
29900 4.37959602 8.836877430000001 0.8006823900000002 0.069921 0.147748 0.020595
29920 4.43917215 8.88851727 0.7277842800000001 0.06883 0.14136500000000002 0.019528
29940 4.500386550000001 8.845108020000001 0.7417046700000001 0.071993 0.13071 0.017427
29960 4.49889543 8.781038910000001 0.8075690100000001 0.07090199999999999 0.113716 0.005691
29980 4.422249900000001 8.750058930000002 0.8282288700000001 0.066615 0.09886 -0.005002
30000 4.465364850000001 8.783432549999999 0.80307603 0.058056 0.086136 -0.012524
30020 4.56505407 8.868161520000001 0.80427285 0.044149 0.07978500000000001 -0.010476
30040 4.47734286 8.83956537 0.75083778 0.033499 0.088327 -0.006289
30060 4.4048862 8.883877140000001 0.7614620100000001 0.027103 0.092598 -0.003134
30080 4.31478135 8.95438161 0.83660661 0.022802 0.087278 -0.001021
30100 4.195923390000001 9.036255870000002 0.8866081800000001 0.021711 0.081955 -0.001022
30120 4.09638132 9.03326382 0.89393625 0.022744 0.073433 -0.002072
30140 4.17826539 8.94719088 0.8074218599999999 0.023792 0.060680999999999985 -0.010594
30160 4.34186676 8.80409241 0.78586929 0.020563 0.053239 -0.011675
30180 4.45173876 8.7314886 0.7879588200000001 0.016267 0.051107 -0.007429000000000002
30200 4.44066327 8.75065734 0.85951296 0.00345 0.046895 -0.008582
30220 4.406681430000001 8.88372999 0.88914897 -0.006195 0.03628 -0.009704
30240 4.36582278 8.97054849 0.89648685 -0.0073 0.027761 -0.009701
30260 4.35549285 8.936262540000001 0.8571193200000001 -0.01373 0.023514 -0.007604
30280 4.293071820000001 8.908421760000001 0.83421297 -0.013711 0.025653 -0.009743
30300 4.2540084 8.93536983 0.7837699500000002 -0.009463 0.025621 -0.00544
30320 4.3063938 8.93027844 0.7352693100000001 -0.009501 0.022404 -9.5e-05
30340 4.34621259 8.880433830000001 0.70907661 -0.013816 0.013888 0.002022
30360 4.41776673 8.77565322 0.79005816 -0.016027 -0.004209 0.000962
30380 4.432736790000001 8.781038910000001 0.83227059 -0.020337 -0.014843 -0.000123
30400 4.456535850000002 8.798108310000002 0.81595656 -0.018218 -0.015924 0.00203
30420 4.48586775 8.85049371 0.77987538 -0.018237 -0.012758 0.009503
30440 4.51580787 8.908274610000001 0.7553307600000001 -0.023672 -0.029805 0.014828
30460 4.47913809 8.89285329 0.74664891 -0.030265 -0.064966 0.022305
30480 4.36806927 8.86352139 0.72419382 -0.029333 -0.07676000000000001 0.040486
30500 4.29591672 8.83911411 0.70608456 -0.041236 -0.101271 0.053253
30520 4.3297416 8.868161520000001 0.67599729 -0.049986 -0.147057 0.055387
30540 4.405935870000001 8.81861121 0.6273495000000001 -0.0489 -0.16083599999999998 0.037252
30560 4.50667476 8.78238288 0.6378265799999999 -0.046752 -0.162953 0.031929
30580 4.52987541 8.80828128 0.73766295 -0.038011 -0.134152 0.014862
30600 4.4569773 8.77804686 0.7664062500000001 0.021332 0.039178 0.040691000000000005
30620 4.406985540000001 8.78253984 0.7375158 0.072853 0.065801 -0.0017120000000000002
30640 4.414764870000002 8.8498953 0.67584033 0.117357 0.233965 -0.0026850000000000003
30660 4.4191107 8.89959276 0.6328823400000001 0.144527 0.351025 0.003764
30680 4.45637889 8.87204628 0.59202369 0.185955 0.553262 0.009136
