time Ax Ay Az Gx Gy Gz
20 -2.72658159 9.27935748 2.2628432700000003 0.044767 0.16309300000000002 -0.065058
40 -2.67777684 9.126370529999999 2.54934432 0.030632 0.378179 -0.028044
60 -2.2817079000000002 9.13715172 2.1475855800000003 0.059578 0.6719930000000001 -0.002581
80 -2.32497 9.28744092 2.4944083200000002 0.023213 1.04211 -0.087699
100 -2.61940734 9.195226920000001 2.53512963 -0.126277 0.961881 -0.140983
120 -2.95081857 9.139398210000001 2.7520287299999997 -0.236278 0.446734 -0.157115
140 -3.02685588 8.94659247 2.4819888600000004 -0.28607 -0.004549 -0.212432
160 -2.8451354400000004 9.0665001 2.45055762 -0.248788 -0.05672000000000001 -0.251629
180 -2.53587519 8.96590836 2.81235042 -0.13209 0.332517 -0.189356
200 -2.54890287 9.02802528 3.0686170500000003 -0.24650100000000005 0.106803 -0.1215
220 -2.6946990900000003 9.05392368 3.42936999 -0.102474 0.199668 -0.026609
240 -2.6622181800000004 8.99688834 3.76362612 0.021378 0.223724 -0.02257
260 -2.80217745 9.01590012 3.4105053600000006 0.097154 0.19696 -0.055121
280 -2.85546537 9.146726280000001 2.22811587 0.120318 0.091566 -0.092212
300 -2.82552525 9.01799946 1.8021068100000002 0.131751 0.006376 -0.110183
320 -2.8059150600000002 9.00931761 1.8497049300000001 0.136669 -0.048124 -0.071623
340 -2.5427618100000005 8.70589431 2.0710970100000003 0.07674199999999999 -0.054444000000000006 -0.03785
360 -2.40340095 9.19148931 1.55916216 0.04133 -0.067236 -0.004966
380 -2.9165326200000004 9.90011466 1.79161992 0.025029 -0.10776199999999997 0.020609
400 -2.86399026 8.995995630000001 1.83219408 0.021503 -0.151542 0.049483
420 -3.43865025 8.96141538 2.3863413600000003 0.026626 -0.14538199999999998 0.102922
440 -3.5603433 8.95706955 2.5533860400000004 0.044763 -0.109371 0.139322
460 -3.3861078900000003 8.85079782 2.66745672 0.05812100000000001 -0.017675 0.107251
480 -3.0776030100000002 8.88596667 2.6304828300000005 0.098753 -0.033651 0.07123600000000001
500 -2.7976844700000005 9.174724020000001 2.51716752 0.118578 -0.127487 0.076835
520 -2.79753732 9.05841666 2.48034078 0.123816 -0.123346 0.102504
540 -2.8273204800000005 8.99015868 2.47240449 0.116526 -0.065868 0.120539
560 -2.95845075 9.01829376 2.39232546 0.101805 -0.014696 0.123575
580 -2.74619178 8.90633223 2.36657421 0.083937 0.025924000000000003 0.104171
600 -2.8247796899999997 8.96605551 2.32017291 0.087464 0.059092999999999986 0.06462899999999999
620 -3.18253077 8.920851030000001 2.52809586 0.109681 -0.020726 0.02643
640 -3.3968890800000002 8.87833449 2.6550274500000004 0.107427 -0.0569 0.016847
660 -3.19540149 9.01664568 2.45190159 0.087027 -0.076042 0.026343
680 -2.9654845200000004 9.052128450000001 2.33813502 0.037019 -0.030124 0.041958
700 -2.9425781700000004 9.0667944 2.41327962 -0.060787 0.001295 -0.004699
720 -2.95979472 9.06260553 2.41268121 -0.09498 -0.007121 -0.001723
740 -3.0130826400000004 9.074877840000001 2.40669711 -0.076828 -0.009293 -0.006934
760 -3.12744762 9.083559690000001 2.48916978 -0.023591 -0.072173 -0.046006
780 -3.2030434800000003 8.94974148 2.5551910799999997 0.025375 -0.115943 -0.064836
800 -3.17190654 8.85723318 2.53886724 0.043636 -0.073456 -0.049808
820 -3.0012615900000004 9.04778262 2.50399269 0.058927 0.048823000000000005 -0.00606
840 -2.8451354400000004 9.13789728 2.4373827900000005 0.028146 0.111671 0.021418
860 -2.84138802 9.04538898 2.4650764200000004 0.016257 0.08080599999999999 0.024579
880 -2.96084439 9.23294637 2.49306435 0.016343 0.089371 0.013887
900 -3.0105418500000005 9.09748008 2.54201625 -0.038105 0.085283 0.017784
920 -3.2040833400000004 8.928336060000001 2.5764395400000004 -0.042358 0.095921 0.025219
940 -3.15064827 8.98836345 2.49186753 0.011783 0.037137 0.02674
960 -2.9904804 9.01949058 2.44336689 0.037311 0.011515 0.018406
980 -2.87013132 8.995397220000001 2.4903665999999998 0.046062 0.058361 0.017339
1000 -2.90904759 8.94225645 2.5768908000000006 0.078149 0.078481 0.019673
1020 -3.0241581300000004 9.004373370000001 2.4962133600000005 0.042809 0.038166000000000005 0.008796
1040 -3.03523362 8.987156820000001 2.44561338 0.040699 0.036073 0.001306
1060 -2.87641953 9.134601120000001 2.3915799 0.017286000000000003 0.053182000000000014 0.005394
1080 -2.89498005 9.22007565 2.2968251100000003 0.022653 0.055315 8.7e-05
1100 -2.86534404 9.18115938 2.2350024900000003 0.026921 0.03408 -0.02122
1120 -2.86863039 9.202859100000001 2.10731553 0.029165 0.053269 -0.02657
1140 -2.9318067900000004 9.2777094 2.12618016 0.016391 0.058644000000000016 -0.027734
1160 -2.9541049200000002 9.074877840000001 2.28140379 0.00146 0.069311 -0.018238
1180 -2.8898886600000004 8.975639880000001 2.32900191 -0.006138 0.04588 -0.01292
1200 -3.0118858200000003 9.15346575 2.34906336 0.004565 0.070275 0.004215
1220 -2.92521447 9.09283995 2.42690571 -0.01029 0.106474 0.022224
1240 -2.9244689100000003 9.17217342 2.3423337 -0.024245 0.083104 0.017884
1260 -2.99721987 9.13325715 2.33425026 0.000206 0.035196 -0.010726
1280 -3.15468999 9.14598072 2.30804775 0.023826 0.06177100000000001 -0.017004
1300 -3.0388338900000003 9.09374247 2.36702547 0.004603 0.058639 -0.016066
1320 -2.9648861100000006 9.09164313 2.3962200300000003 -0.001865 0.053296 -0.006490999999999999
1340 -2.9316498300000005 9.0004788 2.4780942900000005 -0.008343000000000001 0.041579000000000005 -0.00118
1360 -2.88824058 9.083108430000001 2.42136306 0.001206 0.029828 -0.001098
1380 -2.80007811 9.0263772 2.38648851 0.017242 0.039351 0.001138
1400 -2.78391123 9.13430682 2.2728690900000004 0.033341 0.066966 0.007625
1420 -2.98688994 9.08879823 2.23005825 0.016142 0.030837 7.3e-05
1440 -3.1284972900000003 8.96949882 2.23590501 0.029997000000000006 0.02547 -0.00196
1460 -3.0093450300000004 8.967399480000001 2.3743633500000003 0.016013 0.002075 0.000109
1480 -2.9591963100000003 9.06904089 2.3583436200000003 0.013836 -0.005383 0.00224
1500 -2.84618511 9.0582597 2.31194232 0.016955 -0.018199 0.007619
1520 -2.8883975400000006 9.14942403 2.26074393 0.011592 -0.02245 0.009724
1540 -2.9079979200000006 9.127116090000001 2.16749007 0.027633 -0.022472 0.00129
1560 -2.90785077 9.15107211 2.14503498 0.046846 -0.038445 -0.016715
1580 -2.8530717300000004 9.142841520000001 2.183509800000001 0.03589 -0.103385 -0.017777
1600 -3.00619602 9.12442815 2.22122925 -0.013052 -0.060654 -0.005355
1620 -2.9349459899999997 9.058858110000001 2.398309560000001 -0.0308 0.027818 -0.003455
1640 -2.93719248 9.07308261 2.31493437 0.030131 0.07545700000000001 0.018274
1660 -2.883159 9.09358551 2.33184681 0.048124 0.07632699999999999 0.051513
1680 -2.8122032700000004 9.086855850000001 2.26659069 0.035532 0.156134 0.084438
1700 -2.8957256100000004 9.11739438 2.2924792800000002 0.054817 0.183726 0.094151
1720 -2.9725182900000005 9.20151513 2.35819647 0.122771 0.098317 0.081916
1740 -2.9207214900000005 9.15720336 2.4382755 0.120786 0.129226 0.07972699999999999
1760 -3.1626262800000005 9.06035904 2.40878664 0.048421 0.147678 0.056765
1780 -3.27594159 8.884328400000001 2.42391366 -0.041975 0.16841 0.01231
1800 -3.23028585 8.93791062 2.24607798 -0.073875 0.160127 -0.019949
1820 -2.7149076900000004 8.920095660000001 2.06495595 -0.131423 0.141286 -0.053442
1840 -2.42929935 9.18849726 2.0127177 -0.172796 0.18408 -0.0634
1860 -2.58676947 9.19208772 2.14743843 -0.177241 0.163779 -0.044177
1880 -2.7205876800000004 9.194334210000001 2.14983207 -0.149785 0.13053900000000002 -0.014032
1900 -2.8270163700000004 9.115147890000001 2.21644197 -0.101887 0.134517 0.015138999999999996
1920 -2.9475224100000004 9.19507977 2.4408261 -0.063667 0.118302 0.041064
1940 -3.1942046700000004 9.23669379 2.6045844300000005 -0.024346 0.08938 0.046717
1960 -3.71213343 9.22037976 2.88330615 0.009846 0.094613 0.04054
1980 -3.77634969 8.884171440000001 2.92970745 0.012994 0.083945 0.041644
2000 -3.6507620700000003 9.0090135 2.64155832 0.002167 0.027608 0.020276
2020 -3.3247365300000005 9.055120500000001 2.3891862600000002 0.029867 0.00944 0.010879
2040 -2.8818052200000004 9.03476475 2.0686935600000007 -0.027796 0.006412 0.019026
2060 -2.57330034 9.12517371 1.81273104 -0.049109 0.012874000000000002 0.019937
2080 -2.42226558 9.1387998 1.7474651099999998 -0.026724 -0.005259000000000001 0.006229
2100 -2.38259394 9.20555685 1.71468009 0.00309 -0.029817000000000007 -0.005281
2120 -2.47974237 9.20586096 1.69776765 0.020242 -0.007523 -0.000917
2140 -2.65278096 9.19597248 1.8166256100000002 0.001144 0.025529 0.008520999999999999
2160 -2.7354105900000003 9.20031831 2.0446002 -0.013773 0.046818 0.025481
2180 -2.8289685600000003 9.29612277 2.08605726 -0.040407 0.07347000000000001 0.043421
2200 -2.7476829 9.1911852 2.2609008900000003 -0.038354 0.054291999999999986 0.042391000000000005
2220 -2.8428889500000003 9.19343169 2.35385064 -0.002172 0.02862 0.037336
2240 -2.8666880100000003 9.15676191 2.3167296000000004 0.004267 0.031815 0.032036
2260 -2.99377656 9.12427119 2.29502988 -0.00643 0.015912 0.022367
2280 -3.07939824 9.03400938 2.28649518 0.003148 -0.004302 0.007504999999999999
2300 -3.1168233900000004 8.91530838 2.42585604 0.021208 -0.03202 -0.003015
2320 -2.99557179 8.932976190000002 2.57674365 0.003812 -0.108642 -0.007312000000000002
2340 -2.8726721100000003 8.90752905 2.66880069 0.009285 -0.061853 0.00869
2360 -2.7879529499999998 8.93582109 2.62479303 -0.00433 0.043461 0.057598
2380 -2.9433335400000002 9.02113866 2.53422711 -0.00054 0.212673 0.095864
2400 -2.88225648 9.08879823 2.38543884 -0.026761 0.276827 0.059279
2420 -2.7538239600000005 9.08430525 2.33708535 -0.043109 0.155622 0.014455
2440 -2.80980963 9.19852308 2.32361622 -0.030532 0.098083 0.007139
2460 -2.85740775 9.1735272 2.35205541 -0.056098 0.13003599999999998 0.03042
2480 -2.86429437 9.031468590000001 2.42286399 -0.042267 0.143747 0.052932000000000014
2500 -2.8660896 9.11020365 2.35505727 -0.036177 0.109495 0.088269
2520 -2.8689345 9.090897570000001 2.3575980600000004 -0.015936000000000002 0.100911 0.086285
2540 -2.7759749400000002 9.02113866 2.4358818600000003 0.05757200000000001 0.074035 0.083629
2560 -2.72927934 9.10751571 2.36253249 0.103577 0.111125 0.092448
2580 -2.81729466 9.24387471 2.3369382 0.10139 0.117451 0.110585
2600 -3.2497390800000003 9.290580120000001 2.3667311700000004 0.076675 0.099342 0.1318
2620 -3.22534161 9.07442658 2.44876239 0.07430199999999999 0.048209 0.133985
2640 -3.02131323 9.04194567 2.46612609 0.079516 0.006704000000000001 0.119119
2660 -2.90321064 9.0494307 2.3613356700000003 0.091391 0.022702 0.104227
2680 -2.7141523199999997 9.2085489 2.26539387 0.111771 0.030156 0.087268
2700 -2.6753832 9.09374247 2.09040309 0.101448 0.08885499999999999 0.068961
2720 -2.74603482 9.032665410000002 1.97918712 0.080341 0.113537 0.042076
2740 -2.47076622 9.21199221 1.9237998600000001 0.062496 0.14993499999999998 0.013063
2760 -2.41956783 9.31856805 2.24428275 0.031677 0.163943 1.1e-05
2780 -2.48244012 9.123525630000001 2.3376935700000003 0.010244 0.141651 -0.001178
2800 -2.85111954 9.01036728 2.433193920000001 -0.016547 0.115112 -0.0013310000000000002
2820 -3.0078441000000002 8.99030583 2.29068405 -0.018763 0.103376 0.005078
2840 -2.9822498100000003 9.0727785 2.18965086 -0.014399 0.136338 0.016816
2860 -2.8894374000000003 9.24762213 2.27302605 -0.008964 0.172483 0.030695
2880 -2.8630975500000004 9.30045879 2.23650342 0.001556 0.141544 0.032944
2900 -2.9663772300000004 9.2202228 2.34980892 0.016291 0.092507 0.028837
2920 -3.0612791700000006 9.17561673 2.4263073 0.02161 0.083988 0.023544
2940 -2.9271666600000006 9.067392810000001 2.54605797 0.021678 0.094657 0.019258
2960 -2.81849148 9.10062909 2.5481475 0.010028 0.096897 0.002082
2980 -2.7940940100000002 9.1738215 2.55398445 -0.008190000000000001 0.06611900000000001 -0.010824
3000 -2.7824103 9.127567350000001 2.39981049 -0.012448 0.065081 -0.014057
3020 -2.6345245500000005 9.17756892 2.2734675 -0.026259 0.072608 -0.019504
3040 -2.51611785 9.183405870000001 2.2041696600000003 -0.03367 0.084356 -0.020639
3060 -2.49800859 9.187447590000001 2.14787988 -0.035813 0.08541599999999999 -0.017450999999999998
3080 -2.5485987600000004 9.23624253 2.06930178 -0.039076 0.073701 -0.015322
3100 -2.5116248700000003 9.20091672 2.05537158 -0.028532 0.052333000000000005 -0.008812
3120 -2.46163311 9.302558130000001 2.03367186 -0.011419 0.07459199999999999 0.004098
3140 -2.5334815500000003 9.36661743 2.1116613600000003 -0.0059700000000000005 0.116055 0.020106
3160 -2.61850482 9.25240941 2.1908476800000005 0.004693999999999999 0.125563 0.03085
3180 -2.6894605500000006 9.13220748 2.1871002600000002 0.012095 0.103196 0.023453
3200 -2.7334682100000003 9.17621514 2.16629325 0.014109 0.073374 0.020301
3220 -2.75292144 9.28474317 2.16389961 0.003392 0.06700199999999999 0.024507
3240 -2.68781247 9.24836769 2.13411645 0.013879 0.03179 0.029966000000000007
3260 -2.7208917900000005 9.17786322 2.1710805300000002 0.032814 -0.021566 0.036576
3280 -2.77432686 9.13505238 2.1773687400000004 0.04553 -0.02487 0.052693
3300 -2.72703285 9.187143480000001 2.0390575500000003 0.035159 0.021054 0.032264999999999995
3320 -2.62853064 9.28503747 1.9734973199999999 0.010846 0.036194 -0.003175
3340 -2.57629239 9.31707693 1.9483444800000003 0.013071 0.033085 -0.026657
3360 -2.58886881 9.28474317 1.92753747 0.002474 0.04804 -0.027818
3380 -2.7066672900000004 9.20046546 1.98277758 -0.018868 0.051294000000000006 -0.023698
3400 -2.7505278000000004 9.11903265 2.042206560000001 -0.019084 0.024577 -0.002301
3420 -2.66521023 9.17771607 2.05462602 0.005224 -0.017093 0.007536
3440 -2.58093252 9.22172373 1.9949027400000001 0.019132 -0.007558 0.008689
3460 -2.61431595 9.190439640000001 1.95448554 0.020409 0.047798 0.017172999999999997
3480 -2.73196728 9.33234129 2.03651676 0.019333000000000003 0.047793 0.019302
3500 -2.78391123 9.461676330000001 2.12018625 0.029843 0.007297 0.014086
3520 -2.8879462800000004 9.28384065 2.12348241 0.03302 -0.0054670000000000005 0.006647
3540 -2.86518708 9.146431980000001 2.13575472 0.028796 0.004135 0.006605
3560 -2.76400674 9.136102050000002 2.1871002600000002 0.023481 0.010537 0.008695999999999999
3580 -2.6613156600000005 9.16573806 2.1782712600000003 0.015998 0.007367 0.008648000000000001
3600 -2.46687165 9.27860211 2.04264801 0.009587 -0.001107 0.002205
3620 -2.45654172 9.31033746 1.8762017400000002 0.007564 0.008546999999999999 -0.012777
3640 -2.4789968100000004 9.21364029 1.9050921900000002 -0.00186 0.026775 -0.034230000000000003
3660 -2.45923947 9.22815909 2.0091174300000003 -0.000362 0.127951 -0.029008
3680 -2.5261436700000006 9.2230677 2.059119 -0.048481 0.11528800000000003 -0.017578
3700 -2.67298956 9.1937358 2.0956416300000003 -0.008386 0.017138 -0.016104
3720 -2.7598080600000006 9.15002244 2.1607604100000004 0.011294 -0.119265 -0.021133
3740 -2.7445437000000004 9.12966669 2.1874043700000003 0.036813 -0.13959100000000002 -0.021997
3760 -2.69290386 9.195374070000002 2.1802136400000003 0.046602 -0.085347 -0.009179
3780 -2.7125140500000002 9.24028425 2.18365695 0.046717 -0.042804 0.007859
3800 -2.80457109 9.24058836 2.14624161 0.037134 -0.041693 0.004586
3820 -2.8569564900000004 9.28264383 2.1288681 0.027465 -0.073549 -0.012533
3840 -3.0060488700000003 9.32516037 2.1863547000000003 0.043315 -0.116181 -0.020913
3860 -3.0511062000000004 9.28280079 2.3656815 0.035909 -0.083209 -0.001779
3880 -2.8409465700000003 9.35974062 2.4318401400000003 0.053127 -0.022659 0.026037
3900 -2.77343415 9.25435179 2.20326714 0.042368 -0.038618 0.030256
3920 -2.7246294 9.26872344 1.93353138 0.029522000000000007 -0.06832 0.009908
3940 -2.5661096100000003 9.271274040000002 1.80718839 0.018786 -0.088501 0.004518
3960 -2.32077132 9.26168967 1.87051194 0.011261 -0.098075 0.007682
3980 -2.1595635900000003 9.178765740000001 1.88682597 0.025178 -0.08641 0.008832
4000 -2.2499725500000007 9.134453970000001 1.89266292 0.035895 -0.076856 0.007826999999999999
4020 -2.44845828 9.2000142 1.9440084600000003 0.052945000000000006 -0.087542 0.00155
4040 -2.6819755200000004 8.983566360000001 2.00059254 0.047692 -0.068353 0.002557
4060 -2.53228473 9.13699476 1.93652343 0.034828 -0.077913 0.006751999999999999
4080 -2.4400805400000003 9.25614702 2.03157252 0.010314 -0.072501 0.006573999999999999
4100 -2.69080452 9.302705280000001 2.0793276 0.0006929999999999999 -0.08627699999999999 -0.003089
4120 -2.9073995100000003 9.31064157 2.08336932 0.009271 -0.084147 -0.01051
4140 -2.84049531 9.25240941 2.05088841 0.022164 -0.069257 -0.015780000000000002
4160 -2.7556191899999996 9.26992026 1.95883137 0.015806 -0.05222 -0.008368
4180 -2.6589220200000003 9.27680688 1.84176864 0.013606 -0.066065 -0.0072980000000000015
4200 -2.5761452400000002 9.346114530000001 1.83308679 0.025317 -0.076737 -0.012543
4220 -2.60578125 9.38294127 1.88981802 0.026533 -0.037352 -0.006176
4240 -2.53303029 9.29716263 2.05297794 0.027729000000000004 -0.00541 -0.003004
4260 -2.5232987700000002 9.25166385 2.2162948200000003 0.02028 -0.002184 -0.004128
4280 -2.6210456100000004 9.214238700000001 2.26209771 0.025552 -0.020295 -0.008341
4300 -2.76460515 9.211697910000002 2.23964262 0.028633 -0.046938 -0.008286
4320 -2.79005229 9.239538690000002 2.17033497 0.042512 -0.046978 -0.010325
4340 -2.82073797 9.28744092 2.13935499 0.048951 -0.038478 -0.010291
4360 -2.66999751 9.17322309 2.17782 0.049037 -0.020365 -0.011382
4380 -2.7149076900000004 9.22486293 2.16464517 0.044751 -0.020367 -0.007139
4400 -2.73705867 9.22292055 2.0796219000000002 0.030872000000000007 -0.017144 -0.001899
4420 -2.6099701200000003 9.170829450000001 2.0594133 0.029795 -0.011844 0.005564
4440 -2.5921551600000003 9.254057490000001 2.11090599 0.026691000000000003 0.011595 0.007648999999999999
4460 -2.5741930500000003 9.23504571 2.17976238 0.027877 0.036101 0.00549
4480 -2.7190965600000006 9.329947650000001 2.1742295400000007 0.023596 0.023371 -0.004138
4500 -2.62838349 9.270371520000001 2.17452384 0.020424 0.027652 -0.006302
4520 -2.6746376400000003 9.30809097 2.1198919500000004 0.010865 0.041517 -0.002114
4540 -2.63527011 9.28893204 2.105226 0.00234 0.043677 -0.002176
4560 -2.6668583100000003 9.23489856 2.09683845 -0.01151 0.046925 -0.0033450000000000003
4580 -2.63840931 9.21273777 2.20701456 -0.018993 0.03739 -0.009795
4600 -2.64649275 9.20106387 2.27706777 -0.018959 0.049091 -0.005536
4620 -2.6309242800000003 9.18175779 2.24652924 -0.024313 0.054397 0.004033
4640 -2.5950000600000007 9.167533290000002 2.20895694 -0.022265 0.043703 0.012607
4660 -2.6051828400000003 9.191930760000002 2.16569484 -0.013807 0.029812 0.015889
4680 -2.64949461 9.246572460000001 2.12872095 0.017075 0.009494 0.008653000000000001
4700 -2.66566149 9.15780177 2.14383816 0.056199 -0.059921 0.017561
4720 -2.65143699 9.1763721 2.24383149 0.10513 -0.063403 0.046749
4740 -2.67209685 9.20495844 2.2552110900000004 0.165153 0.020455 0.069494
4760 -2.64754242 9.23534982 2.22722316 0.21588 0.143876 0.06327999999999999
4780 -2.6785322099999997 9.21213936 2.1308202900000004 0.165399 0.231705 -0.01196
4800 -2.68331949 9.222322140000001 1.9553880600000002 0.012781 0.161099 -0.071688
4820 -2.6223993900000004 9.218731680000001 1.9287342900000002 -0.116722 0.041291 -0.101281
4840 -2.53183347 9.25226226 1.8931141800000002 -0.206722 -0.020275 -0.07833
4860 -2.4748079400000003 9.32590593 1.82605302 -0.269955 -0.031982 -0.026414
4880 -2.5412608800000003 9.40838841 1.76887053 -0.290513 -0.037472000000000005 0.032202
4900 -2.6153656200000004 9.55074132 1.7624351699999998 -0.244858 -0.046316 0.073125
4920 -2.32825635 9.425300850000001 1.6554080700000002 -0.13913299999999998 -0.004151 0.093037
4940 -2.14803684 9.29731959 1.7272565100000001 -0.015773 0.136069 0.085173
4960 -2.4221086200000004 9.58681269 2.07169542 0.072858 0.116734 0.048429
4980 -2.8601055 9.298957860000002 2.50040223 0.166685 0.065426 0.010694
5000 -3.3763763700000005 8.7425739 2.9910788100000003 0.242461 0.053516 -0.006920999999999999
5020 -3.4974808200000003 8.63000415 3.21396201 0.25855500000000003 0.06839500000000001 -0.012169
5040 -2.9482679700000003 8.626707990000002 2.8951272 0.193347 0.021824 -0.030724
5060 -2.33753661 8.89689501 2.29742352 0.100184 -0.0641 -0.040879
5080 -2.13201711 9.1883403 1.64957112 -0.002532 -0.092654 -0.004172
5100 -2.20161906 9.37665306 1.12341177 -0.063108 -0.007352 0.028411
5120 -2.21000661 9.52034994 0.96713847 -0.088238 0.108809 0.038768
5140 -2.33753661 9.70626906 0.98854389 -0.094246 0.174963 0.017277
5160 -2.5697098800000004 9.85445892 1.24495767 -0.105212 0.081368 -0.010453
5180 -2.7882472500000004 9.727968780000001 1.29420387 -0.088353 0.02807 -0.016676
5200 -2.7361561500000002 9.67438656 1.5937326 -0.066107 0.002387 -0.006874
5220 -2.52929268 9.65776842 2.0793276 -0.032843000000000004 0.052309 0.000772
5240 -2.5255452600000003 9.37545624 2.59051689 -0.00708 0.095862 0.009442
5260 -2.67628572 8.92234215 2.94557022 0.037613 0.078627 0.018322
5280 -2.7800166600000003 8.75678859 3.1353839100000003 0.081249 0.042306 0.005854
5300 -2.5412608800000003 8.800649100000001 2.97041895 0.08150299999999999 0.084972 -0.008085
5320 -2.42839683 8.8814835 2.51836434 0.055971000000000014 0.104223 -0.005084
5340 -2.5258493700000004 8.94479724 2.14129737 0.044216000000000005 0.077722 -0.027565
5360 -2.71744848 9.15660495 1.94984541 0.003661 0.071485 -0.031044
5380 -2.87507556 9.183405870000001 1.69043958 -0.020189 0.004386999999999999 -0.014034
5400 -2.7482813100000003 9.377702730000001 1.75585266 -0.050004 0.05441 0.023082
5420 -2.48753151 9.51646518 1.57472082 -0.088439 0.052397000000000006 0.027089
5440 -2.3028092100000004 9.59833944 1.5864045300000003 -0.049104 0.010756 0.016735
5460 -2.32107543 9.50313339 1.6181398800000002 0.011481 -0.048012 0.008687
5480 -2.33080695 9.47904003 1.73743929 0.043689 0.001922 0.01419
5500 -2.37286242 9.37515213 1.8595836000000001 0.031054 0.0488 0.023655
5520 -2.4179197500000003 9.294023430000001 2.1555218700000003 0.027714 0.020041 0.025805
5540 -2.70142875 9.02488608 2.40490188 0.01474 -0.030996 0.012961000000000002
5560 -2.92117275 9.06978645 2.42615034 -0.004459 -0.028803 0.013893
5580 -2.8174418100000005 8.85438828 2.45145033 -0.024667 -0.013822 0.014801
5600 -2.5692586200000003 9.162294750000001 2.17587762 -0.041704000000000005 -0.009489 0.011471
5620 -2.4170270400000002 9.23279922 2.09219832 -0.036302 0.000101 0.006156
5640 -2.6298844200000007 9.302254020000001 1.8796450500000002 -0.039421 0.017161000000000003 0.005044
5660 -2.7783685800000004 9.401354640000001 1.75315491 -0.047908 0.032087 0.009238
5680 -2.68272108 9.4049451 1.6205335200000002 -0.04898 0.02466 0.002831
5700 -2.55473982 9.41033079 1.6313049000000004 -0.051128 0.0098 -0.008915000000000001
5720 -2.4002617500000003 9.457036200000001 1.8058444200000001 -0.055395000000000014 0.005571 -0.013213
5740 -2.46058344 9.31348647 2.01480723 -0.055386000000000005 0.011946 -0.008948000000000001
5760 -2.62314495 9.29267946 2.0887550100000003 -0.04897 0.018302 -0.005707
5780 -2.6391646800000004 9.246572460000001 2.19893112 -0.024461 -0.000907 -0.018329
5800 -2.6740392300000004 9.214837110000001 2.2170403800000003 0.014936 -0.011723 -0.011631
5820 -2.6879596200000004 9.19702215 2.15371683 0.07213 -0.09081 0.002757
5840 -2.66880069 9.206155260000001 2.1176454600000003 0.115133 -0.292148 -0.034073
5860 -2.5785388800000004 9.22037976 2.0926495800000002 0.231413 -0.08895800000000001 -0.065568
5880 -2.5797357 9.227413530000002 2.10432348 0.219941 -0.021839 -0.057188
5900 -2.58886881 9.258246360000001 2.1019298400000004 0.142377 0.074205 -0.032215
5920 -2.57779332 9.3039021 2.06959608 0.047273 0.072278 -0.000831
5940 -2.52644778 9.3007629 2.10417633 -0.032977 0.039458 0.017879
5960 -2.4748079400000003 9.26363205 2.12018625 -0.06515499999999999 0.016074 0.032639
5980 -2.50908408 9.259148880000001 2.18889549 -0.069423 0.01715 0.033676
6000 -2.62434177 9.23698809 2.2043168100000003 -0.046717 0.071452 0.020947
6020 -2.6343675900000005 9.25360623 2.1516273 -0.010309 0.08948099999999999 0.009427
6040 -2.5673064300000004 9.2546559 2.09145276 -0.00176 0.08522 0.002015
6060 -2.54590101 9.32260977 1.5003315900000003 0.009956 0.084101 0.005303
6080 -2.80785744 9.361830150000001 1.8835298100000002 -0.019935 0.08843200000000001 0.013634
6100 -2.59440165 9.267526620000002 1.9464021 -0.025293 0.082064 0.012537
6120 -2.4709133700000003 9.30868938 2.14938081 -0.010506 0.0405 0.004148
6140 -2.35594998 9.18893871 2.56491279 -0.0030280000000000003 0.040483 0.002063
6160 -2.31523848 9.17292879 2.5900656300000002 -0.002918 0.062862 -0.000101
6180 -2.36044296 9.15600654 2.5426146600000004 -0.003951 0.076688 0.006283
6200 -2.43648027 9.227413530000002 2.22931269 -0.003994 0.06391799999999999 0.003095
6220 -2.5854255000000004 9.27995589 1.9616664600000002 -0.01794 0.047983 0.004086
6240 -2.64395196 9.301802760000001 1.8486552600000001 -0.015778 0.055428 0.0051600000000000005
6260 -2.62793223 9.32021613 1.85509062 -0.010472 0.052201 0.008406
6280 -2.6375166 9.281751120000001 2.0112167700000003 0.002287 0.042569 0.008506999999999999
6300 -2.56895451 9.30464766 2.1519216 0.007679000000000002 0.052151 0.005328
6320 -2.5315391700000003 9.294170580000001 2.13471486 0.010899 0.053216999999999993 0.002144
6340 -2.5981490700000003 9.24911325 2.1564145800000003 0.020376 0.021243 -0.002021
6360 -2.6307771300000002 9.258246360000001 2.04639543 0.063743 -0.064123 -0.003745000000000001
6380 -2.5503939900000003 9.294170580000001 2.01900591 0.079818 -0.051382 -0.006854000000000001
6400 -2.56206789 9.22097817 2.08322217 0.051387 0.028626 -0.01036
6420 -2.58407172 9.21723075 2.121687180000001 0.019611 0.08941900000000001 -0.001046
6440 -2.6084790000000004 9.2230677 2.17932093 -0.012457 0.08417100000000001 0.007282999999999999
6460 -2.5454595600000007 9.28204542 2.07827793 -0.026489 0.048 0.007231
6480 -2.52809586 9.286234290000001 2.0895005700000002 -0.027537 0.053326 0.008284999999999999
6500 -2.5265949300000003 9.294023430000001 1.9989444600000001 -0.017815 0.08204600000000001 0.010453
6520 -2.5346783700000004 9.3039021 1.9818750600000001 -0.001813 0.079868 0.008431000000000001
6540 -2.5565350500000004 9.29132568 2.0158569 0.002441 0.072413 0.004197
6560 -2.58093252 9.29596581 2.04324642 0.000221 0.051124 0.002072
6580 -2.69664147 9.286685550000001 2.04849477 0.0033350000000000003 0.025572 -0.004282
6600 -2.7099634500000005 9.24148107 1.9507479300000001 -0.011573 0.043687 0.007340999999999999
6620 -2.6601188400000004 9.27606132 2.05433172 -0.012515 0.071388 0.007298999999999998
6640 -2.5921551600000003 9.22082121 2.18994516 -0.009362 0.058602 0.005201
6660 -2.4974101800000006 9.20421288 2.28499425 -0.002942 0.067084 0.009507
6680 -2.4872274 9.15272019 2.30235795 -0.005123 0.058561 0.01164
6700 -2.57134815 9.171123750000001 2.16913815 -0.0094 0.055385 0.010546
6720 -2.55593664 9.246121200000001 2.03157252 -0.009405 0.053258000000000014 0.00948
6740 -2.58467994 9.318273750000001 1.94445972 -0.006267 0.031972 0.002052
6760 -2.5773420600000003 9.35510049 1.93023522 -0.012625 0.045826 0.006261999999999999
6780 -2.62254654 9.26139537 2.05357635 -0.0041140000000000005 0.039408 0.005261999999999999
6800 -2.6316796500000006 9.25345908 2.12722983 0.001206 0.039377 0.008504000000000001
6820 -2.6541347400000004 9.28234953 2.1306731400000003 0.002282 0.03726 0.004241
6840 -2.50788726 9.286391250000001 2.1019298400000004 0.00334 0.038309 0.0074519999999999986
6860 -2.5885647 9.17906004 2.10716838 0.005483 0.039371 0.006397
6880 -2.5878191400000006 9.18161064 2.01720087 0.008655 0.032968 0.006428
6900 -2.5848270899999997 9.203163210000001 2.05926615 0.007593000000000002 0.031915 0.004285
6920 -2.5755468300000004 9.25315497 2.04579702 0.004386999999999999 0.030861000000000006 0.004264
6940 -2.57105385 9.25585272 2.0534292 0.0033159999999999995 0.035104 0.009592
6960 -2.58497424 9.24162822 2.062111050000001 0.000115 0.036176 0.010637
6980 -2.61221661 9.29522025 2.09339514 0.004378 0.032974 0.008534
7000 -2.5957554300000005 9.26468172 2.0764827 0.005445 0.031909 0.007475
7020 -2.5755468300000004 9.29776104 2.04235371 0.005435 0.028718 0.006409999999999999
7040 -2.5662665700000002 9.31048461 1.99969002 0.004368 0.027661 0.005336
7060 -2.5596742500000005 9.311083020000002 2.01361041 0.002273 0.038312 0.007444
7080 -2.5725547800000004 9.2922282 2.0091174300000003 -0.0041140000000000005 0.040469 0.006329
7100 -2.57808762 9.26438742 1.9904097600000001 -0.0073430000000000014 0.03515 0.007381
7120 -2.6011411200000003 9.26168967 2.01930021 -0.006291 0.033011 0.008459999999999999
7140 -2.5872207300000003 9.242677890000001 2.0231947800000003 -0.003172 0.011708 0.005304
7160 -2.5706025900000005 9.2521053 2.04534576 0.003249 0.019129 0.008544
7180 -2.51731467 9.28204542 2.04788655 7.7e-05 0.029776 0.012781
7200 -2.5453026000000003 9.28429191 2.04819066 -0.002086 0.02127 0.01064
7220 -2.5607239200000005 9.274413240000001 2.00028843 0.0011 0.015941 0.008533
7240 -2.5747914599999997 9.26288649 1.99669797 -0.001072 0.008487 0.009596
7260 -2.5770379500000002 9.25659828 2.0477394 0.002129 0.006354 0.007484
7280 -2.6005427100000005 9.26528013 2.03127822 2.9e-05 0.008514 0.0021260000000000003
7300 -2.5646184900000004 9.25031007 2.04684669 0.001072 -0.002121 -0.003194
7320 -2.57899014 9.267526620000002 2.05642125 0.001052 -0.007444 -0.004256
7340 -2.57165226 9.251506890000002 2.0610613800000004 -0.003181 2.8000000000000006e-05 -0.004295
7360 -2.5673064300000004 9.23818491 2.0371151700000003 -0.007411 0.007504 -0.0054020000000000006
7380 -2.54290896 9.26872344 2.03740947 -0.009515 0.009659 -0.009693
7400 -2.5861710600000003 9.237890610000001 2.02648113 -0.02027 -0.005234 -0.005476
7420 -2.5159707 9.254803050000001 2.04849477 -0.02029 -0.007373 -0.003337
7440 -2.54051532 9.25690239 2.03097411 -0.017075 -0.004189 -0.003319
7460 -2.53812168 9.26049285 2.06645688 -0.01385 0.002188 -0.002236
7480 -2.53812168 9.26767377 2.05237953 -0.007458 0.006401 0.004213000000000001
7500 -2.5251038100000005 9.27725814 1.9886145300000002 -0.009578 0.013848 0.008461
7520 -2.5512965100000002 9.31332951 2.0392047 -0.007478 0.001079 0.003151
7540 -2.5755468300000004 9.33563745 2.02603968 -0.004301 -0.003198 0.004247
7560 -2.53213758 9.294170580000001 2.0480435100000003 -0.0021620000000000003 -1.8e-05 0.006394
7580 -2.52389718 9.25690239 2.07543303 0.001038 -0.002151 0.004283
7600 -2.5761452400000002 9.2720196 2.11345659 0.005286 -0.011732 -0.001016
7620 -2.54964843 9.27216675 2.12213844 0.004196 -0.024482 -0.008485
7640 -2.48289138 9.211393800000002 2.1157030800000003 0.009559 -0.018109 -0.008456
7660 -2.4623786700000005 9.231003990000001 2.06720244 -0.001052 -0.003166 -0.006412999999999999
7680 -2.5093783800000002 9.225912600000001 2.02379319 -0.010635 0.004311 -0.0032840000000000005
7700 -2.4987541500000003 9.22605975 1.9905569100000002 -0.018022 0.02563 -0.00015900000000000002
7720 -2.4647723100000003 9.28039734 2.01960432 -0.021213 0.024588 -0.0033840000000000003
7740 -2.47106052 9.298359450000001 2.11016043 -0.019146 0.005423 -0.0076180000000000015
7760 -2.5265949300000003 9.25959033 2.0995362 -0.015916999999999997 0.013926 -0.00547
7780 -2.5300382400000005 9.2691747 2.08920627 -0.014883 0.010709 -0.001186
7800 -2.5050423600000005 9.24956451 2.11779261 -0.007372 0.021331 -7.900000000000001e-05
7820 -2.54890287 9.250467030000001 2.1055203 0.006573999999999999 0.041510000000000005 0.003197
7840 -2.58392457 9.23310333 2.1176454600000003 0.009822 0.053213 0.004273
7860 -2.6056341 9.25360623 2.10222414 0.007698 0.055351 0.004256
7880 -2.54800035 9.23294637 2.14129737 0.007626000000000002 0.041494 0.006409000000000001
7900 -2.48648184 9.26902755 2.17198305 0.0076019999999999985 0.037228 0.007483
7920 -2.54290896 9.214385850000001 2.2384458 0.002297 0.0447 0.008505
7940 -2.6018866800000002 9.17771607 2.2324617 0.000173 0.046838 0.008487
7960 -2.5884175500000004 9.19941579 2.24428275 0.001292 0.05643 0.006346
7980 -2.61252072 9.19313739 2.2501197 0.002349 0.053234 0.005289
8000 -2.57674365 9.2489661 2.2010206500000002 0.003392 0.048965 0.006370000000000001
8020 -2.5408194300000004 9.26049285 2.1724343100000003 0.00234 0.053226 0.007426
8040 -2.5626663000000005 9.29117853 2.10611871 0.002373 0.061744000000000014 0.008483
8060 -2.52974394 9.32081454 2.05837344 0.002383 0.061752 0.006347
8080 -2.49157323 9.317528189999999 2.04969159 0.003416 0.053231 0.005297
8100 -2.53018539 9.28474317 2.1218343300000004 0.0034020000000000005 0.052157 0.007434
8120 -2.5086328200000003 9.242677890000001 2.18501073 0.004445 0.044705 0.005315
8140 -2.53572804 9.214238700000001 2.2091040900000003 0.008741 0.051082 0.005337
8160 -2.49785163 9.22097817 2.18410821 0.015133 0.044685 0.001117
8180 -2.50100064 9.238037760000001 2.1630069 0.028916000000000008 0.023339 -0.0008960000000000002
8200 -2.49935256 9.2139444 2.1483311400000003 0.040622000000000005 0.024334 0.006662
8220 -2.5188156 9.243129150000001 2.15012637 0.053492 0.034959 0.002465
8240 -2.53962261 9.21947724 2.17078623 0.070638 0.037089 -0.012373
8260 -2.5265949300000003 9.22337181 2.15237286 0.06968200000000001 0.048862 -0.025213
8280 -2.5077303000000004 9.2230677 2.13919803 0.031169 0.03511 -0.015851
8300 -2.5521892200000003 9.266035500000001 2.14204293 -0.011683 0.010698 -0.001164
8320 -2.5421633999999997 9.27336357 2.1664404000000004 -0.040584 0.005408 0.014665
8340 -2.5403681700000003 9.22920876 2.14967511 -0.038393 0.019245 0.01573
8360 -2.53991691 9.25031007 2.1326155200000003 -0.014787 0.03838 0.005189
8380 -2.5664137200000003 9.302401170000001 2.09310084 -0.001822 0.063945 -0.005436
8400 -2.54605797 9.31332951 2.07513873 0.020582 0.055378 -0.013813999999999998
8420 -2.5376704200000004 9.29476899 1.99131228 0.024854 0.058551 -0.011652
8440 -2.65278096 9.2777094 1.8827842500000003 0.02594 0.061747 -0.012717
8460 -2.6786793600000003 9.397155960000001 1.7732163600000002 0.025993 0.07134299999999999 -0.014865
8480 -2.63945898 9.47619513 1.7238132000000002 0.015243 0.057515 -0.010649
8500 -2.53602234 9.45852732 1.83009474 -0.003004 0.040504000000000005 -0.003278
8520 -2.4328898100000007 9.265878540000001 2.15207856 0.002258 0.026628 -0.001087
8540 -2.41238691 9.04404501 2.4111900900000003 -0.004176 0.01495 -0.005389
8560 -2.45190159 8.92458864 2.5478532 -0.0063100000000000005 0.013896 -0.006470999999999999
8580 -2.4358818600000003 9.13295304 2.37840507 -0.005272 0.012806 -0.001121
8600 -2.5204538700000003 9.24403167 2.12917221 -0.0063100000000000005 0.020262 -7e-05
8620 -2.65397778 9.361830150000001 1.9592728200000002 7.7e-05 0.017044 -2.1e-05
8640 -2.69574876 9.42035661 1.8820386900000001 -0.001971 0.038348 0.002074
8660 -2.67717843 9.405690660000001 1.9315791900000001 -0.005162 0.042612 0.004182
8680 -2.6321309100000003 9.386531730000002 2.03142537 -0.002023 0.02557 0.001021
8700 -2.56866021 9.28489032 2.0678008500000002 -0.001 0.017039 0.002108
8720 -2.47615191 9.214837110000001 2.14204293 0.006492 0.023401 0.00322
8740 -2.3881365900000002 9.211697910000002 2.17991934 0.008636 0.024463 0.002165
8760 -2.3403815100000003 9.23250492 2.20056939 5.8e-05 0.014905000000000003 0.002118
8780 -2.33514297 9.170682300000001 2.1595635900000003 -0.008554 -0.002109 0.002079
8800 -2.4465159 9.227413530000002 2.14923366 -0.006468000000000001 -0.011708 0.003174
8820 -2.49995097 9.23624253 2.14967511 -5e-06 0.003179 0.004268999999999999
8840 -2.5119289800000004 9.214837110000001 2.1472814700000002 0.0032340000000000003 0.020178 0.012815
8860 -2.52449559 9.254057490000001 2.10642282 0.002186 0.028687 0.01707
8880 -2.51970831 9.289677600000001 2.06450469 0.009621 0.018021 0.013931
8900 -2.51327295 9.290128860000001 2.0878623 0.026485 -0.034211 0.007706
8920 -2.49800859 9.25360623 2.1225897000000002 0.056241999999999986 -0.04715 0.020749
8940 -2.55563253 9.27142119 2.11106295 0.074666 0.0358 0.04
8960 -2.4983028899999997 9.29208105 2.0667511800000007 0.079274 0.11248 0.041002
8980 -2.5131258000000005 9.28534158 2.00433015 0.054741 0.08710599999999999 0.014158
9000 -2.46851973 9.25226226 2.0389104000000002 0.003325 0.008588 -0.019216
9020 -2.49949971 9.23534982 2.13935499 -0.046841 -0.002929 -0.025961
9040 -2.50114779 9.21753486 2.17482795 -0.07456499999999999 0.009912 -0.016557
9060 -2.57808762 9.26872344 2.0910015 -0.072388 0.025858 -0.010153
9080 -2.5860239100000006 9.29462184 2.04953463 -0.049927 0.048112 -0.00041
9100 -2.57839173 9.30375495 1.96706196 -0.024274 0.067163 0.00829
9120 -2.50549362 9.28923615 1.9606266 0.013884 0.024367 0.02143
9140 -2.5104280500000002 9.36003492 1.9293425100000001 0.06196 0.055028 0.03775
9160 -2.63976309 9.446255010000002 1.9766365200000002 0.08025399999999999 0.084814 0.032499
9180 -2.4801936300000005 9.26482887 1.88967087 0.094138 0.057191999999999986 0.001652
9200 -2.41567326 9.26333775 1.96017534 0.058778 -0.006481999999999999 -0.028423
9220 -2.54934432 9.265731390000001 2.21644197 -7.7e-05 -0.039325 -0.022383
9240 -2.7643010400000003 9.186849180000001 2.45190159 -0.029968 -0.024384 -0.003383
9260 -2.9168367300000004 9.03460779 2.6348188500000003 -0.035187 0.022421 0.017884999999999998
9280 -2.7069714000000005 9.05107878 2.58497424 -0.028556 0.079897 0.024267
9300 -2.50324713 9.17711766 2.32032006 -0.010458 0.074495 0.027605
9320 -2.45609046 9.18953712 1.98531837 0.026791 0.061552 0.03536
9340 -2.4983028899999997 9.18070812 1.70675361 0.05683600000000001 0.096614 0.03232
9360 -2.4557961600000002 9.4197582 1.6118516699999998 0.05786 0.067924 0.013136000000000002
9380 -2.43154584 9.484572870000001 1.58415804 0.053415 0.013671 -0.0017809999999999996
9400 -2.3321509200000006 9.43173621 1.63325709 0.021241 -0.016075 0.00551
9420 -2.49141627 9.50508558 1.8814402799999999 0.01695 -0.022447 0.00442
9440 -2.71325961 9.42874416 2.15686584 0.022433 0.012679 0.00655
9460 -2.78436249 9.21618108 2.46522357 0.019477 0.07869 0.018195
9480 -2.6665542 9.06889374 2.61640548 0.003354 0.055297000000000006 0.021317
9500 -2.44231722 9.10257147 2.48289138 -0.000971 0.046773 0.025571
9520 -2.37915063 9.12098484 2.11106295 0.00111 0.03717 0.027734
9540 -2.45833695 9.18115938 1.90299285 0.017161000000000003 0.036095 0.016097
9560 -2.51941401 9.27156834 1.7986635000000002 0.034298 0.040339 0.005529
9580 -2.50234461 9.34686009 1.7095985100000002 0.032139999999999995 0.027594 -0.001947
9600 -2.54874591 9.36003492 1.7637791400000002 0.02782 0.021196 0.003372
9620 -2.60862615 9.42784164 1.97948142 0.013927000000000002 0.021223 0.008616
9640 -2.64754242 9.38877822 2.20326714 0.017103 0.008458 0.001177
9660 -2.5354239300000008 9.353746710000001 2.3322980700000002 0.015118 0.030879000000000007 -0.009548
9680 -2.49785163 9.33982632 2.21988528 0.00554 0.045788 -2e-05
9700 -2.5336287 9.3209715 1.9390642200000001 -0.00831 0.052219000000000015 0.002011
9720 -2.41193565 9.15765462 1.87934094 -0.014716 0.058603 0.009436
9740 -2.43872676 9.127871460000001 2.03052285 -0.014677 0.067126 0.009425
9760 -2.46342834 9.14612787 2.02379319 -0.003965 0.08092 0.013755000000000002
9780 -2.4923187900000006 9.20405592 2.0686935600000007 -0.008265999999999999 0.076661 0.016936
9800 -2.59679529 9.31856805 1.95254316 -0.006205 0.05749099999999999 0.01377
9820 -2.65397778 9.39686166 1.92005244 -0.001889 0.06706799999999999 0.01272
9840 -2.58392457 9.38578617 2.03097411 -0.0007700000000000001 0.08090399999999999 0.014846000000000003
9860 -2.4658219800000003 9.3443193 2.11345659 0.002359 0.062792 0.012755
9880 -2.4092379 9.28907919 2.1914460900000003 -0.000904 0.041528 0.005282
9900 -2.50339428 9.2925225 2.1363531300000003 -0.008353 0.042632 0.002023
9920 -2.5765965 9.23549697 2.07034164 -0.015883 0.026688 -0.000145
9940 -2.57074974 9.182954610000001 2.0821725 -0.004239 0.012773 0.006363000000000001
9960 -2.46268278 9.17367435 2.1200391 -0.002071 0.029771 0.015971
9980 -2.5247997 9.21273777 2.10312666 -0.002095 0.025506 0.017044
10000 -2.4819888600000004 9.30868938 1.9989444600000001 -0.002124 0.010626 0.008517
10020 -2.4577385400000002 9.386982990000002 1.9375731 0.018892 -0.06188200000000001 0.007689
10040 -2.428249680000001 9.38413809 1.949247 0.0464 -0.095075 0.026083
10060 -2.47734873 9.34401519 1.9505909700000001 0.082717 -0.064394 0.047662
10080 -2.53812168 9.33848235 1.92155337 0.127606 -0.037953 0.056488
10100 -2.4927700500000003 9.313927920000001 1.84207275 0.15448399999999998 -0.011338 0.037413
10120 -2.43872676 9.374259420000001 1.86437088 0.14405 -0.005787 -0.009669
10140 -2.43034902 9.349557840000001 1.8971559000000002 0.093985 -0.034191 -0.055915
10160 -2.39966334 9.315576 1.8901221300000002 0.034619 0.043808 -0.06283899999999999
10180 -2.45145033 9.31602726 1.89400689 -0.046093 0.117629 -0.07204400000000001
10200 -2.46357549 9.32934924 1.8233552700000002 -0.131241 0.14357 -0.0919
10220 -2.4411204 9.35180433 1.7600415300000003 -0.181484 0.096972 -0.11676
10240 -2.4498022500000003 9.36048618 1.7775523800000002 -0.232106 -0.01999 -0.127646
10260 -2.5062391800000006 9.38802285 1.8058444200000001 -0.27362 -0.215938 -0.107389
10280 -2.5176187800000003 9.41587344 1.8365301 -0.301102 -0.357678 -0.06894299999999999
10300 -2.34652257 9.48817314 1.7479163700000002 -0.325851 -0.363085 -0.027448
10320 -2.1948894 9.44805024 1.70390871 -0.242122 -0.203769 0.018866
10340 -2.1802136400000003 9.37859544 1.8649692900000001 -0.07130700000000001 0.064063 0.025057
10360 -2.3513098500000003 9.47485116 2.14010055 0.072673 0.259696 -0.005166
10380 -2.57105385 9.352854 2.42301114 0.132772 0.325585 -0.01765
10400 -2.85246351 9.051677190000001 2.72194146 0.158574 0.360683 -0.026060000000000003
10420 -2.8666880100000003 8.85364272 2.82837015 0.168935 0.311567 -0.006697
10440 -2.50578792 8.70544305 2.84812749 0.140449 0.186862 0.034925
10460 -2.3733136800000008 8.76786408 2.62285065 0.037479000000000005 0.089117 0.0589
10480 -2.4050490300000003 8.87548959 2.4062458500000004 -0.039714 0.006291 0.05953500000000001
10500 -2.49636051 9.04479057 2.26822896 -0.002939 -0.15243199999999998 0.02688
10520 -2.62673541 9.087150150000001 2.0727352800000003 0.015073 -0.17807 0.029175
10540 -2.59619688 9.22636386 1.77965172 -0.000781 -0.116344 0.057828
10560 -2.54710764 9.413175690000001 1.36307007 -0.013426 -0.055681 0.083299
10580 -2.5213563900000002 9.60597162 1.0000706400000001 0.012294 -0.033388 0.08024500000000001
10600 -2.5655112 9.831552570000001 0.7914021300000001 0.061451 -0.020755000000000003 0.07523099999999999
10620 -2.6870669100000004 9.98827713 0.8491830300000001 0.098935 -0.000598 0.063717
10640 -2.96084439 9.865985669999999 1.01728719 0.085359 0.043211 0.042202
10660 -2.9075564700000003 9.57528594 1.35692901 0.070653 0.049834 -0.002775
10680 -2.62134972 9.38263716 1.9916065800000002 0.0439 -0.01911 -0.054148
10700 -2.31523848 9.31617441 2.34771939 -0.004277 -0.085935 -0.08430900000000001
10720 -2.0411568900000003 9.30928779 2.4435140400000006 -0.065083 -0.089962 -0.09007000000000001
10740 -1.8935654400000002 9.051677190000001 2.55623094 -0.118436 -0.084479 -0.082972
10760 -2.2691314800000004 9.0090135 2.5468035300000005 -0.15473299999999998 -0.08012999999999999 -0.073617
10780 -2.38888215 9.083863800000001 2.37989619 -0.179242 -0.076835 -0.076997
10800 -2.11824387 9.15032655 2.2182372 -0.172769 -0.071489 -0.087641
10820 -2.0588148900000003 9.40628907 2.27407572 -0.154661 -0.055663 -0.065102
10840 -2.17303272 9.476940690000001 2.2579088400000003 -0.10934 0.092116 -0.030792
10860 -2.32122258 9.43293303 2.22153336 -0.035372 0.226922 0.026168
10880 -2.3583436200000003 9.3733569 2.26418724 0.002915 0.250023 0.076612
10900 -2.40459777 9.4368276 2.3785522200000004 0.036686 0.218806 0.128162
10920 -2.57928444 9.33967917 2.5119289800000004 0.070648 0.196248 0.14552
10940 -2.78091918 9.10017783 2.69754399 0.092762 0.32100100000000004 0.097445
10960 -2.9304530100000004 8.905135410000002 2.86938576 0.179058 0.25375 0.057541
10980 -2.75831694 8.93522268 2.8071118800000003 0.243021 0.219531 0.034531
11000 -2.50219746 8.94314916 2.6456000400000006 0.204773 0.235721 0.015015
11020 -2.40999327 8.907676200000001 2.38349646 0.049222 0.28525900000000004 0.016002000000000002
11040 -2.49785163 9.032067 2.12931936 -0.129973 0.300774 0.021139
11060 -2.7407962800000005 9.14088933 2.01001995 -0.201966 0.156271 -0.010157
11080 -2.9588922 9.267830730000002 1.85913234 -0.221912 -0.026815 -0.028221
11100 -2.9809058400000006 9.345663270000001 1.6548096600000002 -0.197566 -0.044047 -0.002392
11120 -2.89033992 9.497453400000001 1.4778765 -0.18895 0.020717 0.044587
11140 -2.66296374 9.477539100000001 1.4449443300000002 -0.13006099999999998 0.091786 0.069477
11160 -2.56985703 9.664056630000001 1.45003572 -0.031656000000000004 0.141536 0.063691
11180 -2.39531751 9.69862707 1.6486686 0.027906 0.094481 0.057758
11200 -2.412534060000001 9.4573305 1.72306764 0.072604 0.062397 0.050634
11220 -2.83555107 9.126968940000001 2.04264801 0.088324 -0.016425 0.034821
11240 -3.1323820500000004 9.06335109 2.2189827600000003 0.0997 -0.106971 0.024334
11260 -3.0600823500000005 9.310043160000001 2.35310508 0.123056 -0.14110699999999998 0.015995
11280 -2.7556191899999996 9.23609538 2.69364942 0.129601 -0.118721 0.006399
11300 -2.47330701 8.876539260000001 3.0587383800000003 0.114675 -0.137758 -0.015046
11320 -2.2977178200000004 8.647367850000002 3.3025855500000003 0.084793 -0.17798 -0.053659000000000005
11340 -2.12108877 8.6705685 3.1103782200000003 0.048385 -0.226779 -0.07307899999999999
11360 -2.18156742 9.04284819 2.3763057300000003 0.011021 -0.224548 -0.06586499999999999
11380 -2.0474451 9.28519443 1.8768001500000002 -0.035795999999999994 -0.181833 -0.051292
11400 -2.04924033 9.537419340000001 1.54463355 -0.055966 -0.150903 -0.042926
11420 -2.15701299 9.67468086 1.32504651 -0.06866699999999999 -0.122122 -0.036643
11440 -2.23455123 9.67123755 1.2814803000000001 -0.07395399999999999 -0.106146 -0.031359
11460 -2.32990443 9.637108560000001 1.3503465000000001 -0.039881 -0.121179 -0.031102
11480 -2.3872340700000003 9.63007479 1.57652586 0.002836 -0.100069 -0.01908
11500 -2.43678438 9.59444487 1.94386131 0.051042 -0.039585 -0.001729
11520 -2.29816908 9.47125089 2.1143493000000007 0.09076 0.010361 -0.005789
11540 -2.24368434 9.48248334 2.22976395 0.105758 0.011425 -0.018504
11560 -2.3234690700000002 9.41167476 2.32720668 0.097061 -0.024764 -0.018518
11580 -2.44426941 9.28280079 2.50997679 0.072633 0.012555 -0.005918
11600 -2.54725479 9.067991220000001 2.5616264400000004 0.039776 0.078645 0.011927
11620 -2.48363694 8.97488451 2.68571313 -0.003735 0.136296 0.017959
11640 -2.3556556800000004 9.04269123 2.59440165 -0.039865 0.16201500000000002 0.011264
11660 -2.2339528200000003 9.04404501 2.49800859 -0.072875 0.168552 0.003547999999999999
11680 -2.32196814 9.08535492 2.33784072 -0.091165 0.128161 -0.002937
11700 -2.49995097 9.099432270000001 2.24263467 -0.08376900000000001 0.104729 -0.010333
11720 -2.6270395200000003 9.1852011 2.16000504 -0.065541 0.136576 0.001504
11740 -2.65098573 9.31288806 2.0520852300000003 -0.054763 0.185443 0.026085
11760 -2.59410735 9.43293303 1.89985365 -0.067565 0.184427 0.024929
11780 -2.49157323 9.497149290000001 1.8988039800000003 -0.069651 0.181294 0.011032
11800 -2.4989013000000004 9.49221486 1.9938530700000001 -0.06416799999999999 0.212177 0.008893999999999999
11820 -2.6292860100000004 9.346565790000001 2.23350156 -0.06734 0.227068 0.017398
11840 -2.74064913 9.190292490000001 2.4911219700000005 -0.058939 0.212064 0.032431
11860 -2.65188825 9.01604727 2.6286875999999997 -0.056604 0.272713 0.048393
11880 -2.61820071 8.99434755 2.72014623 -0.066076 0.311058 0.057892
11900 -2.6626596300000003 8.943600420000001 2.74184595 -0.06401 0.295076 0.056859
11920 -2.81444976 8.85528099 2.75712012 -0.058780999999999986 0.271621 0.056925
11940 -2.79333864 8.94195234 2.63856627 -0.079224 0.22061 0.044029
11960 -2.58707358 9.092545650000002 2.45190159 -0.073952 0.197194 0.034482
11980 -2.4568458300000002 9.23310333 2.2122531 -0.069852 0.15459 0.029224
12000 -2.3571468 9.28280079 2.02334193 -0.047573 0.12151 0.024081
12020 -2.20790727 9.37261134 1.91901258 -0.013491 0.099058 0.014734
12040 -2.2179330900000003 9.51391458 1.9609209000000003 0.009091 0.136273 0.012708
12060 -2.60128827 9.401050530000001 1.9863680400000001 0.003867 0.16822 0.020108
12080 -2.8225332 9.34836102 2.030228550000001 -0.002597 0.16076 0.026481
12100 -2.80980963 9.30944475 2.05253649 -0.017672 0.134163 0.030683
12120 -2.65787235 9.28459602 2.06285661 -0.017662 0.128867 0.023212
12140 -2.50818156 9.24447312 2.0151113400000003 -0.016634 0.12246300000000003 0.025364
12160 -2.54366433 9.162746010000001 2.10058587 -0.011405 0.110679 0.037166000000000005
12180 -2.6270395200000003 9.16080363 2.09354229 -0.004047 0.090396 0.041517
12200 -2.6647589700000003 9.190292490000001 2.18800278 -0.00088 0.092477 0.05115
12220 -2.5454595600000007 9.22576545 2.22242607 0.0012109999999999998 0.08394299999999999 0.052244000000000006
12240 -2.44876239 9.414676620000002 2.19967668 -0.005171 0.0808 0.044726
12260 -2.3095486800000007 9.381744450000001 2.15985789 -0.003047 0.066991 0.033008
12280 -2.20357125 9.358239690000001 2.0258827200000002 0.010736 0.033974000000000004 0.019259
12300 -2.25146367 9.390122190000001 1.9097323200000003 0.032068 0.022225 0.008741
12320 -2.36388627 9.26663391 1.82351223 0.038541000000000006 0.030754000000000007 0.001298
12340 -2.40310665 9.38817981 1.97888301 0.034226 0.009506 -0.009387
12360 -2.38349646 9.234143190000001 2.1902492700000002 0.029724 -0.058592 -0.025355000000000003
12380 -2.47136463 9.11813994 2.27766618 0.024265 -0.088392 -0.027491
12400 -2.5717994100000006 9.18474984 2.36104137 0.005051 -0.093638 -0.030823000000000007
12420 -2.5863182100000004 9.178461630000001 2.31987861 -0.012783 -0.024341 -0.0289
12440 -2.5195611600000003 9.2375865 2.29967001 -0.016878 0.02145 -0.02151
12460 -2.38768533 9.20421288 2.30595822 -0.0040420000000000005 0.033106000000000003 -0.017162
12480 -2.4089436 9.14388138 2.27931426 0.002393 0.051151 -0.006458
12500 -2.3724209700000003 9.07982208 2.2679346600000003 0.016286000000000002 0.065978 0.0032340000000000003
12520 -2.35475316 9.14612787 2.24458686 0.024797 0.065927 0.008634999999999999
12540 -2.34293211 9.230699880000001 2.1983327100000003 0.036475 0.054163 0.009799
12560 -2.32092828 9.325454670000001 2.17258146 0.055578 0.033848 0.012095
12580 -2.30580126 9.41167476 2.13276267 0.08001 0.017753 0.019764
12600 -2.2528174499999998 9.42379992 2.17063908 0.092759 0.01554 0.02947
12620 -2.30012127 9.32365944 2.3186817900000003 0.089439 -0.012142 0.028414
12640 -2.4177726 9.239234580000002 2.4559433100000008 0.091472 -0.040886 0.022056
12660 -2.5068375900000004 9.28070145 2.4459174900000002 0.10006 -0.030259 0.021034
12680 -2.38199553 9.24911325 2.40445062 0.110762 -0.0239 0.020032
12700 -2.43872676 9.41227317 2.2986203400000003 0.114087 0.000602 0.016819
12720 -2.4807920400000003 9.29342502 2.2299111000000003 0.104687 0.045377 0.016696000000000003
12740 -2.5661096100000003 9.21633804 2.17961523 0.079211 0.071046 0.013281
12760 -2.6339261400000002 9.134601120000001 2.11929354 0.051439 0.061564 0.010963
12780 -2.6319739500000003 9.13400271 2.121687180000001 0.026882 0.058449 0.011863
12800 -2.507436 9.243129150000001 2.1278282400000004 0.004574 0.089382 0.021282
12820 -2.4424741800000005 9.321864210000001 2.10896361 -0.011405 0.10431300000000003 0.030765
12840 -2.4777999900000003 9.37515213 2.04699384 -0.026288 0.126693 0.041315
12860 -2.4544423799999997 9.40374828 1.99669797 -0.032641 0.146918 0.050858
12880 -2.3683792500000003 9.373955310000001 2.02124259 -0.03688 0.144836 0.042286
12900 -2.32796205 9.35419797 2.08621422 -0.047688 0.106554 0.034782
12920 -2.3831923500000003 9.31707693 2.1206375100000003 -0.060648 0.070384 0.033669
12940 -2.39771115 9.29552436 2.0959457400000003 -0.076876 0.025677 0.038954
12960 -2.39741685 9.261836820000001 2.07258813 -0.06957100000000001 -0.01269 0.036918
12980 -2.37586428 9.21962439 2.10147858 -0.041785 -0.023354 0.015761
13000 -2.43992358 9.277856550000001 2.18305854 -0.03634 -0.010543 0.004033
13020 -2.51177202 9.190439640000001 2.27467413 0.014912 0.0009880000000000002 0.006512
13040 -2.5400640600000006 9.166336470000001 2.40669711 0.033298 0.062684 0.012971000000000002
13060 -2.59829622 9.12816576 2.5135770600000003 0.05353 0.054091 0.013123
13080 -2.5454595600000007 9.102718620000001 2.5258493700000004 0.067246 0.021015 0.01433
13100 -2.5114777200000002 9.110802060000001 2.49785163 0.055415 0.003995 0.018542
13120 -2.4861777300000005 9.11634471 2.4418757700000002 0.051099 0.006089 0.031327999999999995
13140 -2.4667245 9.10107054 2.31163821 0.040407 -0.004505 0.025925
13160 -2.42795538 9.11783583 2.1514801500000003 0.02549 -0.012924 0.013013
13180 -2.375256060000001 9.13430682 2.01779928 0.019146 -0.016033000000000002 -0.00305
13200 -2.4354306 9.102865770000001 2.04519861 0.008544 -0.006387 -0.008478
13220 -2.3516139600000003 9.206155260000001 2.0999874600000004 2.4e-05 2.1e-05 -0.005340999999999999
13240 -2.3126878800000004 9.29162979 2.08935342 -0.008482 0.006443000000000001 -0.005409000000000001
13260 -2.3682222900000003 9.484729830000001 1.99370592 -0.008329000000000001 0.045836 -0.000117
13280 -2.42031339 9.374102460000001 1.80285237 -0.010381 0.061831 -0.002288
13300 -2.5715051100000004 9.52574544 1.69417719 -0.013586 0.059716 -0.003376
13320 -2.80756314 9.62632737 1.7095985100000002 -0.01363 0.050129 -0.003364
13340 -2.60068986 9.39850974 1.5640965900000001 -0.015719999999999998 0.058663 -0.004458
13360 -2.46866688 9.46077381 1.6862409000000003 -0.008305 0.044797 -0.006525
13380 -2.4062458500000004 9.43876998 1.83847248 -0.006272 0.02454 -0.004348
13400 -2.22886143 9.34506486 1.9496982600000001 5.8e-05 0.021271 0.008519
13420 -2.21374422 9.23310333 2.05957026 -3.4e-05 0.013763 0.021347
13440 -2.22017958 9.24822054 2.08291806 0.005325 0.020132 0.022444
13460 -2.37151845 9.27276516 2.1215400300000002 0.011798 0.036088 0.022469
13480 -2.49186753 9.29162979 2.21045787 0.012937 0.043576 0.013921
13500 -2.5102809 9.274118940000001 2.23065666 0.002148 0.001066 -0.002123
13520 -2.4498022500000003 9.30450051 2.24562672 0.007377 -0.030876 -0.010591
13540 -2.4551977500000004 9.301802760000001 2.17991934 0.005258 -0.02449 -0.0074090000000000015
13560 -2.47285575 9.281898270000001 2.02304763 -0.000235 -0.062808 -0.010603
13580 -2.47465098 9.29297376 1.97888301 -0.003512 -0.093634 -0.024474
13600 -2.50728885 9.30330369 1.98442566 0.0018170000000000005 -0.102145 -0.031902999999999994
13620 -2.4718060800000003 9.30644289 1.99145943 -0.002393 -0.076615 -0.019147
13640 -2.39935923 9.34102314 1.9431059400000001 -0.003301 -0.043579 -0.021332
13660 -2.30116113 9.3209715 1.87185591 0.007319 -0.06275700000000001 -0.029779000000000007
13680 -2.22287733 9.309886200000001 1.83683421 0.015802 -0.067078 -0.022236
13700 -2.17452384 9.35719002 1.8815874300000002 0.011587 -0.042613 -0.009478
13720 -2.2282630200000004 9.357935580000001 1.9917537300000001 0.005272 -0.01705 -0.003146
13740 -2.36193408 9.293876280000001 1.96242183 0.0031 -0.03087 -0.008485
13760 -2.38857804 9.2777094 1.97020116 0.001918 -0.061737 -0.013794
13780 -2.33724231 9.31588011 1.99624671 0.006205 -0.054308 -0.010569
13800 -2.38543884 9.34776261 1.99969002 0.007478 -0.001079 -0.003151
13820 -2.38948056 9.357494130000001 1.98547533 0.0021620000000000003 0.00214 -0.004261
13840 -2.26074393 9.38428524 2.0074791600000004 0.021433 0.00956 -0.011613
13860 -2.1312715500000006 9.40882986 2.10611871 0.022409 -0.013867 -0.014781
13880 -2.18724741 9.381744450000001 2.1266314200000007 0.029973000000000007 0.018022 -0.004087
13900 -2.26943559 9.35539479 2.1080709 0.012879 0.016999 6.8e-05
13920 -2.26853307 9.34102314 2.0881566 0.017169999999999998 0.017006 -0.005243
13940 -2.3243617800000003 9.36632313 2.10671712 0.004464 0.045783 0.002109
13960 -2.39382639 9.293572170000001 2.13411645 -0.006128 0.060742 -0.000121
13980 -2.430192060000001 9.34013043 2.16958941 -0.009305 0.059714 -0.006551
14000 -2.26224486 9.31722408 2.15057763 -0.011419 0.062921 -0.007638
14020 -2.25700632 9.293876280000001 2.1754263600000003 -0.009266 0.068236 -0.006561
14040 -2.34128403 9.2663298 2.2068576 -0.0060420000000000005 0.06930700000000001 -0.010813
14060 -2.47540635 9.2720196 2.19713589 -0.004999 0.068221 -0.006532
14080 -2.4788496600000003 9.31932342 2.10776679 -0.008175 0.075681 -0.004427
14100 -2.41732134 9.36063333 2.06121834 -0.006061 0.070351 -0.005474000000000001
14120 -2.4161245200000003 9.32815242 2.06256231 -0.008190000000000001 0.071424 -0.00549
14140 -2.52001242 9.36318393 2.06540721 -0.007128 0.077782 0.001987
14160 -2.51851149 9.2777094 2.06136549 -0.007094 0.088422 0.005178
14180 -2.54321307 9.353746710000001 2.09354229 0.000407 0.092669 0.002021
14200 -2.4204703500000004 9.286538400000001 2.12318811 -0.000621 0.096951 -0.002265
14220 -2.4783984000000006 9.30779667 2.14983207 -0.004869 0.094861 -0.008701
14240 -2.5653640500000003 9.21962439 2.16284994 -0.013371 0.099165 -0.011971
14260 -2.5349824800000005 9.22546134 2.13486201 -0.01871 0.099179 -0.01094
14280 -2.5653640500000003 9.29431773 2.1808120500000006 -0.019882 0.084235 -0.002383
14300 -2.56701213 9.27291231 2.14339671 -0.01882 0.08316599999999999 -0.002374
14320 -2.50638633 9.30495177 2.11330944 -0.015624 0.08209 -0.002351
14340 -2.4581898000000004 9.350009100000001 2.0839677300000004 -0.0114 0.078854 0.004092
14360 -2.4263073 9.34477056 2.06990019 -0.007118000000000002 0.087339 0.009452
14380 -2.3822996400000003 9.314683290000001 2.03860629 -0.001745 0.094782 0.008412000000000001
14400 -2.41193565 9.322011360000001 2.07454032 0.000383 0.088404 0.003094
14420 -2.4460646400000003 9.3209715 2.08126998 0.007798999999999999 0.074538 0.001027
14440 -2.42585604 9.271274040000002 2.09130561 0.01099 0.070274 -0.001082
14460 -2.37541302 9.25420464 2.0836636200000003 0.013104 0.068128 0.001072
14480 -2.36104137 9.297918000000001 2.0749817700000004 0.015209 0.064912 0.004296
14500 -2.39801526 9.36093744 2.08666548 0.016209 0.053177 0.007523
14520 -2.44097325 9.34326963 2.11539897 0.017252 0.049969 0.00967
14540 -2.49126912 9.29492595 2.15521776 0.014071 0.055303 0.01071
14560 -2.47929111 9.24118677 2.20625919 0.014085 0.061680999999999986 0.013906
14580 -2.4171741900000003 9.25540146 2.171531790000001 0.013037 0.071251 0.019228
14600 -2.35789236 9.305550180000001 2.15282412 0.013076 0.08295599999999999 0.022418
14620 -2.3393318400000003 9.29148264 2.12393367 0.004589 0.093639 0.022345
14640 -2.3891862600000002 9.30450051 2.1424941900000003 0.001364 0.089385 0.023396
14660 -2.41148439 9.30016449 2.07528588 -0.00297 0.072364 0.021251
14680 -2.3613356700000003 9.317969640000001 2.04145119 -0.001971 0.054264 0.018076
14700 -2.38034745 9.32380659 2.0411568900000003 -0.006229 0.052165 0.013777
14720 -2.4219614700000003 9.33638301 2.05223238 -0.008376999999999999 0.052160000000000005 0.016966
14740 -2.4078939300000006 9.35120592 2.06316072 -0.009554 0.034028 0.023391
14760 -2.36613276 9.325454670000001 2.06121834 -0.0074870000000000015 0.016985 0.02129
14780 -2.36687832 9.27920052 2.06854641 0.007382 -0.004347 0.015012
14800 -2.3384391300000003 9.29492595 2.05672536 0.019194 0.002046 0.004404
14820 -2.3571468 9.26992026 2.11046454 0.023447 -0.006469 -0.0008960000000000002
14840 -2.38154427 9.23265207 2.0887550100000003 0.024538 -8.6e-05 0.000172
14860 -2.42585604 9.247023720000001 2.1465359100000003 0.019242 0.016943 0.008657999999999999
14880 -2.4556392 9.27067563 2.13890373 0.018122 0.012656 0.016134
14900 -2.4525 9.26482887 2.1194406900000002 0.017003 0.002003 0.017208
14920 -2.4468102000000003 9.26857629 2.14294545 0.019117 -0.002266 0.017228
14940 -2.4584841 9.25554861 2.12826969 0.023394 -0.002272 0.015121
14960 -2.41942068 9.24851484 2.12034321 0.020203 -0.005436 0.009762
14980 -2.35894203 9.258246360000001 2.114055 0.024423 -0.020347 0.005538
15000 -2.3424808500000003 9.25450875 2.14399512 0.029685000000000007 -0.049077 -0.007206999999999998
15020 -2.3543019000000003 9.277856550000001 2.12422797 0.025427 -0.037382 0.002362
15040 -2.38349646 9.29148264 2.0996833500000003 0.02005 -0.050134 -0.0008640000000000001
15060 -2.32586271 9.29492595 2.06839926 0.030666 -0.06295 -0.001842
15080 -2.29113531 9.35405082 1.9976004900000002 0.036134 -0.033141000000000004 -0.001842
15100 -2.32660827 9.393869610000001 1.93427694 0.026619 -0.025604 -0.013668
15120 -2.3613356700000003 9.47844162 1.9031399999999998 0.021246 -0.035169 -0.014762
15140 -2.412534060000001 9.46720917 1.9610680500000002 0.01053 -0.035174000000000004 -0.004154
15160 -2.46537072 9.36991359 1.9839744000000001 0.0125 -0.075644 -0.008362
15180 -2.39576877 9.31348647 2.00283903 0.028163 -0.159822 -0.01669
15200 -2.3716656 9.302106870000001 1.98906579 0.044094 -0.182223 -0.022959
15220 -2.33289648 9.295671510000002 1.9717020900000002 0.06349400000000001 -0.138614 -0.02288
15240 -2.33918469 9.29072727 1.97020116 0.071216 -0.077937 -0.018631
15260 -2.3568525 9.34341678 1.9561336200000001 0.058586 -0.03636 -0.015568
15280 -2.40474492 9.339227910000002 1.9567320300000002 0.035115 -0.026729000000000003 -0.00613
15300 -2.45040066 9.345516120000001 1.94805018 0.021275 -0.011801 0.0023
15320 -2.4182238600000003 9.327406860000002 1.96451136 0.018141 0.008429 0.007593000000000002
15340 -2.4002617500000003 9.32800527 2.0014852500000004 0.009726 0.040395 0.012835
15360 -2.27676366 9.37889955 2.03082696 0.003378 0.053197 0.013841999999999998
15380 -2.41133724 9.321412950000001 2.00688075 0.00233 0.055339 0.011696
15400 -2.4417188100000002 9.28953045 1.94685336 0.000153 0.037271 0.003158
15420 -2.43752994 9.274560390000001 1.9755868500000002 0.005401 0.0074680000000000015 -0.007449
15440 -2.41552611 9.30450051 2.0071750500000003 0.011712 -0.022343 -0.016981
15460 -2.28574962 9.37650591 2.0622582 0.021601 0.059576 0.001143
15480 -2.1661461 9.426644820000002 2.07902349 0.006573999999999999 0.044693 0.006398
15500 -2.1634483500000004 9.47110374 2.0926495800000002 0.014984 0.011661 0.001158
15520 -2.21285151 9.47260467 2.04235371 0.009688 0.01808 -0.001024
15540 -2.336791050000001 9.402394500000002 1.93891707 0.015099 0.031923 -0.004208
15560 -2.4294465 9.334136520000001 1.90553364 0.01619 0.039367 -0.002074
15580 -2.5563879 9.258844770000001 2.03232789 0.014071 0.046815 0.002175
15600 -2.5768908000000006 9.170682300000001 2.2122531 0.008745999999999999 0.051086 0.004268999999999999
15620 -2.5273404900000003 9.151366410000001 2.26418724 0.008717 0.043633 0.00321
15640 -2.50638633 9.17277183 2.2371018300000003 0.008684 0.032993 1.8e-05
15660 -2.48947389 9.24417882 2.13546042 0.010721 0.001071 -0.010609
15680 -2.49785163 9.28503747 2.0688505200000002 0.016013 -0.012779 -0.014827000000000003
15700 -2.4544423799999997 9.29956608 2.02963014 0.016022 -0.003222 -0.007362
15720 -2.42870094 9.32052024 2.03352471 0.011769 0.010599 0.003273
15740 -2.4255519300000006 9.38847411 2.00328048 0.002196 0.019146 0.005332
15760 -2.43962928 9.36692154 1.92260304 -0.000985 0.022357 0.004237
15780 -2.5144697700000003 9.4920579 1.8173711700000001 -0.002033 0.023439 0.001024
15800 -2.2132929600000004 9.29940912 1.95388713 0.001206 0.030889 -3.1e-05
15820 -2.33349489 9.385030800000001 1.9261935000000001 0.001311 0.056447 0.002073
15840 -2.4081882300000004 9.34192566 1.94999256 -0.008237999999999999 0.074564 0.008393000000000001
15860 -2.41402518 9.33518619 1.9390642200000001 -0.013644 0.059665 0.009442
15880 -2.4462117900000004 9.337736790000001 1.92110211 -0.010534 0.037292 0.007356
15900 -2.4530984100000004 9.318420900000001 1.9535830200000002 -0.01051 0.041557 0.006283
15920 -2.40280254 9.31512474 2.00208366 -0.006195 0.050073 0.004164999999999999
15940 -2.40175287 9.29776104 2.0231947800000003 -0.001928 0.048997000000000006 0.003128
15960 -2.3667311700000004 9.31932342 2.0279820600000003 -0.006185 0.054325 0.006297
15980 -2.3772082500000002 9.36632313 2.01989862 -0.00941 0.047949 0.005214
16000 -2.36687832 9.370816110000002 1.9336785300000001 -0.011558 0.042639 0.003069
16020 -2.31688656 9.373209750000001 1.8796450500000002 -0.008348000000000001 0.045819 0.004156
16040 -2.25880155 9.37844829 1.88608041 -0.01152 0.0501 0.0019920000000000003
16060 -2.2191397200000003 9.35584605 1.9766365200000002 -0.010439 0.054353 0.003062
16080 -2.3255684100000003 9.33489189 2.05866774 -0.012563 0.06285700000000001 0.009446
16100 -2.36553435 9.30464766 2.04369768 -0.014730000000000004 0.05646900000000001 0.010507
16120 -2.4170270400000002 9.29956608 1.96436421 -0.014797 0.040494 0.009459
16140 -2.45295126 9.32456196 1.9309807800000003 -0.010491 0.043696 0.004144
16160 -2.39786811 9.32650434 1.9387699200000001 -0.001932 0.048993 0.004197
16180 -2.34008721 9.31288806 1.9754397000000001 0.004454 0.043652 0.002112
16200 -2.3267652300000004 9.33893361 1.9880161200000002 0.002311 0.044712 0.0053
16220 -2.35415475 9.35075466 1.93427694 0.001268 0.051103 0.006353
16240 -2.3770611 9.37485783 1.93322727 -0.004065999999999999 0.050061 0.005249
16260 -2.38349646 9.37814418 1.8905733900000001 -0.008357999999999999 0.045811 0.006292
16280 -2.36912481 9.39281994 1.92365271 -0.009415 0.051128 0.009483
16300 -2.3352901200000002 9.369462330000001 1.96601229 -0.012615 0.050078 0.008393000000000001
16320 -2.3628366 9.31497759 2.01241359 -0.013673 0.049029 0.005183
16340 -2.4251104800000003 9.31348647 2.03202378 -0.013644 0.055421000000000005 0.005175
16360 -2.42391366 9.36018207 2.0275308000000005 -0.012572 0.057543 0.006248
16380 -2.38843089 9.34072884 1.9872705600000002 -0.009424 0.043692 0.004151
16400 -2.3842420200000003 9.31707693 1.99191069 -0.010491 0.041574 0.00201
16420 -2.3110398 9.283095090000002 1.9956483 -0.005152 0.04156 0.0009789999999999998
16440 -2.33708535 9.302254020000001 2.02034988 -0.005162 0.043673 0.005249
16460 -2.324813040000001 9.36318393 1.9685530800000002 -0.0008849999999999998 0.043667 0.003143
16480 -2.33304363 9.39626325 1.9489428900000003 0.000168 0.039406 0.0020870000000000003
16500 -2.37765951 9.37874259 1.95149349 -0.005152 0.044743 0.00418
16520 -2.388735 9.3556989 1.9908610200000003 -0.006209 0.05006 0.0073700000000000015
16540 -2.39232546 9.33099732 1.9938530700000001 -0.006214 0.047934 0.006305
16560 -2.34487449 9.339532020000002 2.05642125 -0.007256999999999999 0.053264 0.00629
16580 -2.3599917 9.31602726 2.07513873 -0.006176 0.056455999999999985 0.006294
16600 -2.3632878600000002 9.27606132 2.08141713 -0.007281 0.048998 0.007364
16620 -2.3322980700000002 9.28115271 2.06660403 -0.008353 0.047937 0.007358
16640 -2.37675699 9.29851641 2.06930178 -0.005186 0.036225 0.003122
16660 -2.40804108 9.30464766 2.03336775 -0.002009 0.029826 0.002084
16680 -2.40849234 9.29701548 2.01286485 -0.0052 0.031968 0.002059
16700 -2.35549872 9.32815242 2.01540564 -0.000875 0.04898 0.00634
16720 -2.3321509200000006 9.35943651 1.9646683200000001 -0.003018 0.047918 0.007395
16740 -2.3682222900000003 9.3847365 1.96586514 -0.003052 0.037278 0.004204
16760 -2.3144831100000003 9.40059927 1.9591256700000002 -0.000933 0.037258 0.007423000000000002
16780 -2.32586271 9.370512000000002 1.96137216 0.000153 0.039393 0.005292
16800 -2.3309541 9.3556989 1.9681116300000001 0.002278 0.036194 0.004242
16820 -2.36373912 9.34701705 1.9699068600000003 0.001196 0.033002 0.004239
16840 -2.34382482 9.31123998 2.032170930000001 0.000134 0.035132 0.005297
16860 -2.33020854 9.32755401 2.04055848 0.00122 0.040451 0.006365999999999999
16880 -2.38409487 9.30794382 2.0399600700000002 0.00015800000000000002 0.043642 0.008491
16900 -2.4189694200000003 9.337883940000001 2.04534576 0.000153 0.041515 0.007425
16920 -2.40010479 9.34192566 2.04534576 0.002311 0.046834 0.007434
16940 -2.3192802 9.3503034 2.0127177 -0.00088 0.051098000000000005 0.009542
16960 -2.32182099 9.306599850000001 2.01600405 -0.000957 0.030871 0.006363000000000001
16980 -2.34906336 9.333989370000001 2.0311310700000003 0.002249 0.034047 0.008518000000000001
17000 -2.38094586 9.358533990000002 2.01286485 0.001244 0.04896 0.00956
17020 -2.32256655 9.354943530000002 1.9859167800000002 0.0033880000000000004 0.051083 0.009572
17040 -2.3281092 9.3212658 1.9754397000000001 -0.001971 0.043653 0.007408
17060 -2.3474152800000003 9.30031164 2.00208366 -0.004138 0.03196 0.003135
17080 -2.39711274 9.32470911 2.02603968 -0.016883000000000002 0.041605 -0.000171
17100 -2.3685264 9.334136520000001 2.01391452 -0.018012 0.016089 -0.011897
17120 -2.3373894600000003 9.35764128 2.0228906700000007 -0.009578 -0.013738 -0.019277
17140 -2.37106719 9.31856805 2.02663809 0.025418 -0.041635000000000005 0.000231
17160 -2.35221237 9.34506486 2.01331611 0.057577 0.039026 0.047354
17180 -2.37301938 9.32860368 2.04534576 0.086838 0.165589 0.073033
17200 -2.3695760700000004 9.30524607 2.0490931800000003 0.093479 0.191244 0.045273
17220 -2.35609713 9.3212658 2.04579702 0.037906 0.109656 -0.015899
17240 -2.3605901100000004 9.325758780000001 2.02768776 -0.022116 0.015188 -0.049312
17260 -2.40474492 9.32590593 2.03157252 -0.103088 0.031484 -0.058444
17280 -2.3792977800000004 9.30884634 2.032170930000001 -0.159775 -0.01513 -0.073736
17300 -2.3472681300000002 9.3070413 2.05417476 -0.16855 -0.08003400000000001 -0.085464
17320 -2.36253249 9.31542885 2.02334193 -0.14013299999999998 -0.152628 -0.071286
17340 -2.34951462 9.33204699 2.03367186 -0.101874 -0.151834 -0.036837
17360 -2.35594998 9.32650434 2.00283903 -0.04476 0.018236 0.007142
17380 -2.3905302300000004 9.34162155 2.01466008 0.005121 0.202334 0.012595
17400 -2.37989619 9.3127311 2.07468747 0.074462 0.190417 0.002413
17420 -2.37974904 9.31019031 2.042206560000001 0.150921 0.125112 0.016916999999999998
17440 -2.4298977600000002 9.32800527 2.0534292 0.16182 0.21122 0.052134
17460 -2.47315986 9.3354903 1.99475559 0.124542 0.218833 0.045455
17480 -2.46027933 9.39700881 1.94250753 0.071868 0.07861 -0.0070760000000000016
17500 -2.21359707 9.40000086 1.7741090700000002 -0.018213 -0.053055 -0.036379
17520 -1.9775390400000001 9.3907206 1.73668392 -0.084325 -0.046428 -0.037917
17540 -2.27901015 9.409585230000001 2.131713 -0.109055 -0.090014 -0.039102
17560 -2.62823634 9.302705280000001 2.45654172 -0.127115 -0.059113 -0.025381
17580 -2.83480551 9.13191318 2.7334682100000003 -0.141993 -0.025058 -0.004164
17600 -2.6289819000000003 9.08625744 2.7701379900000003 -0.104855 -0.054014 0.012155
17620 -2.2908410100000003 9.04733136 2.54111373 -0.035456 -0.028746 0.026495
17640 -2.29802193 9.21229632 2.07528588 0.035398 0.080684 0.0386
17660 -2.26628658 9.32800527 1.6807080600000002 0.088072 0.17104 0.040988
17680 -2.2008735 9.476940690000001 1.3257920699999999 0.101994 0.166794 0.025068
17700 -2.223927 9.60328368 1.17640539 0.091096 0.094479 0.00372
17720 -2.37869937 9.53861616 1.21352643 0.041665 0.008394 -0.003993
17740 -2.7024784200000003 9.54774927 1.40512554 -0.006520999999999999 -0.029792000000000006 -0.003212
17760 -2.76280011 9.52034994 1.5676870500000002 -0.03735 -0.008366 -0.006659999999999999
17780 -2.35295793 9.42979383 1.71108963 -0.062887 0.005576 -0.007923999999999999
17800 -2.0275308000000005 9.50014134 2.1582098100000007 -0.068361 -0.021054 -0.003655
17820 -2.28963438 9.262288080000001 2.68436916 -0.07369500000000001 -0.009364 0.008043000000000002
17840 -2.6271866700000004 8.93207367 2.95874505 -0.057596 0.01719 0.013463
17860 -2.5810796700000003 8.92638387 2.93120838 -0.02659 0.033057 0.014727
17880 -2.1881499300000007 9.04883229 2.7018800100000004 0.01608 0.020171 0.003291
17900 -2.0505843 9.18250335 2.23529679 0.043856 0.032841 0.007742
17920 -2.05957026 9.26288649 1.86991353 0.054616 0.06047 0.015259
17940 -2.20386555 9.386982990000002 1.6705252800000003 0.05675 0.059402 0.014207
17960 -2.34951462 9.47844162 1.45407744 0.037518 0.048833 0.009813
17980 -2.416271670000001 9.57513879 1.30723155 0.006640999999999999 0.054302 0.001045
18000 -2.48378409 9.580073220000001 1.4226462000000002 -0.016791999999999998 0.049113 -0.012999
18020 -2.5691114699999997 9.46242189 1.50721821 -0.045655 0.027942 -0.021719
18040 -2.67418638 9.45748746 1.98067824 -0.066026 0.0035210000000000007 -0.023967
18060 -2.57958855 9.27725814 2.3740592400000002 -0.069303 -0.002902 -0.013299
18080 -2.42301114 9.226658160000001 2.67389208 -0.061801 0.019382 0.00168
18100 -2.3444232300000003 9.14418549 2.68047459 -0.038254 0.046955 0.012491
18120 -2.26314738 9.158400180000001 2.51492103 -0.006368 0.017028 0.009548
18140 -2.21644197 9.22801194 2.2709267100000003 0.036149 -0.015092 0.013091
18160 -2.21673627 9.24207948 2.0341231200000003 0.072652 0.05289 0.03035
18180 -2.2721235300000004 9.26482887 1.8857763000000003 0.089962 0.11246 0.036804
18200 -2.39352228 9.281898270000001 1.7847431100000002 0.070897 0.127505 0.020628
18220 -2.53034235 9.36811836 1.71977148 0.02717 0.107511 -0.003153
18240 -2.67598161 9.45972414 1.75554855 -0.028407 0.077908 -0.01098
18260 -2.6111669400000004 9.42934257 1.8381781799999999 -0.072288 0.037619 -0.020849
18280 -2.447114310000001 9.4482072 2.05237953 -0.092807 -0.023009 -0.026256
18300 -2.43843246 9.38863107 2.2867992900000003 -0.081211 -0.043333 -0.015466999999999996
18320 -2.42735697 9.2603457 2.44635894 -0.073714 -0.016808 0.004848
18340 -2.4307904700000003 9.139241250000001 2.5159707 -0.057625 0.013982 0.016671000000000002
18360 -2.43633312 9.11813994 2.51372421 -0.018117 0.015995 0.011603
18380 -2.3685264 9.17651925 2.38768533 0.032967 -0.014002 0.009862
18400 -2.29263624 9.20361447 2.21973813 0.073594 0.019885 0.025058
18420 -2.23933851 9.215288370000001 2.0121192900000002 0.09409 0.081552 0.036872
18440 -2.25430857 9.234143190000001 1.83862944 0.095262 0.084825 0.01658
18460 -2.3373894600000003 9.32081454 1.75869756 0.070748 0.065834 -0.008136
18480 -2.47825125 9.46242189 1.7148370499999999 0.016309999999999998 0.06069400000000001 -0.007441
18500 -2.47944807 9.49056678 1.7601886800000002 -0.024313 0.045909 -0.004502
18520 -2.4277984200000002 9.47978559 1.8735039900000001 -0.054348 0.00449 -0.009999
18540 -2.45804265 9.465119640000001 2.1445935300000003 -0.06504 -0.00186 -0.011134
18560 -2.56177359 9.29581866 2.42705286 -0.072503 0.013024 0.002682
18580 -2.6643077100000006 9.10257147 2.7086194800000003 -0.070351 0.026827 0.012293
18600 -2.55204207 9.04778262 2.74603482 -0.056539 0.015056 0.013473
18620 -2.28948723 9.08640459 2.6402143500000004 -0.033149 -0.003136 0.013659
18640 -2.12467923 9.19208772 2.3088031200000003 -0.0032770000000000004 0.002065 0.019202
18660 -2.02528431 9.24686676 1.9709467200000002 0.026767000000000003 0.048798 0.027898000000000003
18680 -1.99744353 9.26393616 1.7613855 0.046048 0.063653 0.025877
18700 -2.1734839800000003 9.333989370000001 1.6561536300000002 0.06416000000000001 0.038105 0.00574
18720 -2.42106876 9.41212602 1.6458237 0.058778 0.014738 -0.007086
18740 -2.61042138 9.497149290000001 1.67487111 0.028925 0.015921 -0.010501
18760 -2.53453122 9.473948640000001 1.7880294600000002 -0.0021 -0.001024 -0.008559
18780 -2.42690571 9.45239607 1.97079957 -0.023514 -0.013749 -0.00442
18800 -2.50788726 9.43532667 2.24547957 -0.039560000000000005 -0.015854 0.002949
18820 -2.61670959 9.21978135 2.5056407700000003 -0.033101 -0.000971 0.005111
18840 -2.50609203 9.07203294 2.6753832 -0.024552 7.3e-05 0.003033
18860 -2.26209771 9.09628326 2.7333112500000003 -0.009611 -0.002097 -6.4e-05
18880 -2.1198919500000004 9.11783583 2.5866223200000005 0.0033159999999999995 0.025555 -1e-05
18900 -2.1555218700000003 9.16828866 2.35594998 0.015128 0.045741 0.003252
18920 -2.1487824000000004 9.13670046 2.1710805300000002 0.018376 0.052139 -0.001007
18940 -2.20266873 9.19268613 2.02663809 0.020457 0.03723 -0.004178
18960 -2.3376935700000003 9.26004159 1.96421706 0.018237 0.015941 -0.006302
18980 -2.4424741800000005 9.3503034 1.92125907 0.013912 0.005295 -0.004182
19000 -2.47974237 9.449551170000001 1.93607217 0.011712 -0.005367 8.9e-05
19020 -2.46268278 9.45433845 1.94056515 0.010649 -0.003237 0.001147
19040 -2.42690571 9.47829447 2.00507571 0.008607 0.021254 0.005374
19060 -2.50025508 9.43233462 2.12812254 0.015104 0.03511 -0.002076
19080 -2.52943983 9.35764128 2.2614993 0.020424 0.024469 -0.009503
19100 -2.4050490300000003 9.273961980000001 2.4128283600000002 0.015128 0.033009 -0.009551
19120 -2.2855926600000007 9.19493262 2.4989013000000004 0.014051 0.037249 -0.003154
19140 -2.2561038 9.10751571 2.49336846 0.014042 0.034057 -0.004218
19160 -2.2320104400000003 9.10017783 2.41342677 0.0173 0.044707 -0.006346
19180 -2.25176778 9.174419910000001 2.2108993200000002 0.018453 0.066 -0.004229
19200 -2.292930540000001 9.318126600000001 2.04145119 0.015315 0.076677 -0.007469
19220 -2.39562162 9.37964511 1.97948142 0.005675 0.066066 -0.009659
19240 -2.5102809 9.37470087 1.9896642 -0.003994 0.049064 -0.011841
19260 -2.47136463 9.39985371 1.97619507 -0.002999 0.040508 -0.004346
19280 -2.4478598700000003 9.40748589 2.0161610100000003 -0.007219 0.061786 0.00628
19300 -2.41342677 9.418110120000001 2.0737849500000003 -0.010367 0.07775900000000001 0.01051
19320 -2.33784072 9.373955310000001 2.14414227 -0.007147 0.079887 0.008393000000000001
19340 -2.3017595400000004 9.298359450000001 2.1990782700000002 -0.002937 0.06178400000000001 0.003105
19360 -2.2568591700000002 9.26064 2.2290183900000002 -0.001894 0.049027 -0.004349
19380 -2.2799126700000008 9.233996040000001 2.2061120400000007 -0.000851 0.038392 -0.009669
19400 -2.3601388500000002 9.26647695 2.15282412 0.010875 0.030915 -0.014919
19420 -2.38843089 9.31078872 2.07289224 0.016295 0.053254 -0.011705
19440 -2.4695694 9.33144858 2.0941407 0.0076310000000000015 0.026644 -0.009595
19460 -2.5643143800000003 9.31183839 2.14743843 0.011875 0.021303 -0.009558
19480 -2.4938099100000004 9.30854223 2.19683178 0.009798 0.044703 0.001079
19500 -2.3568525 9.31588011 2.18470662 0.005526 0.047897 0.005318
19520 -2.3858901 9.31633137 2.13111459 0.0033880000000000004 0.045778 0.004238
19540 -2.3890293000000002 9.30299958 2.0779836300000003 -0.007267 0.049011 0.004159
19560 -2.4043034700000003 9.31228965 2.0269323900000003 -0.007286 0.042628 0.002031
19580 -2.39307102 9.27142119 2.1218343300000004 -0.001947 0.043675 0.0020670000000000003
19600 -2.4022041300000003 9.211246650000001 2.18111616 -0.002947 0.060714 0.004175
19620 -2.38469328 9.255107160000001 2.1784184100000004 -0.001832 0.071363 0.004169
19640 -2.3312484 9.24537564 2.1158502300000004 -0.001841 0.069233 0.004171
19660 -2.2908410100000003 9.286234290000001 2.09429766 0.000235 0.055380999999999986 0.003135
19680 -2.34097992 9.32485626 2.08920627 0.004507 0.056431 0.003164
19700 -2.3962200300000003 9.330398910000001 2.0707929000000003 0.005651 0.076655 0.006351
19720 -2.43767709 9.33728553 2.10731553 0.002536 0.100085 0.010572
19740 -2.44157166 9.32920209 2.0824668 -0.000655 0.100104 0.008413
19760 -2.4007032 9.31064157 2.03172948 -0.0007070000000000001 0.087326 0.007361
19780 -2.42286399 9.37246419 2.04400179 -0.0018170000000000005 0.076681 0.006298
19800 -2.3474152800000003 9.31887216 2.04295212 -0.000789 0.071338 0.009517
19820 -2.37301938 9.29177694 2.08920627 0.001354 0.074522 0.010596
19840 -2.3942678400000004 9.27067563 2.04864192 0.003536 0.08516699999999999 0.010598
19860 -2.34008721 9.277552440000001 2.0651031 0.004665 0.097951 0.009521
19880 -2.3692719600000003 9.27680688 2.14414227 -0.001721 0.10223 0.010539
19900 -2.38663566 9.289834560000001 2.16719577 -0.004951 0.094789 0.009458
19920 -2.3845461300000004 9.28115271 2.2182372 -0.012428 0.09905 0.01581
19940 -2.45025351 9.31168143 2.23335441 -0.018825 0.106504 0.022165
19960 -2.4598378800000003 9.29851641 2.1791639700000003 -0.023111000000000003 0.108624 0.028541000000000007
19980 -2.4568458300000002 9.33129162 2.1743766900000003 -0.027365 0.112896 0.029574
20000 -2.4568458300000002 9.29596581 2.1844123200000003 -0.032699 0.113975 0.030604000000000006
20020 -2.4493608000000004 9.30719826 2.19383973 -0.04131 0.094839 0.028432
20040 -2.47644621 9.29686833 2.19174039 -0.04886 0.07675499999999999 0.028402
20060 -2.4819888600000004 9.270969930000001 2.16599895 -0.049984 0.062915 0.027344
20080 -2.45115603 9.25795206 2.13531327 -0.036168 0.043722 0.019988
20100 -2.40310665 9.27247086 2.1694422600000003 -0.018007 0.041558 0.01264
20120 -2.3760114300000006 9.28788237 2.16480213 -0.000842 0.05962000000000001 0.009532
20140 -2.39082453 9.26482887 2.19862701 0.025969 0.08935900000000001 0.008612999999999999
20160 -2.43423378 9.258246360000001 2.2189827600000003 0.046364 0.113802 0.005519
20180 -2.40160572 9.2751588 2.22751746 0.045283 0.109549 0.004449
20200 -2.37061593 9.29162979 2.1773687400000004 0.03658 0.074416 0.006569
20220 -2.38005315 9.27965178 2.17557351 0.026854000000000003 0.044631 0.004403
20240 -2.38558599 9.27935748 2.2040127000000003 0.025705 0.023342 0.001218
20260 -2.40459777 9.26558424 2.2498254 0.019309 0.025491 0.002239
20280 -2.42286399 9.22037976 2.29203783 0.014013 0.035092 0.003258
20300 -2.40265539 9.18220905 2.2960795500000004 0.010784 0.029773 0.0043100000000000005
20320 -2.35924614 9.20945142 2.2927833900000003 0.004378 0.027669 0.0032
20340 -2.34652257 9.25450875 2.26927863 0.001139 0.014913999999999997 -0.001079
20360 -2.35669554 9.246572460000001 2.21854131 0.004416 0.030886 -0.002145
20380 -2.32182099 9.262288080000001 2.18784582 0.002345 0.044742 -0.002177
20400 -2.32017291 9.230699880000001 2.22841998 0.00016299999999999998 0.036219 -4.5e-05
20420 -2.3144831100000003 9.20151513 2.26135215 -0.003119 0.018121 -4.5e-05
20440 -2.3185248300000003 9.186250770000001 2.25042381 -0.004243 0.005340999999999999 -3.6e-05
20460 -2.4050490300000003 9.31722408 2.21569641 -0.003191 -0.001041 -0.003226
20480 -2.4361859700000004 9.44431263 2.0694489300000005 0.002186 0.003222 -0.008535
20500 -2.4813904499999997 9.50987286 1.90523934 0.002215 0.011736 -0.006409000000000001
20520 -2.5089369300000004 9.49879737 1.7699202 0.001144 0.009613 -0.007481999999999998
20540 -2.4966548100000003 9.47529261 1.7342902800000002 0.002191 0.0074709999999999985 -0.005335
20560 -2.45804265 9.39700881 1.8468600300000002 -0.000976 0.018122 -0.002166
20580 -2.35190826 9.31123998 2.04474735 0.002234 0.018119 -0.00428
20600 -2.30026842 9.262288080000001 2.16853974 0.004354 0.014916 -0.004262
20620 -2.30295636 9.22397022 2.17932093 0.002225 0.019172 -0.001077
20640 -2.3297572800000004 9.27216675 2.12692572 9.1e-05 0.021301 0.001042
20660 -2.34801369 9.22861035 2.12767128 0.001139 0.015975 -1.3e-05
20680 -2.3760114300000006 9.227109420000001 2.11075884 0.004311 0.004267 -0.005316
20700 -2.41268121 9.22052691 2.12947632 0.006478 0.013839 -0.003177
20720 -2.4465159 9.32396355 2.1080709 0.005469 0.03087 0.001067
20740 -2.49800859 9.34865532 2.01645531 0.006492 0.018096 -0.002114
20760 -2.47675032 9.33877665 2.01675942 0.005401 0.00959 -0.005316
20780 -2.4373827900000005 9.33518619 2.01960432 0.002239 0.019184 -0.004282
20800 -2.37974904 9.302401170000001 2.0648088000000007 0.005459 0.028739 0.00107
20820 -2.33304363 9.28548873 2.0460913200000004 0.006534999999999999 0.034049 0.004275
20840 -2.35415475 9.31048461 2.01750498 0.010769 0.021272 -0.00102
20860 -2.3962200300000003 9.30420621 1.9802367900000002 0.015041999999999996 0.017018000000000002 -0.006326
20880 -2.43767709 9.330251760000001 1.96570818 0.015027 0.009578 -0.01059
20900 -2.42360955 9.33563745 2.0127177 0.019251 0.001037 -0.009481
20920 -2.430192060000001 9.342671220000001 2.0399600700000002 0.02138 -3.6e-05 -0.009465
20940 -2.4379812 9.32590593 2.0648088000000007 0.025681 0.008467 -0.008376999999999999
20960 -2.43917802 9.34132725 2.0279820600000003 0.024653 0.015931999999999998 -0.009462
20980 -2.4468102000000003 9.32635719 2.0300814000000003 0.022519 0.015939 -0.009477
21000 -2.43468504 9.333538110000001 2.03336775 0.019319 0.01595 -0.009499
21020 -2.36747673 9.31887216 2.07333369 0.016194999999999998 0.03725 -0.005276
21040 -2.36463183 9.301655610000001 2.07289224 0.00877 0.047924 -0.004273
21060 -2.4309474300000002 9.32470911 2.05957026 0.011903 0.028755000000000006 -0.008499
21080 -2.4596809200000003 9.327406860000002 2.02199796 0.00977 0.031945999999999995 -0.005314
21100 -2.42600319 9.31512474 2.0184075 0.004483 0.050044 0.002104
21120 -2.3942678400000004 9.31916646 2.08621422 -0.005085 0.06283899999999999 0.007362
21140 -2.43663723 9.32306103 2.0929438800000004 -0.007281 0.050059 0.008431000000000001
21160 -2.41148439 9.34821387 2.07483462 -0.011544 0.049018 0.006266
21180 -2.4313986900000004 9.27336357 2.0749817700000004 -0.004047 0.053261 0.004176
21200 -2.410591680000001 9.282202380000001 2.0797788600000002 -0.003994 0.067101 0.006295
21220 -2.45025351 9.28115271 2.05522443 -0.002932 0.067093 0.007370999999999998
21240 -2.47001085 9.3212658 2.04728814 -0.004033 0.057517999999999986 0.005239
21260 -2.45340252 9.36512631 2.08965753 0.000235 0.058564 0.006336
21280 -2.42106876 9.3559932 2.08636137 -0.000851 0.056428999999999986 0.008468
21300 -2.4340866300000004 9.35389386 2.0899518300000004 0.001254 0.05003 0.008490000000000001
21320 -2.4010073100000002 9.32650434 2.07289224 0.004483 0.05641 0.008505
21340 -2.40190983 9.311083020000002 2.0588148900000003 0.0044740000000000005 0.05534 0.009574
21360 -2.4758478 9.302558130000001 2.08141713 0.004454 0.048957 0.007445999999999999
21380 -2.4718060800000003 9.290580120000001 2.1255817500000003 0.006564 0.043624 0.0074680000000000015
21400 -2.4777999900000003 9.26168967 2.14174863 0.007635999999999999 0.042563 0.00534
21420 -2.43498915 9.27546291 2.13486201 0.002306 0.041525 0.003168
21440 -2.45190159 9.26947881 2.1375597600000003 0.000153 0.041515 0.007425
21460 -2.4462117900000004 9.274864500000001 2.15012637 -0.005128 0.05855700000000001 0.012708
21480 -2.44860543 9.26827218 2.1306731400000003 -0.010501 0.051115 0.013748
21500 -2.39277672 9.22636386 2.15612028 -0.011592 0.045792 0.013747
21520 -2.40190983 9.22097817 2.19697893 -0.01585 0.047937 0.013715
21540 -2.42899524 9.26333775 2.2050623700000003 -0.015859 0.040502 0.008383
21560 -2.44860543 9.273814830000001 2.1731798700000002 -0.012702 0.034086 0.011618
21580 -2.43767709 9.31033746 2.08081872 -0.010554 0.041519 0.015896
21600 -2.4307904700000003 9.31916646 2.07827793 -0.000942 0.044677 0.017028
21620 -2.430192060000001 9.3127311 2.09130561 0.007612000000000002 0.044664 0.012815
21640 -2.44531908 9.281594160000001 2.10731553 0.010808 0.039343 0.008570999999999999
21660 -2.410591680000001 9.27635562 2.13216426 0.011865 0.037209 0.008581
21680 -2.38244679 9.290432970000001 2.10432348 0.0065260000000000006 0.042529 0.014946
21700 -2.40804108 9.2982123 2.07947475 0.001134 0.030825 0.015992
21720 -2.41851816 9.315576 2.05163397 -0.002062 0.03084 0.014901
21740 -2.4141821400000003 9.29237535 2.09219832 0.000134 0.044681 0.014899
21760 -2.42360955 9.28429191 2.07468747 -0.000889 0.053212 0.013812
21780 -2.430192060000001 9.30914064 2.1016257300000003 -0.003057 0.04364 0.011673
21800 -2.4427684800000002 9.33997347 2.067948 -0.005205 0.03833 0.009529
21820 -2.4339394800000003 9.30315654 2.09728971 -0.008386 0.046846 0.013768
21840 -2.4255519300000006 9.2432763 2.09504322 -0.008381999999999999 0.048972 0.014834
21860 -2.41762545 9.20929446 2.10911076 -0.004079999999999999 0.055353 0.013787
21880 -2.43064332 9.226815120000001 2.1019298400000004 -0.002961 0.066006 0.012713
21900 -2.39112864 9.262592190000001 2.10222414 -0.007214 0.068156 0.011613
21920 -2.40490188 9.32006898 2.09638719 -0.0083 0.06602100000000001 0.013744
21940 -2.42451207 9.30060594 2.06361198 -0.011529 0.056457000000000014 0.010529
21960 -2.4498022500000003 9.301655610000001 2.0348686800000007 -0.006219 0.04899 0.008440000000000001
21980 -2.4263073 9.34341678 2.00807757 -0.006181 0.059635 0.010563
22000 -2.428249680000001 9.38593332 1.92320145 -0.005104 0.06388300000000001 0.012701
22020 -2.45340252 9.407790000000002 1.8691581600000002 -0.000851 0.056428999999999986 0.008468
22040 -2.43573471 9.40434669 1.88068491 -0.005104 0.058578 0.007367
22060 -2.43498915 9.34446645 1.94850144 -0.01152 0.057527 0.00946
22080 -2.39741685 9.30540303 2.03831199 -0.009381 0.057524 0.008407
22100 -2.37301938 9.26842914 2.08516455 -0.008295 0.061781 0.008409
22120 -2.4234624 9.29596581 2.07394191 -0.006161 0.06389600000000001 0.010557
22140 -2.4322914 9.306747 2.0251371600000003 -0.007209 0.07134299999999999 0.013745
22160 -2.4358818600000003 9.318126600000001 2.0303757 -0.004018 0.06708 0.011636
22180 -2.428249680000001 9.333989370000001 2.05837344 -0.001908 0.058563 0.008457
22200 -2.4462117900000004 9.31887216 2.06689833 -0.001918 0.055371 0.007393
22220 -2.40954201 9.30464766 2.10926772 -0.004047 0.058566 0.009511
22240 -2.4025082400000004 9.30719826 2.0959457400000003 0.002311 0.050017 0.010634
22260 -2.42136306 9.313633620000001 2.04145119 -0.00088 0.052159 0.010609
22280 -2.4266016 9.326651490000001 2.0441489400000004 0.001268 0.051103 0.006353
22300 -2.41837101 9.31602726 2.08456614 0.003407 0.053222000000000005 0.007432999999999999
22320 -2.4379812 9.31572315 2.13411645 0.003397 0.050031 0.006369
22340 -2.39486625 9.333989370000001 2.14399512 0.003378 0.046831 0.007441
22360 -2.44860543 9.30839508 2.0872638900000005 0.001225 0.042577 0.0074319999999999985
22380 -2.42181432 9.31198554 2.05957026 0.002292 0.03939 0.004238
22400 -2.3751089100000002 9.31512474 2.04429609 0.002273 0.034068 0.003177
22420 -2.39112864 9.330094800000001 2.05567569 0.002268 0.033003 0.0031780000000000003
22440 -2.4039993600000003 9.318420900000001 2.11106295 0.001187 0.029811 0.003175
22460 -2.37750255 9.28803933 2.153569680000001 -0.000957 0.024505 -3.8e-05
22480 -2.3736177900000004 9.290432970000001 2.131713 -0.008401 0.029857 -9.7e-05
22500 -2.38199553 9.270371520000001 2.0868126300000003 -0.016931 0.02883 -0.002292
22520 -2.41672293 9.297918000000001 2.0710970100000003 -0.018065 0.011798 -0.004414
22540 -2.36493594 9.34207281 2.04938748 -0.026595 0.019259 0.001926
22560 -2.3321509200000006 9.33623586 2.07454032 -0.02658 0.027760000000000003 0.007256
22580 -2.3659758 9.329947650000001 2.08322217 -0.011587 0.038369 0.005211
22600 -2.3875381800000004 9.33189003 2.10716838 0.00135 0.067091 0.004196
22620 -2.38050441 9.28863774 2.0986336800000003 0.012066 0.073462 -1e-05
22640 -2.33484867 9.28893204 2.0929438800000004 0.017353 0.059608 -0.00316
22660 -2.35085859 9.314830440000001 2.0839677300000004 0.014128 0.056415 -0.001042
22680 -2.3466697200000004 9.34536897 2.06555436 0.004517 0.055379 -3.9e-05
22700 -2.36657421 9.3212658 2.03651676 0.006606999999999999 0.046845 0.0010539999999999998
22720 -2.36778084 9.30345084 2.05148682 0.002388 0.060696000000000014 0.004212
22740 -2.36298375 9.28773522 2.09009898 -0.001971 0.043653 0.007408
22760 -2.36508309 9.298810710000001 2.0986336800000003 -0.0073430000000000014 0.03515 0.007381
22780 -2.35804932 9.30719826 2.10746268 -0.010496 0.042631 0.004145
22800 -2.36778084 9.28818648 2.08846071 -0.001923 0.045818 -0.00114
22820 -2.3543019000000003 9.31318236 2.06959608 0.003383 0.037286 -0.003229
22840 -2.34188244 9.32365944 2.06285661 0.002345 0.045803 -0.001111
22860 -2.36897766 9.28070145 2.06495595 0.004469 0.047909 0.003174
22880 -2.40744267 9.29626992 2.08411488 0.006579000000000001 0.040453 0.001062
22900 -2.39082453 9.306295740000001 2.09578878 0.0033350000000000003 0.031938 0.002119
22920 -2.37391209 9.28833363 2.11525182 0.000139 0.034076 0.0031620000000000003
22940 -2.37376494 9.25345908 2.1721302000000002 -0.003057 0.035152 0.003138
22960 -2.35789236 9.29132568 2.14743843 -0.002014 0.0277 0.001019
22980 -2.3656815 9.3272499 2.03981292 -0.003047 0.036222 0.002069
23000 -2.40370506 9.43831872 1.92664476 -0.004085 0.047922 0.007388
23020 -2.4231582900000004 9.450002430000001 1.84999923 -0.004071 0.050057 0.0063170000000000006
23040 -2.42750412 9.397460070000001 1.90254159 0.00233 0.048973 0.005295
23060 -2.461329 9.36826551 2.03666391 0.0044740000000000005 0.048974 0.003173
23080 -2.3863413600000003 9.32037309 2.16779418 0.003397 0.046848 0.003168
23100 -2.35520442 9.2751588 2.15057763 0.001225 0.039394 0.004231
23120 -2.37960189 9.24148107 2.10537315 0.001177 0.026619 0.002111
23140 -2.3254114500000003 9.223666110000002 2.11195566 0.001187 0.02875 0.002108
23160 -2.31703371 9.257795100000001 2.1275241300000003 0.002273 0.033007 0.0021100000000000003
23180 -2.32825635 9.26094411 2.1746808 0.004416 0.036191 0.003189
23200 -2.38693977 9.32920209 2.12049036 0.003368 0.039395 0.002109
23220 -2.430192060000001 9.34072884 2.05957026 0.008693000000000001 0.034063 -0.001051
23240 -2.44231722 9.370659150000002 2.0202027300000003 0.007635999999999999 0.037258 6e-06
23260 -2.3830452 9.35778843 2.00268207 0.006583 0.04258 0.002128
23280 -2.34786654 9.3070413 2.06660403 0.00444 0.040457 0.002116
23300 -2.3643375300000002 9.29312091 2.07813078 0.001249 0.039415 -0.00111
23320 -2.36912481 9.29342502 2.09399355 -0.003014 0.038373 -0.003275
23340 -2.3667311700000004 9.29746674 2.11480056 -0.00409 0.036247 -0.00328
23360 -2.38364361 9.27620847 2.11510467 -0.005123 0.04689 -9.6e-05
23380 -2.4288480900000002 9.27665973 2.11809672 -0.007305 0.038367 0.002036
23400 -2.43154584 9.283399200000002 2.1143493000000007 -0.001985 0.033031 -5.600000000000001e-05
23420 -2.40744267 9.29552436 2.07753237 0.001225 0.033027999999999995 -0.00217
23440 -2.42136306 9.31078872 2.0895005700000002 0.007612000000000002 0.029810000000000007 -0.002121
23460 -2.41567326 9.32246262 2.03262219 0.007597 0.027675 -0.001051
23480 -2.39277672 9.35150022 2.01076551 0.0076019999999999985 0.031923 0.002149
23500 -2.36987037 9.326651490000001 2.05657821 0.004392 0.029804 0.002129
23520 -2.35505727 9.29851641 2.08081872 0.004378 0.024486 -1e-06
23540 -2.3891862600000002 9.29746674 2.09683845 0.004392 0.027682 -5e-06
23560 -2.41148439 9.29492595 2.03651676 0.0044210000000000005 0.034074 -1.3e-05
23580 -2.3667311700000004 9.31707693 2.07019449 0.00123 0.038337 0.002096
23600 -2.37690414 9.33623586 2.01779928 0.000144 0.036202 0.004228
23620 -2.41942068 9.345967380000001 2.0401072200000003 0.002234 0.026607 0.004254
23640 -2.43872676 9.349410690000001 2.03636961 0.006534999999999999 0.030866 0.001074
23660 -2.4424741800000005 9.30285243 2.03546709 0.009736 0.030855 0.001097
23680 -2.39576877 9.26902755 2.0749817700000004 0.007578 0.024475 2.2e-05
23700 -2.40758982 9.273961980000001 2.09654415 0.004368 0.024478 0.002136
23720 -2.4373827900000005 9.309739050000001 2.1402477 0.002249 0.029803 0.00425
23740 -2.4179197500000003 9.32949639 2.1275241300000003 0.002258 0.030872000000000007 0.003181
23760 -2.4069914100000003 9.29851641 2.12094162 0.001206 0.033011 0.0021030000000000003
23780 -2.4025082400000004 9.265878540000001 2.09504322 -0.000913 0.035153 0.001017
23800 -2.35849077 9.29462184 2.06959608 -0.000909 0.039401 0.004215999999999999
23820 -2.35265382 9.31887216 2.0074791600000004 0.001215 0.038324 0.0053
23840 -2.37211686 9.33563745 2.02828617 0.002282 0.040443 0.007442
23860 -2.4032538000000008 9.342975330000002 2.02229226 0.003354 0.039382 0.005314
23880 -2.41447644 9.330094800000001 2.0360655000000003 0.0044210000000000005 0.04044 0.006388
23900 -2.3613356700000003 9.293572170000001 2.06076708 -0.0008849999999999998 0.047911 0.007409999999999998
23920 -2.36537739 9.27351072 2.06181675 0.000197 0.053225 0.009547
23940 -2.4078939300000006 9.27950463 2.09025594 0.000206 0.052172 0.006344
23960 -2.4025082400000004 9.30779667 2.08201554 0.00554 0.051093 0.005314
23980 -2.41867512 9.31497759 2.06375913 -0.007267 0.053255 0.008427
24000 -2.42151021 9.29656422 2.08426203 -0.004076 0.051114 0.008452
24020 -2.39172705 9.30435336 2.11794957 -0.0051140000000000005 0.05857 0.009503
24040 -2.3616397800000004 9.29656422 2.10222414 -0.004057 0.057497 0.01058
24060 -2.4029496900000002 9.31976487 2.0357712 -0.001956 0.052154 0.012738
24080 -2.3900789700000002 9.33129162 2.0181033900000003 -0.003009 0.053232 0.010593
24100 -2.40579459 9.306295740000001 2.05897185 -0.001952 0.048976 0.008468999999999999
24120 -2.40370506 9.30285243 2.0700473400000003 -0.000928 0.038323 0.007422
24140 -2.4035481 9.29686833 2.08650852 -0.001961 0.045784 0.007405
24160 -2.40310665 9.29522025 2.07454032 0.000187 0.050033 0.008483
24180 -2.42480637 9.28129986 2.0555285400000005 0.000173 0.046838 0.008487
24200 -2.4288480900000002 9.29746674 2.07019449 -0.004128 0.039396 0.008466
24220 -2.433193920000001 9.30734541 2.07213687 -0.0041 0.04897 0.011659
24240 -2.42839683 9.322168320000001 2.05163397 -0.005138 0.051122 0.0073760000000000015
24260 -2.42286399 9.302558130000001 2.00358459 -0.003081 0.030887 0.004212
24280 -2.40863949 9.32037309 2.0121192900000002 0.00112 0.022324 0.010661
24300 -2.4111900900000003 9.3010572 2.0375664300000005 0.016146999999999998 0.053122 0.021409
24320 -2.3992120800000003 9.30689415 2.0871069300000005 0.029102 0.09141 0.025723000000000003
24340 -2.4219614700000003 9.289677600000001 2.07662985 0.018448 0.092521 0.023511
24360 -2.4255519300000006 9.27890622 2.04055848 -0.008232999999999999 0.070324 0.003057
24380 -2.4557961600000002 9.309739050000001 2.07617859 -0.0297 0.025722 -0.013059
24400 -2.4060987 9.32081454 2.08007316 -0.041512 -0.008256999999999999 -0.03019
24420 -2.40190983 9.301655610000001 2.11300533 -0.030939 -0.0296 -0.030088
24440 -2.41851816 9.266182650000001 2.0570196600000004 -0.011649 0.009667 -0.009708
24460 -2.39771115 9.25764795 2.00942154 0.001354 0.076644 0.01273
24480 -2.3695760700000004 9.30420621 1.99669797 0.002508 0.093693 0.01058
24500 -2.3583436200000003 9.33982632 2.03427027 0.018242 0.025494 0.002231
24520 -2.3743633500000003 9.3386295 2.04849477 0.026825 0.04991 0.016146999999999998
24540 -2.4170270400000002 9.30868938 2.0694489300000005 0.017468 0.119126 0.030948000000000007
24560 -2.4170270400000002 9.30509892 2.06629992 0.013181 0.103209 0.019188
24580 -2.40878664 9.29731959 2.0704986 -0.007252 0.052207 0.004155
24600 -2.41028757 9.29776104 2.0660056200000003 -0.023385 0.017135 -0.002322
24620 -2.39981049 9.28848078 2.12333526 -0.024428 0.022465 -0.002336
24640 -2.38005315 9.30794382 2.10432348 -0.014716 0.045871 -0.003366
24660 -2.38843089 9.28474317 2.09683845 -0.020026 0.052277 -0.002343
24680 -2.4128283600000002 9.27171549 2.0938464 -0.016891999999999997 0.040535 0.000898
24700 -2.388735 9.31064157 2.0517811200000002 -0.010558 0.023477 -0.001172
24720 -2.3363397900000002 9.33683427 2.03276934 0.004368 0.023417 0.001069
24740 -2.2933818 9.352854 1.9904097600000001 0.011932 0.050001 0.006429000000000001
24760 -2.33829198 9.33099732 2.0540276100000003 0.013022999999999998 0.055323 0.006429000000000001
24780 -2.41402518 9.25645113 2.245028310000001 0.00333 0.035117 0.006388
24800 -2.5075831500000003 9.23698809 2.42645445 -0.004205 0.018107 0.004220000000000001
24820 -2.46043629 9.282202380000001 2.29233213 -0.003081 0.028765 0.002078
24840 -2.4092379 9.35060751 2.1218343300000004 0.001244 0.041533 0.002092
24860 -2.37017448 9.34117029 1.8968517900000001 -0.001937 0.046866000000000005 0.003131
24880 -2.31029424 9.361535850000001 1.72366605 0.001215 0.03408 0.001033
24900 -2.3779538100000006 9.29926197 1.71408168 0.004445 0.042583 0.003181
24920 -2.52809586 9.345810420000001 1.8601820100000002 0.00445 0.047892 0.007447
24940 -2.6159640299999998 9.34341678 1.95223905 0.004425999999999999 0.041505 0.006387
24960 -2.37391209 9.32829957 1.99609956 0.0076209999999999984 0.039367 0.005344
24980 -2.274968430000001 9.33129162 2.13486201 0.005488 0.041497000000000006 0.007462999999999998
25000 -2.44037484 9.28818648 2.26164645 0.002273 0.039373000000000005 0.008511
25020 -2.45280411 9.19298043 2.37989619 0.000125 0.034063 0.006367
25040 -2.3822996400000003 9.23564412 2.32017291 0.000125 0.028758 0.001032
25060 -2.2763124 9.30375495 2.1363531300000003 0.002249 0.02662 0.00105
25080 -2.28604392 9.338031090000001 1.99475559 0.002268 0.031942 0.002111
25100 -2.33753661 9.317371230000001 1.96122501 -0.000909 0.03834 0.003149
25120 -2.3682222900000003 9.30944475 1.96122501 -0.000928 0.034079000000000005 0.0031550000000000003
25140 -2.39502321 9.3446136 1.9826304300000002 -0.00199 0.035148 0.003146
25160 -2.40474492 9.37694736 1.8938597400000001 -0.003047 0.038344 0.004202
25180 -2.31777927 9.361378890000001 1.90329696 -0.000909 0.040462 0.005283
25200 -2.35505727 9.31288806 2.0658584700000002 0.000144 0.037263 0.005294
25220 -2.4059515500000006 9.30809097 2.16599895 0.000187 0.045789 0.004215999999999999
25240 -2.4020569800000002 9.305550180000001 2.2492269900000004 0.001239 0.04259 0.004227000000000001
25260 -2.39576877 9.31228965 2.1356075700000003 -0.0019760000000000003 0.038344 0.0031420000000000003
25280 -2.38738122 9.31722408 2.04025437 -0.001971 0.04047 0.004207
25300 -2.34846495 9.34237692 2.04893622 0.001249 0.04472 0.004224
25320 -2.3831923500000003 9.32905494 2.02484286 0.001263 0.045794 0.0020870000000000003
25340 -2.4131324700000003 9.31856805 1.9905569100000002 -0.005147 0.042625 0.000978
25360 -2.37541302 9.28593999 2.01166803 -0.005162 0.04049 0.002049
25380 -2.37945474 9.318420900000001 2.0660056200000003 -0.004052 0.052196000000000006 0.004178
25400 -2.3831923500000003 9.31332951 2.05777503 0.001259 0.047912 0.005289
25420 -2.37615858 9.314379180000001 2.0448945000000003 0.000201 0.047924 0.003145
25440 -2.36029581 9.3383352 2.0941407 0.000187 0.044728 0.003149
25460 -2.37945474 9.306599850000001 2.09085435 -0.001956 0.040483 0.001003
25480 -2.4004089 9.2925225 2.08965753 0.000129 0.030884 0.002098
25500 -2.44262133 9.28773522 2.0678008500000002 0.00016299999999999998 0.040463 0.004222
25520 -2.42151021 9.266182650000001 2.0580693300000004 0.002297 0.039395 0.00317
25540 -2.3751089100000002 9.30824793 2.0660056200000003 0.001254 0.043664 0.002089
25560 -2.4078939300000006 9.32037309 2.06121834 -0.001966 0.039414 0.002072
25580 -2.3915799 9.32052024 2.0755801799999998 0.001206 0.034072000000000005 0.003169
25600 -2.40385221 9.31213269 2.0713913100000005 0.003344 0.03513 0.003183
25620 -2.41327962 9.29312091 2.07918045 0.001187 0.030872000000000007 0.004242
25640 -2.4141821400000003 9.305844480000001 2.08262376 0.002254 0.030868 0.004249
25660 -2.41342677 9.314526330000001 2.04849477 0.003364 0.039391 0.0031780000000000003
25680 -2.41073883 9.318725010000001 2.0562741 0.001235 0.041525 0.004228
25700 -2.40190983 9.31722408 2.07394191 0.002287 0.038325 0.00424
25720 -2.39232546 9.28025019 2.10642282 0.002282 0.036199 0.003174
25740 -2.410591680000001 9.28848078 2.08650852 0.002278 0.034072000000000005 0.002109
25760 -2.4141821400000003 9.329947650000001 2.06375913 0.0033200000000000005 0.029803 0.00319
25780 -2.3989079700000002 9.325454670000001 2.0977409700000003 0.001196 0.035124 0.006372999999999999
25800 -2.4209118000000007 9.318420900000001 2.10042891 0.0044020000000000005 0.032996 0.003193
25820 -2.4039993600000003 9.29701548 2.0868126300000003 0.002302 0.04046 0.003169
25840 -2.4089436 9.30091005 2.05373331 0.003344 0.034069 0.002116
25860 -2.38962771 9.32351229 2.03381901 0.004416 0.034069 0.0010550000000000002
25880 -2.39981049 9.329653350000001 2.07737541 0.002273 0.033007 0.0021100000000000003
25900 -2.36702547 9.30031164 2.0827709100000003 0.004392 0.031926 0.004263
25920 -2.38289805 9.31228965 2.07992601 0.005459 0.034044 0.006404000000000001
25940 -2.37945474 9.2922282 2.06615277 0.00655 0.035123 0.002137
25960 -2.3736177900000004 9.28593999 2.06375913 0.009765 0.037246 0.001089
25980 -2.41657578 9.30944475 2.05297794 0.006564 0.037258 0.001066
26000 -2.36537739 9.334136520000001 2.07708111 0.006569 0.038323 0.001065
26020 -2.3683792500000003 9.32860368 2.0531349000000003 0.002292 0.038329 0.003172
26040 -2.37646269 9.30854223 2.06914482 0.005502 0.038327 0.001058
26060 -2.36493594 9.28833363 2.08441899 0.00444 0.037274 -0.001085
26080 -2.38993182 9.30884634 2.08561581 0.006559000000000001 0.036192 0.001068
26100 -2.40909075 9.3010572 2.059119 0.005507 0.041514 0.00319
26120 -2.42255988 9.31213269 2.05223238 0.005478 0.034061 0.002131
26140 -2.40954201 9.3298005 2.04983874 0.007617 0.03618 0.003212
26160 -2.41971498 9.32770116 2.08052442 0.008727 0.042581 6e-06
26180 -2.3779538100000006 9.30884634 2.0549301300000002 0.010851 0.039382 -0.001043
26200 -2.3572939500000003 9.31916646 2.04983874 0.008669 0.030859 0.001089
26220 -2.3773554000000003 9.318725010000001 2.0667511800000007 0.005445 0.026604000000000003 0.00214
26240 -2.3812499700000003 9.33219414 2.07034164 0.007597 0.03298 0.0042840000000000005
26260 -2.45055762 9.28744092 2.03800788 0.00975 0.036173 0.003226
26280 -2.4078939300000006 9.317675340000001 2.0657015100000002 0.008693000000000001 0.033002 -0.002118
26300 -2.44022769 9.30285243 2.07394191 0.007593000000000002 0.021305 -0.006384
26320 -2.40534333 9.2982123 2.0827709100000003 0.005411 0.012782 -0.004251
26340 -2.38094586 9.31497759 2.0736378 0.018165 0.006328 0.000119
26360 -2.3845461300000004 9.322168320000001 2.07633555 0.052224 0.013563 0.025985
26380 -2.41552611 9.32485626 2.0646518400000002 0.081451 0.13267 0.051674
26400 -2.4310945800000003 9.32260977 2.05837344 0.087073 0.191262 0.046297000000000005
26420 -2.4340866300000004 9.30031164 2.08905912 0.045532 0.16282 0.002246
26440 -2.42151021 9.30060594 2.09908494 -0.019868 0.052417999999999985 -0.037594
26460 -2.39486625 9.261836820000001 2.12931936 -0.110517 0.046399 -0.052105999999999986
26480 -2.4120828 9.3036078 2.13575472 -0.184093 0.035019 -0.072902
26500 -2.39846652 9.33279255 2.0838205800000003 -0.193116 -0.084218 -0.083494
26520 -2.41133724 9.34042473 2.0755801799999998 -0.142573 -0.255811 -0.106422
26540 -2.37900348 9.314683290000001 2.07438336 -0.093991 -0.357217 -0.097407
26560 -2.39352228 9.28129986 2.08411488 -0.054321 -0.273361 -0.056645000000000015
26580 -2.39546466 9.29103138 2.07064575 0.005109000000000001 -0.06387899999999999 -0.013769
26600 -2.37391209 9.33144858 2.0507314500000002 0.049646 0.141449 0.015121
26620 -2.40983631 9.33997347 2.0348686800000007 0.079983 0.243614 0.014133
26640 -2.40669711 9.318273750000001 2.05837344 0.073477 0.212774 0.00665
26660 -2.36553435 9.330398910000001 2.08262376 0.061247 0.097788 0.001371
26680 -2.3830452 9.314379180000001 2.07394191 0.024643 0.037143 0.014011
26700 -2.39457195 9.30150846 2.0242444500000003 -0.023495 0.02022 0.025447
26720 -2.39576877 9.33279255 2.00238777 -0.039728 -0.029796 0.026466000000000003
26740 -2.4343907400000004 9.32425785 2.01166803 -0.038819 -0.06919700000000001 0.02225
26760 -2.41867512 9.337432680000001 2.03172948 -0.025955 -0.052211 0.025523
26780 -2.41432929 9.325454670000001 2.03187663 -0.009746 -0.001155 0.030912
26800 -2.39696559 9.349253730000001 2.018250540000001 0.013769 0.010472 0.033198000000000005
26820 -2.30715504 9.32770116 1.96017534 0.031896 0.007217 0.032260000000000004
26840 -2.1788696700000005 9.31288806 2.03936166 0.043645 0.001884 0.023803
26860 -2.41567326 9.3443193 2.38888215 0.048917 -0.021532 0.014256
26880 -2.72163735 9.22501989 2.7689411700000006 0.058471 -0.031157 0.015403
26900 -2.79753732 8.89390296 2.82208194 0.057472 -0.001386 0.030313
26920 -2.4369315300000003 8.87369436 2.61850482 0.043751 0.035930000000000004 0.034443
26940 -2.22782157 9.00228384 2.2501197 0.02881 0.026429 0.025805
26960 -2.15521776 9.2372922 1.7937192600000003 0.025619 0.01796 0.015111
26980 -2.27946141 9.54774927 1.3368675600000002 0.027873 0.033974000000000004 0.004424
27000 -2.13935499 9.47095659 1.03329711 0.018386000000000003 0.06487899999999999 0.009659
27020 -2.3128448400000003 9.73275606 1.07715762 -0.007233 0.060712 0.008417000000000001
27040 -2.3890293000000002 9.67317993 1.14002991 -0.028647 0.034193 -0.001312
27060 -2.67598161 9.57963177 1.40512554 -0.047918 0.008737 -0.012096
27080 -2.8479803400000003 9.48817314 1.69207785 -0.05318 0.017307 -0.019622
27100 -2.7851080500000003 9.43622919 2.06270946 -0.047673 0.052455 -0.022833000000000003
27120 -2.6250873300000004 9.373504050000001 2.32196814 -0.046515 0.07269199999999999 -0.022851
27140 -2.43303696 9.26423046 2.4509990700000004 -0.048702 0.06310299999999999 -0.020717
27160 -2.35549872 9.17262468 2.5240541400000005 -0.043502 0.034318 -0.019576
27180 -2.34457038 9.170976600000001 2.47749588 -0.028738 0.00016 -0.015156
27200 -2.3186817900000003 9.2404314 2.30655663 0.00112 0.006409000000000001 -0.005342
27220 -2.3216738400000003 9.295367400000002 2.13890373 0.031179 0.062704 0.009751
27240 -2.33499582 9.34821387 2.02484286 0.037681 0.09354 0.018303
27260 -2.324813040000001 9.40898682 1.9998371700000002 0.042847 0.053054 0.015186000000000003
27280 -2.3050557 9.42754734 2.0061253800000003 0.045976 0.044491 0.022697
27300 -2.3785522200000004 9.39461517 2.08545885 0.026686 0.034933 0.032188
27320 -2.49920541 9.313927920000001 2.17168875 0.030843 0.006173 0.027981
27340 -2.4435140400000006 9.22980717 2.20761297 0.041608 0.018953 0.019494
27360 -2.3195745 9.239381730000002 2.29742352 0.035322000000000006 0.045602 0.020485
27380 -2.30460444 9.21364029 2.39277672 0.035269 0.037067 0.0237
27400 -2.4354306 9.174871170000001 2.45235285 0.050282 0.05406 0.023783
27420 -2.5014519 9.14538231 2.4370786800000004 0.054491 0.041261 0.023829
27440 -2.5261436700000006 9.14493105 2.4101404200000003 0.043684 0.011467 0.02486
27460 -2.40654996 9.18220905 2.4328898100000007 0.024643 0.046692 0.023613
27480 -2.2845528000000006 9.162294750000001 2.48902263 0.001513 0.121347 0.022288
27500 -2.3114910600000007 9.155260980000001 2.47435668 -0.017523 0.143844 0.0071709999999999986
27520 -2.39771115 9.155408130000001 2.35205541 -0.030464 0.094959 -0.011017
27540 -2.45280411 9.23863617 2.11330944 -0.054031 0.066309 -0.018622
27560 -2.48498091 9.273667679999999 1.94505813 -0.088104 0.08028099999999999 -0.019946
27580 -2.5056407700000003 9.31617441 1.88816994 -0.100743 0.112301 -0.024348
27600 -2.51716752 9.28489032 1.91556927 -0.102752 0.133639 -0.030799
27620 -2.4498022500000003 9.29596581 1.8949094100000001 -0.100829 0.095248 -0.022191
27640 -2.41867512 9.389229480000001 1.8516473100000002 -0.061604999999999986 0.03335 -0.028247
27660 -2.36582865 9.465119640000001 1.73144538 -0.036019 0.020512 -0.036597000000000005
27680 -2.3135904000000003 9.4541913 1.7221651200000003 0.001503 0.050251 -0.047056
27700 -2.31942735 9.4658652 1.7630335800000003 0.020568 0.022474 -0.043682
27720 -2.44262133 9.40374828 1.9730460600000002 0.02361 0.005347 -0.025479
27740 -2.4698637 9.33997347 2.1007330200000003 0.0329 -0.048014 -0.009323
27760 -2.36687832 9.27935748 2.31194232 0.037273 -0.033081 -0.017856999999999998
27780 -2.41193565 9.309591900000001 2.30759649 0.045722000000000006 -0.036371 -0.00177
27800 -2.49995097 9.26797788 2.23110792 0.037393 0.024319 0.013049000000000002
27820 -2.47854555 9.26872344 2.16494928 0.024456 -0.0044020000000000005 0.014063
27840 -2.44202292 9.309591900000001 2.1794680800000004 0.024413 -0.01399 0.014075
27860 -2.41088598 9.35704287 2.18575629 0.018017 -0.006536 0.02043
27880 -2.3733136800000008 9.327406860000002 2.30161239 0.023351 -0.005494 0.021535
27900 -2.4117885 9.28010304 2.44336689 0.03944 0.015747 0.023756
27920 -2.4683627699999997 9.15720336 2.4566888700000002 0.038546 0.047734 0.0173
27940 -2.48498091 9.123829740000001 2.43243855 0.021476 0.031879000000000005 0.001177
27960 -2.4263073 9.238783320000001 2.35385064 2.4e-05 -0.010589 -0.01601
27980 -2.3872340700000003 9.250162920000001 2.3369382 -0.027825 -0.04242 -0.023641
28000 -2.2628432700000003 9.25899192 2.23784739 -0.048138 -0.058302 -0.030172000000000008
28020 -2.19862701 9.29596581 2.139649290000001 -0.045981 -0.051923 -0.029097
28040 -2.25820314 9.27591417 2.0558228400000003 -0.040517 -0.014691 -0.02056
28060 -2.32332192 9.295671510000002 1.9350225 -0.029757 0.016122 -0.009843
28080 -2.30131809 9.321717060000001 1.84296546 -0.015802 0.020394 -0.024706
28100 -2.3553515700000003 9.43218747 1.74836763 -0.002081 -0.00419 -0.016031999999999998
28120 -2.38349646 9.42080787 1.6232214600000001 -0.0021100000000000003 -0.010581 -0.016025
28140 -2.39576877 9.446255010000002 1.5393950100000002 0.011654 -0.029822 -0.011631
28160 -2.47749588 9.412871580000001 1.78623423 0.018117 -0.007506999999999998 -0.003068
28180 -2.38783248 9.469004400000001 1.8143791200000001 0.017127 0.015907 0.003304
28200 -2.30116113 9.41018364 1.9984932000000002 0.02249 0.02334 0.0044
28220 -2.27467413 9.4917636 1.97813745 0.019271 0.025457 0.010784
28240 -2.40370506 9.23205366 2.0975840100000003 0.020237 0.006265 0.01402
28260 -2.37077289 9.334136520000001 2.05462602 0.014898 0.00628 0.015050999999999997
28280 -2.3583436200000003 9.254950200000001 2.2721235300000004 0.010669 0.018000000000000002 0.018211
28300 -2.4319971000000002 9.25675524 2.26329453 0.007492 0.02652 0.021383000000000003
28320 -2.44052199 9.250015770000001 2.29323465 8.1e-05 0.036147000000000006 0.018114
28340 -2.41358373 9.32770116 2.28515121 0.004378 0.029791 0.005334
28360 -2.39935923 9.2808486 2.21749164 0.002306 0.03622 -0.002167
28380 -2.3989079700000002 9.274864500000001 2.2001279400000002 -0.005195 0.026667000000000003 -0.004343
28400 -2.4231582900000004 9.23908743 2.26449135 -0.00842 0.025596 -9.2e-05
28420 -2.4481541700000005 9.21004983 2.3553515700000003 -0.005147 0.043686 0.002045
28440 -2.39981049 9.19103805 2.38843089 0.000254 0.066008 0.009531
28460 -2.30116113 9.2486718 2.3309541 0.009841 0.060657 0.007469
28480 -2.30730219 9.24477723 2.1514801500000003 0.021539 0.053155 0.008628
28500 -2.38050441 9.23684094 1.9760381100000002 0.019352 0.046749 0.013962
28520 -2.43049617 9.251811000000002 1.93592502 0.012922 0.05099 0.024594
28540 -2.48887548 9.418414230000002 1.8505976400000002 0.0033590000000000004 0.060607000000000015 0.025583
28560 -2.44666305 9.29581866 1.9676603700000002 0.001307 0.07447999999999999 0.021278
28580 -2.32825635 9.462274740000002 1.87305273 -0.003975 0.081972 0.016959000000000002
28600 -2.36253249 9.414372510000002 2.08351647 -0.009305 0.08305599999999999 0.016919999999999998
28620 -2.4328898100000007 9.34865532 2.0568725100000003 -0.011462 0.08092 0.020112
28640 -2.4369315300000003 9.282202380000001 2.11539897 -0.010362 0.08519 0.016909999999999998
28660 -2.4584841 9.318725010000001 2.15791551 -0.006133 0.07347000000000001 0.01375
28680 -2.4379812 9.32021613 2.19668463 0.000259 0.068134 0.010597
28700 -2.36149263 9.27635562 2.23770024 0.001354 0.073461 0.009529
28720 -2.38005315 9.19717911 2.32092828 -0.000779 0.07453 0.010581
28740 -2.4171741900000003 9.1997199 2.3088031200000003 -0.00299 0.057493 0.010588
28760 -2.4644780100000006 9.20151513 2.32017291 -0.0040950000000000005 0.047913 0.009524
28780 -2.4540009300000003 9.21199221 2.29143942 -0.001937 0.052171 0.008465
28800 -2.4237567 9.24731802 2.29008564 -0.007252 0.057512 0.00949
28820 -2.5457538600000005 9.255254310000002 2.25416142 -0.008286 0.062851 0.007339
28840 -2.53512963 9.270822780000001 2.20790727 -0.00929 0.077764 0.008381
28860 -2.4757006500000003 9.2663298 2.18425536 -0.003956 0.074562 0.005218
28880 -2.44860543 9.2723139 2.1158502300000004 -0.001822 0.074555 0.005233
28900 -2.4905235600000006 9.281898270000001 2.05373331 -0.001889 0.062824 0.008452
28920 -2.4673229100000005 9.286234290000001 2.0389104000000002 0.002292 0.044695 0.009573
28940 -2.48572647 9.30464766 2.0622582 0.000177 0.051086 0.011686
28960 -2.4569929800000003 9.298957860000002 2.1136037400000003 -0.009434 0.054294000000000016 0.016956
28980 -2.39397354 9.30944475 2.2149410400000002 -0.011611 0.037287 0.009485
29000 -2.33140536 9.28818648 2.25042381 -0.009525 0.0192 0.002045
29020 -2.40669711 9.27156834 2.2671891000000004 -0.0063100000000000005 0.01814 -0.002204
29040 -2.5274974500000003 9.22097817 2.2267719 -0.0073430000000000014 0.026662 -0.001154
29060 -2.54620512 9.22531419 2.20761297 -0.005195 0.033033 0.002058
29080 -2.46192741 9.274864500000001 2.22722316 -0.006205 0.047942 0.004168
29100 -2.40938505 9.32680845 2.1562674300000007 -0.002071 0.013856 -3.2e-05
29120 -2.3863413600000003 9.31228965 2.13800121 0.009607 0.002093 0.001133
29140 -2.41447644 9.305550180000001 2.12243274 0.017209000000000002 0.045687 0.015017
29160 -2.4255519300000006 9.32246262 2.0667511800000007 0.024806 0.087155 0.027835
29180 -2.4298977600000002 9.306148590000001 2.05029 0.026763 0.048794 0.028966
29200 -2.37001752 9.2925225 2.05926615 0.036532 0.066947 0.009783
29220 -2.3792977800000004 9.277552440000001 2.1306731400000003 -0.006161 0.058591 0.005222999999999999
29240 -2.37900348 9.28758807 2.15686584 0.011383 0.168236 0.009478
29260 -2.37017448 9.293876280000001 2.1158502300000004 -0.0177 0.093819 -0.003449
29280 -2.3932279800000003 9.30899349 2.11046454 -0.037335 -0.000926 -0.002396
29300 -2.4298977600000002 9.258697620000001 2.14983207 -0.034135000000000006 -0.000937 -0.002374
29320 -2.4755535 9.26528013 2.1399534 -0.026499 0.041626 0.002966
29340 -2.4508519200000007 9.32680845 2.12902506 0.004267 -0.008503 -0.008505
29360 -2.37989619 9.36063333 2.08157409 0.027403 -0.074665 0.00028700000000000004
29380 -2.2962267 9.3446136 2.0910015 0.036427 0.06579199999999999 0.032217
29400 -2.30460444 9.301959720000001 2.1475855800000003 0.036638 0.115846 0.035358999999999995
29420 -2.33035569 9.23609538 2.15012637 0.037633 0.072278 0.007648
29440 -2.29398021 9.22397022 2.1582098100000007 -0.004061 0.040516 -0.0054210000000000005
29460 -2.32287066 9.277552440000001 2.1463887600000002 -0.01596 0.0032770000000000004 -0.006525
29480 -2.3992120800000003 9.29327787 2.114055 -0.024452 0.012894 -0.006597
29500 -2.41942068 9.317822490000001 2.07289224 -0.024432 0.022461 -0.001268
29520 -2.38948056 9.34386804 2.05761807 -0.014768 0.037336 -0.000151
29540 -2.40669711 9.33638301 2.04280497 0.00222 0.015984 -0.00321
29560 -2.33289648 9.333538110000001 2.05897185 0.02139 0.014826 0.0033350000000000003
29580 -2.38857804 9.31048461 2.1338123400000004 0.038642 0.067979 0.016206
29600 -2.4101404200000003 9.32770116 2.11315248 0.040881 0.089285 0.014058
29620 -2.36253249 9.34417215 2.07693396 0.024754 0.052095 0.004379
29640 -2.26449135 9.298957860000002 2.13830532 4.3e-05 0.008526 -0.001079
29660 -2.33035569 9.27336357 2.21165469 -0.011716 0.006423999999999999 0.002046
29680 -2.4369315300000003 9.30031164 2.21449959 -0.01162 0.026668 0.000953
29700 -2.4191165700000004 9.27725814 2.20625919 -0.008324 0.052206 0.005215999999999999
29720 -2.4111900900000003 9.29447469 2.10926772 -0.005123 0.055378 0.008439
29740 -2.42406081 9.06200712 2.3981624100000003 0.005445 0.030848 0.006408
29760 -2.49186753 9.249711660000001 2.35879488 0.017204 0.035073 0.005416
29780 -2.3047614000000003 9.28025019 2.2073088600000004 0.02151 0.041458 0.003302
29800 -2.22257322 9.32052024 2.00059254 0.020395 0.025504 -0.002027
29820 -2.31583689 9.37156167 1.8884740500000001 0.010731 0.011689 -0.002076
29840 -2.41103313 9.421406280000001 1.9031399999999998 0.002119 0.002102 0.005353
29860 -2.28948723 9.3967047 1.8166256100000002 -0.002081 0.018091 0.006372
29880 -2.1603091500000002 9.34477056 2.05732377 0.000153 0.038332 0.004225
29900 -2.4966548100000003 9.27606132 2.25341586 -0.006205 0.046881 0.003101
29920 -2.70218412 9.13011795 2.43633312 -0.003038 0.038352 0.002066
29940 -2.55862458 9.20749923 2.5390242 0.001215 0.035141000000000006 0.0021
29960 -2.30895027 9.239381730000002 2.3692719600000003 0.007617 0.034058 0.001078
29980 -2.22048369 9.31078872 2.1594066300000003 0.014051 0.039371 -0.001021
30000 -2.24338023 9.32320818 1.9676603700000002 0.015069999999999997 0.028714 -0.001
30020 -2.35415475 9.38249001 1.9420660800000002 0.008645 0.02341 -0.001038
30040 -2.37765951 9.341474400000001 1.84341672 0.0033060000000000003 0.022364 -0.001074
30060 -2.38005315 9.36467505 1.8332339400000002 0.0033060000000000003 0.020242 -0.003208
30080 -2.31433596 9.3503034 1.96586514 0.0065450000000000005 0.027692 -0.004263
30100 -2.43379233 9.30809097 2.1465359100000003 0.00443 0.036204 -1.5e-05
30120 -2.48258727 9.23534982 2.3863413600000003 0.003378 0.038343 -0.001094
30140 -2.4620843700000004 9.230405580000001 2.42031339 0.002316 0.03729 -0.003236
30160 -2.35789236 9.26453457 2.3063996700000002 0.004464 0.036234 -0.007493
30180 -2.38244679 9.261993780000001 2.08486044 -0.000866 0.038379 -0.006465
30200 -2.3444232300000003 9.27336357 1.98846738 -0.003076 0.023464 -0.004324000000000001
30220 -2.33829198 9.32021613 2.0155626 -0.002 0.030896 0.001015
30240 -2.38648851 9.3759075 1.98172791 -0.0030280000000000003 0.041544 0.00313
30260 -2.37391209 9.37500498 1.95178779 0.002311 0.041529 0.002099
30280 -2.4050490300000003 9.34506486 2.0187018 0.003392 0.044721 0.0021030000000000003
30300 -2.4381283500000004 9.29431773 2.1490767 0.005545 0.048975 0.002112
30320 -2.36553435 9.24566994 2.24547957 0.00333 0.02769 -0.00108
30340 -2.3215266900000002 9.25659828 2.24966844 0.0043630000000000006 0.022351 0.00107
30360 -2.3716656 9.26543709 2.18455947 0.0033200000000000005 0.029803 0.00319
30380 -2.4538439700000003 9.25031007 2.1278282400000004 0.004416 0.036191 0.003189
30400 -2.46192741 9.30000753 2.1465359100000003 0.0076209999999999984 0.03194 -0.002124
