time Ax Ay Az Gx Gy Gz
20 -0.14400099 9.708662700000001 -0.69814827 -0.072116 0.6815829999999999 0.110786
40 -0.38634723000000004 9.81434583 -0.66911067 -0.061994000000000014 0.582386 0.133417
60 -0.77972823 9.752523210000001 -0.35730963 -0.066115 0.429856 0.185926
80 -1.2766930200000002 9.74234043 -0.36508896 -0.048654 0.140599 0.046482
100 -1.4365665900000002 9.84622833 -0.45056349000000007 0.047412 0.111659 0.007666
120 -1.61589339 10.00369845 -0.86221071 0.020817 0.147894 0.026661
140 -1.12027257 9.83963601 -0.93271518 -0.009717 0.023273 0.049041
160 -0.58662819 10.026447840000001 0.25880742 -0.031653 -0.111932 0.046924
180 -0.9334607400000001 9.73036242 -0.01466595 -0.050665 -0.062888 0.053138
200 -0.8496342900000001 9.71704044 -0.65309094 -0.040526 0.039412 0.035986000000000004
220 -0.030832830000000002 9.75880161 -0.75846996 -0.015513999999999997 0.118262 0.009354
240 0.9038247300000001 9.948016890000002 -0.46373832000000004 0.012999 0.033020999999999995 -0.010634
260 1.37159496 10.471478490000003 -0.07858791000000001 0.042905 0.044618 -0.006167
280 0.13217994000000002 10.08033417 0.6450075000000001 0.027964 0.053153 0.003332
300 -0.79439418 9.55148688 0.54441576 -0.022227 0.042676 0.002995
320 -0.20731473 9.76374585 -0.50131062 -0.045659 0.044914 -0.003581000000000001
340 -0.021552570000000004 9.691750260000001 -0.28889469 -0.022418 -0.019033 -0.016156
360 -0.20597076000000003 9.82526436 -0.35820234 0.012898 0.014895 -0.006338
380 -0.06556023 9.926611470000001 -0.6497947800000001 0.023677 0.046785 0.001174
400 0.07424208000000002 9.88424208 -0.5652227700000001 0.00222 0.01174 -0.007476999999999998
420 0.12573477 9.918371070000001 -0.48783168000000005 -0.020352 -0.04032 -0.022523
440 -0.01018278 9.96074046 -0.21345579 -0.009933 -0.114849 -0.041583
460 -0.36838512000000007 9.98258733 -0.38185425 0.004591 -0.187416 -0.02216
480 -0.29474145 9.94936086 -0.5333402700000001 0.016221 -0.190733 -0.001779
500 -0.17573634 9.75491685 -0.37212273 0.023637 -0.204599 -0.003846
520 -0.27317907 9.80940159 -0.18456534000000002 0.015236 -0.16731500000000002 0.003525
540 -0.32901759 9.92226564 -0.10448631000000001 0.000434 -0.133192 0.0076510000000000015
560 -0.38874087000000007 10.04725485 -0.10193571 -0.017616 -0.145784 -0.024505
580 -0.25925868 9.94636881 -0.52556094 -0.020711 -0.15735 -0.059763
600 -0.16406244 9.874814670000001 -0.51867432 -0.014339 -0.155276 -0.051176
620 -0.05852646 9.82990449 -0.54426861 -0.022946 -0.150005 -0.029878
640 0.07244685 9.88648857 -0.6102801 -0.02395 -0.124481 -0.018168
660 0.047902230000000004 9.92181438 -0.38888802 -0.018458 -0.090407 -0.019241
680 0.033383430000000006 10.003992750000002 -0.5975565300000001 0.008281 -0.081953 -0.025474
700 -0.05627997 10.02555513 -0.54756477 0.018026 -0.045785 -0.02118
720 -0.16615197 9.895023270000001 -0.45475236 0.001014 -0.018088 -0.006379
740 -0.34248672 9.7869465 -0.3097017 -0.030862 0.017152 -0.000238
760 -0.40685013000000003 9.74503818 -0.23845167 -0.052921 0.08332 -0.011159
780 -0.47646189000000005 9.79069392 -0.13651596 -0.032488 0.119468 -0.011062
800 -0.42556761000000004 9.93603888 -0.22123512000000004 -0.013073 0.17794300000000002 0.000749
820 -0.38604312 9.98139051 -0.31658832000000003 -0.018115 0.241882 -0.000436
840 -0.37168128 9.90100737 -0.36254817 -0.046705 0.28885900000000003 -0.001765
860 -0.40296537000000004 9.880504470000002 -0.29173959000000005 -0.054269000000000005 0.25803000000000004 -0.011392
880 -0.51537816 9.89157996 -0.25896438000000005 -0.043744 0.22073 -0.016612000000000002
900 -0.60054858 9.89576883 -0.24414147 -0.015116 0.196069 -0.001425
920 -0.58184091 9.89337519 -0.22467843 -0.004692 0.14064200000000002 -0.002349
940 -0.54292464 9.895621680000001 -0.07334936999999998 -0.016503999999999998 0.107724 -0.018413
960 -0.70728138 9.808499070000002 0.04759812000000001 -0.024102 0.077927 -0.019496
980 -0.79020531 9.821075490000002 0.08442486000000002 0.013932 0.007434 -0.006322
1000 -0.8195470199999999 10.050099750000001 0.046107 0.060615 -0.038583 0.005814
1020 -0.75578202 9.883496520000001 -0.16435674 0.075623 -0.031145 -0.002637
1040 -0.63587439 9.90655002 -0.25746345000000004 0.048157 0.025428 -0.007174
1060 -0.4837899600000001 9.884840490000002 -0.17858124000000003 -0.015639 0.06404 -0.017283
1080 -0.3752717400000001 9.81194238 -0.1329255 -0.022279 -0.001933 -0.030063
1100 -0.30342330000000006 9.94666311 -0.29548701 0.005248 -0.036169 -0.017009
1120 -0.24938001 9.94217994 -0.38649438 0.022495 0.019101 -0.000936
1140 -0.29578131 9.94771278 -0.6114769200000002 -0.008281 0.05755 0.000937
1160 -0.03367773 9.86478885 -0.54097245 -0.013452 0.081055 -0.011948
1180 -0.025143030000000004 9.86897772 -0.26375166 -0.002683 0.110816 -0.004434
1200 -0.11181438 10.15503732 -0.22992678000000003 0.006996 0.134192 0.002013
1220 -0.33246090000000006 10.055338290000002 -0.33560010000000007 0.011388 0.156569 -0.003326
1240 -0.42541065000000006 9.81059841 -0.30386475 -0.010897 0.190706 0.003952000000000001
1260 -0.37587015 9.755368110000001 -0.28785483 -0.04927 0.206785 0.01221
1280 -0.31000581 9.6654006 0.04221243000000001 -0.060154 0.150398 0.00366
1300 -0.40744854 9.85445892 0.25671789 -0.044305 0.108826 -0.003654
1320 -0.54517113 9.981988920000001 -0.04565574000000001 -0.026183 0.104506 -0.00459
1340 -0.68018616 10.042918830000001 -0.21914559000000003 -0.014438 0.118267 0.007225
1360 -0.63572724 9.84008727 -0.26824464000000003 -0.023991 0.138502 0.016746
1380 -0.55235205 9.80655669 0.03847482 -0.034646 0.148101 0.023069
1400 -0.6709058999999999 9.905206050000002 -0.04969746 -0.012419 0.101181 0.015806999999999998
1420 -0.71042058 9.850711500000001 -0.1417545 0.00899 0.112841 0.011669
1440 -0.69276258 9.887842350000001 -0.29309337 0.014397 0.130924 0.01382
1460 -0.48962690999999997 10.002197520000001 -0.42870681 0.001738 0.17778 0.028626
1480 -0.34442910000000004 9.83679111 -0.19459116000000004 -0.004793 0.149041 0.028618
1500 -0.48319155 9.80940159 -0.051796800000000004 0.002546 0.109642 0.018037
1520 -0.59322051 9.851015610000001 -0.19339434 0.015344 0.107471 0.017061
1540 -0.51642783 9.895023270000001 -0.35640711 0.021663 0.0904 0.018195
1560 -0.36479466 9.96942231 -0.49427685 0.011033 0.107448 0.026645
1580 -0.35176698 9.907746840000001 -0.47211606000000006 0.002407 0.088299 0.027677
1600 -0.39173292000000004 9.885291750000002 -0.15402681000000001 0.006506999999999999 0.044634 0.021353
1620 -0.46089342000000005 9.883947779999998 -0.18471249 0.003421 0.065967 0.017031
1640 -0.45849978 9.90580446 -0.36688419000000005 0.001239 0.052139 0.013829
1660 -0.39952206 9.938285370000001 -0.4252635 -0.004047 0.063871 0.014845
1680 -0.34652844000000005 9.94591755 -0.37137717000000003 -0.011549 0.062806 0.021203
1700 -0.35131572000000005 9.8478666 -0.20118348 0.000101 0.035102999999999995 0.012774
1720 -0.42586191 9.88110288 -0.25267617 0.002215 0.027651 0.009594
1740 -0.37436922000000006 9.914633460000001 -0.393381 0.011851 0.03083 0.005384000000000001
1760 -0.28785483 9.926758620000001 -0.43544628 0.007593000000000002 0.03722 0.009619
1780 -0.173637 9.939335040000001 -0.36329373000000004 0.01186 0.039327 0.011783
1800 -0.35655426000000007 9.89412075 -0.2282787 0.020347 0.029705 0.012923
1820 -0.40954788000000003 9.87601149 -0.18741024 0.0075689999999999985 0.027649 0.005359
1840 -0.37182843 9.859246200000001 -0.2951829 0.012865 0.016987000000000002 0.003273
1860 -0.31330197000000004 9.89667135 -0.28276344 0.005435 0.024474 0.002143
1880 -0.31165389 9.92152008 -0.26375166 -0.009563 0.0128 0.00419
1900 -0.37018035000000005 9.92720988 -0.18441819 -0.001033 0.008522 0.00105
1920 -0.39772683000000003 9.87496182 -0.19714176 0.012874000000000002 0.013812 -0.002064
1940 -0.3715243200000001 9.88454619 -0.24818319 0.022466 0.014831 0.001206
1960 -0.32677110000000004 9.890834400000001 -0.33440328 0.012869 0.013808 -0.000996
1980 -0.29249496 9.916879950000002 -0.34159401 -0.008549 -0.003166 -5.600000000000001e-05
2000 -0.30611124000000006 9.875864340000001 -0.21749751 -0.013888 -0.004213000000000001 -9.2e-05
2020 -0.33081282000000006 9.887391090000001 -0.21316148999999998 0.006416 0.003173 4.1e-05
2040 -0.34308513000000007 9.883202220000001 -0.2555210700000001 0.021424 0.0191 0.000125
2060 -0.34188831000000003 9.89337519 -0.29054277 0.014984 0.008478 -0.002043
2080 -0.29054277 9.881397179999999 -0.33455042999999995 0.003244 0.010637 0.001077
2100 -0.30670965 9.886635720000003 -0.32063004 -0.004243 0.012768 0.0074319999999999985
2120 -0.31898196000000006 9.889333470000002 -0.20702043 0.003225 0.007437 0.002149
2140 -0.3379937400000001 9.950410530000001 -0.27393444 0.013932 0.014861 0.001146
2160 -0.36583452 9.89816247 -0.26794053 0.012913 0.027639 0.003259
2180 -0.35776089000000005 9.886939830000001 -0.35625996000000004 -0.004128 0.039396 0.008466
2200 -0.35071731 9.864033480000002 -0.3210813 -0.015874 0.033062 0.00412
2220 -0.34967745000000006 9.883496520000001 -0.19833858000000001 9.1e-05 0.025545 0.005309
2240 -0.40864536 9.88724394 -0.19819143 0.010803 0.039339 0.009639
2260 -0.42661728 9.93185001 -0.28829628 0.012975 0.046793 0.008576
2280 -0.40220999999999996 9.910287630000001 -0.31644117000000005 -0.014711000000000004 0.062852 0.012635
2300 -0.36419625 9.86223825 -0.34174116 -0.039249 0.059754 0.009263
2320 -0.36389214000000003 9.87301944 -0.26659656 -0.023318 0.039476 0.005128
2340 -0.41957370000000005 9.873765 -0.26539974000000005 0.009856 0.059608 0.003197
2360 -0.41658165 9.88380063 -0.33380487 0.029098 0.06700199999999999 0.002254
2380 -0.39292974 9.90460764 -0.38544471 0.008799 0.06386499999999999 0.005321
2400 -0.36778670999999996 9.87047865 -0.4167288 -0.019992 0.070344 0.008316
2420 -0.3529638 9.84622833 -0.29503575000000004 -0.022208 0.051181 0.007256999999999999
2440 -0.3924882900000001 9.89831943 -0.22348161 0.000168 0.040467 0.003154
2460 -0.39218418 9.964330920000002 -0.33036156 0.020467 0.045727 0.002221
2480 -0.3873969 9.911043 -0.32586858 0.018338 0.058471 0.01394
2500 -0.37496763 9.87361785 -0.38754405000000003 -0.013692 0.054317 0.01479
2520 -0.33844500000000005 9.80490861 -0.23216346000000002 -0.032948000000000005 0.033117 0.005069
2540 -0.38319822000000003 9.864631890000002 -0.04550859 -0.024384 0.039479 0.00512
2560 -0.44427528000000005 9.92616021 -0.18306441 0.001273 0.050047 0.004218
2580 -0.45310428 10.015225200000001 -0.29922462000000005 0.012946 0.036157 0.0043170000000000005
2600 -0.38604312 9.94682007 -0.40146444000000003 -0.013638999999999998 0.055425 0.004107
2620 -0.32602554 9.77617512 -0.35805518999999997 -0.039287 0.048049 0.006072999999999999
2640 -0.25177365 9.833347799999999 -0.21195486000000002 -0.029748 0.032045 0.004024
2660 -0.36748260000000005 9.901311480000002 -0.23531247000000002 0.003296 0.019172 -0.002138
2680 -0.41509053000000007 9.96447807 -0.40864536 0.016199 0.040437 -0.003143
2700 -0.34652844000000005 9.954746550000001 -0.46867275 -0.000842 0.056437 0.006331
2720 -0.28305774 9.938883780000001 -0.40820391000000006 -0.020103 0.044782 0.00728
2740 -0.3469797 9.81464013 -0.09011466 -0.01063 0.008559 -8.499999999999999e-05
2760 -0.38200140000000005 9.816739470000002 -0.1707921 0.009712 0.025529 0.001103
2780 -0.36508896 9.954452250000001 -0.1704978 0.016184999999999998 0.043607 0.003262
2800 -0.3700332 9.95055768 -0.27737775000000003 0.004416 0.037252 0.004256
2820 -0.36927783000000003 9.907148430000001 -0.47226321000000004 -0.007406 0.017058 0.003131
2840 -0.32586858 9.81059841 -0.31838355 -0.003119 0.019182 0.001022
2860 -0.31449879 9.83185668 -0.11675862 0.00975 0.031929 -0.001041
2880 -0.37077876000000004 9.92047041 -0.14235291 0.017199000000000002 0.028702 8.3e-05
2900 -0.43829118000000006 9.98767872 -0.30670965 -0.000947 0.030879000000000007 0.004227000000000001
2920 -0.38245266 9.9025083 -0.39488193 -0.014835 0.026667000000000003 0.004135
2940 -0.29054277 9.81793629 -0.36927783000000003 -0.014816 0.024562 -0.002271
2960 -0.31584275999999994 9.85431177 -0.13741848 0.004411 0.02876 -0.003211
2980 -0.3876912 9.901311480000002 -0.21031659 0.012951 0.029795 -0.003152
3000 -0.36688419000000005 9.968225490000002 -0.33710102999999997 -0.004143 0.027712 -6.4e-05
3020 -0.34174116 9.95833701 -0.33006726 -0.014807 0.028814 -0.00014
3040 -0.30416886 9.824822910000002 -0.29159244 -0.006267 0.026667000000000003 -0.003283
3060 -0.36269532000000004 9.83080701 -0.20656917 0.005488 0.028765 -0.00534
3080 -0.36927783000000003 9.91208286 -0.23905008000000003 0.009784 0.03408 -0.006385
3100 -0.3634408800000001 9.952205759999998 -0.2945844900000001 -0.0008990000000000002 0.035166 -0.002188
3120 -0.35221824000000007 9.95878827 -0.39263544 -0.010491 0.043696 0.004144
3140 -0.30237363000000006 9.86867361 -0.32827203 -0.010506 0.036256 -0.00012
3160 -0.33365772000000005 9.82197801 -0.12005478000000001 0.0065980000000000006 0.04047 -0.00321
3180 -0.40311252 9.887391090000001 -0.15866694 0.015152 0.046824 -0.001022
3200 -0.39038895 9.927504180000001 -0.29129814000000004 -0.005143 0.040507 -0.002224
3220 -0.3469797 9.91867518 -0.3752717400000001 -0.018988 0.050126 0.00194
3240 -0.32887044 9.887842350000001 -0.28126251 -0.016801 0.058653 -0.001261
3260 -0.34368354000000007 9.83379906 -0.17872839 0.002311 0.04259 0.003166
3280 -0.4107447 9.877061160000002 -0.14909238 0.017271 0.045742000000000005 0.00113
3300 -0.38948643000000005 9.938138219999999 -0.26824464000000003 0.008736 0.047894 0.003204
3320 -0.37556604 9.90924777 -0.33859215 -0.01051 0.04474 0.009483
3340 -0.32871348000000006 9.89876088 -0.33260805000000004 -0.021174 0.043721 0.007273999999999998
3360 -0.32347494000000004 9.8387433 -0.27841761000000004 -0.007324 0.030923000000000006 -0.001159
3380 -0.40985199 9.88574301 -0.21225897000000002 0.014071 0.044693 4.1e-05
3400 -0.42691158 9.952352910000002 -0.28081125 0.022601 0.04572 0.002236
3420 -0.38814245999999997 9.9312516 -0.30926025 0.009774 0.045743 0.0074870000000000015
3440 -0.36314658000000005 9.878110829999999 -0.32887044 -0.017988 0.043697 0.010501
3460 -0.36658989000000003 9.80760636 -0.31404753 -0.01484 0.027724 0.00627
3480 -0.34428195 9.851015610000001 -0.16720164 0.0065450000000000005 0.032997000000000005 0.001072
3500 -0.42136893000000003 9.95969079 -0.26989272000000003 0.0215 0.036144 0.000104
3520 -0.39756987000000005 9.9372357 -0.38096154000000004 0.023644 0.038267 0.000116
3540 -0.34743096000000007 9.909542069999999 -0.41253993 0.004425999999999999 0.047871 0.012788
3560 -0.31973733000000004 9.85790223 -0.32841918 -0.01905 0.045827 0.011559
3580 -0.33949467 9.85190832 -0.14624748 -0.012716 0.023464 0.004154
3600 -0.43470072 9.905049089999999 -0.12573477 0.007587999999999998 0.024484 -0.002115
3620 -0.45235872000000005 9.940973309999999 -0.26494848000000004 0.02151 0.036153 -0.002033
3640 -0.38051028000000003 9.932291460000002 -0.34473321000000007 0.019381 0.042531 0.003286
3660 -0.34937334000000003 9.91298538 -0.4090966200000001 -0.00199 0.038331 0.006346
3680 -0.29488860000000006 9.828109260000002 -0.27617112 -0.013802000000000002 0.020267 0.005219
3700 -0.35910486 9.87691401 -0.09295956000000001 -0.0021 0.010647 0.003176
3720 -0.42841251 9.918371070000001 -0.15133887000000001 0.014008 0.031905 0.001125
3740 -0.46074627 9.907893990000002 -0.26659656 0.011865 0.029782 0.001113
3760 -0.37422207 9.90236115 -0.37018035000000005 0.00015800000000000002 0.039398 0.004224
3780 -0.29084688000000003 9.89756406 -0.37182843 -0.00521 0.034082 0.006329
3800 -0.3010198500000001 9.839940120000001 -0.19459116000000004 0.00221 0.023403 0.0063950000000000005
3820 -0.39292974 9.86867361 -0.10044459 0.017146 0.02229 0.005432
3840 -0.43858548 9.934243649999999 -0.12484206 0.026811 0.035043 0.004415
3860 -0.40505490000000005 9.907295580000001 -0.25581537 0.016184999999999998 0.047851 0.007529000000000002
3880 -0.36299943 9.9170271 -0.35745678 -0.003062 0.03727 0.00634
3900 -0.32736951 9.88858791 -0.34279083000000005 -0.013745 0.028806 0.000935
3920 -0.33335360999999997 9.854753220000003 -0.21151341 0.0076310000000000015 0.038315 0.002141
3940 -0.38380644 9.91552617 -0.19474812000000002 0.022639 0.053180999999999985 0.001158
3960 -0.39802113000000006 9.93393954 -0.31494024000000004 0.022644 0.057429 0.004357
3980 -0.40505490000000005 9.94127742 -0.32407335000000004 0.009803 0.052135 0.007479
4000 -0.36853227000000005 9.857303820000002 -0.32841918 0.002263 0.037243 0.008514
4020 -0.3529638 9.85850064 -0.20522520000000002 0.012951 0.040405 0.007515999999999998
4040 -0.37691982000000007 9.911484450000001 -0.26599815 0.022567 0.040385 0.004379
4060 -0.40086603 9.92989782 -0.27153099 0.016152 0.034028 0.001137
4080 -0.39936510000000003 9.938432520000001 -0.35910486 0.005483 0.037249 0.004263
4100 -0.36554022 9.93214431 -0.36059598 0.00866 0.035094 0.007493
4120 -0.34203546 9.82946304 -0.18381978000000002 0.0225 0.025471 0.004397
4140 -0.38828961 9.82152675 -0.1155618 0.027863 0.026539 -0.000908
4160 -0.41299119 9.88708698 -0.2200383 0.023586000000000003 0.028667 0.003333
4180 -0.38679849 9.927052920000001 -0.29922462000000005 0.003344 0.041496 0.009584
4200 -0.37676286000000003 9.89622009 -0.36987624 -0.004148 0.030891 0.004204
4220 -0.31868766000000004 9.87541308 -0.35475903000000003 0.006534999999999999 0.030866 0.001074
4240 -0.34503732000000004 9.849073230000002 -0.26480133 0.023562 0.023341 0.003339
4260 -0.35386632 9.926013059999999 -0.26734212 0.028935 0.030783 0.002299
4280 -0.37272114 9.948016890000002 -0.33081282000000006 0.018324 0.046787 0.005409000000000001
4300 -0.38604312 9.90370512 -0.36778670999999996 0.004445 0.043644 0.004248
4320 -0.36644274000000004 9.840391380000002 -0.28905165000000005 0.0033060000000000003 0.027669 0.004261
4340 -0.33605136 9.84802356 -0.27408159 0.009726 0.028724 0.001099
4360 -0.3671883 9.905353200000002 -0.31314501 0.01828 0.032956 0.001154
4380 -0.38664153 9.92166723 -0.38515041 0.01939 0.044661 0.003283
4400 -0.36808101 9.92465928 -0.4192794 0.010875 0.047891 0.002151
4420 -0.3153915 9.864484740000002 -0.37587015 0.000201 0.045802 0.001011
4440 -0.33530580000000004 9.857755080000002 -0.25012557 0.005493 0.035135 -7.000000000000002e-06
4460 -0.39068325000000004 9.85999176 -0.24803604 0.012961000000000002 0.035108999999999994 4.6e-05
4480 -0.38305107000000005 9.95055768 -0.33574725 0.013013 0.048949 0.002165
4500 -0.37436922000000006 9.95055768 -0.38245266 0.01408 0.05425 0.007506
4520 -0.35566155000000005 9.90624591 -0.41583609000000005 0.010899 0.0564 0.005345
4540 -0.31854051 9.84981879 -0.40521186000000003 0.000192 0.042611 -5.3e-05
4560 -0.35506314 9.84218661 -0.2956341600000001 0.00122 0.033024 -0.001102
4580 -0.36374499000000005 9.9141822 -0.3101529600000001 0.005488 0.035131 0.001062
4600 -0.37541889 9.92690577 -0.41164722000000004 0.005497 0.0362 -8e-06
4620 -0.37227969 9.93080034 -0.44502084000000003 0.007645 0.038328 -0.001064
4640 -0.36554022 9.88110288 -0.42781410000000003 -0.006229 0.038372 -9.3e-05
4660 -0.3586536 9.86897772 -0.34338924000000004 -0.003086 0.026639 0.001013
4680 -0.35311095000000003 9.85939335 -0.30371760000000003 0.00222 0.021289 0.002125
4700 -0.35027586000000005 9.926307360000001 -0.3873969 0.007554000000000002 0.02021 0.0010949999999999998
4720 -0.36883638 9.90236115 -0.41329530000000003 8.6e-05 0.021297 0.0021100000000000003
4740 -0.36015453000000003 9.923315310000001 -0.45475236 -0.000952 0.02557 -3.9e-05
4760 -0.35745678 9.88603731 -0.37018035000000005 0.007626000000000002 0.035128 8e-06
4780 -0.3731724 9.85445892 -0.3700332 0.011875 0.034035 0.003244
4800 -0.36628578000000006 9.911484450000001 -0.39712842 0.010769 0.023394 0.001113
4820 -0.32901759 9.926307360000001 -0.35715267000000006 0.006492 0.02234 0.002153
4840 -0.34159401 9.915379020000001 -0.34488036 -0.005243 0.026625 0.006339
4860 -0.37900935 9.86568156 -0.43843833 -0.008357999999999999 0.041567 0.002025
4880 -0.34174116 9.85190832 -0.44023356 -0.001971 0.042592000000000005 0.006340999999999999
4900 -0.31674527999999996 9.87646275 -0.42286986 -0.000961 0.032989 0.009565
4920 -0.29578131 9.903852270000002 -0.40880232000000005 0.008597 0.022307 0.008577
4940 -0.3700332 9.90984618 -0.36793386 0.000115 0.034054 0.008503
4960 -0.39981636000000004 9.90145863 -0.37182843 -0.004152 0.029825 0.0042060000000000005
4980 -0.36269532000000004 9.878709240000001 -0.42721569 -0.007281 0.043693 0.00203
5000 -0.36044883 9.876158640000002 -0.38919213 -0.012659 0.030942 -0.001196
5020 -0.36733545 9.908198100000002 -0.36628578000000006 -0.010515 0.034126 -0.000117
5040 -0.38245266 9.90580446 -0.36778670999999996 -0.000937 0.033010000000000005 0.004224
5060 -0.36523611 9.85146687 -0.38020617 0.009765 0.042551 0.006423000000000001
5080 -0.35446473 9.86223825 -0.43619184 0.00555 0.051101 0.0031780000000000003
5100 -0.37841094 9.89876088 -0.41748417 0.001254 0.043664 0.002089
5120 -0.38620008 9.910738890000001 -0.41418801000000005 -0.007315 0.040481 0.006306
5140 -0.38424789000000004 9.900860220000002 -0.3634408800000001 -0.00199 0.03727 0.005279
5160 -0.35446473 9.85790223 -0.43110045 -0.008348000000000001 0.051124 0.00949
5180 -0.35087427000000004 9.85715667 -0.46134468 -0.009362 0.05648 0.0030670000000000003
5200 -0.36403929000000007 9.86897772 -0.44876826000000003 -0.008265999999999999 0.06498999999999999 0.0052
5220 -0.39428352 9.842932170000001 -0.33590421000000004 0.005627 0.074512 0.009558
5240 -0.38215836 9.90460764 -0.2977335 0.005627 0.067084 0.00209
5260 -0.39203703 9.834995880000001 -0.32423030999999997 0.0044740000000000005 0.048974 0.003173
5280 -0.36030168 9.87452037 -0.46298295 -0.011544 0.053262 0.010533
5300 -0.33755229 9.91628154 -0.47510811000000003 -0.019103 0.031987 0.00944
5320 -0.35401347000000005 9.94621185 -0.45549792000000006 -0.005171 0.037299 0.000984
5340 -0.37976472000000006 9.90624591 -0.41703291000000003 0.009789 0.038329 -0.0031850000000000003
5360 -0.37736127 9.84398184 -0.34383069000000005 0.012913 0.027639 0.003259
5380 -0.35820234 9.87002739 -0.40416219000000003 0.004339 0.028696 0.012812
5400 -0.34997175 9.906844320000001 -0.45221157000000006 -0.001038 0.021249 0.014921
5420 -0.35071731 9.939776490000002 -0.50131062 -0.00743 0.017036000000000003 0.008472
5440 -0.37212273 9.899967509999998 -0.33889626 -0.036288 -0.002008 0.000817
5460 -0.39816828 9.88813665 -0.23096664 -0.044962 -0.013773 0.02
5480 -0.37422207 9.896072940000002 -0.32138541 -0.001196 0.002011 0.030968
5500 -0.35820234 9.902802600000001 -0.44457939 0.020218 0.013675 0.025761000000000003
5520 -0.33410898 9.91044459 -0.45475236 -0.012754 0.029795 0.019101
5540 -0.26539974000000005 9.87601149 -0.38784816000000005 -0.02647 0.058627 0.013627
5560 -0.33695388000000004 9.867182490000001 -0.19219751999999998 -0.002937 0.060723 0.002038
5580 -0.47151765 9.85415481 -0.33560010000000007 0.015213999999999997 0.064916 0.003228
5600 -0.3752717400000001 9.94381821 -0.36419625 0.000125 0.039368 0.011701
5620 -0.32736951 9.951754500000002 -0.45834282000000004 -0.010645 0.026584 0.021256
5640 -0.25297047 9.906697170000001 -0.49442400000000003 -0.008386 0.041541 0.008434
5660 -0.32122845000000005 9.87780672 -0.38051028000000003 -0.002942 0.051169 -0.006495
5680 -0.41509053000000007 9.91852803 -0.30761217 -0.0073 0.036249 -0.001166
5700 -0.42721569 9.96402681 -0.49112784 -0.004301 0.006351 0.013849
5720 -0.2874035700000001 10.021513410000003 -0.8300241 0.00853 0.009515 0.01073
5740 -0.23411565 9.851162760000001 -0.5728549500000001 0.016128 0.02658 -0.00099
5760 -0.34712685000000004 9.87691401 -0.03503151 0.002268 0.035125 0.005312
5780 -0.3731724 9.807302250000001 -0.13486788 0.006363000000000001 0.005249 0.013925
5800 -0.51642783 9.934243649999999 -0.27991854 0.01285 0.011669 0.001143
5820 -0.5776520400000001 9.938736630000001 -0.19235448000000002 0.017266 0.038311000000000005 -0.00527
5840 -0.39038895 9.81299205 -0.29922462000000005 0.019424 0.049996 0.00114
5860 -0.14490351 9.77317326 -0.40849821 0.021467 0.040359 0.011849
5880 -0.20582361000000002 9.890235990000003 -0.35475903000000003 0.006520999999999999 0.042524 0.016013999999999997
5900 -0.39832524 9.8242245 -0.44951382000000006 -0.013682 0.041594 -0.000149
5920 -0.46822149 9.86044302 -0.44726733 -0.004079999999999999 0.040499 -0.001149
5940 -0.33695388000000004 9.87122421 -0.39532338 0.009731 0.035095 0.006431999999999999
5960 -0.2630061000000001 9.956100330000002 -0.45250587000000003 0.018261000000000003 0.035061 0.007559999999999998
5980 -0.21840003000000002 10.01881566 -0.46687752000000005 0.007731999999999998 0.059624 0.001046
6000 -0.42286986 9.94053186 -0.45714600000000005 0.007856 0.084138 -0.002189
6020 -0.39278259 9.72557514 -0.48723327000000005 -0.008199 0.07778099999999999 0.003048
6040 -0.19444401 9.850417199999999 -0.28081125 -0.014701 0.056494 0.004098
6060 -0.36808101 10.007436060000002 -0.14115609 -0.007252 0.052207 0.004155
6080 -0.57121668 9.9141822 -0.3586536 -0.003023 0.041548 0.002062
6100 -0.41733702000000006 9.87556023 -0.44293130999999997 0.001302 0.051133 -0.001125
6120 -0.25282332 9.84577707 -0.32213097 0.005584 0.053253 -0.002166
6140 -0.23860863000000002 9.89248248 -0.36044883 0.00443 0.038326 0.002118
6160 -0.38620008 9.90040896 -0.40744854 0.001177 0.028741000000000006 0.004244
6180 -0.3671883 9.884399040000002 -0.40999914 0.005516 0.046827 0.006388
6200 -0.30416886 9.90310671 -0.32916474 0.002349 0.058539 0.010624
6220 -0.33634566000000005 9.90968922 -0.31554846000000003 0.005584 0.06068 0.005302
6240 -0.37676286000000003 9.95534496 -0.31045707000000006 0.010908 0.054287 0.001075
6260 -0.39038895 9.922118489999999 -0.32153256 0.017286000000000003 0.049999 0.002193
6280 -0.30117681 9.87436341 -0.18695898 0.018419 0.059604 -0.003152
6300 -0.29818476 9.79712928 -0.37811664000000006 0.010975 0.069201 0.001056
6320 -0.27093258000000003 9.862542359999999 -0.43454376000000006 -0.005065999999999999 0.064978 0.005222
6340 -0.27767205 9.91628154 -0.47122335000000004 -0.00619 0.051138 0.004164
6360 -0.36913068000000004 9.89277678 -0.47570652 0.003373 0.043643 0.005309
6380 -0.37287810000000005 9.92810259 -0.47242017000000003 0.014027 0.038288 0.003254
6400 -0.34743096000000007 9.880651620000002 -0.41149026 0.008707 0.044686 0.006412999999999999
6420 -0.30012714 9.86433759 -0.43125741 -0.009477 0.037279 0.0095
6440 -0.29219085 9.88648857 -0.46104057 -0.013783000000000002 0.023467 0.004147
6460 -0.3379937400000001 9.927955440000002 -0.49516956 -0.002115 0.008513 0.004247
6480 -0.37108287 9.90400923 -0.37077876000000004 0.011735 0.007386 0.00755
6500 -0.384552 9.889186320000002 -0.24129657000000002 0.023481 0.012659 0.01083
6520 -0.38589597 9.88499745 -0.20342997 0.012889 0.027618 0.0086
6540 -0.37900935 9.94157172 -0.31479309 -0.013778 0.021349 0.000945
6560 -0.39412656000000007 9.89203122 -0.40131729000000005 -0.018103 0.006459 -0.001203
6580 -0.37092590999999997 9.891727110000001 -0.48918546 -0.010664 0.005347 0.004192
6600 -0.31120263000000004 9.84398184 -0.43813422 0.007506 0.011679 0.003242
6620 -0.2832147 9.873166590000002 -0.39637305000000006 0.023591 0.028672000000000007 0.002264
6640 -0.33545295 9.94682007 -0.49951539 0.018328 0.041486 -0.000993
6660 -0.2920437 9.95160735 -0.55295046 0.005521 0.039405 -0.002148
6680 -0.25970994000000003 9.898466580000001 -0.47751156 -0.006281 0.024532 -0.002212
6700 -0.29293641 9.80086689 -0.41164722000000004 -0.007315 0.027749 -0.006495999999999999
6720 -0.31434183000000004 9.783954450000001 -0.35910486 0.001292 0.043698 -0.006456
6740 -0.32437746000000006 9.920617560000002 -0.45535077 0.012023 0.060692 -0.003198
6760 -0.31060422000000004 9.974356740000003 -0.46313991000000004 0.002364 0.052186 0.001018
6780 -0.33231375 9.952352910000002 -0.5150740500000001 -0.010453 0.046913 -0.001201
6800 -0.34743096000000007 9.82661814 -0.38096154000000004 -0.016859 0.043748 -0.003378
6820 -0.33844500000000005 9.77467419 -0.30177522 -0.008353 0.041571 0.000957
6840 -0.32976315 9.88170129 -0.28994436 0.0033590000000000004 0.038326 0.003179
6860 -0.3559558500000001 9.96223158 -0.42092748 0.002287 0.039386 0.005307
6880 -0.34518447 9.99741024 -0.41208867000000005 -0.009396 0.047962 0.002009
6900 -0.347274 9.91269108 -0.4288539600000001 -0.013673 0.03948 -0.004419
6920 -0.36568737 9.83410317 -0.33320646000000004 -0.009434 0.034135000000000006 -0.003314
6940 -0.34547877 9.84262806 -0.32662395 -0.007358 0.024527 -8.3e-05
6960 -0.30985866000000006 9.893522339999999 -0.28845324000000006 -0.006348 0.018106 0.006342
6980 -0.3468325500000001 9.899967509999998 -0.35611281 -0.007462999999999998 0.002152 0.001013
7000 -0.36059598 9.919872000000002 -0.4625415 -0.011644 0.017098 -0.003308
7020 -0.34578288 9.89098155 -0.47795301 -0.005195 0.026667000000000003 -0.004343
7040 -0.31464594 9.848170710000002 -0.42481224000000006 -0.004157 0.021333 -0.003261
7060 -0.32377905 9.88424208 -0.46732878 -0.005234 0.02345 0.001002
7080 -0.34712685000000004 9.926013059999999 -0.44442243000000003 -0.006267 0.033033 0.003119
7100 -0.34368354000000007 9.93962934 -0.4625415 -0.002004 0.02877 -5.1e-05
7120 -0.3526695 9.90939492 -0.49052943 0.007617 0.035119 0.002145
7140 -0.33095997000000005 9.871371360000001 -0.49023513 0.004517 0.061745 0.006362
7160 -0.3469797 9.828266220000001 -0.38500326000000007 0.005622 0.068141 0.004225
7180 -0.38529756 9.879160500000001 -0.36927783000000003 0.008799 0.061742999999999985 0.003187
7200 -0.3617928 9.930653190000001 -0.38948643000000005 0.014066 0.045749 0.002176
7220 -0.30775932000000006 9.922716900000001 -0.46058931000000003 0.019458 0.06275800000000001 0.006465
7240 -0.2775249 9.87242103 -0.47646189000000005 0.031174 0.063761 0.011886
7260 -0.3409956 9.833347799999999 -0.41628735 0.023725 0.068048 0.011829
7280 -0.37212273 9.869272020000002 -0.34263387 -0.008262 0.069238 0.008399
7300 -0.37826379000000004 9.91612458 -0.33874911 -0.019973 0.067178 0.000843
7320 -0.3671883 9.868379310000002 -0.38065743 -0.002951 0.058588 0.003109
7340 -0.35671122 9.84353058 -0.36135135 0.021558 0.052111000000000005 0.003288
7360 -0.35999757000000004 9.88215255 -0.40191570000000004 0.031203 0.063786 0.005477
7380 -0.40266126 9.8936793 -0.39068325000000004 0.005588 0.060684 0.004234
7400 -0.40371093 9.957444300000002 -0.36209691 -0.014807 0.03518 0.006261
7420 -0.3972755700000001 9.90550035 -0.33305931000000005 -0.020141 0.03626 0.00729
7440 -0.40371093 9.862542359999999 -0.30206952000000004 -0.004152 0.028764 0.003139
7460 -0.40220999999999996 9.898466580000001 -0.39143862 0.016128 0.032946 0.005412
7480 -0.39233133000000003 9.89412075 -0.36673704 0.018266 0.031882 0.003291
7500 -0.33395202000000007 9.899212140000001 -0.38664153 0.001244 0.042594 0.003159
7520 -0.32871348000000006 9.90205704 -0.34847082000000007 -0.015859 0.034136 0.001982
7540 -0.37691982000000007 9.88963758 -0.39098736000000006 -0.010539 0.028799 -0.000111
7560 -0.36508896 9.85654845 -0.44757144 0.001215 0.031958 -0.001101
7580 -0.28994436 9.83934171 -0.43858548 0.014061 0.04044 -0.00209
7600 -0.24983127000000002 9.92960352 -0.40925358 0.00234 0.04686 0.001025
7620 -0.35745678 9.95400099 -0.41703291000000003 -0.010525 0.036239 0.004153
7640 -0.34038738 9.922716900000001 -0.5011536600000001 -0.006281 0.028776 0.002056
7660 -0.24638796000000002 9.82032993 -0.5815367999999999 0.003344 0.033008 0.001049
7680 -0.22692492 9.819731520000001 -0.54262053 -0.003042 0.031982 -0.0032670000000000004
7700 -0.19250163000000003 9.870625800000001 -0.44487369000000004 -0.016888 0.042662 0.001964
7720 -0.29219085 9.88948062 -0.40325967 -0.041483 0.035269 0.007143000000000002
7740 -0.34772526 9.91313253 -0.48005235 -0.029887 0.001153 0.004063000000000001
7760 -0.34308513000000007 9.92047041 -0.5408253000000001 -0.010645 0.009608 0.004186
7780 -0.30147111000000004 9.847121040000001 -0.5502527100000001 0.006487000000000001 0.024457 0.005355
7800 -0.26075961000000003 9.873313740000002 -0.42855966000000006 0.002278 0.03195 -2.5e-05
7820 -0.30357045 9.88125003 -0.34203546 -0.012654 0.03519 0.002003
7840 -0.34563573000000003 9.92256975 -0.38350233000000006 -0.015936000000000002 0.018153 0.00307
7860 -0.36030168 9.928701 -0.45071064 -0.0021 0.006403 -0.001091
7880 -0.33634566000000005 9.923168160000001 -0.56641959 0.006483 0.014904 -0.0031780000000000003
7900 -0.27647523 9.86149269 -0.5502527100000001 0.002273 0.028763 -0.002157
7920 -0.27961443 9.911190150000001 -0.38620008 -0.01373 0.036246 0.0051990000000000005
7940 -0.37676286000000003 9.871077060000001 -0.41449212 -0.01585 0.045815 0.011581
7960 -0.39607875000000003 9.90205704 -0.44487369000000004 -0.008343000000000001 0.05325 0.010556
7980 -0.34937334000000003 9.884840490000002 -0.56851893 -0.0041140000000000005 0.039408 0.005261999999999999
8000 -0.22034241 9.86852646 -0.57345336 -0.008409999999999999 0.039398 0.011641
8020 -0.26808768000000005 9.892178370000002 -0.37572300000000003 -0.014768 0.06704500000000001 0.029721
8040 -0.36539307000000004 9.86194395 -0.36763956000000003 -0.015615 0.107562 0.021118
8060 -0.3930867 9.89157996 -0.44637462000000006 0.004804 0.117173 -0.002253
8080 -0.39352815 9.861041430000002 -0.48424122 0.004752 0.102272 -0.005439
8100 -0.35506314 9.879601950000001 -0.47870838000000004 0.006761 0.087299 0.007412999999999999
8120 -0.31270356000000005 9.846826740000001 -0.33470739 0.007808 0.087279 0.011693
8140 -0.3924882900000001 9.85445892 -0.24863445 0.003522 0.07772799999999999 0.006334
8160 -0.41119596 9.87780672 -0.40625172 0.00024 0.058568 0.005268
8180 -0.36494181 9.909993329999999 -0.48828294 -0.009482 0.035153 0.008434
8200 -0.36763956000000003 9.916879950000002 -0.50370426 0.003282 0.027647 0.009601
8220 -0.3634408800000001 9.890834400000001 -0.40625172 0.013984 0.034006 0.0086
8240 -0.38709279 9.890235990000003 -0.3376994400000001 0.016176 0.045721 0.007532
8260 -0.37347651000000004 9.84262806 -0.36015453000000003 0.005478 0.04361 0.011733
8280 -0.3526695 9.890834400000001 -0.46343421000000007 -0.004190999999999999 0.023425 0.00635
8300 -0.34383069000000005 9.99650772 -0.48947976000000004 -0.004186 0.020246 0.002081
8320 -0.5126804100000001 9.97165899 -0.35611281 0.002282 0.036199 0.003174
8340 -0.52540398 9.849965939999999 -0.20073222000000002 0.013004 0.045757 0.0011
8360 -0.4713705 9.77077962 -0.15552774 0.015137 0.048933 0.004316
8380 -0.33006726 9.86478885 -0.29369178 0.010788 0.036143 0.009643
8400 -0.27977139 9.938736630000001 -0.37691982000000007 0.003258 0.025504 0.012809
8420 -0.27946728 9.954599400000001 -0.42227145000000005 0.00533 0.004221 0.005372999999999999
8440 -0.2956341600000001 9.91657584 -0.42481224000000006 0.003186 0.001037 0.004294
8460 -0.22393287 9.85056435 -0.39816828 0.007401 -0.009635 0.005405
8480 -0.17513793000000002 9.87646275 -0.39832524 0.006372 -4.8e-05 0.0064540000000000005
8500 -0.19578798 9.89712261 -0.41253993 0.007391 -0.013887 0.003274
8520 -0.31075136999999997 9.92226564 -0.38424789000000004 0.009487 -0.023478 0.002233
8540 -0.34757811 9.9460647 -0.42781410000000003 0.010544 -0.02349 0.004377000000000001
8560 -0.32572143000000003 9.876315600000002 -0.3529638 0.013759 -0.022428 0.002261
8580 -0.3555144 9.83065986 -0.22108797000000002 0.008501 -0.0074870000000000015 6.9e-05
8600 -0.39607875000000003 9.87211692 -0.28425456 0.007497 0.006365 4.4e-05
8620 -0.40864536 9.90894366 -0.37676286000000003 -0.005253 0.022372 0.004208
8640 -0.39457782 9.8968185 -0.4316988600000001 -0.007372 0.023453 0.002055
8660 -0.34563573000000003 9.879307650000001 -0.5011536600000001 -0.003071 0.030895 0.002075
8680 -0.32063004 9.87301944 -0.5492030400000001 0.005512 0.044701 0.005322
8700 -0.29114118 9.891128700000001 -0.49831857 0.005579 0.063859 0.009571
8720 -0.33514884 9.91552617 -0.45999090000000004 -0.00075 0.077738 0.007373
8740 -0.31959018000000006 9.90805095 -0.47720745000000003 0.003522 0.078789 0.007401
8760 -0.30835773000000005 9.86044302 -0.45011223 0.0056890000000000005 0.085177 0.00634
8780 -0.24638796000000002 9.860747130000002 -0.4656807 0.011043 0.088358 0.005305
8800 -0.24114942 9.823773240000003 -0.40057173 0.003574000000000001 0.08944500000000001 0.00632
8820 -0.28934595 9.923766570000002 -0.38933928 -0.000727 0.083065 0.007365999999999998
8840 -0.32722236 9.914633460000001 -0.3752717400000001 0.000312 0.07773 0.008448
8860 -0.34802937000000006 9.87452037 -0.37391796 0.010918 0.065967 0.010674
8880 -0.37362366 9.869880240000002 -0.44726733 0.013052 0.063837 0.008555
8900 -0.35371917 9.859246200000001 -0.40999914 0.008784 0.064913 0.009592
8920 -0.32811507000000006 9.87556023 -0.40925358 -0.000789 0.074521 0.012718
8940 -0.38484630000000003 9.93199716 -0.45250587000000003 -0.005056000000000001 0.071353 0.009487
8960 -0.38694564000000004 9.95340258 -0.50385141 -0.005123 0.052195000000000005 0.0052380000000000005
8980 -0.37391796 9.86972328 -0.46986957000000007 -0.0008939999999999998 0.044719 0.006346
9000 -0.35446473 9.860590170000002 -0.50684346 0.005579 0.060676 0.006371
9020 -0.37721412000000004 9.892629629999998 -0.40340682000000005 0.01198 0.059592 0.005348
9040 -0.3844048500000001 9.9167328 -0.31569561 0.004517 0.059623 0.004228
9060 -0.37991187 9.890235990000003 -0.40251411 0.000225 0.05325 0.003138
9080 -0.35161983 9.90909081 -0.46972242000000003 0.003416 0.051109 0.003163
9100 -0.2870994600000001 9.8652303 -0.50579379 0.009789 0.044695 0.003216
9120 -0.24608385000000002 9.84922038 -0.49203036 0.010808 0.030855 3.6e-05
9140 -0.20477394000000002 9.906098759999999 -0.42346827 0.0022440000000000003 0.024494 -1.6e-05
9160 -0.31928607000000003 9.94157172 -0.45984375 -0.005253 0.02025 0.002074
9180 -0.30806343 9.91044459 -0.5126804100000001 -0.006387 0.006401 0.003152
9200 -0.31390038 9.852212430000002 -0.47945394 0.004234 -0.006411 0.001106
9220 -0.29159244 9.85056435 -0.44398098 0.016059999999999998 0.010605 -0.002038
9240 -0.3150972 9.85550859 -0.39981636000000004 0.012845 0.007421 -0.002056
9260 -0.33200964 9.89143281 -0.41104881000000004 -0.008487 0.011743 0.000994
9280 -0.34293798000000003 9.91223982 -0.4251163500000001 -0.017051 0.005382 0.000942
9300 -0.34578288 9.90894366 -0.44322561 -0.005253 0.018128 -6e-05
9320 -0.36030168 9.90580446 -0.40371093 0.011884 0.03086 -0.002093
9340 -0.3589577100000001 9.88409493 -0.4288539600000001 0.011894 0.029808 -0.005296
9360 -0.33634566000000005 9.867035340000001 -0.3793134600000001 -0.00199 0.028782 -0.003255
9380 -0.2573163 9.88334937 -0.41179437 -0.00952 0.017082 -0.001157
9400 -0.27767205 9.907893990000002 -0.45326124000000007 0.003244 0.00321 -0.006391
9420 -0.27781920000000004 9.925561799999999 -0.52001829 0.014998 0.011674 -0.002047
9440 -0.25536411 9.860747130000002 -0.52166637 0.006502 0.020226 -0.002117
9460 -0.21225897000000002 9.82272357 -0.46882971 -0.003119 0.012816 -0.005379
9480 -0.25716915 9.852359580000002 -0.47182176000000003 -0.01385 -0.002056 -0.006503
9500 -0.30206952000000004 9.904754790000002 -0.48663486 -0.004277 -0.00636 -0.004295
9520 -0.2809682100000001 9.91896948 -0.5524992000000001 0.011812 0.021247 0.004328
9540 -0.30431601 9.910591740000001 -0.54995841 0.023663 0.058444 0.016114
9560 -0.33141123 9.840391380000002 -0.47331288 0.01099 0.07770099999999999 0.006387
9580 -0.30252078000000004 9.836496810000002 -0.35027586000000005 0.003565 0.083071 0.002055
9600 -0.34263387 9.897416909999999 -0.36015453000000003 0.017405 0.06496 -0.009576
9620 -0.36164565000000004 9.971511840000002 -0.45355554 0.022807 0.081977 -0.007423000000000002
9640 -0.37032750000000003 9.923168160000001 -0.5417278200000001 0.008860999999999999 0.078774 0.006370000000000001
9660 -0.29084688000000003 9.81808344 -0.52719921 -0.017854 0.075646 0.012597
9680 -0.24279750000000003 9.80626239 -0.45475236 -0.018815 0.08741499999999999 0.000825
9700 -0.29129814000000004 9.93349809 -0.41853384000000005 -0.00375 0.103392 -0.011909
9720 -0.35790804000000004 9.976750379999999 -0.53109378 0.00367 0.101202 -0.0033090000000000003
9740 -0.35087427000000004 9.91044459 -0.53094663 -0.0104 0.07348500000000001 0.01372
9760 -0.28889469 9.820025820000001 -0.5376861000000001 -0.016964 0.040472 0.016921000000000002
9780 -0.22318731000000003 9.848170710000002 -0.46627911 -0.01163 0.03727 0.013758
9800 -0.27886887000000005 9.927955440000002 -0.5397756300000001 -0.00409 0.047918 0.008456
9820 -0.2803698 9.97734879 -0.51582942 0.001239 0.045773 0.007428
9840 -0.34832367 9.92360961 -0.43589754000000003 0.002258 0.038299 0.010649
9860 -0.5665765500000001 9.61885215 -0.29922462000000005 0.000144 0.043629 0.011696
9880 -0.5185173599999999 9.7234758 -0.32407335000000004 -0.001952 0.048976 0.008468999999999999
9900 -0.50684346 9.926758620000001 -0.32602554 -0.013634 0.059673 0.007306
9920 -0.4309533 10.10608542 -0.3962259 -0.021102000000000003 0.061822 0.009387
9940 -0.38560167000000006 9.98872839 -0.41029344 -0.02115 0.051169 0.009401
9960 -0.34862778 9.82241946 -0.30880899 -0.011568 0.040508 0.003072
9980 -0.36523611 9.77333022 -0.33425613 -0.005147 0.052174 0.010579
10000 -0.36673704 9.83185668 -0.45011223 -0.010482 0.051132 0.009475
10020 -0.265851 9.95205861 -0.6027950700000001 -0.020165 0.02669 0.00303
10040 -0.24713352 9.954746550000001 -0.7005419100000001 -0.013826 0.010697 0.000958
10060 -0.14505066000000003 9.883202220000001 -0.61058421 0.001115 0.015954 0.005328
10080 -0.18202455 9.864484740000002 -0.6041390400000001 0.005392 0.017009 0.004289
10100 -0.27288477000000005 9.8478666 -0.62824221 -0.013807 0.012836000000000002 -0.001181
10120 -0.34069149000000004 9.833504759999999 -0.5204695500000001 -0.020266 0.001136 -0.000143
10140 -0.37721412000000004 9.89756406 -0.46508229 -0.012817 0.003215 0.006316
10160 -0.3715243200000001 9.847121040000001 -0.48409407000000004 0.003215 0.006368 0.003219
10180 -0.35730963 9.85864779 -0.48858705 0.016128 0.028702 0.001144
10200 -0.35191413000000005 9.89157996 -0.51358293 0.008754999999999999 0.052154999999999986 0.003199
10220 -0.3305087100000001 9.936186029999998 -0.4176313200000001 -0.004076 0.044747 0.0020510000000000003
10240 -0.33844500000000005 9.8617968 -0.37811664000000006 -0.006209 0.043694 0.000969
10260 -0.34743096000000007 9.843383430000001 -0.38754405000000003 -0.00508 0.056478 -0.000108
10280 -0.3412899 9.88095573 -0.5049010799999999 0.003479 0.062835 0.001012
10300 -0.30357045 9.927504180000001 -0.57121668 0.001378 0.069238 -7.900000000000001e-05
10320 -0.28680516 9.88424208 -0.44248005 -0.00298 0.044769 -0.004351
10340 -0.28051695 9.86883057 -0.38484630000000003 0.000125 0.028758 0.001032
10360 -0.29249496 9.87211692 -0.34009308 0.008612 0.019136 0.002172
10380 -0.31494024000000004 9.91568313 -0.47242017000000003 0.010808 0.027672 -0.003165
10400 -0.29099403 9.94412232 -0.5638788 0.0054210000000000005 0.01279 -0.006388
10420 -0.20133063 9.87646275 -0.5092371000000001 6.2e-05 0.015969999999999998 0.002116
10440 -0.15462522000000004 9.88155414 -0.38259981000000004 0.004311 0.01806 0.008553
10460 -0.2803698 9.88409493 -0.37137717000000003 -0.008453 0.021322 0.003118
10480 -0.38185425 9.91747836 -0.48094506000000004 -0.018065 0.010737 -0.005481000000000001
10500 -0.35147268 9.98977806 -0.53932437 -0.010592 0.016021 -0.001163
10520 -0.29443734 9.91283823 -0.42361542 0.001196 0.03088 0.002105
10540 -0.35715267000000006 9.831552570000001 -0.27797616 0.008688 0.032998 -0.00105
10560 -0.39203703 9.84847482 -0.36658989000000003 0.0076209999999999984 0.034062 1e-05
10580 -0.37168128 9.89772102 -0.42346827 0.004372999999999999 0.027665 0.004268
10600 -0.33695388000000004 9.937529999999999 -0.53678358 0.010817 0.038291000000000006 0.005368
10620 -0.31584275999999994 9.920323260000002 -0.48155328000000003 0.01508 0.031906 6.4e-05
10640 -0.3065625 9.880504470000002 -0.41194152000000006 0.012932 0.028717000000000006 5.400000000000001e-05
10660 -0.2718351 9.87765957 -0.43050204000000003 0.008707 0.043625 0.005346
10680 -0.29533986 9.90100737 -0.4251163500000001 -0.005171 0.046848 0.010586
10700 -0.31314501 9.90236115 -0.49696479000000005 -0.021184 0.034163 -0.000192
10720 -0.35131572000000005 9.88170129 -0.47541222 -0.020131 0.029903 -0.001247
10740 -0.29293641 9.904303530000002 -0.45460521000000004 -0.0062 0.045824 0.000966
10760 -0.2803698 9.889186320000002 -0.47301858 0.013004 0.047879000000000005 0.0032340000000000003
10780 -0.34024023 9.886939830000001 -0.50026095 0.015137 0.047872000000000005 0.003249
10800 -0.38155995000000004 9.84847482 -0.36613863 -0.006233 0.04049 0.003109
10820 -0.36254817 9.91552617 -0.34937334000000003 -0.009458 0.035174000000000004 0.003094
10840 -0.3671883 9.930496230000001 -0.42136893000000003 0.000168 0.038345 0.00102
10860 -0.37362366 9.908492400000002 -0.45385965 0.014071 0.045754 0.001108
10880 -0.33141123 9.88993188 -0.5020561800000001 0.008775 0.06172100000000001 0.008528
10900 -0.31674527999999996 9.86433759 -0.47361699000000007 -0.007243 0.055399 0.005220000000000001
10920 -0.31554846000000003 9.887842350000001 -0.46522944000000005 -0.012644 0.035198 -0.000133
10940 -0.34368354000000007 9.93214431 -0.45161316 -0.005186 0.035164 0.002055
10960 -0.33679692000000006 9.86553441 -0.45580203 0.002302 0.042582 0.005303
10980 -0.2809682100000001 9.87002739 -0.5192727300000001 0.0023350000000000003 0.0511 0.00636
11000 -0.28889469 9.863287920000001 -0.4601478600000001 -0.005123 0.052195000000000005 0.0052380000000000005
11020 -0.34054434000000006 9.86568156 -0.4128440400000001 -0.006305 0.024511 0.003129
11040 -0.34009308 9.88454619 -0.41208867000000005 0.003301 0.027664 0.005329
11060 -0.31390038 9.899967509999998 -0.46463103000000006 0.009736 0.032977 0.00323
11080 -0.34906923 9.914633460000001 -0.46673037000000006 0.006502 0.025531 0.003217
11100 -0.3469797 9.89831943 -0.55833615 -0.002 0.03514 0.005282
11120 -0.32677110000000004 9.864033480000002 -0.5198711400000001 -0.000942 0.034067 0.006359
11140 -0.29233800000000004 9.87211692 -0.41509053000000007 0.0033200000000000005 0.029803 0.00319
11160 -0.33141123 9.90011466 -0.44607051 0.006511 0.026601 0.002148
11180 -0.36479466 9.86732964 -0.5029587000000001 0.0032770000000000004 0.02446 0.007469
11200 -0.34442910000000004 9.88424208 -0.5149269000000001 0.001148 0.023411 0.005319
11220 -0.33859215 9.8478666 -0.43319979 0.004386999999999999 0.030861000000000006 0.004264
11240 -0.32542713 9.879758910000001 -0.40581027000000003 0.002254 0.026624 -1.8e-05
11260 -0.30641535000000003 9.903852270000002 -0.44307846000000006 -0.000971 0.024492 0.003166
11280 -0.32377905 9.9170271 -0.47810997000000005 -0.006248 0.041538 0.007381
11300 -0.36523611 9.873313740000002 -0.5632803900000002 -0.003023 0.04367 0.004196
11320 -0.35147268 9.82556847 -0.5150740500000001 0.008736 0.046833 0.002137
11340 -0.30252078000000004 9.852212430000002 -0.4107447 0.009779 0.042564 0.003218
11360 -0.29010132000000005 9.88603731 -0.46613196000000007 0.006593000000000001 0.047893 0.005326
11380 -0.34847082000000007 9.90909081 -0.50370426 -0.001937 0.047927 0.004198
11400 -0.36119439 9.88589016 -0.48259314000000003 -0.0008609999999999999 0.046871 0.001002
11420 -0.33470739 9.83798793 -0.48124917000000006 0.004493 0.047931 -0.002166
11440 -0.32153256 9.86163984 -0.41957370000000005 0.008751 0.045785 -0.002134
11460 -0.34952049 9.90236115 -0.44666892 0.014099 0.052145 0.0011
11480 -0.34338924000000004 9.874814670000001 -0.49307022000000006 0.00344 0.054313 0.001023
11500 -0.29099403 9.89636724 -0.5022033300000001 -0.007252 0.047963 -0.000112
11520 -0.3013239600000001 9.84697389 -0.42062337 -0.012615 0.040529 -0.001208
11540 -0.36673704 9.86149269 -0.40985199 -0.003004 0.044748 0.00099
11560 -0.35910486 9.869272020000002 -0.41523768 0.008779 0.05536 0.001059
11580 -0.33919056000000003 9.88020036 -0.44143038000000007 0.013013 0.045766 -0.001036
11600 -0.28051695 9.89772102 -0.48798864 0.005497 0.035139 -0.001075
11620 -0.30446316 9.89576883 -0.41777847 0.005488 0.037253 0.003195
11640 -0.34877493 9.88948062 -0.42437079 0.016184999999999998 0.041485 0.001128
11660 -0.34832367 9.89292393 -0.42092748 0.016199 0.042559 -0.00101
11680 -0.33934752000000007 9.87002739 -0.46238454000000007 0.009794 0.042577 1.4e-05
11700 -0.2951829 9.86553441 -0.4827501 0.003354 0.036199 0.002113
11720 -0.3376994400000001 9.86942898 -0.42571475999999997 0.000197 0.044737 0.001012
11740 -0.36254817 9.89248248 -0.4363389900000001 0.002349 0.050051 0.002089
11760 -0.3617928 9.8996634 -0.43874244 -0.001913 0.051132 0.002058
11780 -0.32437746000000006 9.864190440000002 -0.5415708599999999 0.000149 0.036206 0.003159
11800 -0.31434183000000004 9.891285660000001 -0.50983551 -0.000918 0.037271 0.004219
11820 -0.3125466 9.85984461 -0.49636638 0.000115 0.028749 0.003169
11840 -0.32138541 9.869272020000002 -0.39772683000000003 0.006502 0.023409 0.001084
11860 -0.3412899 9.87211692 -0.42002496 0.002254 0.026624 -1.8e-05
11880 -0.35491599000000007 9.914633460000001 -0.45295713 -0.003052 0.035156 0.00207
11900 -0.34488036 9.915830280000002 -0.5245112700000001 -0.006248 0.034111 -8.7e-05
11920 -0.31554846000000003 9.88155414 -0.51762465 -0.005191 0.030916000000000006 -0.001144
11940 -0.28216503000000004 9.88020036 -0.54336609 0.000129 0.024518 -0.004303
11960 -0.2980278 9.908492400000002 -0.52121511 0.001191 0.020266 -0.007495
11980 -0.3586536 9.890235990000003 -0.49816161000000003 -0.009472 0.021369 -0.007571
12000 -0.36673704 9.88724394 -0.5267577600000001 -0.011525 0.037364 -0.009742
12020 -0.31225230000000004 9.88619427 -0.5273561700000001 0.003455 0.030984 -0.025653
12040 -0.29668383 9.87196977 -0.46163898000000003 7.2e-05 0.005369 -0.010689
12060 -0.32227812 9.90056592 -0.52001829 0.02695 0.039411 -0.022295
12080 -0.31808925000000005 9.889186320000002 -0.55429443 0.030294 0.027857 -0.066054
12100 -0.2817137700000001 9.85685256 -0.49516956 0.030236 0.015073 -0.066038
12120 -0.28470582000000005 9.88888221 -0.50939406 0.024672 0.012766 -0.016936
12140 -0.28396026 9.899516250000001 -0.5260023900000002 0.006348 -0.023411 -0.011676
12160 -0.30895614000000005 9.89248248 -0.47974824000000005 0.026633 -0.057421000000000014 -0.048879
12180 -0.32946885000000004 9.908198100000002 -0.5290042500000001 0.025892 -0.003017 -0.067113
12200 -0.33485454 9.8680752 -0.49846572000000006 -0.00075 0.00559 -0.065174
12220 -0.34832367 9.863739180000001 -0.47301858 -0.017925999999999997 -0.010359 -0.057796000000000014
12240 -0.33724818 9.88499745 -0.42990363000000004 -0.001985 -0.033813 -0.06726900000000001
12260 -0.35491599000000007 9.890235990000003 -0.47541222 0.031035000000000007 -0.07111 -0.092627
12280 -0.34174116 9.89232552 -0.52121511 0.024461 -0.079729 -0.062752
12300 -0.35326791 9.86852646 -0.45146601000000003 -0.004128 -0.023204 -0.054478
12320 -0.33291216 9.91298538 -0.47630493 -0.004258 -0.07849099999999999 -0.081114
12340 -0.29039562 9.83006145 -0.36628578000000006 -0.016184999999999998 -0.11045 -0.070474
12360 -0.32931189000000005 9.8822997 -0.37991187 -0.018161 -0.063618 -0.058798
12380 -0.32677110000000004 9.964782180000002 -0.54517113 -0.016705 -0.019776 -0.101572
12400 -0.17154747 9.89038314 -0.39517623 -0.009743 0.010409 -0.196634
12420 -0.20043792 9.780962400000002 -0.19549368000000003 -0.009571 0.030721 -0.214819
12440 -0.07648857 9.94053186 -0.6149202300000001 -0.05897300000000001 0.055005999999999985 -0.117987
12460 0.320787 10.05983127 -0.54112941 -0.071588 0.108267 -0.106393
12480 0.155979 9.87511878 -0.29264211 -0.101412 0.128573 -0.097013
12500 -0.24729048000000003 9.89292393 -0.39592179 -0.149124 0.199031 -0.093164
12520 -0.29024847 9.91044459 -0.61941321 -0.184457 0.341107 -0.160891
12540 -0.22632651000000004 9.849367529999999 -0.51642783 -0.151054 0.401762 -0.173554
12560 -0.13037490000000002 9.833651910000002 -0.60668964 -0.098387 0.316095 -0.107914
12580 -0.15074046 9.9460647 -0.61506738 -0.083261 0.115791 -0.112893
12600 -0.15193728 9.899064990000001 -0.47630493 -0.121836 0.07015199999999999 -0.12165
12620 -0.12678444 10.03768029 -0.70922376 -0.182966 0.231245 -0.127625
12640 -0.12169305 9.92720988 -0.6816870899999999 -0.21042600000000006 0.258114 -0.163102
12660 -0.32512302000000004 9.90116433 -0.44712018000000003 -0.183376 0.245625 -0.26010500000000003
12680 -0.25387299 9.90236115 -0.57914316 -0.141406 0.08039400000000001 -0.268146
12700 -0.27946728 9.94053186 -0.8195470199999999 -0.083968 0.071552 -0.237823
12720 -0.55085112 9.81688662 -0.9392976900000001 -0.062365 -0.022607 -0.153162
12740 -0.64007307 9.61525188 -0.8027817300000001 -0.081125 -0.081452 -0.073101
12760 -0.5319963 9.87151851 -0.80173206 -0.087804 -0.144276 -0.07413600000000001
12780 0.09040896000000001 10.31729472 -0.7309332900000001 -0.093457 -0.047038 -0.143734
12800 0.40640868 10.05519114 -0.73347408 -0.121476 0.040764 -0.231637
12820 0.016618140000000003 9.947261520000001 -0.7716447900000001 -0.120477 0.014175 -0.243346
12840 -0.50026095 9.90190989 -0.8866081800000001 -0.13805 -0.006371 -0.151575
12860 -1.42039971 9.6395022 -0.91339929 -0.129076 -0.055769000000000006 -0.060651
12880 -1.15050699 9.57723813 -0.8258352300000001 -0.093239 -0.117822 -0.025069
12900 -0.3731724 10.065668220000001 -0.36434340000000004 -0.06956699999999999 -0.0912 -0.043098
12920 -0.3555144 9.93558762 -0.09669717 -0.07349800000000001 -0.042081 -0.068826
12940 -0.6780868200000001 9.808499070000002 -0.09460764 -0.094773 -0.04089 -0.081794
12960 -1.02432096 9.727517520000001 -0.24309180000000002 -0.128932 -0.026994 -0.063891
12980 -1.32968664 9.565112970000001 -0.20207619000000002 -0.160871 0.002885 -0.049197000000000005
13000 -1.41590673 9.51989868 -0.16136469000000003 -0.146625 -0.111308 -0.009427
13020 -1.8040491900000002 9.69818562 -0.34937334000000003 -0.128325 -0.065603 0.000256
13040 -0.7782273000000001 9.84218661 -0.19040229 -0.119771 -0.049701 0.012046
13060 -0.8087658299999999 10.023907050000002 -0.46732878 -0.130287 -0.025124 0.002327
13080 -0.59066991 10.05983127 -0.15612615000000002 -0.171818 -0.012179 -0.002253
13100 -0.9578582100000002 9.942474240000003 0.16076628 -0.204953 -0.025911 -0.002467
13120 -1.5646950000000002 9.78455286 0.22902426 -0.188648 0.030534 -0.013107
13140 -1.5179895900000002 9.59070726 0.14025357000000002 -0.167392 0.028265 0.0030670000000000003
13160 -2.19967668 9.43158906 -0.43514217000000005 -0.150533 -0.010178 0.01178
13180 -1.7036045999999998 9.68860125 -0.5174775 -0.112675 0.087764 -0.005172
13200 -1.07327286 9.937981259999999 -0.35521029 -0.076263 0.083517 -0.040164
13220 -1.0886843700000002 9.910738890000001 -0.22244175000000002 -0.061518 0.034488 -0.046407
13240 -1.3790799900000001 9.82197801 -0.23605803000000003 -0.055911 0.116409 -0.025109
13260 -1.54403514 9.73246176 -0.23007393000000004 -0.041104 0.08547300000000001 -0.027102
13280 -1.73863611 9.663752520000001 -0.18920547 -0.0005679999999999999 0.076839 -0.034286000000000004
13300 -1.68848739 9.65417796 -0.07184844 0.017447999999999998 0.059693 -0.024524
13320 -1.57277844 9.73949553 -0.10568313 -0.018151 -0.003132 -0.000123
13340 -1.5633510300000002 9.74578374 -0.17678601 -0.04377 0.040445 0.046644
13360 -1.4906000700000002 9.67842828 -0.23785326 -0.020505 -0.0022600000000000003 0.050066
13380 -1.41815322 9.835143030000001 -0.26554689 0.08040800000000001 0.082828 -0.003817
13400 -1.4934449699999999 9.81643536 -0.15538058999999999 0.179564 0.04423 -0.027644
13420 -1.61005644 9.76419711 -0.02110131 0.11503900000000003 -0.0377 0.004057
13440 -1.58624757 9.72901845 0.15986376000000002 -0.029795 0.047918 0.030709
13460 -1.5197848200000001 10.0903698 0.34038738 -0.077819 0.027914 0.013308
13480 -1.51215264 10.33675776 0.5545985400000001 -0.085493 -0.027416000000000003 0.003711
13500 -1.5938895600000003 10.19979054 0.92447478 -0.07653099999999999 0.068424 0.004719
13520 -1.67291892 10.244700719999999 1.0870362900000001 -0.057414 0.056609000000000013 0.012345
13540 -1.6949227500000001 9.711949050000001 1.3828274100000002 -0.018074 0.023461000000000003 0.009458
13560 -1.83114441 9.617949630000002 1.59418386 -0.016041 0.024425 0.032972
13580 -1.6443325800000002 9.61510473 1.24091595 -0.013888 0.030801 0.035115
13600 -1.5932911500000002 9.345967380000001 1.1602385100000001 0.057601 0.002973 0.00574
13620 -1.61573643 9.031468590000001 1.26846243 0.153197 -0.10595999999999997 -0.008408
13640 -1.37534238 8.46280251 1.19975319 0.195641 -0.160425 -0.011247
13660 -1.3665035700000001 8.51728725 1.0623445200000001 0.21717 -0.134865 -0.02822
13680 -1.33177617 9.73215765 0.5032530000000001 0.262386 -0.107073 -0.090965
13700 -1.23134139 10.81994931 0.21479976 0.299467 -0.192314 -0.118371
13720 -1.69986699 11.2013523 -0.09894366 0.25968600000000003 -0.175472 -0.033213
13740 -1.58760135 10.41818076 -0.01721655 0.158411 -0.082743 0.041805
13760 -1.14347322 9.85999176 0.43050204000000003 0.082211 0.008256 -0.004777
13780 -1.00097316 9.85027005 0.11496339000000001 0.061142 0.030851 -0.042341
13800 -0.9617527800000001 9.42395688 0.39263544 0.05955700000000001 -0.055547000000000006 -0.0134
13820 -1.53819819 9.40838841 0.88361613 0.054022 -0.076928 0.01009
13840 -1.6992685800000003 10.022406120000001 0.24488703 0.043439 -0.047105 0.02066
13860 -1.31681592 10.19933928 0.17124336 0.011596 -0.011836 0.019324
13880 -1.15485282 9.869880240000002 0.72943236 -0.003124 0.039336 0.02236
13900 -1.19541717 9.84592422 0.66911067 -0.012683 0.047896 0.021214
13920 -1.16727228 10.03168638 0.67030749 0.016204 0.056356 0.011791
13940 -1.35827298 9.76374585 0.9241804800000001 0.032332 0.078692 0.006534000000000001
13960 -1.4166522899999998 9.43458111 1.15260633 0.031337000000000004 0.095736 0.007573999999999998
13980 -1.3515433200000002 9.417511710000001 1.2573869400000002 0.019712 0.1224 0.009595
14000 -1.42248924 9.65162736 0.91190817 0.029361 0.133019 0.009649
14020 -1.6688772 9.70851555 0.62001162 0.062472 0.138243 0.006669
14040 -1.7402841900000001 9.36976644 0.6101329500000001 0.075404 0.160594 0.000321
14060 -1.43401599 9.849965939999999 0.28441152000000003 0.088269 0.172276 -0.001741
14080 -1.0008162 10.54916388 -0.13486788 0.089374 0.186099 0.00359
14100 -1.27025766 10.256070509999999 -0.42017211000000004 0.093541 0.169019 0.008983
14120 -1.91122344 9.60118434 -0.36808101 0.097645 0.131724 0.007991
14140 -1.3208576400000003 9.680370660000001 0.05163984 0.094521 0.151962 0.011148
14160 -0.8646043500000001 9.744135660000001 0.019306080000000003 0.091302 0.138163 0.001529
14180 -0.9562101300000001 9.743537250000001 -0.13785993 0.057066 0.111672 -0.004017
14200 -1.2433194000000003 9.83634966 -0.23576373 0.044293 0.123414 0.001219
14220 -1.40856885 9.90984618 -0.20073222000000002 0.033552 0.111716 0.005432
14240 -1.3214560499999999 9.830502899999999 -0.02694807 0.045264 0.102105 0.001254
14260 -1.40318316 9.82646118 0.0868185 0.05054 0.097791 0.009842
14280 -1.4615624699999998 9.80476146 0.2026746 0.053664 0.079674 0.008819
14300 -1.5045204600000002 9.72377991 0.27977139 0.04722 0.069048 0.007719
14320 -1.52891793 9.74817738 0.09968922 0.032351 0.07764800000000001 0.001195
14340 -1.3970421 9.76044969 0.2402469 0.022615 0.051037 0.004365
14360 -1.4188987800000001 9.78245352 0.49471830000000006 0.030026 0.039289 0.0055
14380 -1.59612624 9.80086689 0.32153256 0.025662 0.015877000000000002 0.003364
14400 -1.65196476 9.85340925 0.10597743000000001 0.015018 0.014874 -0.003119
14420 -1.49988033 9.76254903 0.09040896000000001 0.006492 0.018096 -0.002114
14440 -1.42488288 9.81643536 0.05149269000000001 0.019180000000000003 -0.004332 0.001208
14460 -1.38851721 9.79248915 0.08277678 0.019031 -0.035233999999999994 0.003383
14480 -1.4117178600000002 9.8302086 0.0023936400000000003 0.02437 -0.033126 0.004486
14500 -1.38761469 9.77422293 0.00373761 0.013735 -0.030937 -0.000933
14520 -1.3680045 9.691299 0.08906499000000001 0.009453 -0.03624 -0.003092
14540 -1.4518309500000002 9.687551580000001 0.09145863 0.015821 -0.041597 -0.000904
14560 -1.35453537 9.822272309999999 -0.055230299999999996 0.026422 -0.058670000000000014 -0.002945
14580 -1.3223487600000001 9.815091390000003 -0.23995260000000002 0.021117 -0.05226 -0.00299
14600 -1.25483634 9.75865446 -0.18291726 0.01262 -0.043708 -0.003061
14620 -1.1906200800000002 9.8043102 -0.22079367 0.006161 -0.052225 0.001178
14640 -1.16592831 9.796079610000001 -0.14744430000000003 0.020059 -0.052247 -0.0051340000000000005
14660 -1.3497480900000003 9.81538569 -0.28336185 0.025480000000000003 -0.040518 -0.012589
14680 -1.3210047900000002 9.81404172 -0.36927783000000003 0.016993 -0.020287 -0.00306
14700 -1.2117312 9.783954450000001 -0.27677934 0.011668 -0.013894 0.001168
14720 -1.2100831200000002 9.783954450000001 -0.20747169000000001 0.02238 -0.013893 -0.008372
14740 -1.21023027 9.76374585 -0.10642868999999999 0.058792 0.006263 -0.018825
14760 -1.32953949 9.76943565 -0.22244175000000002 0.060998 0.023296 -0.017764
14780 -1.27040481 9.81928026 -0.27572967000000004 0.040713 0.033964 -0.004032
14800 -1.24181847 9.796226760000001 -0.2311236 0.003392 0.047904 0.005303
14820 -1.26741276 9.843383430000001 -0.24729048000000003 -0.017003 0.019217 0.004129
14840 -1.23852231 9.811343970000001 -0.16061913 -0.014749000000000003 0.039476 -0.00229
14860 -1.32564492 9.787996170000001 -0.24069816 -0.011515 0.042677 -0.006544
14880 -1.37548953 9.77751909 -0.14669874000000002 -0.023212 0.058667 0.000831
14900 -1.29226149 9.77407578 -0.16241436 -0.024289 0.059724 0.004027
14920 -1.3199551200000001 9.791586630000001 -0.16989939 -0.017921 0.049061 0.00088
14940 -1.3573802700000002 9.8532621 -0.1963962 -0.002937 0.060723 0.002038
14960 -1.3873105800000003 9.787093650000001 -0.1790325 0.00031600000000000004 0.071368 0.0009789999999999998
14980 -1.33762293 9.771525180000001 -0.0606258 -0.011462 0.063944 0.003043
15000 -1.42623666 9.77422293 -0.18112203000000002 -0.024303 0.059711 0.007231
15020 -1.41815322 9.80101404 -0.1733427 -0.02536 0.058662 0.004021
15040 -1.4395586400000002 9.79383312 -0.24100227 -0.018858 0.077827 0.000837
15060 -1.3919507100000001 9.78993855 -0.17064495 -0.020983 0.084209 0.005087
15080 -1.49134563 9.768690090000002 -0.12513636 -0.030685000000000007 0.067177 0.010382
15100 -1.5214329000000002 9.81090252 -0.19040229 -0.041378 0.062949 0.011381
15120 -1.4895504000000002 9.829610190000002 -0.35416062000000004 -0.042492 0.055483000000000005 0.014587
15140 -1.46979306 9.79383312 -0.42377238 -0.0371 0.06400399999999999 0.010341
15160 -1.3534857000000002 9.76195062 -0.27632808 -0.028527 0.07355700000000001 0.011457
15180 -1.38627072 9.69369264 -0.12663729 -0.024193 0.085273 0.008268000000000001
15200 -1.4742860400000002 9.727674480000001 -0.21974400000000002 -0.021002 0.078887 0.004025
15220 -1.49823225 9.77991273 -0.26315325 -0.036048 0.060804 0.010353
15240 -1.51035741 9.755064 -0.26614530000000003 -0.0339 0.068237 0.014631
15260 -1.45242936 9.79742358 -0.24055101 -0.024313 0.061824 0.011501
15280 -1.4395586400000002 9.77257485 -0.12274272000000001 -0.022136000000000003 0.07034299999999999 0.010437
15300 -1.46455452 9.74099646 -0.14624748 -0.037062 0.075709 0.013531
15320 -1.46739942 9.78829047 -0.29488860000000006 -0.047764 0.072533 0.017733000000000002
15340 -1.43521281 9.77063247 -0.30641535000000003 -0.042478 0.057618 0.013516
15360 -1.4160538800000002 9.76704201 -0.21764466000000002 -0.034986 0.054429999999999985 0.005027
15380 -1.38132648 9.760008240000001 -0.21450546 -0.039119 0.08745599999999999 0.008159999999999999
15400 -1.4480933400000002 9.77677353 -0.21479976 -0.042435 0.070388 0.016705
15420 -1.4150042100000002 9.799817220000001 -0.23500836000000003 -0.045698 0.057612 0.017766999999999998
15440 -1.4133561300000002 9.76044969 -0.23007393000000004 -0.040383 0.048027 0.012475
15460 -1.41186501 9.76972995 -0.23127075 -0.028537 0.067182 0.007192000000000001
15480 -1.35962676 9.76972995 -0.17827713000000003 -0.010453 0.050096 0.001999
15500 -1.3677102000000003 9.79338186 -0.17244018 -0.0051140000000000005 0.055387 0.006303
15520 -1.41815322 9.78156081 -0.10987200000000001 -0.007291 0.046868 0.007367
15540 -1.4664969 9.85266369 -0.15552774 -0.021126 0.056495 0.009394
15560 -1.4599143900000002 9.800121330000001 -0.16315992 -0.022241 0.042663 0.0061990000000000005
15580 -1.3739886 9.75072798 -0.13352391000000002 -0.020074 0.049052 0.005138
15600 -1.3362691500000001 9.752817510000002 -0.08547453 -0.015797 0.049045 0.003031
15620 -1.3644140400000002 9.81987867 -0.10747836000000001 -0.011534 0.047965 0.003063
15640 -1.445994 9.819584370000001 -0.12020193000000001 -0.007271 0.047946 0.004161
15660 -1.3919507100000001 9.807459210000001 -0.18097488 -0.011558 0.044761 0.005203
15680 -1.3757936400000002 9.79053696 -0.07603731000000002 -0.01252 0.062895 -0.000168
15700 -1.3594698 9.747726120000001 0.06137136000000001 -0.015734 0.054406 -0.005521
15720 -1.5094647 9.771682140000001 -0.04445892 -0.016806 0.057588 -0.001259
15740 -1.5069141000000001 9.80655669 -0.15612615000000002 -0.022174 0.051211 -0.000221
15760 -1.34001657 9.808351920000002 -0.20178189000000002 -0.02857 0.053360000000000005 0.0008
15780 -1.33822134 9.771230880000001 -0.07603731000000002 -0.025418 0.040574 -0.001298
15800 -1.34375418 9.79682517 0.019011780000000002 -0.013697 0.039459 0.000922
15820 -1.3882131 9.77766624 -0.06720831000000001 -0.007276 0.042637 -0.000105
15840 -1.41844752 9.79009551 -0.09071307 -0.009415 0.041579000000000005 -0.000119
15860 -1.40827455 9.78545538 -0.01961019 -0.012615 0.040529 -0.001208
15880 -1.3446567 9.816582510000002 -0.10073889000000001 -0.013706 0.03945 0.003058
15900 -1.3238496900000003 9.85715667 -0.11360961 0.00015800000000000002 0.039398 0.004224
15920 -1.24750827 9.74668626 0.02245509 -0.004065999999999999 0.047939 0.003115
15940 -1.34255736 9.727674480000001 0.03023442 -0.019031 0.042661 0.004085
15960 -1.4153083200000003 9.77347737 -0.0634707 -0.026566000000000003 0.028834 0.005118999999999999
15980 -1.43341758 9.818534699999999 -0.07619427 -0.009468 0.034105 0.004163
16000 -1.36635642 9.80895033 -0.05658408 0.000197 0.042615 -0.001121
16020 -1.30214016 9.78036399 0.01781496 -0.010395 0.057574 -0.003351
16040 -1.37130066 9.81119682 0.08636724000000001 -0.017945 0.041613 -0.001247
16060 -1.43072964 9.81777933 -0.07454619 -0.015844999999999998 0.037332 0.001978
16080 -1.3804337700000002 9.7983261 -0.00509139 -0.012649 0.033072000000000004 -0.001199
16100 -1.3358178900000002 9.763294590000001 -0.01826622 -0.010429 0.047995 -0.005475
16120 -1.3359748500000002 9.808803180000002 -0.06256818 -0.016782 0.059732000000000014 -0.0044670000000000005
16140 -1.35198477 9.827814960000001 -0.08562168 -0.013658000000000002 0.04692 -0.000156
16160 -1.3130685 9.796079610000001 -0.015264360000000001 -0.010482 0.042644 0.00094
16180 -1.33762293 9.78156081 -0.060174540000000006 -0.010458 0.045848 -0.0012
16200 -1.4012407800000002 9.816141060000001 -0.14519781 -0.010434 0.049052 -0.00334
16220 -1.344951 9.80610543 -0.06825798 -0.005056000000000001 0.05756 -0.004382
16240 -1.30558347 9.78170796 -0.0025407900000000002 -0.006152 0.050111 -0.005448
16260 -1.3097723400000003 9.79473564 0.01152675 -0.015797 0.038435 -0.007637
16280 -1.3359748500000002 9.83274939 -0.05927202000000001 -0.022145 0.053359 -0.004496
16300 -1.37922714 9.82466595 -0.07619427 -0.011525 0.045852 -0.001207
16320 -1.3395653100000002 9.75372003 0.00987867 -0.009357 0.053301 -0.001202
16340 -1.38641787 9.77273181 0.07648857 -0.007248 0.043723000000000005 -0.005448
16360 -1.3930003800000001 9.87511878 0.057633750000000004 -0.010462 0.043722 -0.002266
16380 -1.42623666 9.82901178 -0.03637548 -0.02115 0.044803 0.003
16400 -1.38522105 9.73380573 0.01616688 -0.025451 0.034178 -0.00022200000000000006
16420 -1.3247424000000003 9.80445735 0.09655002 -0.025408 0.041643 -0.002367
16440 -1.33806438 9.82676529 0.05627997 -0.02116 0.036306 -0.003399
16460 -1.4124634200000001 9.86942898 0.030391380000000003 -0.017969 0.038409 0.000893
16480 -1.4569223400000002 9.796530870000002 -0.028586340000000002 -0.017998 0.0352 0.004102000000000001
16500 -1.34674623 9.727370370000001 0.12319398000000001 -0.028633 0.03845 -0.00024900000000000004
16520 -1.35962676 9.736199370000001 0.07529175 -0.035039 0.036346 -0.00136
16540 -1.35198477 9.787996170000001 -0.00703377 -0.037153 0.043798 0.001821
16560 -1.3648653000000002 9.82856052 0.01721655 -0.036091000000000005 0.041668 0.000763
16580 -1.41650514 9.80476146 0.051198389999999996 -0.045741 0.03211 0.0017760000000000005
16600 -1.41710355 9.7724277 0.04999176 -0.072312 0.058818 0.005829
16620 -1.42069401 9.77797035 -0.01317483 -0.08508099999999999 0.064197 0.003596
16640 -1.39015548 9.808351920000002 -0.023946210000000002 -0.068092 0.038601 -0.00373
16660 -1.33267869 9.755966520000001 -0.00718092 -0.041435 0.03319 -0.005673
16680 -1.32773445 9.81074556 -0.025751250000000003 -0.0381 0.066189 -0.002487
16700 -1.4349185100000001 9.85445892 -0.050590170000000004 -0.034775 0.097058 0.000701
16720 -1.4283261900000002 9.816582510000002 0.03592422 -0.023982 0.108802 -0.015262
16740 -1.41590673 9.7465293 0.02529999 -0.005768 0.121539 -0.019424
16760 -1.34614782 9.78470001 -0.00987867 0.020961 0.140595 -0.012852
16780 -1.36890702 9.78545538 0.02095416 0.032725 0.155434 -0.004243
16800 -1.42368606 9.81299205 0.031136940000000002 0.012536 0.178919 0.000927
16820 -1.42908156 9.80505576 -0.0068866199999999995 -0.006667 0.177925 -0.000275
16840 -1.4130618300000002 9.76269618 -0.034727400000000005 0.011345 0.151226 0.000954
16860 -1.37833443 9.79473564 0.015568470000000001 0.029433 0.147937 0.008562
16880 -1.42982712 9.836496810000002 0.08921214 0.031481 0.128755 0.008601000000000001
16900 -1.44778923 9.771525180000001 0.12558762 0.012411 0.160771 0.010563
16920 -1.39045959 9.75865446 0.12288987000000001 -0.002472 0.172541 0.010444
16940 -1.39719906 9.77317326 0.08726976 -0.00374 0.121438 0.004091
16960 -1.4449443300000002 9.792783450000002 0.11436498 0.010048 0.101158 0.002077
16980 -1.41920289 9.81119682 0.08532738000000001 0.029342 0.126636 0.0075200000000000015
17000 -1.32803856 9.72992097 0.3005784 0.02507 0.123464 0.005358
17020 -1.34659908 9.74728467 0.47406825 0.01963 0.101107 0.006417
17040 -1.46261214 9.796530870000002 0.26944146 0.020577 0.07235 0.004324000000000001
17060 -1.48117266 9.83470158 0.10088604 0.030011000000000006 0.03291 0.002304
17080 -1.5013812600000003 9.867035340000001 0.12393954 0.041704000000000005 0.026465 0.005598
17100 -1.5763689 9.78470001 0.35176698 0.0256 0.007333 0.008715
17120 -1.6359450300000002 9.72018945 0.35685837000000004 -0.002134 0.005312 0.005319
17140 -1.58849406 9.847719450000001 0.23875578 -0.008612 -0.022319 -0.005372999999999999
17160 -1.6278615900000002 9.84532581 0.02320065 -0.016161000000000002 -0.04783 -0.01287
17180 -1.6151380200000003 9.85595004 -0.049246200000000004 -0.034211 -0.023287 -0.007687
17200 -1.5176952900000003 9.7610481 0.06780672000000001 -0.047282 -0.078653 -0.0034340000000000004
17220 -1.36037232 9.71794296 0.27557271000000005 -0.06758099999999999 -0.084973 -0.003568
17240 -1.35438822 9.71105634 0.17992521 -0.061166 -0.084983 -0.0067280000000000005
17260 -1.3983958800000003 9.864033480000002 0.06556023 -0.036465 -0.057338 -0.015136000000000004
17280 -1.4374593 9.871077060000001 -0.031136940000000002 -0.001134 -0.034008 -0.019192
17300 -1.36890702 9.80626239 0.05792805 0.020333 0.002107 -0.011611
17320 -1.36307007 9.703571310000001 0.36808101 0.022471 0.012713 -0.001996
17340 -1.445994 9.71763885 0.30446316 0.021443 0.031849 0.008655
17360 -1.41275772 9.84458025 0.046548450000000005 0.028031 0.073372 0.008648000000000001
17380 -1.3178557800000001 9.811500930000001 -0.01227231 0.037719 0.091452 0.007624
17400 -1.34255736 9.79038981 0.016618140000000003 0.052722000000000005 0.103131 0.004509
17420 -1.26681435 9.75042387 0.07380063 0.070983 0.136069 0.009935
17440 -1.2882197700000002 9.768385980000001 0.04745097 0.06565900000000001 0.145646 0.017363999999999997
17460 -1.3156092899999998 9.94022775 -0.05703534 0.038925 0.138256 0.023596
17480 -1.33432677 9.755515260000001 -0.05927202000000001 0.012234 0.12984500000000002 0.019147
17500 -1.3247424000000003 9.799974180000001 -0.11960352 0.001551 0.117137 0.009475
17520 -1.27848825 9.696537540000001 0.033383430000000006 0.003718 0.120342 0.005213000000000001
17540 -1.35902835 9.76284333 0.10044459 0.006837 0.099039 0.002057
17560 -1.3651596 9.866731230000001 -0.09340101 -0.015648 0.078885 -0.00021
17580 -1.3016889 9.811049670000001 -0.00194238 -0.027451 0.06931799999999999 0.005061
17600 -1.3817777400000002 9.80071974 0.06885639 -0.009372 0.056471 0.005203
17620 -1.34480385 9.75446559 -0.03652263 0.00556 0.047927 -0.002159
17640 -1.35303444 9.83738952 0.05867361000000001 0.006603 0.041536 -0.003212
17660 -1.5069141000000001 9.915231870000001 0.14759145 -0.008425 0.027714 0.0031100000000000004
17680 -1.6181398800000002 9.78335604 0.11525769000000001 -0.01175 0.00215 0.005256
17700 -1.56963924 9.7954812 0.01886463 -0.004239 0.00959 0.003163
17720 -1.49284656 9.82466595 0.09700128 -0.001995 0.028778 -0.002187
17740 -1.4115609000000002 9.75011976 0.24653511000000003 -0.006243 0.029871 -0.005423
17760 -1.46275929 9.68171463 0.35311095000000003 0.001201 0.033007 0.003171
17780 -1.53790389 9.81344331 0.27602397 0.013946 0.030789 0.013945
17800 -1.5211386 9.76539393 0.22199049 0.021558 0.060599 0.011823
17820 -1.4003382600000003 9.715392360000001 0.0691605 0.016281 0.070217 0.00857
17840 -1.37324304 9.867633750000001 -0.00837774 -0.000717 0.089439 0.011631
17860 -1.38776184 9.88110288 0.01826622 -0.024346 0.056489 0.013644
17880 -1.3591755 9.645790410000002 0.24729048000000003 -0.027508 0.062901 0.011478
17900 -1.4100697800000002 9.64684008 0.12005478000000001 -0.011606 0.040474 0.011618
17920 -1.4825166300000001 9.956993040000002 -0.060920100000000005 0.007665000000000002 0.057443 0.013867
17940 -1.4587175700000001 9.82721655 -0.08906499000000001 0.021486 0.049925 0.017178
17960 -1.41575958 9.671835960000001 -0.0142245 0.004459 0.050023000000000005 0.007445
17980 -1.34255736 9.70491528 0.031588200000000004 -0.010343 0.06717000000000001 -0.005499
18000 -1.4135130900000004 9.80461431 -0.057329639999999994 -0.018854 0.075709 -0.002365
18020 -1.48505742 9.90370512 -0.17258733 -0.0072 0.060742 0.00094
18040 -1.4256382500000002 9.808499070000002 -0.18965673000000005 -0.000851 0.047941 -6.7e-05
18060 -1.3293825300000004 9.75372003 0.00104967 -0.003918 0.075657 -0.002261
18080 -1.36037232 9.780815250000002 0.12424365 -0.00386 0.083135 -0.007611
18100 -1.43327043 9.81059841 -0.01317483 -0.00485 0.103366 -0.004439
18120 -1.5167927700000001 9.8358984 -0.07095573000000001 -0.004903 0.091648 -0.004425
18140 -1.5310172700000002 9.70447383 0.07289811 -0.017629 0.117225 0.004
18160 -1.4841647100000002 9.73231461 0.09999333 -0.022877 0.139602 0.007139
18180 -1.5908877000000001 9.81583695 0.09789399 -0.017619 0.120417 0.005064
18200 -1.68145362 9.80805762 -0.041309910000000005 -0.009166 0.101217 0.004079
18220 -1.6115475600000002 9.81583695 -0.00523854 -0.0026780000000000003 0.12461300000000003 0.008367
18240 -1.4153083200000003 9.79368597 0.07784234999999999 -0.022896 0.14382899999999998 0.015679
18260 -1.36606212 9.72183753 0.18995103 -0.044262 0.133268 0.01127
18280 -1.40737203 9.727674480000001 -0.04086846000000001 -0.041104 0.123669 0.011305
18300 -1.44673956 9.885291750000002 -0.04984461 -0.014605000000000003 0.07886 0.005138
18320 -1.40811759 9.75207195 -0.04715667 -0.01363 0.060739 0.007305
18340 -1.3475016 9.83664396 0.02215098 -0.02858 0.060778 0.010405
18360 -1.42683507 9.868232160000002 0.015568470000000001 -0.055117 0.087516 0.00698
18380 -1.39031244 9.73111779 0.17963091 -0.062835 0.028965 0.003797
18400 -1.3709965499999999 9.74174202 0.13591755 -0.039431 0.013969 0.00398
18420 -1.4257854 9.74234043 0.04715667 -0.017012 0.013904 0.000932
18440 -1.42548129 9.79084107 -0.02829204 -0.017079 -0.004193 -0.00225
18460 -1.36097073 9.820477080000002 -0.006582510000000001 -0.030992 -0.012671 -0.001268
18480 -1.4305726800000003 9.83724237 0.0779895 -0.021452 -0.029736 -0.004385
18500 -1.4585704199999998 9.7695828 0.12169305 0.005243 -0.027686 -0.007405
18520 -1.45572552 9.76180347 0.11406087000000001 0.002014 -0.033005 -0.006353
18540 -1.4742860400000002 9.81389457 -0.0489519 -0.01718 -0.030807 -0.006490000000000001
18560 -1.4069207700000002 9.787397760000001 0.0170694 -0.025777 -0.041443 -0.003332
18580 -1.3853682000000003 9.73605222 0.05852646 -0.004416 -0.043618 -0.010657
18600 -1.42219494 9.78141366 0.11346246 0.017978 -0.050071 -0.014765
18620 -1.42548129 9.8478666 0.01466595 0.015859 -0.036258 -0.004116
18640 -1.4664969 9.878562089999999 -0.0318825 -0.001139 -0.014913999999999997 0.001079
18660 -1.37384145 9.675730530000001 -0.12453795000000001 -0.008602 -0.028677 -0.01391
18680 -1.2928599000000003 9.84487455 0.10628154000000001 -0.0032770000000000004 -0.038253 -0.021338
18700 -1.29645036 9.70716177 0.13426947 0.010678 -0.0063950000000000005 -0.008463
18720 -1.3814736300000001 9.7983261 -0.01796211 0.013893 0.005278 9e-05
18740 -1.37788317 9.870920100000001 -0.1764819 0.001081 -0.003174 -0.006398
18760 -1.3058875799999998 9.744135660000001 -0.12484206 -0.010563 0.014985 -0.008639
18780 -1.2979512899999999 9.67004073 0.20926692000000002 -0.006267 0.014996 -0.015018
18800 -1.32609618 9.71763885 0.09789399 0.015157 0.037279 -0.011692
18820 -1.32369273 9.88708698 -0.06301944 0.025782 0.03402 -0.005205
18840 -1.35169047 9.978398460000001 -0.12259557 0.023658 0.035097 -0.006289
18860 -1.22819238 9.83140542 0.03023442 0.018314 0.030863 -0.008457
18880 -1.2543948900000002 9.70312005 0.19489527 0.019352 0.023407 -0.009509
18900 -1.3611178800000001 9.71854137 0.15178032 0.020544 0.0511 -0.009536
18920 -1.3584299400000002 9.88260381 -0.045802890000000006 0.028098 0.068127 -0.011641
18940 -1.30349394 9.88574301 0.0085347 0.042972 0.046799 -0.018988
18960 -1.2195105300000002 9.83425032 0.29278926000000005 0.02794 0.028729 -0.015865
18980 -1.3527401400000003 9.77018121 0.28889469 0.031107 0.032932 -0.004098
19000 -1.4901488100000002 9.68695317 0.13486788 0.038608 0.041424 -0.002988
19020 -1.49150259 9.887685390000001 -0.03622833 0.045062 0.04357 -0.01256
19040 -1.34674623 9.89322804 0.05163984 0.03757 0.039331 -0.011538
19060 -1.30678029 9.75102228 0.33500169 0.024696 0.032946 -0.002006
19080 -1.5012243 9.727370370000001 0.38036313000000005 0.017169999999999998 0.024433 0.002225
19100 -1.50990615 9.76688505 0.12393954 0.011817 0.015946000000000002 -0.002074
19120 -1.4479363800000002 9.82241946 0.09744273000000002 0.007511 0.0053170000000000005 -0.004227000000000001
19140 -1.50781662 9.80640954 0.14923953 0.014931 -5.600000000000001e-05 0.001173
19160 -1.49628987 9.799670070000001 0.14564907000000002 0.010587 -0.012842 0.005432
19180 -1.4724908100000003 9.80476146 0.32946885000000004 -0.009731 -0.022363 0.006370000000000001
19200 -1.5349118400000004 9.77407578 0.23920704 -0.028863 -0.009499 0.003015
19220 -1.55122587 9.74683341 0.09669717 -0.021376 -0.006326 0.001995
19240 -1.5385023 9.72542799 0.09520605 -0.005445 -0.025543 -0.001074
19260 -1.5399934199999998 9.857303820000002 0.12169305 -0.010764 -0.011719 0.009554
19280 -1.47937743 9.835447140000001 0.1764819 -0.031054 -0.014847999999999997 0.010484
19300 -1.45886472 9.73860282 0.27243351000000005 -0.043804 -0.002025 0.011447
19320 -1.4545287000000002 9.74952135 0.19578798 -0.031972 0.009691 0.001901
19340 -1.49778099 9.75805605 0.07589016 -0.004190999999999999 0.010693 -0.006451999999999999
19360 -1.52607303 9.84592422 -0.011673900000000001 0.010836 0.034064 -0.003173
19380 -1.38686913 9.81434583 0.07858791000000001 0.004459 0.041535 -0.00109
19400 -1.35498663 9.77766624 0.14130323999999997 -0.002057 0.024479 0.0074319999999999985
19420 -1.49404338 9.74817738 0.05254236000000001 0.000105 0.036168 0.012773
19440 -1.5232281300000001 9.78021684 -0.02215098 0.010803 0.036156 0.006437999999999999
19460 -1.46739942 9.72617355 -0.06361785 0.023677 0.047846 0.002241
19480 -1.43611533 9.82990449 -0.10178856 0.019323 0.035052999999999994 0.008636
19500 -1.41784911 9.74698056 -0.03922038 0.00544 0.040393 0.017078
19520 -1.45467585 9.73260891 0.00913311 -0.002019 0.034062 0.008487999999999999
19540 -1.50961185 9.767189160000001 -0.13741848 -0.010472 0.038408 -0.005463
19560 -1.37922714 9.79233219 -0.11975067000000002 -0.021122 0.04695 -0.001276
19580 -1.39330449 9.8159841 -0.1070271 -0.025552 0.016051 0.004074
19600 -1.46589849 9.799670070000001 -0.10956789 -0.020246 0.007519 0.001985
19620 -1.4738347800000002 9.775419750000001 -0.01781496 0.00443 0.030899 -0.00535
19640 -1.46530008 9.73425699 0.00942741 0.008808 0.052202 -0.008551000000000001
19660 -1.4895504000000002 9.76539393 -0.032932170000000004 -0.011448 0.058652 -0.005496
19680 -1.45706949 9.833504759999999 -0.06720831000000001 -0.02214 0.061851 0.002971
19700 -1.47667968 9.79084107 0.023799060000000004 -0.0062 0.054313 0.009501
19720 -1.43341758 9.73874997 0.20896281000000003 0.023725 0.060621 0.004361
19740 -1.5211386 9.72512388 0.37168128 0.025931 0.077654 0.005423
19760 -1.6600482 9.73051938 0.18037647 0.0024690000000000003 0.08411 0.009523
19780 -1.6531615800000001 9.91313253 -0.0068866199999999995 -0.012496 0.077771 0.009427
19800 -1.49030577 9.759252870000001 -0.00673947 0.002383 0.061752 0.006347
19820 -1.38686913 9.716147730000001 0.11989782 0.015181 0.05852 0.004304
19840 -1.4016822299999998 9.7695828 0.09924777 0.027969 0.058463 0.0075980000000000015
19860 -1.5452319600000002 9.764942670000002 0.07364366999999998 0.003517 0.076662 0.006336
19880 -1.5188921100000001 9.808499070000002 0.01542132 -0.011414 0.070353 -0.0012380000000000002
19900 -1.5337150200000003 9.787996170000001 0.05163984 -0.007195 0.053319000000000005 -0.007595999999999999
19920 -1.4756300100000002 9.78036399 0.1155618 0.008693000000000001 0.03088 -0.004252000000000001
19940 -1.509759 9.77601816 0.13771278 0.018175 0.018008 0.009718
19960 -1.5362558099999999 9.796226760000001 0.03922038 0.016013 0.015868 0.013978
19980 -1.45601982 9.78859458 0.01497006 0.005386999999999999 0.015943000000000002 0.00429
20000 -1.4257854 9.77871591 0.11211849 0.003325 0.024503 -0.003213
20020 -1.5167927700000001 9.78485697 0.17573634 0.008645 0.020227 -0.004238
20040 -1.5834026700000001 9.7983261 0.13936086 0.011769 0.012721 0.005407
20060 -1.6272631800000001 9.82901178 0.03726819 0.005291 -5.7e-05 0.009651
20080 -1.47892617 9.87780672 0.05268951 0.004267 0.004229 0.004297
20100 -1.32639048 9.693094230000002 0.23636214000000003 0.001057 -1.2e-05 0.002144
20120 -1.44524844 9.746235 0.31285071000000003 0.003249 0.011702 0.001076
20140 -1.5491265300000001 9.75416148 0.13756563000000002 0.0064540000000000005 0.017001 0.005364
20160 -1.57727142 9.830502899999999 -0.04775508 -0.001105 -0.001091 0.0074709999999999985
20180 -1.4638089600000002 9.82062423 -0.013469130000000001 -0.00853 0.005339 0.0042060000000000005
20200 -1.39031244 9.735306660000001 0.17289144 -0.003157 0.008537999999999999 -0.001101
20220 -1.4681449800000002 9.716294880000001 0.14849397 0.002254 0.023441 -0.003219
20240 -1.53730548 9.79802199 -0.0025407900000000002 -0.003105 0.022377 0.001018
20260 -1.51050456 9.82676529 0.025143030000000004 -0.017027 0.016013 0.00627
20280 -1.47637557 9.83963601 0.09100737 -0.017127 -0.0074189999999999985 0.005231
20300 -1.54463355 9.72227898 0.1360647 -0.006401 2.2e-05 -4.5e-05
20320 -1.43521281 9.72227898 0.07424208000000002 0.007597 0.02237 -0.006385
20340 -1.3350723300000003 9.765246780000002 -0.017667810000000003 0.016152 0.026601 -0.006331
20360 -1.32070068 9.847121040000001 -0.04190832 -0.004109000000000001 0.03623 0.000993
20380 -1.42308765 9.849367529999999 -0.05343507 -0.012697 0.028786000000000006 0.005215999999999999
20400 -1.4684490900000002 9.752523210000001 0.07948062 -0.006272 0.029846 0.000986
20420 -1.4678506800000002 9.73096083 0.21240612000000003 0.01198 0.052165 -0.00212
20440 -1.47862206 9.77407578 0.030685680000000003 0.015272 0.07557699999999999 0.001078
20460 -1.4117178600000002 9.79758054 -0.031136940000000002 0.00031600000000000004 0.072429 0.002046
20480 -1.42593255 9.81373761 -0.030391380000000003 -0.005104 0.054334 0.003099
20500 -1.41875163 9.83200383 -0.027389520000000004 0.006636 0.060664 0.008514
20520 -1.46230803 9.80954874 0.08232552 0.016209 0.051055 0.005389
20540 -1.53655011 9.81464013 -0.018413370000000002 0.012004 0.059614 7.000000000000002e-06
20560 -1.4606599500000002 9.74728467 -0.020355750000000002 0.002441 0.06923 0.000997
20580 -1.46859624 9.77960862 0.01751085 0.001402 0.075626 0.000981
20600 -1.37848158 9.80086689 0.0925083 0.00889 0.079861 0.0010279999999999998
20620 -1.35558504 9.81793629 0.19878984000000002 0.008808 0.061751 0.001051
20640 -1.45063413 9.77077962 0.11226564 -0.001889 0.056458 0.0020510000000000003
20660 -1.44104976 9.7724277 -0.0076321800000000006 -0.001913 0.055376 0.006325
20680 -1.4046742800000003 9.78156081 -0.04685256 -0.001889 0.055397 0.000984
20700 -1.37862873 9.728420040000001 0.12379239 0.002369 0.053252 0.001017
20720 -1.4465924099999998 9.80535987 0.22153923 0.0033880000000000004 0.042595 0.001037
20740 -1.52338509 9.780815250000002 0.09205704 0.00975 0.03299 2.6e-05
20760 -1.5702376500000002 9.81418887 -0.04086846000000001 0.003354 0.036199 0.002113
20780 -1.49389623 9.747431820000001 -0.08741691000000001 -0.008409999999999999 0.028788 0.000973
20800 -1.40662647 9.77063247 0.12094749 -0.019069 0.033078 0.003029
20820 -1.48177107 9.74518533 0.22887711000000002 -0.016978999999999998 0.021361 0.000922
20840 -1.60286571 9.7983261 0.052993620000000005 0.008664 0.024488 -0.004244
20860 -1.60436664 9.816739470000002 -0.019306080000000003 0.024758 0.041489 -0.007358
20880 -1.4895504000000002 9.81418887 0.0056898 0.01086 0.036207 -0.006379999999999999
20900 -1.4784749099999999 9.75685923 0.1070271 -0.011529 0.041603 -0.004407
20920 -1.45123254 9.703875420000001 0.12783411 -0.000933 0.027709 -0.002178
20940 -1.4748844500000002 9.813590460000002 0.0865242 0.017218 0.029781 -0.003123
20960 -1.53670707 9.84353058 0.05972328000000001 0.034235 0.015881 -0.005122
20980 -1.5214329000000002 9.79353882 0.07155414 0.017156 0.026542000000000003 0.0075629999999999985
21000 -1.5143991300000001 9.75356307 0.13981212 -0.000981 0.025545 0.006370000000000001
21020 -1.52772111 9.72512388 0.09325386000000001 -0.011683 0.017064 0.0052380000000000005
21040 -1.5037749000000002 9.79353882 0.05433759 -0.0063100000000000005 0.022384 0.002064
21060 -1.4687433900000002 9.775871010000001 0.0011968200000000001 -0.009496 0.025591 0.002037
21080 -1.4542245900000002 9.817485029999999 0.03831786 -0.038316 0.024618 0.003974
21100 -1.4735404799999998 9.79009551 0.0113796 -0.057582000000000015 0.012959 0.005991
21120 -1.5124567500000001 9.80550702 0.015264360000000001 -0.070365 0.017265 0.005896
21140 -1.48086855 9.80236782 0.06421626 -0.056409 0.028964 -0.001499
21160 -1.4413538700000001 9.73590507 0.07753824000000002 -0.036038 0.041715 -0.010987
21180 -1.4611112100000003 9.74967831 -0.02170953 -0.032747000000000005 0.06194400000000001 -0.01099
21200 -1.44405162 9.82990449 -0.021258270000000003 -0.038067 0.07576799999999999 -0.000363
21220 -1.4317695000000001 9.77661657 0.07244685 -0.020007 0.056538 -0.002349
21240 -1.4202427499999999 9.74832453 0.18396693 0.009952 0.077731 -3e-05
21260 -1.4956914600000002 9.768690090000002 0.20537235 0.033566000000000006 0.109607 9.4e-05
21280 -1.53955197 9.7582032 0.0782838 0.041958 0.07761900000000001 0.000194
21300 -1.5347548800000002 9.898466580000001 -0.022749390000000005 0.017329 0.068075 0.010716
21320 -1.5190392600000002 9.78919299 -0.08337519 0.013119 0.080873 0.01067
21340 -1.42219494 9.64593756 0.15103476000000002 0.038695 0.06166 -0.001945
21360 -1.5021268200000002 9.76508982 0.07139718 0.055908000000000006 0.090375 -0.005065999999999999
21380 -1.52353224 9.79368597 -0.10867518 0.049382 0.064822 -0.002943
21400 -1.45242936 9.85999176 -0.1588239 0.021558 0.053172 0.004355
21420 -1.37249748 9.93364524 -0.11331531000000002 0.005478 0.039366000000000005 0.007465
21440 -1.4563239300000002 9.66389967 0.03262806 0.016089 0.022302 0.003288
21460 -1.50078285 9.76240188 0.11061756 0.023552 0.018027 0.00014099999999999998
21480 -1.5633510300000002 9.75386718 0.06780672000000001 0.020285 0.004186 0.001205
21500 -1.52862363 9.772280550000001 0.0047872800000000005 0.016008 0.010558 0.009712
21520 -1.52592588 9.817033770000002 0.040711500000000005 0.01384 0.003109 0.009707
21540 -1.51485039 9.775272600000001 0.14160735 0.008458 -0.013891 0.003282
21560 -1.5143991300000001 9.68291145 0.31270356000000005 -0.002206 -0.011727 0.004273
21580 -1.57652586 9.71390124 0.31359627000000007 -0.004344 -0.00748 0.009593
21600 -1.6214262300000002 9.723927060000001 0.17708031000000002 -0.006564 -0.024526 0.011736
21620 -1.5453889200000002 9.832307940000002 0.04295799 -0.011855 -0.015981 0.01062
21640 -1.4317695000000001 9.839940120000001 0.15538058999999999 -0.00644 0.001049 0.009568
21660 -1.44015705 9.79892451 0.23890293 -0.003186 0.010634 0.007442
21680 -1.51320231 9.82122264 0.06720831000000001 -7.7e-05 -0.0128 0.004289
21700 -1.57936095 9.816141060000001 -0.0073378800000000015 -1e-05 0.004235 0.006404000000000001
21720 -1.53984627 9.80760636 0.00509139 0.012807 0.013753 0.01289
21740 -1.4585704199999998 9.73365858 -0.05792805 0.019275 0.028644 0.012916999999999998
21760 -1.34674623 9.67258152 0.164808 0.010841 0.044678 0.006428
21780 -1.53670707 9.80162226 0.07155414 0.005598 0.056449 -0.00217
21800 -1.54613448 9.889186320000002 -0.11001915 0.009885 0.057512 -0.005346
21820 -1.4985363600000001 9.88619427 -0.09595161 0.014166 0.065998 1.4e-05
21840 -1.41815322 9.72961686 -0.07304525999999999 0.019453 0.05957100000000001 0.004332
21860 -1.37130066 9.68665887 0.08457201 0.022682 0.069134 0.007547
21880 -1.41904593 9.71659899 -0.05583852 0.017366999999999997 0.071292 0.005371
21900 -1.4563239300000002 9.855802890000001 -0.18636057 0.016338 0.077696 0.003219
21920 -1.47443319 9.86089428 -0.12259557 0.017419999999999998 0.08301 0.0053560000000000005
21940 -1.4129146799999999 9.77452704 -0.10448631000000001 0.013152 0.083025 0.005327
21960 -1.48850073 9.771829290000001 -0.05613282 0.0035310000000000007 0.080919 0.0073989999999999985
21980 -1.49359212 9.752366250000001 -0.08876088000000001 -0.002889 0.074558 0.005225
22000 -1.46560419 9.72976401 -0.04011309 -0.000698 0.089456 0.007358
22020 -1.4150042100000002 9.80505576 -0.020355750000000002 0.006794 0.093695 0.006337
22040 -1.4537733300000002 9.82497006 -0.026192700000000003 0.017472 0.094728 0.005342
22060 -1.5015284100000001 9.80640954 -0.02320065 0.017366999999999997 0.075536 0.009639
22080 -1.4657513400000002 9.72976401 0.0606258 0.013071 0.073403 0.013884
22100 -1.47937743 9.76300029 0.09550035000000001 0.006670000000000001 0.07660800000000001 0.01704
22120 -1.5167927700000001 9.78904584 0.17229302999999999 0.004574 0.07665 0.00848
22140 -1.51485039 9.78185511 0.10822392 0.00788 0.09477 0.003138
22160 -1.5135064200000001 9.80131815 0.04011309 0.008976000000000001 0.097975 -6.3e-05
22180 -1.52607303 9.82586277 0.10972485000000001 0.01432 0.102208 0.002105
22200 -1.5477825600000001 9.787093650000001 0.13636880999999998 0.026060000000000003 0.106416 0.005386999999999999
22220 -1.6104978900000002 9.72976401 0.20238030000000004 0.031404 0.105345 0.002221
22240 -1.58684598 9.764491410000002 0.17662905 0.015396 0.108579 0.006378
22260 -1.5627526200000001 9.80505576 0.028439190000000003 0.026276 0.164963 0.015995
22280 -1.51485039 9.82272357 0.0015009300000000001 0.017679 0.151144 0.015953
22300 -1.49778099 9.80176941 0.0009025200000000001 0.005876 0.13521 0.014823
22320 -1.4883535800000003 9.731716200000001 0.10568313 -0.015013 0.015899 0.03299
22340 -1.5790666500000001 9.73590507 0.019011780000000002 -0.010354 -0.12901700000000002 0.038549
22360 -1.52262972 9.82646118 -0.0026977500000000005 0.035171 -0.218613 0.027231
22380 -1.5582596400000002 9.8535564 -0.0058369500000000005 0.044514 -0.282536 0.020969
22400 -1.50990615 9.764795520000002 0.0068866199999999995 0.035088999999999995 -0.257942 0.005917
22420 -1.56619593 9.70222734 0.02544714 0.020388 -0.218424 -0.007055
22440 -1.53520614 9.680066550000001 0.04176117000000001 0.014375 -0.132115 -0.007208
22460 -1.53190998 9.78649524 -0.02365191 -0.008909 -0.096854 -0.013825
22480 -1.54015038 9.847719450000001 -0.08083440000000001 -0.020304 -0.029667 -0.022536
22500 -1.4889519900000001 9.833946209999999 -0.0290376 -0.021241 0.002282 -0.019379
22520 -1.49778099 9.77976558 -0.023799060000000004 -0.002956 0.04373 -0.010759
22540 -1.46500578 9.72932256 -0.02185668 -0.004013 0.044803 -0.011836
22560 -1.47772935 9.75042387 0.09011466 -0.009046 0.118299 -0.005556
22580 -1.54807686 9.75087513 -0.027389520000000004 0.009403 0.201271 0.008354
22600 -1.52891793 9.79413723 -0.033383430000000006 0.018019 0.2289 0.017991999999999998
22620 -1.4917968900000003 9.787397760000001 -0.00299205 0.00957 0.248104 0.017909
22640 -1.51425198 9.77661657 0.00045126000000000004 -0.020105 0.289763 0.015512
22660 -1.59972651 9.82241946 0.017667810000000003 -0.022884 0.379273 0.011105
22680 -1.64926701 9.735453810000001 0.00209934 0.007356999999999998 0.4527060000000001 0.002676
22700 -1.55407077 9.8617968 -0.05658408 0.025609 0.427281 -0.048439
22720 -1.6762150800000002 9.845629920000002 0.02425032 0.009611 0.418853 -0.058154
22740 -1.61065485 9.75880161 -0.08667135 -0.018065 0.492214 0.0013800000000000002
22760 -1.17970155 9.79353882 -0.46194309 -0.024653 0.454936 0.005654
22780 -0.68976072 9.91896948 -0.74514798 -0.022879 0.378216 0.00897
22800 -0.29249496 9.96223158 -0.60309918 -0.009307 0.323792 0.020885
22820 -0.3005784 9.65148021 -0.30072555 0.0010550000000000002 0.256639 0.022111
22840 -1.0382413499999998 9.76554108 -0.13142457 -0.00351 0.198035 0.029632
22860 -1.4253341400000001 9.759556980000001 0.10478061 -0.014255 0.168296 0.016776
22880 -1.4198013 9.79712928 0.23486121000000001 -0.017849 0.08201599999999999 0.01793
22900 -1.5476354099999998 9.897416909999999 0.5020561800000001 -0.001081 0.016967 0.020267
22920 -1.67681349 9.58621428 0.24144372 0.001937 -0.032012 0.011805
22940 -1.6224759000000002 9.74159487 0.03503151 -0.020486 -0.035134 0.012721
22960 -1.45257651 9.73440414 -0.01616688 -0.038805 -0.072368 0.015844999999999998
22980 -1.6377402600000002 9.65432511 0.06107706 -0.01875 -0.121436 0.014980000000000004
23000 -1.97739189 9.79562835 -0.10583028000000001 -0.003795 -0.127838 0.00441
23020 -2.23155918 9.79697232 -0.19564083 0.001544 -0.129974 0.001246
23040 -2.22557508 9.86343507 -0.04625415 -0.010206 -0.126763 0.0075689999999999985
23060 -2.20386555 9.784248750000001 0.17917965 -0.007067 -0.136378 0.011876
23080 -2.2260165300000003 9.70985952 0.31928607000000003 -0.001815 -0.15981199999999998 0.006601
23100 -2.41358373 9.684108270000001 0.27677934 0.00783 -0.164051 -0.007213
23120 -2.2492269900000004 9.78110955 0.27482715 0.011256 -0.117177 -0.010453
23140 -2.09534733 9.828707670000002 0.40715424 -0.002532 -0.09902 -0.010573
23160 -1.7815941 9.75850731 0.20372427 -0.009163 -0.14058099999999998 -0.000952
23180 -1.55347236 9.704022570000001 -0.15837263999999998 -0.014545 -0.157581 -0.007377
23200 -1.4076761400000002 9.803113380000001 -0.13397517 -0.015578 -0.143754 -0.000993
23220 -0.9382480200000001 9.655816230000001 -0.17453952 0.004821 -0.110819 0.00338
23240 -0.73586772 9.799375770000001 -0.4316988600000001 0.010098 -0.116194 0.010902
23260 -0.79154928 9.81688662 -0.64995174 0.014342 -0.125779 0.006670999999999999
23280 -0.98270694 9.88844076 -0.6969514500000001 0.021786 -0.139619 -0.001805
23300 -1.0186311599999998 9.85745097 -0.5956141500000001 0.011146 -0.134252 -0.002955
23320 -0.76446387 9.721386270000002 -0.45176031000000005 0.00065 -0.095865 -0.003077
23340 -0.8051753700000001 9.771976440000001 -0.48663486 0.005075 -0.060726 -0.003091
23360 -1.03570056 9.80176941 -0.52750332 0.002855 -0.07989299999999999 -0.003082
23380 -0.9695321100000001 9.85850064 -0.5742087300000001 -0.005598 -0.06812 -0.009566
23400 -0.95261967 9.863592030000001 -0.32198382000000003 -0.01297 -0.054215999999999986 -0.017113
23420 -1.10994264 9.67558338 -0.18995103 -0.006492 -0.031889 -0.011755
23440 -1.3278914099999999 9.71299872 -0.18427104 -0.008636 -0.023402000000000003 -0.001099
23460 -1.3497480900000003 9.849671640000002 -0.22812174000000002 -0.00023 -0.050072000000000005 0.001131
23480 -1.26456786 9.882750960000001 -0.24638796000000002 0.003018 -0.037308 0.003274
23500 -1.20049875 9.82062423 -0.15507648000000004 -0.001153 -0.013866 0.005351
23520 -1.22325795 9.69369264 -0.02694807 -0.008501 0.009609 0.002065
23540 -1.3623147 9.755211150000001 -0.0009025200000000001 -0.007377 0.014961000000000004 -0.005412
23560 -1.53326376 9.82212516 -0.04715667 -0.012654 0.023519 -0.009733
23580 -1.48401756 9.77437008 -0.12768696000000002 -0.017953999999999998 0.039482 -0.001244
23600 -1.34659908 9.79847325 -0.08981055 -0.012644 0.039442000000000005 0.0041340000000000005
23620 -1.4126105700000002 9.74848149 0.0013439700000000003 0.000197 0.045798 0.002079
23640 -1.45302777 9.78679935 -0.00329616 0.006727 0.071355 -0.001113
23660 -1.59793128 9.80086689 -0.15971661 -0.002808 0.08417999999999999 -0.003332
23680 -1.51619436 9.81823059 -0.1013373 -0.015648 0.082069 0.00299
23700 -1.5405918300000003 9.81373761 -0.06107706 -0.025264 0.081028 0.005061
23720 -1.5432895800000002 9.7667379 -0.008681849999999998 -0.025255 0.08422 0.006125
23740 -1.51200549 9.748922940000002 0.052993620000000005 -0.01449 0.102305 0.002972
23760 -1.51050456 9.817485029999999 0.05223825 -0.009036 0.132101 0.006177
23780 -1.4931408600000002 9.79338186 0.06481466999999999 -0.01104 0.158748 0.003992
23800 -1.44824049 9.73590507 0.08756406 -0.01636 0.155597 -0.00245
23820 -1.6842985200000002 9.837840779999999 -0.038023560000000005 -0.029144 0.158842 -0.003612
23840 -1.57382811 9.787397760000001 0.008985960000000001 -0.037736 0.149271 -0.000455
23860 -1.5437408400000001 9.759851280000001 0.0056898 -0.042094 0.131168 0.001674
23880 -1.4738347800000002 9.77946147 -0.07020036 -0.032493 0.134318 0.004942
23900 -1.37458701 9.73860282 -0.07648857 -0.016509 0.13530599999999998 0.010394
23920 -1.5706791 9.81777933 -0.046107 -0.004831 0.113993 0.001957
23940 -1.5138007199999999 9.79727643 -0.11360961 -0.001765 0.07885 -0.003318
23960 -1.5501762000000001 9.787996170000001 -0.04146687000000001 0.003383 0.038347000000000006 -0.0021620000000000003
23980 -1.5958319400000003 9.723927060000001 0.02784078 -0.008381999999999999 0.033057 -0.001169
24000 -1.65990105 9.77317326 0.01497006 -0.020098 0.035237 -0.00339
24020 -1.6434300600000002 9.73006812 0.00942741 -0.015816 0.042662 0.000903
24040 -1.54223991 9.76464837 -0.05134554 -0.005261999999999999 0.019181 0.003143
24060 -1.4365665900000002 9.728272890000001 -0.01437165 -0.006363000000000001 0.010666 0.002078
24080 -1.48161411 9.74324295 0.01092834 -0.006301 0.022393 -7.3e-05
24100 -1.52846667 9.831709530000001 -0.09026181000000001 -0.022212 0.041628 -0.001277
24120 -1.58700294 9.80909748 -0.07199559 -0.024384 0.034174 -0.000214
24140 -1.4702443200000002 9.74248758 -0.00344331 -0.005167000000000001 0.037303 -8.4e-05
24160 -1.45003572 9.787849020000001 -0.018109260000000002 0.018242 0.019128 -0.00417
24180 -1.46605545 9.77392863 -0.00194238 0.013008 0.044701 -0.001035
24200 -1.5476354099999998 9.76704201 0.015264360000000001 -0.015739 0.060767 0.001949
24220 -1.61334279 9.81239364 -0.025594290000000002 -0.024365 0.036313 -0.002353
24240 -1.6359450300000002 9.81373761 0.0344331 -0.0052380000000000005 0.014958 -0.006465
24260 -1.56619593 9.78529842 0.0782838 0.017108 0.007401 -0.000958
24280 -1.5402975300000001 9.72198468 0.10747836000000001 0.024552 0.0031100000000000004 0.000168
24300 -1.4921010000000001 9.75341592 0.04176117000000001 0.004282 0.003181 2.6e-05
24320 -1.4904529199999998 9.816739470000002 -0.03322647 -0.020165 0.018202 -0.005505
24340 -1.48086855 9.727968780000001 -0.13831119 -0.019122 0.012872 -0.005490999999999999
24360 -1.45003572 9.90460764 -0.16750575 0.004296 0.004255 -0.002112
24380 -1.39031244 9.7929306 -0.06511878 0.020294 0.005255 0.000135
24400 -1.3608235800000001 9.721082160000002 -0.01212516 0.017127 0.0074189999999999985 -0.005231
24420 -1.31217579 9.743537250000001 -0.00074556 -0.005171 0.02775 -0.008617
24440 -1.31576625 9.79847325 -0.031136940000000002 -0.012668 0.021384 -0.008662000000000001
24460 -1.35857709 9.82152675 -0.14459940000000002 -0.008381999999999999 0.029874 -0.004370000000000001
24480 -1.4103640800000001 9.76972995 -0.02320065 0.008645 0.021288 -0.003172
24500 -1.38866436 9.760155390000001 0.03771945 0.011956 0.0479 -0.001046
24520 -1.42548129 9.8444331 0.00373761 0.002493 0.079887 -8.499999999999999e-05
24540 -1.4468867100000002 9.77407578 -0.029488860000000002 -0.001741 0.082054 -0.005458
24560 -1.4867055 9.752366250000001 -0.11061756 -0.001736 0.07993600000000001 -0.00866
24580 -1.4741388900000003 9.77886306 -0.02664396 0.008957 0.09053 -0.003258
24600 -1.50466761 9.771682140000001 0.15507648000000004 0.010072 0.107545 0.003137
24620 -1.5263771400000001 9.82257642 0.13651596 0.011062 0.092619 0.0053
24640 -1.54119024 9.80236782 -0.07499745000000001 0.011158 0.111803 0.003139
24660 -1.4299742700000002 9.80461431 -0.14160735 0.0059 0.126744 0.000947
24680 -1.3228000200000003 9.743390100000001 -0.016765290000000002 0.000633 0.14061500000000002 -0.000176
24700 -1.4265309600000002 9.72258309 0.13756563000000002 -0.0014960000000000002 0.136383 -0.005526
24720 -1.45123254 9.8128449 -0.039965940000000005 0.000618 0.132114 -0.0055060000000000005
24740 -1.4425506900000002 9.838890450000001 -0.06975891000000001 0.010124 0.121385 0.005256
24760 -1.3790799900000001 9.82766781 -0.08547453 0.019625 0.098981 0.005351
24780 -1.43072964 9.76164651 -0.0047872800000000005 0.017453 0.08622300000000001 0.00108
24800 -1.42413732 9.65836683 0.05957613 0.016434 0.096879 0.001059
24820 -1.5003315900000003 9.74848149 0.05912487 0.013114 0.07238 0.003204
24840 -1.4862640500000002 9.81269775 0.00030411 -0.000813 0.061768 0.005256
24860 -1.5147032400000002 9.86553441 -0.04221243000000001 -0.005109000000000001 0.053269 0.003101
24880 -1.5135064200000001 9.802966230000001 0.021552570000000004 0.006708 0.067094 -0.001107
24900 -1.4853615300000003 9.688149990000001 0.12618603 0.014171 0.07449 0.007481
24920 -1.61738451 9.687708540000001 0.17603064 0.015185 0.065952 0.010704
24940 -1.61573643 9.8245188 0.02769363 0.004536 0.069189 0.009557
24960 -1.6551039600000002 9.84951468 -0.0230535 -0.000698 0.08733400000000001 0.005224
24980 -1.61319564 9.831552570000001 -0.023799060000000004 -0.0060030000000000005 0.091622 0.003045
25000 -1.6067602800000003 9.72557514 0.11181438 0.002369 0.05855700000000001 0.006351
25020 -1.6833960000000001 9.71495091 0.18710613 0.00344 0.06704500000000001 0.013825
25040 -1.6853481900000002 9.752817510000002 0.06795387 0.001335 0.077688 0.01807
25060 -1.6078099500000003 9.79488279 0.06107706 0.015128 0.054229 0.011787
25080 -1.5819115499999998 9.74159487 -0.01915893 0.019352 0.041444 0.008628
25100 -1.6274201400000001 9.85460607 -0.03831786 0.015088999999999997 0.043585000000000006 0.009664
25120 -1.61589339 9.79593246 0.06122421 0.011889 0.041474 0.007506999999999998
25140 -1.6393883400000002 9.73874997 0.12618603 0.002225 0.020233 -1e-05
25160 -1.62965682 9.74518533 0.016765290000000002 -0.003148 0.014912 0.003164
25180 -1.6199351100000001 9.75057102 -0.0287433 -0.000976 0.025549 0.005302
25200 -1.52667144 9.79248915 -0.09236115 0.007635999999999999 0.037258 6e-06
25220 -1.41784911 9.787397760000001 0.01362609 0.006655 0.054315 -0.00216
25240 -1.4422465800000002 9.724231170000001 0.01018278 -0.003999 0.057548 -0.002238
25260 -1.5060213900000003 9.80490861 -0.11810259 -0.012596 0.047973 0.001987
25280 -1.4736876300000001 9.787093650000001 -0.10073889000000001 -0.007291 0.039441 -0.000101
25300 -1.4751787500000002 9.747578970000001 -0.10358379000000001 -0.003023 0.039426 -7.2e-05
25320 -1.4359681800000001 9.746235 -0.05254236000000001 0.002249 0.027681 0.002117
25340 -1.5308701200000001 9.73815156 -0.01078119 -0.003114 0.027674 0.008489
25360 -1.5808618800000003 9.719738190000001 -0.042065280000000004 -0.003124 0.021299 0.004224
25380 -1.55735712 9.78201207 -0.12649014 -0.014936 5.2e-05 -0.000104
25400 -1.5079637700000004 9.84398184 -0.11077452 -0.006483 -0.015965 0.002112
25420 -1.51006311 9.823920390000001 -0.06107706 -0.000192 -0.03094 0.011789
25440 -1.4991347700000002 9.7171974 -0.03726819 -0.000297 -0.053314 0.012885
25460 -1.5386494500000003 9.740241090000001 -0.12977649 -0.016243 -0.038353 0.014891
25480 -1.5214329000000002 9.76060665 -0.09445068 -0.016309999999999998 -0.054328 0.013843
25500 -1.45213506 9.780962400000002 -0.1619631 -0.008918 -0.075642 0.009649
25520 -1.4561767799999998 9.84637548 -0.29024847 -0.005876 -0.104441 0.016116
25540 -1.46036565 9.77677353 -0.13472073 0.000611 -0.079984 0.021471
25560 -1.4223420900000001 9.72243594 0.0011968200000000001 -0.004718 -0.087388 0.012898
25580 -1.41755481 9.819584370000001 -0.09954207 -0.025911 -0.067026 0.000973
25600 -1.4518309500000002 9.82078119 -0.16406244 -0.026945 -0.065932 -0.005445
25620 -1.4488389000000002 9.728272890000001 -0.09595161 -0.008875 -0.073482 0.002169
25640 -1.40542965 9.73051938 -0.04864779000000001 0.011342 -0.07890499999999999 0.008726000000000001
25660 -1.45273347 9.755368110000001 -0.022307940000000002 0.018748 -0.094901 0.006662
25680 -1.58355963 9.79787484 -0.05328792 0.009175 -0.090598 0.004453
25700 -1.56259566 9.80775351 -0.08442486000000002 -0.001407 -0.072447 0.003288
25720 -1.46589849 9.763893 -0.07260381 0.000712 -0.076711 0.00224
25740 -1.3739886 9.763451550000001 -0.07648857 0.008161 -0.08418099999999999 -0.000903
25760 -1.4552742600000002 9.73784745 -0.10597743000000001 0.006147 -0.060725 -0.004152
25780 -1.47533571 9.79428438 -0.16226721000000002 -0.004416 -0.038313 -0.005323
25800 -1.45362618 9.77886306 -0.18590931 -0.005516 -0.048949 -0.008522
25820 -1.4218908300000002 9.82197801 -0.2282787 0.005176 -0.038355 -0.003119
25840 -1.38656502 9.74264454 -0.16944813 0.018031 -0.021377 0.00229
25860 -1.4605127999999998 9.77482134 -0.20147778000000002 0.013884 0.001025 -0.002041
25880 -1.43372169 9.75207195 -0.1155618 0.001225 0.029845 -0.005371
25900 -1.41920289 9.78605379 -0.19788732 -0.010506 0.030951 -0.005454
25920 -1.50990615 9.8014653 -0.28785483 0.003354 0.03726 0.00318
25940 -1.35602649 9.78844743 -0.25312743 0.021491 0.036136 0.00224
25960 -1.3662092700000001 9.79084107 -0.15478218000000002 0.020539 0.057462 -0.0020670000000000003
25980 -1.41860448 9.77347737 -0.11630736000000001 0.015291 0.077716 -0.001061
26000 -1.4784749099999999 9.73066653 -0.05478885000000001 0.00999 0.086253 -4.1e-05
26020 -1.43521281 9.81733788 -0.06316659000000001 0.016377000000000003 0.083035 8e-06
26040 -1.48476312 9.883947779999998 -0.07005321 0.015348 0.0905 -0.001077
26060 -1.47772935 9.78589683 -0.034874550000000004 0.014277 0.089438 -0.001083
26080 -1.4322207599999999 9.667794240000001 0.10747836000000001 0.007861 0.090509 0.003144
26100 -1.4706955800000001 9.69115185 0.08562168 0.008976000000000001 0.102219 0.004205
26120 -1.50497172 9.8159841 -0.10792962 0.018554 0.092615 1.1e-05
26140 -1.4988306599999999 9.882446850000001 -0.0865242 0.018611000000000003 0.105398 -5e-06
26160 -1.4461411500000003 9.8159841 0.055230299999999996 0.017535 0.103271 -1e-05
26180 -1.4289246 9.755662410000001 0.05912487 0.011052 0.088367 0.003169
26200 -1.47967173 9.752670360000002 0.13531914 0.004613 0.076684 -6.6e-05
26220 -1.55421792 9.775272600000001 0.15433092 0.022874 0.096891 -0.007442
26240 -1.60002081 9.787397760000001 0.01107549 0.033418 0.071278 -0.0051990000000000005
26260 -1.54747845 9.802966230000001 0.03652263 0.032389 0.077682 -0.007351000000000002
26280 -1.5399934199999998 9.732010500000001 0.15986376000000002 0.043015 0.065936 -0.009398
26300 -1.58879817 9.711654750000001 0.16165899 0.037844 0.107478 -0.004146
26320 -1.55916216 9.79024266 0.07380063 0.036834 0.121326 -0.0031030000000000003
26340 -1.64462688 9.832602240000002 0.027242370000000002 0.033629 0.114967 -0.008458
26360 -1.6061618700000002 9.77452704 0.07933347 0.019563 0.079828 3.4e-05
26380 -1.5834026700000001 9.70491528 0.09205704 0.01198 0.06808099999999999 0.013883
26400 -1.5865516800000001 9.743988510000001 0.1130112 0.006737000000000001 0.085156 0.01062
26420 -1.6109491500000002 9.80416305 0.04730382 0.00157 0.115032 0.003068
26440 -1.6402908600000001 9.80581113 0.0015009300000000001 0.004847 0.125699 -0.003332
26460 -1.60047207 9.77302611 0.0013439700000000003 0.000417 0.0948 0.002018
26480 -1.5655975200000003 9.74803023 0.08831943 -0.004956 0.091602 0.007326000000000002
26500 -1.6093010700000001 9.76164651 0.034874550000000004 -0.011314 0.101211 0.0072689999999999986
26520 -1.59313419 9.79593246 -0.02065986 -0.018561 0.149179 0.006089
26540 -1.55048031 9.78230637 -0.01032993 -0.035449 0.175925 -0.007951
26560 -1.53551025 9.73560096 0.008230590000000001 -0.018417 0.170526 -0.00462
26580 -1.53955197 9.76628664 -0.01482291 0.037160000000000006 0.193764 -0.003193
26600 -1.5498819000000004 9.79473564 -0.01302768 0.0547 0.302344 0.001063
26620 -1.5828042600000003 9.80581113 -0.0432621 0.011538 0.420784 -0.010073
26640 -1.49389623 9.791292330000001 -0.07275096 -0.036135 0.495521 -0.010501
26660 -1.46201373 9.75087513 0.01018278 -0.049755 0.552024 -0.009601
26680 -1.53715833 9.7490799 -0.0038945700000000004 -0.032527 0.5966670000000001 7.6e-05
26700 -1.60870266 9.74728467 -0.10253412 0.004967 0.645479 0.015231
26720 -1.5323612400000002 9.73351143 0.00538569 -0.004458 0.678561 0.008713
26740 -1.51590006 9.77946147 -0.08007903000000001 -0.081363 0.6203930000000001 -0.030205000000000006
26760 -1.50856218 9.78005988 -0.09160578000000001 -0.084328 0.659871 -0.043095
26780 -1.51200549 9.77512545 -0.023799060000000004 -0.055729 0.644733 -0.011898
26800 -1.53116442 9.771976440000001 -0.05912487 -0.02912 0.662621 0.020312
26820 -1.60346412 9.727821630000001 -0.21884148000000003 -0.035771 0.6242260000000001 0.037406
26840 -1.55795553 9.736199370000001 -0.23276187000000004 -0.064724 0.5775100000000001 0.023377
26860 -1.43521281 9.75685923 -0.06811083000000001 -0.08936799999999999 0.508537 -0.02264
26880 -1.4166522899999998 9.77991273 -0.23591088000000002 -0.050965 0.519009 -0.010635
26900 -1.56858957 9.81733788 -0.20926692000000002 -0.022194 0.519939 -0.00189
26920 -1.6522688700000001 9.76688505 -0.16630893 -0.008256999999999999 0.512523 -0.024215
26940 -1.62217179 9.759704130000001 -0.2137599 -0.018104 0.473082 -0.009278
26960 -1.4862640500000002 9.72946971 -0.09490194 -0.035634 0.386792 0.006732999999999999
26980 -1.5033236400000003 9.77766624 -0.11675862 -0.033883 0.302624 0.007921
27000 -1.6398396000000002 9.7986204 -0.18531090000000003 -0.027823 0.213175 -0.005809
27020 -1.7474651099999998 9.84458025 -0.23127075 -0.004625 0.154495 -0.003435
27040 -1.8106317000000003 9.764795520000002 -0.018707670000000003 -0.000525 0.118257 -0.002292
27060 -1.8293491800000001 9.68950377 0.27049113 -0.021872 0.109835 -0.008839
27080 -1.97918712 9.707613030000001 0.21345579 -0.008209000000000001 0.069285 -0.003351
27100 -2.07094005 9.859697460000001 0.00194238 0.005339 0.007412999999999999 0.006437000000000001
27120 -2.2873977 9.813139200000002 -0.03562992 0.011467 -0.050147 0.009758
27140 -2.25236619 9.63845253 0.29847906 -0.002532 -0.07886 0.009697
27160 -1.91691324 9.59864355 0.37811664000000006 0.001592 -0.111894 0.0087
27180 -1.7759043 9.73739619 0.04730382 0.015350999999999997 -0.136444 0.008828
27200 -1.7606399400000001 9.87361785 -0.14639463000000003 0.028024 -0.168434 0.005753
27220 -1.44465003 10.063568880000002 -0.28979721 0.024756 -0.193946 -0.00492
27240 -1.6658851500000003 10.01926692 -0.16420959 -0.001035 -0.238585 -0.008246999999999999
27260 -1.35872424 9.55538145 0.10896948000000001 0.002208 -0.25129 -0.030641
27280 -1.78039728 9.80670384 -0.09805095000000001 0.011695 -0.274768 -0.028408
27300 -1.38895866 9.68979807 -0.40280841 0.020168 -0.276975 -0.016596
27320 -1.0382413499999998 10.0849743 -0.6017454 0.028688 -0.278079 -0.014398
27340 -0.7667103599999999 9.926307360000001 -0.50999247 0.006289 -0.27163000000000004 -0.009222
27360 -0.84753495 9.79038981 -0.27827046 -0.003068 -0.228939 -0.021093
27380 -1.0747639800000002 9.544453110000001 -0.0059841 -0.004131 -0.226809 -0.020034
27400 -1.52667144 9.64638882 0.07753824000000002 0.016288 -0.206589 -0.032736
27420 -1.43896023 9.747883080000001 -0.20297871000000003 0.001194 -0.21622600000000006 -0.007192000000000001
27440 -1.1858328 9.80206371 -0.48813579 -0.009398 -0.198084 -0.006221
27460 -1.11308184 9.88888221 -0.6372281700000001 -0.013349 -0.150042 -0.028743
27480 -1.04168466 9.85027005 -0.65503332 -0.020023 -0.183154 -0.000973
27500 -1.06309008 9.76898439 -0.6740451000000001 -0.0072260000000000015 -0.189569 -0.006217
27520 -1.21218246 9.83948886 -0.62584857 -0.00402 -0.190637 -0.008329999999999999
27540 -1.37668635 9.82841337 -0.70833105 -0.001704 -0.170324 -0.028636
27560 -1.2509515800000002 9.73111779 -0.74530494 -0.006446 -0.247123 0.000272
27580 -1.09257894 9.70237449 -0.5379804 -0.004361 -0.248234 0.009902
27600 -1.01953368 9.72273024 -0.49891698 -0.016995 -0.231064 -0.010505
27620 -1.22430762 9.767493270000001 -0.6453116099999999 -0.035164999999999995 -0.246945 -0.019157
27640 -1.19391624 9.764942670000002 -0.66671703 -0.033974000000000004 -0.22880100000000006 -0.028786000000000006
27660 -1.16158248 9.723632760000001 -0.64620432 -0.036175 -0.220365 -0.005311
27680 -1.16607546 9.76883724 -0.57210939 -0.039289 -0.207545 -0.011759
27700 -1.2593293200000002 9.88155414 -0.5550498 -0.043638 -0.226701 -0.012833
27720 -1.3253408100000001 9.84831786 -0.5246584200000001 -0.053206 -0.208601 -0.002241
27740 -1.2769971300000003 9.780815250000002 -0.5004081 -0.042408 -0.183059 -0.005403
27760 -1.35602649 9.65821968 -0.41509053000000007 -0.032869 -0.203307 -0.01172
27780 -1.25708283 9.6395022 -0.33081282000000006 -0.057426 -0.198994 -0.003351
27800 -1.2882197700000002 9.77302611 -0.35760393 -0.094483 -0.13813499999999998 -0.005824
27820 -1.58355963 9.8879895 -0.3182364 -0.104658 -0.046413 -0.024172
27840 -1.3780303200000001 9.727968780000001 -0.20821725000000002 -0.067872 0.050468 -0.041131
27860 -1.60346412 9.8216739 -0.30357045 0.0008849999999999998 -0.051094 -0.010611
27880 -1.4323679100000002 9.648782460000001 -0.045351630000000004 0.022601 0.048903 0.005436
27900 -1.8336852000000001 9.80581113 -0.06496182 0.001704 0.146981 0.005165
27920 -1.5141048300000002 9.63815823 -0.12917808 -0.005586 0.183239 0.001863
27940 -1.6831017000000001 9.83679111 -0.2803698 -0.000199 0.190695 -0.002382
27960 -1.6440284700000003 9.733207320000002 -0.23186916000000002 0.01156 0.214017 0.01583
27980 -1.4425506900000002 9.6511761 -0.10283823 -0.000214 0.215085 0.02536
28000 -1.5871500900000002 9.72946971 -0.15837263999999998 -0.0055 0.211963 0.01144
28020 -1.59972651 9.80101404 -0.29429019 0.01169 0.219437 -0.007677
28040 -1.4605127999999998 9.84697389 -0.36583452 0.031888 0.194899 -0.01605
28060 -1.44584685 9.77706783 -0.21704625 0.044705 0.207599 -0.006363000000000001
28080 -1.44465003 9.768385980000001 -0.22438413000000001 0.050135 0.232069 -0.003152
28100 -1.5175481400000002 9.77751909 -0.21061089 0.023435 0.218344 -0.010798
28120 -1.58146029 9.68680602 -0.14459940000000002 0.005322 0.206757 -0.028002
28140 -1.88787564 9.7377003 -0.24129657000000002 0.023339 0.17369600000000002 -0.034243
28160 -1.51499754 9.73111779 -0.12364524000000002 0.041471 0.183178 -0.023446
28180 -1.77425622 9.89876088 -0.23232042000000003 0.044724 0.207616 -0.010636
28200 -1.6102035900000002 9.77991273 -0.1272357 0.033960000000000004 0.18847 -0.00855
28220 -1.5802634699999998 9.72572229 -0.18471249 0.013569 0.159788 -0.010792
28240 -1.5762217500000002 9.77871591 -0.08352234000000001 0.003862 0.139568 -0.007629
28260 -1.6079571000000001 9.75836016 0.08846658 -0.0026920000000000004 0.111868 -0.00123
28280 -2.03441742 9.78964425 -0.12843252 0.012114 0.080932 -0.0032240000000000003
28300 -1.7961129 9.87151851 0.03367773 0.006665000000000001 0.06175 0.003172
28320 -1.8690110100000001 9.79772769 0.13591755 -0.029666 0.054399 0.008269
28340 -1.83203712 9.66106458 0.45266283000000007 -0.036158 0.027815 0.001848
28360 -1.53326376 9.651774510000001 0.7144623 -0.03414 -0.008369 -0.008773999999999999
28380 -2.01391452 9.774968490000001 0.33380487 0.008564 0.011667 0.005386
28400 -1.9925091000000001 9.94546629 0.022749390000000005 0.019304 0.027608 0.005441
28420 -1.8688638600000003 9.81494424 0.13426947 0.006703 0.064967 -0.002173
28440 -1.98172791 9.57918051 0.63512883 -0.0004440000000000001 0.125756 -0.012983
28460 -1.96615944 9.63052605 0.5954571900000001 -0.003472 0.1673 -0.009853
28480 -1.7125905600000002 9.882750960000001 0.19459116000000004 0.005202 0.20559 -0.002364
28500 -1.63505232 10.172548169999999 -0.055083150000000004 0.018081 0.228955 0.004106
28520 -1.3793841 9.873166590000002 0.04759812000000001 0.011738 0.243883 0.006179
28540 -1.34480385 9.6395022 0.2874035700000001 0.006518 0.268407 0.005043
28560 -1.52877078 9.67886973 0.21330864 0.023569 0.265147 0.006234
28580 -1.50961185 9.81808344 0.01466595 0.018124 0.238543 0.004094
28600 -1.53116442 9.996213420000002 -0.05988024 0.026247000000000003 0.143717 0.001067
28620 -1.45407744 9.9170271 -0.07454619 0.032663 0.142646 -0.003159
28640 -1.3212990900000001 9.6739353 0.18860706000000002 0.019903 0.155461 -6e-05
28660 -1.4392545300000001 9.74129076 0.28396026 0.022229 0.181089 -0.017168
28680 -1.7090001000000001 9.72932256 -0.08352234000000001 0.028467000000000006 0.14696900000000002 -0.014944999999999996
28700 -1.71139374 9.783650340000001 -0.18561501000000002 -0.00217 0.22055500000000006 -0.008844
28720 -1.5971759099999998 9.735757920000001 -0.18695898 -0.017015 0.239786 -0.01004
28740 -1.63055934 9.703718460000001 -0.15777423000000002 -0.035257 0.217475 -0.009071
28760 -1.71648513 9.6306732 -0.25880742 -0.039582 0.2185 0.004785
28780 -1.68384726 9.63141876 -0.34233957000000004 -0.035363 0.204649 0.001627
28800 -1.7378905500000001 9.75042387 -0.43365105000000004 -0.031047 0.20998200000000006 -0.003691
28820 -1.8552377700000002 9.95265702 -0.45594918 -0.0321 0.21212 -0.004769
28840 -1.87709445 9.672434370000001 -0.37436922000000006 -0.03121 0.183312 0.005956
28860 -1.9728989100000003 9.4658652 -0.29084688000000003 -0.031387 0.144958 0.007073
28880 -1.8811361700000002 9.572293890000001 -0.29369178 -0.038937 0.131119 0.01131
28900 -1.8375797700000003 9.78964425 -0.26195643 -0.047438 0.13436099999999998 0.006973999999999999
28920 -1.81258389 9.76628664 -0.20941407000000004 -0.061274 0.138684 0.003667
28940 -1.9276944300000003 9.65461941 -0.03532581 -0.057155 0.10246199999999997 0.000538
28960 -1.89565497 9.55463589 0.15926535 -0.045635 0.060851 0.007081000000000001
28980 -1.8675198900000003 9.63277254 0.27767205 -0.048879 0.055518 0.011338
29000 -1.8076396500000003 9.87256818 0.23500836000000003 -0.072341 0.05667000000000001 0.010104
29020 -1.82784825 9.882446850000001 0.09340101 -0.07791000000000001 0.008735 0.0144
29040 -1.66049946 9.83664396 -0.06990606 -0.065213 -0.021112 0.008117000000000001
29060 -1.50362775 9.735757920000001 -0.06706116000000001 -0.046115 -0.041432 0.011481
29080 -1.39435416 9.71854137 -0.17528508000000004 -0.048167 -0.027559 0.007176
29100 -1.2696592500000001 9.7547697 -0.19444401 -0.041646 0.003294 0.011455
29120 -1.4602086900000002 9.696233430000001 -0.26644941 -0.0235 0.0043 0.010513
29140 -1.49973318 9.819133110000001 -0.50789313 -0.025806 -0.023432 0.021214
29160 -1.41904593 9.712400310000001 -0.42960933 -0.050459 -0.038302 0.031743
29180 -1.5676870500000002 9.7812567 -0.21015963000000001 -0.059922 -0.009498 0.029504
29200 -1.83712851 9.820025820000001 -0.20956122 -0.051444 -0.018067 0.033847
29220 -2.09803527 9.73111779 -0.40041477000000003 -0.026902 -0.019209 0.031883
29240 -1.81423197 9.59175693 -0.17678601 -0.007871 -0.055504 0.034199
29260 -1.79551449 9.64145439 -0.08248248000000001 -0.013215 -0.060799 0.030964
29280 -1.68683931 9.71763885 -0.25985709 -0.026969 -0.039428 0.026568
29300 -1.6640899200000001 9.83934171 -0.44786574 -0.023778 -0.048997000000000006 0.019125
29320 -1.85568903 9.7894971 -0.44338257000000003 -0.016511 -0.084215 0.028835000000000006
29340 -1.76408325 9.67348404 -0.30895614000000005 -0.011229 -0.089586 0.035288
29360 -1.6724676600000001 9.70237449 -0.33964182000000004 -0.013296 -0.07678600000000001 0.03312
29380 -1.63265868 9.7231815 -0.37616445 -0.007717 -0.034148000000000005 0.021354
29400 -1.56080043 9.795334050000001 -0.42736284 0.005205 -0.020293 0.008608
29420 -1.7434233900000002 9.732010500000001 -0.36733545 0.021145 -0.031014 0.011938
29440 -1.6540640999999998 9.61974486 -0.35431757999999997 0.009352 -0.03739 0.018273
