time Ax Ay Az Gx Gy Gz
20 1.79491608 9.94517199 0.34368354000000007 0.111949 0.029253 0.046678
40 2.0104712100000004 9.771230880000001 0.3469797 0.113749 0.149794 0.003807
60 1.88757153 10.025849430000001 0.41703291000000003 0.103267 0.158486 -0.029392
80 1.8513530100000002 9.81434583 0.34593003000000005 0.055148 0.130969 -0.032897
100 1.85659155 9.71928693 0.36913068000000004 -0.021666 0.138665 -0.025966000000000003
120 1.93951548 9.67123755 0.44681607 -0.111527 0.096321 -0.014788999999999997
140 2.0899518300000004 9.68695317 0.5878250100000001 -0.150073 0.075111 -0.005417
160 2.08591011 9.78470001 0.78481962 -0.15448900000000002 0.054835 0.007396
180 2.0719897200000004 9.976456080000002 0.7801794900000001 -0.132214 0.04191 0.023592
200 1.76737941 9.721082160000002 0.9243276300000001 -0.079933 0.050219 0.031424
220 1.50197967 9.49595247 1.00784997 -0.023279 0.061791 0.018986000000000003
240 1.3305793499999998 9.47095659 1.06548372 0.039546 0.040244 0.024794
260 1.4917968900000003 9.47514546 0.9292718700000001 0.090535 -0.018486 0.015611000000000003
280 1.76782086 9.51061842 0.82808172 0.109647 -0.040915 0.013637
300 1.79462178 9.49131234 0.7450008300000001 0.09374 -0.023798 0.009231
320 1.86407658 9.42335847 0.58004568 0.091626 -0.022713 0.00601
340 1.9999941300000001 9.532475100000001 0.52331445 0.085917 -0.1217 -0.009926
360 2.08636137 9.699529590000001 0.55040967 0.097895 0.102237 -0.077427
380 2.06061012 9.878562089999999 0.6051887100000001 0.087729 0.34675300000000003 0.055716
400 1.92994092 9.90744273 0.53543961 -0.084872 0.396367 0.05231
420 1.8000074700000002 9.95160735 0.46912401000000004 -0.124775 0.458614 -0.028165
440 1.6649924400000002 9.84068568 0.52315749 -0.08098999999999999 -0.021917 -0.043267
460 1.72770777 9.844276140000002 0.62704539 0.0046630000000000005 -0.207511 -0.058454
480 1.7215667100000003 9.78874173 0.7243409700000001 -0.049951 0.022627 -0.020674
500 1.7419322700000002 9.74308599 0.8313680700000001 -0.051394 0.199374 0.00259
520 1.66827879 9.67946814 1.05890121 0.041792 0.249245 -0.028869
540 1.9116747 9.49415724 1.09872 0.089652 0.182102 -0.06263200000000001
560 2.1874043700000003 9.636961410000001 1.31007645 0.058459 0.108775 -0.079848
580 0.8752285799999999 10.174794660000002 1.45033002 0.010038 0.008842000000000001 -0.088604
600 0.19324719 9.20376162 0.11137293000000001 -0.045813 -0.069811 -0.08462
620 1.3867121699999998 9.405837810000001 -0.17303859 -0.08659299999999999 -0.113383 -0.075235
640 2.37885633 8.92130229 0.022906350000000002 -0.097204 -0.094197 -0.068924
660 3.5022681 9.22426452 0.6397689599999999 -0.07244099999999999 -0.031483 -0.056013
680 2.11211262 10.420584210000001 1.4392545300000001 -0.044468 0.031228 -0.045216
700 0.6245046000000001 10.678793220000001 1.0207305 -0.026159 0.072697 -0.041937
720 1.1750516100000001 10.049805450000001 0.9060614100000001 -0.011155 0.086498 -0.042918
740 1.95448554 9.418414230000002 0.63139122 0.020764 0.064028 -0.045871
760 2.02648113 9.337736790000001 0.13441662000000001 0.044173 0.051159 -0.044622
780 1.9904097600000001 9.377251470000001 0.13831119 0.061156 0.034046 -0.042345
800 2.01570975 9.48517128 0.26389881000000004 0.057941 0.037228 -0.035963
820 1.91002662 9.68620761 0.45549792000000006 0.049363 0.042524 -0.021074
840 1.7896775400000002 9.8387433 0.6191091000000001 0.025758 0.027633 -0.006265
860 1.7368408800000001 9.994869450000001 0.85786488 -0.004138 0.028777 -6.6e-05
880 1.70809758 9.877061160000002 0.8780734800000001 -0.030843 0.02884 0.007225
900 1.55481633 9.82796211 0.72239859 -0.049023 0.030987 0.018846
920 1.42159653 9.79562835 0.59171958 -0.05342 0.007545 0.024186000000000003
940 1.3651596 9.82152675 0.49366863 -0.05353 -0.016956 0.024217
960 1.42473573 9.74219328 0.48454533 -0.042866 -0.015936000000000002 0.026427
980 1.5609573900000002 9.74593089 0.53917722 -0.013047 -0.027759 0.02665
1000 1.6115475600000002 9.79742358 0.4656807 0.008265999999999999 -0.031038 0.02894
1020 1.7263638000000001 9.7345611 0.51537816 0.012472 -0.04384 0.030054
1040 1.7875782 9.68261715 0.44248005 -0.012028 -0.039476 0.025604
1060 1.8827842500000003 9.655669080000001 0.38814245999999997 -0.02794 -0.019180000000000003 0.025467
1080 1.87036479 9.62079453 0.38828961 -0.03114 -0.018108000000000003 0.026511
1100 1.94445972 9.63337095 0.39832524 -0.04499 -0.012737 0.027476
1120 1.9248495300000001 9.692790120000002 0.37826379000000004 -0.06318 -0.018026 0.033765
1140 1.9085355000000002 9.75027672 0.29967588 -0.065337 -0.016978999999999998 0.040158
1160 1.8925157700000002 9.7465293 0.27228636 -0.05664 0.016027 0.036972000000000005
1180 1.86407658 9.75776175 0.320787 -0.033034 0.038346 0.02963
1200 1.7741090700000002 9.79562835 0.37691982000000007 -0.004234 0.040363 0.033034
1220 1.7133361200000001 9.763147440000001 0.41179437 0.037398 0.055093 0.04292
1240 1.76348484 9.73755315 0.49322718000000004 0.099549 0.126207 0.053945000000000014
1260 1.75105557 9.677378610000002 0.63677691 0.130857 0.176294 0.022053
1280 1.6983660600000001 9.69249582 0.74200878 0.140742 0.199854 -0.017433
1300 1.66708197 9.705670650000002 0.69350814 0.11221 0.227783 -0.050783
1320 1.6262135100000001 9.71344998 0.6577310700000001 0.057824 0.227995 -0.056504
1340 1.64926701 9.75671208 0.6297431400000001 -0.004275 0.189819 -0.046207
1360 1.6950797100000001 9.77646942 0.6330294900000001 -0.084496 0.170817 -0.020037
1380 1.66244184 9.736199370000001 0.64321227 -0.130606 0.147427 0.008513
1400 1.6551039600000002 9.71390124 0.57884886 -0.123444 0.10681 0.036389
1420 1.7090001000000001 9.79413723 0.5707654200000002 -0.071365 0.075683 0.049611
1440 1.76647689 9.92346246 0.7306291800000001 0.020299 0.05831 0.052410000000000005
1460 1.4867055 9.90056592 1.04018373 0.095272 0.113481 0.043249
1480 1.1563439400000002 9.833053500000002 1.1805942600000001 0.14471199999999998 0.182599 0.031755
1500 0.96414642 9.65193147 1.2114270900000004 0.195979 0.182471 0.019295
1520 1.20589425 9.56076714 1.06069644 0.219522 0.183514 0.004503
1540 1.52472906 9.508528890000001 0.9273196800000001 0.219713 0.204904 -0.016888
1560 1.78189821 9.556578270000001 0.7403607000000001 0.19121 0.25195700000000004 -0.037443
1580 1.95089508 9.56795787 0.56687085 0.140351 0.316108 -0.051768
1600 2.02888458 9.6742296 0.38065743 0.07317699999999999 0.314255 -0.062917
1620 2.04474735 9.860747130000002 0.32841918 -0.004958 0.251702 -0.06979199999999999
1640 1.95178779 9.990974880000001 0.29713509 -0.084285 0.166761 -0.071305
1660 1.7482106700000002 9.93962934 0.29249496 -0.159387 0.098743 -0.046105
1680 1.67815746 9.85206528 0.30282489 -0.207914 0.028424 -0.001489
1700 1.5444864 9.72677196 0.42107463000000006 -0.197451 0.017593 0.03385
1720 1.5220313100000002 9.78560253 0.6050415600000001 -0.113039 0.064098 0.052539
1740 1.4974866900000001 9.746235 0.8952900300000001 -0.000842 0.103121 0.053273
1760 1.5242778 9.71375409 1.13479137 0.101472 0.076145 0.050818
1780 1.49389623 9.57319641 1.34136054 0.162192 0.052509 0.048067
1800 1.3835729700000001 9.55478304 1.2656175300000003 0.183639 0.065264 0.03645
1820 1.3677102000000003 9.568997730000001 1.00380825 0.186821 0.04826 0.023676
1840 1.5676870500000002 9.51900597 0.66596166 0.154805 0.043059 0.020254
1860 1.7651329199999999 9.51930027 0.36090009000000006 0.104576 0.027242 0.023128
1880 1.85973075 9.57932766 0.16390548000000002 0.043823 0.033872 0.016286000000000002
1900 1.95822315 9.65851398 0.04730382 -0.015681999999999998 0.07142899999999999 -0.000201
1920 1.96885719 9.87675705 0.03951468 -0.049558 0.111039 -0.019716
1940 1.8513530100000002 10.001000700000002 0.06452037000000001 -0.080487 0.100546 -0.032738
1960 1.66559085 10.056839219999999 0.05583852 -0.122147 0.080486 -0.041549
1980 1.58056758 10.1225466 0.09220419 -0.143547 0.07095599999999999 -0.037413
2000 1.66019535 10.019561220000002 0.14250006 -0.146867 0.056005999999999986 -0.025667
2020 1.6051122000000002 9.896524200000002 0.27557271000000005 -0.129798 0.063374 -0.018079
2040 1.38716343 9.76972995 0.52719921 -0.08820900000000001 0.068516 -0.008181
2060 1.4678506800000002 9.66929517 0.83122092 -0.0318 0.04804 0.001853
2080 1.56230136 9.57124422 0.9954305100000002 0.02028 0.010548 0.008674
2100 1.6220246400000002 9.47514546 1.04063499 0.051114 -0.001325 0.020655
2120 1.56918798 9.44295885 1.09437417 0.053084000000000006 -0.028003 0.030317
2140 1.49269941 9.52828623 1.0674261 0.031584 -0.06414700000000001 0.030213
2160 1.5066198 9.60268527 0.87702381 0.015456 -0.08860499999999999 0.033336000000000005
2180 1.61334279 9.605226060000001 0.63887625 0.009978 -0.120544 0.033339
2200 1.7404313400000002 9.61435917 0.48438837 -0.0007379999999999999 -0.129038 0.035412
2220 1.7860870800000002 9.77362452 0.35655426000000007 -0.013517 -0.125789 0.033182
2240 1.7649759600000003 9.849671640000002 0.28769787 -0.028323 -0.105462 0.024506
2260 1.8034507800000001 9.887391090000001 0.17019369 -0.038853 -0.092569 0.006257
2280 1.7863813800000001 9.90490194 0.01182105 -0.041948 -0.08609800000000001 -0.010865
2300 1.7910215100000002 9.946515960000001 -0.08981055 -0.040896 -0.099908 -0.021522
2320 1.87844823 9.935440470000001 -0.01362609 -0.047373 -0.121174 -0.025813
2340 1.8754463700000001 9.832602240000002 0.18172044 -0.055913 -0.121148 -0.024804
2360 1.8513530100000002 9.71045793 0.41493357000000003 -0.058079999999999986 -0.123293 -0.019476
2380 1.8824899500000003 9.65043054 0.60563997 -0.055985 -0.12545599999999998 -0.013049000000000002
2400 1.84640877 9.64339677 0.69664734 -0.052871 -0.140398 -0.008735
2420 1.80854217 9.632017170000001 0.72569475 -0.044513 -0.17665999999999998 -0.005425999999999999
2440 1.73863611 9.68890536 0.74829699 -0.041466 -0.207576 -0.00216
2460 1.6938730800000001 9.71509806 0.86235786 -0.043652 -0.215043 0.002107
2480 1.58789565 9.66630312 0.95261967 -0.040327 -0.183113 0.006362
2500 1.48565583 9.6944382 0.87118686 -0.033782 -0.14799500000000002 0.009568
2520 1.4929937100000004 9.71854137 0.73931103 -0.024123 -0.13630599999999998 0.008551999999999999
2540 1.57816413 9.74817738 0.57390462 -0.020831 -0.11926 0.005348
2560 1.6805511 9.76419711 0.49172625000000003 -0.032418 -0.09044 0.000958
2580 1.7807013900000002 9.752670360000002 0.45011223 -0.050502 -0.078659 0.000816
2600 1.8200689200000002 9.708662700000001 0.44666892 -0.05683600000000001 -0.067967 -0.003515
2620 1.84386798 9.695487870000001 0.4451778 -0.055836 -0.08925 -0.00989
2640 1.8315956700000002 9.73829871 0.42182019000000004 -0.063309 -0.098777 -0.018475
2660 1.81572309 9.768533130000002 0.36658989000000003 -0.086761 -0.087007 -0.011177
2680 1.7847431100000002 9.74563659 0.38574882000000005 -0.073791 -0.034914 0.003802
2700 1.75344921 9.7348554 0.49366863 -0.036249 0.016063 0.010408
2720 1.6627459500000001 9.73605222 0.5954571900000001 -0.005296 0.019151 0.010621
2740 1.58879817 9.75372003 0.5881291200000001 0.012635 -0.024597 0.012938
2760 1.5762217500000002 9.7408395 0.70757568 0.005143 -0.037324 0.005425
2780 1.54015038 9.72871434 0.75293712 -0.0044020000000000005 -0.030873 -0.001059
2800 1.55287395 9.69039648 0.70982217 -0.008549 -0.011654 -0.008591
2820 1.58475645 9.647732790000001 0.6908103900000001 -0.004224 0.003236 -0.006443000000000001
2840 1.51394787 9.67827132 0.6948521099999999 -0.006449 -0.005325 0.005303
2860 1.56784401 9.707917140000001 0.6647648400000001 -0.0075260000000000014 -0.004268999999999999 0.008499
2880 1.63445391 9.69144615 0.61642116 -0.020385 -0.019129 0.006291
2900 1.6908810300000003 9.67662324 0.51762465 -0.034245 -0.015889 0.0072590000000000016
2920 1.77096987 9.76943565 0.64306512 -0.050238 -0.01052 0.010345
2940 1.7717154300000002 9.795029940000001 0.68272695 -0.057028 -0.085113 0.022143
2960 1.7052526800000003 9.85460607 0.6436635300000001 -0.054129 -0.146931 0.027584
2980 1.49718258 9.77677353 0.6828839100000001 -0.043408 -0.13100599999999998 0.031911
3000 1.4060280600000001 9.748922940000002 0.8330161500000001 -0.016612000000000002 -0.108708 0.026729000000000003
3020 1.4545287000000002 9.75027672 0.87268779 -0.005751 -0.079927 0.012881
3040 1.59748002 9.74473407 0.79574796 -0.032461000000000004 -0.0926 0.008438
3060 1.8077868000000001 9.70776018 0.74679606 -0.069027 -0.156394 0.009332
3080 1.9396626300000002 9.70806429 0.63467757 -0.096082 -0.237278 0.01352
3100 1.8056972700000002 9.63516618 0.6595263 -0.10478 -0.269223 0.017773
3120 1.7028590399999999 9.605373210000002 0.6590750400000001 -0.11022 -0.284152 0.0263
3140 1.7172306900000003 9.62409069 0.795591 -0.100685 -0.308648 0.016784
3160 1.7179762500000002 9.72243594 0.80996265 -0.07954 -0.366187 0.00205
3180 1.6962765300000002 9.756564930000001 0.68392377 -0.071038 -0.384284 -0.00855
3200 1.7875782 9.783807300000001 0.5881291200000001 -0.091093 -0.34370300000000004 -0.016219
3220 1.8482040000000002 9.76764042 0.54142371 -0.13366199999999998 -0.314813 -0.011212
3240 1.90059921 9.70476813 0.44487369000000004 -0.140154 -0.343519 -0.019767
3260 1.9856224800000002 9.68530509 0.5029587000000001 -0.105154 -0.400058 -0.030132
3280 1.93891707 9.66360537 0.5363323200000001 -0.07535399999999999 -0.419325 -0.033104
3300 1.90553364 9.65327544 0.52106796 -0.087974 -0.377739 -0.032177
3320 1.96541388 9.74279169 0.43035489 -0.105991 -0.356349 -0.037671
3340 2.0929438800000004 9.74248758 0.51956703 -0.114665 -0.384029 -0.034492
3360 2.1314187 9.72227898 0.58453866 -0.118966 -0.376617 -0.019576
3380 1.9561336200000001 9.69144615 0.50310585 -0.124142 -0.344627 -0.022858
3400 1.8669214800000002 9.6739353 0.43454376000000006 -0.068694 -0.355457 -0.02673
3420 1.88981802 9.67049199 0.6108785100000002 -0.063148 -0.30436 -0.022484
3440 1.8366772500000002 9.65162736 0.8297199900000001 -0.090748 -0.25745500000000004 -0.006712999999999999
3460 1.7775523800000002 9.66315411 0.90306936 -0.085351 -0.228771 0.008243
3480 1.6229271600000001 9.67408245 0.85037985 -0.072621 -0.241612 0.011553
3500 1.59972651 9.72168057 0.7173072 -0.057771 -0.265083 0.007414
3520 1.65675204 9.760008240000001 0.7682014800000001 -0.051475 -0.295968 2e-05
3540 1.7022606300000003 9.68261715 0.94917636 -0.053666 -0.310866 -0.002113
3560 1.74701385 9.652372920000001 0.96773688 -0.072745 -0.285224 -0.004416
3580 1.76573133 9.675730530000001 0.9500788800000001 -0.095154 -0.277723 0.003964
3600 1.75090842 9.668843910000001 0.8809183800000001 -0.127649 -0.385207 0.004943
3620 1.65330873 9.71809011 0.79799445 -0.159149 -0.5267109999999999 -0.012187
3640 1.56619593 9.834397469999999 0.64022022 -0.175612 -0.643774 -0.027107
3660 1.6585472700000001 9.78934014 0.68707278 -0.169211 -0.653346 -0.036664
3680 1.8483609600000002 9.699676740000001 0.79319736 -0.176554 -0.620318 -0.031417
3700 1.75659822 9.71120349 0.9128008800000001 -0.186362 -0.646993 -0.012223
3720 1.66633641 9.78844743 0.85936581 -0.194156 -0.7204659999999999 -0.013252000000000002
3740 1.5783210900000002 9.78589683 0.79859286 -0.208375 -0.804547 -0.019653
3760 1.66827879 9.71330283 0.73617183 -0.226651 -0.851292 -0.035744
3780 1.88667882 9.65866113 0.77958108 -0.246161 -0.92789 -0.044328
3800 2.11315248 9.6508818 0.84379734 -0.245301 -0.975822 -0.046397
3820 2.13890373 9.664802190000001 0.9424368900000001 -0.255821 -0.937456 -0.041178
3840 2.08441899 9.56451456 0.81445563 -0.281171 -0.8596879999999999 -0.02009
3860 2.12917221 9.458684280000002 0.68452218 -0.347986 -0.776341 -0.026005
3880 2.30460444 9.47963844 0.69290973 -0.370339 -1.071067 -0.095218
3900 2.45070477 9.509421600000001 0.7123727700000001 -0.316626 -1.444181 -0.075137
3920 2.51836434 9.5293359 0.71356959 -0.263166 -1.181243 -0.0751
3940 2.47524939 9.6104646 0.83556675 -0.263124 -0.685934 -0.063984
3960 2.24114355 9.56585853 0.8985861900000001 -0.26426700000000003 -0.7188899999999999 -0.079973
3980 2.1948894 9.61300539 0.93570723 -0.223172 -0.828775 -0.075272
4000 2.18965086 9.56959614 1.01384388 -0.176671 -0.91315 -0.060953
4020 2.0827709100000003 9.5871168 0.9322639200000001 -0.088947 -0.629001 -0.067113
4040 2.03965596 9.58860792 0.89229798 -0.012824 -0.260872 -0.018983
4060 2.1195878400000003 9.57109707 1.0065060000000001 0.0016350000000000002 -0.10549 0.005488
4080 2.13471486 9.612112680000001 1.0463247900000001 0.019633 -0.143873 -0.001815
4100 2.0868126300000003 9.600438780000001 1.3223487600000001 0.014346 -0.13638499999999998 -0.005065999999999999
4120 1.90957536 9.9312516 1.15364619 -0.045292 -0.111679 -0.004446
4140 1.0761079500000001 9.827814960000001 0.4939727400000001 0.040589 -0.006465 -0.0168
4160 1.41755481 9.8043102 0.89543718 0.067869 0.132974 -0.012515
4180 2.09683845 9.544149 1.6208278200000001 0.025856 0.29074 -0.002328
4200 2.09055024 9.46856295 1.66109787 0.05813 0.339673 -0.012847999999999998
4220 1.21023027 9.77946147 1.1485646100000002 0.075195 0.334304 -0.016995
4240 0.77808015 10.21985199 1.04168466 0.095825 0.421555 -0.009485
4260 0.94932351 9.947261520000001 1.0841913900000002 0.185758 0.494732 -0.005746
4280 1.6007663699999999 9.75341592 1.2506474699999999 0.22905100000000006 0.624575 -0.013087
4300 1.7691746400000001 9.728115930000001 1.06503246 0.21038 0.748192 -0.008034999999999999
4320 1.41860448 9.73470825 0.997677 0.209509 0.796115 -0.00383
4340 1.4278847399999999 9.67063914 1.10035827 0.20970100000000005 0.83236 -0.010284
4360 1.5304188600000002 9.64729134 1.06638624 0.231144 0.867392 0.001571
4380 1.4322207599999999 9.70103052 1.01009646 0.346041 1.010889 -0.019174
4400 1.55287395 9.66330126 1.1858328 0.411685 1.135302 -0.019944
4420 1.67935428 9.708358590000001 1.23523596 0.43143 1.257732 -0.017825999999999998
4440 1.41380739 9.78515127 1.1907770400000002 0.484728 1.471718 -0.030547
4460 1.2487050900000003 9.87047865 1.14496434 0.444345 1.503831 -0.034075
4480 1.3108220099999999 9.860747130000002 1.04991525 0.39813 1.4410889999999998 -0.021498
4500 1.24376085 9.91088604 1.05335856 0.397207 1.488966 -0.005543
4520 1.31756148 9.84083283 1.10635218 0.395164 1.526189 0.011487
4540 1.4461411500000003 9.767493270000001 1.1512525500000002 0.392613 1.443068 0.021189
4560 1.41844752 9.708358590000001 1.2406216500000002 0.4302220000000001 1.4845549999999998 0.003239
4580 1.34449974 9.780658290000002 1.17595413 0.465908 1.587776 0.000152
4600 1.19526021 9.899810550000002 1.06249167 0.420783 1.520808 0.003127
4620 1.20274524 9.86223825 1.0300107600000001 0.4032 1.422799 0.019153
4640 1.29151593 9.82721655 1.10395854 0.392 1.310958 0.025627
4660 1.4169564000000001 9.869880240000002 0.9994722300000001 0.379675 1.175728 0.021442
4680 1.4894032499999998 9.783208890000001 1.1319464700000001 0.33309 1.010802 0.01385
4700 1.47084273 9.76060665 1.1768566500000002 0.287481 0.868072 0.048966
4720 1.45512711 9.66509649 1.05904836 0.238065 0.793671 0.049784
4740 1.5808618800000003 9.65162736 1.02506652 0.166351 0.757638 0.065353
4760 1.6497182700000002 9.715843620000001 1.11891879 0.13433 0.758798 0.0694
4780 1.66109787 9.78904584 1.02282003 0.13411900000000002 0.7172310000000001 0.074793
4800 1.73638962 9.80521272 0.5836361400000002 0.114398 0.589518 0.062001
4820 1.86047631 9.8415882 0.5680676700000001 0.118263 0.486228 0.048273
4840 2.05253649 9.74683341 0.60309918 0.114115 0.4990810000000001 0.034341
4860 2.1345579000000003 9.655669080000001 0.43470072 0.099222 0.506599 0.032091
4880 2.3257155600000003 9.69354549 0.40940073 0.104566 0.500223 0.02359
4900 2.15566902 9.490115520000002 0.3876912 0.116283 0.480005 0.007675
4920 2.12243274 9.4368276 0.37092590999999997 0.098983 0.444848 0.023622
4940 1.90464093 9.25719669 0.06556023 0.121358 0.435195 0.020586
4960 2.1670388099999998 9.24731802 0.22123512000000004 0.124683 0.448026 0.005638000000000001
4980 2.0809756800000003 9.3790467 0.00494424 0.108426 0.392684 0.006663
5000 2.0348686800000007 9.45748746 0.06167547 0.112459 0.347898 0.014227000000000004
5020 1.97335017 9.608365260000001 0.29623257000000003 0.095332 0.334114 0.013056
5040 1.9134699300000002 9.832602240000002 0.27572967000000004 0.041754 0.282102 0.012749
5060 1.85568903 9.824822910000002 -0.004640130000000001 0.020234 0.23745300000000005 0.008383
5080 1.8244049400000002 9.72528084 0.06526593 -0.021632 0.17583 0.003896
5100 1.91392119 9.66270285 0.16914402 -0.025914 0.17158800000000002 0.002804
5120 1.97694063 9.787397760000001 -0.05239521 -0.011146 0.13000799999999998 -0.001313
5140 1.9679546700000001 9.78919299 0.04146687000000001 -0.017744 0.088476 0.000831
5160 1.9260463500000002 9.878709240000001 0.24983127000000002 -0.020112 0.042652 0.0072819999999999985
5180 1.94085945 9.869880240000002 0.00958437 -0.021404 -0.004229 0.010538
5200 1.87664319 9.84398184 0.11047041 -0.042866 -0.024424 0.017891999999999998
5220 1.7452186200000002 9.63291969 0.36419625 -0.037623 -0.038317 0.024355
5240 1.6929803700000001 9.67513212 -0.0005984100000000001 -0.060262 -0.098925 0.015729
5260 1.8646749900000001 9.71479395 -0.18546786 -0.058291 -0.131968 0.01899
5280 1.93891707 9.64624167 0.0953532 -0.064736 -0.144716 0.015757
5300 1.91856132 9.53622252 0.04086846000000001 -0.064812 -0.163882 0.013644
5320 1.84566321 9.67273848 0.14055768000000002 -0.043269 -0.111785 0.020137
5340 1.9543383900000002 9.7607538 -0.18217170000000002 -0.047474 -0.094738 0.023291
5360 1.96182342 9.71928693 -0.12888378 -0.045259 -0.093612 0.006213000000000001
5380 1.87575048 9.65552193 -0.030391380000000003 -0.04488 -0.032798 -0.017363
5400 1.91856132 9.73096083 -0.26061246000000005 -0.130927 0.033614 -0.034072000000000005
5420 1.9443027600000002 9.72183753 -0.29742939 -0.160751 0.036944 -0.041763
5440 1.9202094 9.67902669 -0.18786150000000001 -0.203148 0.107366 -0.033602999999999994
5460 1.89536067 9.716147730000001 -0.26929431000000004 -0.199024 0.099797 -0.008995999999999999
5480 1.84042467 9.74578374 -0.12109464000000002 -0.194833 0.099714 0.008125
5500 1.67786316 9.724231170000001 -0.05598567000000001 -0.156647 0.06437000000000001 0.022324
5520 1.64507814 9.74803023 -0.08906499000000001 -0.06308899999999999 -0.008395999999999999 0.023071
5540 1.63534662 9.67049199 0.08636724000000001 0.047951 0.007208 0.020622
5560 1.66229469 9.66989358 -0.03307932 0.078929 0.006072999999999999 0.011226
5580 1.601973 9.66570471 0.68063742 0.07890499999999999 -0.019412 -0.009038
5600 1.4275806300000002 9.79817895 0.94902921 0.055563 0.0020050000000000003 -0.016706
5620 1.2494506500000002 9.77422293 0.75652758 -0.035039 0.010882 -0.026964
5640 1.3132156500000003 9.839037600000001 0.8123562900000001 -0.094797 0.012139 -0.02311
5660 1.3051322100000002 9.728420040000001 0.71970084 -0.152384 0.019789 -0.021386
5680 1.4416481700000001 9.69369264 0.19295289 -0.194298 -0.048243 -0.021592
5700 1.6661892600000001 9.683509860000001 0.19474812000000002 -0.193495 -0.10047 -0.01511
5720 1.7592959700000002 9.68665887 -0.04984461 -0.179784 -0.130367 -0.009635
5740 1.77336351 9.85460607 -0.01691244 -0.139128 -0.106003 -0.01045
5760 1.7187218100000001 9.94381821 0.03262806 -0.094334 -0.115722 -0.016534
5780 1.47009717 9.836496810000002 0.09190989000000001 -0.051732000000000014 -0.133972 -0.018349
5800 1.46216088 9.80655669 0.4742154 -0.037906 -0.13936400000000002 -0.013973
5820 1.5176952900000003 9.84697389 0.73108044 -0.005771 -0.108591 -0.011652
5840 1.5138007199999999 9.80445735 0.5405211900000001 -0.000355 -0.095806 -0.016971
5860 1.5813131400000002 9.73844586 0.57884886 -0.029141000000000007 -0.095688 -0.021445
5880 1.6402908600000001 9.628426710000001 0.63871929 -0.04944 -0.099887 -0.019445
5900 1.8405718200000003 9.65836683 0.44846415 -0.061171 -0.082865 -0.003526
5920 1.8958119300000003 9.57918051 0.48139632000000004 -0.08341699999999999 -0.049755 -0.00586
5940 1.8377269200000002 9.53546715 0.33844500000000005 -0.077967 -0.012537 0.005881
5960 1.8829314000000001 9.712557270000001 0.3010198500000001 -0.081851 0.071639 0.004678
5980 1.75495014 9.80760636 0.36164565000000004 -0.080875 0.050334 0.003643
6000 1.6118516699999998 9.88155414 0.36539307000000004 -0.080789 0.066325 0.0004190000000000001
6020 1.60271856 9.899967509999998 0.23755896 -0.045204 0.14611400000000002 -0.003708
6040 1.68519123 9.87452037 0.37811664000000006 -0.021383000000000003 0.21955300000000005 -0.007908
6060 1.73579121 9.77452704 0.5505568200000001 0.013006 0.261034 -0.021608
6080 1.7329463100000002 9.815238540000001 0.39532338 0.035578 0.283386 -0.036434
6100 1.58146029 9.77886306 0.73781991 0.045122 0.262081 -0.044886
6120 1.3910580000000001 9.62289387 0.93315663 0.050241 0.203516 -0.055457000000000006
6140 1.36261881 9.64713438 0.86565402 0.033083999999999995 0.187583 -0.052352
6160 1.4516838 9.70222734 0.8734333500000001 0.018139 0.191871 -0.046053
6180 1.49583861 9.80925444 0.8824193100000001 -0.009959 0.125866 -0.032277999999999994
6200 1.56544056 9.7692885 0.84843747 -0.02835 0.084325 -0.017398
6220 1.47832776 9.661506030000002 1.03374837 -0.020935 0.094862 0.005072999999999999
6240 1.3421060999999999 9.66045636 0.89514288 0.002594 0.122417 0.020157
6260 1.2802834800000003 9.80057259 0.8301712500000001 0.035633 0.11166199999999997 0.017197
6280 1.3365732600000002 9.82886463 0.8384018400000001 0.079442 0.111568 0.002548
6300 1.22070735 9.86239521 0.91698975 0.10719 0.104053 -0.006862
6320 1.1539503 9.94501503 0.8060778900000001 0.103979 0.1083 -0.000481
6340 1.19900763 9.89547453 0.75727314 0.06880599999999999 0.11694 0.000331
6360 1.34001657 9.756113670000001 0.6468027300000001 0.007759999999999999 0.068138 0.003172
6380 1.5304188600000002 9.691299 0.5496543 -0.00731 0.041546 0.006305
6400 1.7911784700000002 9.71359713 0.43514217000000005 -0.017911 0.05968 0.009412
6420 2.05029 9.687708540000001 0.46209024000000004 0.002354 0.060666 0.011689
6440 1.9826304300000002 9.69788151 0.58109535 0.01928 0.031831 0.015049000000000003
6460 1.9154123100000002 9.699529590000001 0.4596966 0.035235 0.023245 0.017308
6480 1.89326133 9.712557270000001 0.39832524 0.009717 0.028716 0.003236
6500 1.7542045800000001 9.85295799 0.45774441000000005 0.008477 -0.014935 -0.002058
6520 1.5619972500000001 9.915231870000001 0.6408186300000001 0.011616 -0.019246 0.007582999999999999
6540 1.41215931 9.84218661 0.69231132 0.044669 -0.019378 0.012087
6560 1.3257920699999999 9.79323471 0.61761798 0.07012 -0.055678 0.010175
6580 1.3840242299999999 9.73949553 0.5706182700000001 0.067972 -0.057806 0.011231
6600 1.49269941 9.6568659 0.49217751000000004 0.043622 -0.024662 0.002473
6620 1.5175481400000002 9.69847992 0.61611705 -0.010726 -0.018051 -0.005393
6640 1.5126039000000002 9.68336271 0.7071342300000001 -0.025696 -0.025456 -0.005488
6660 1.6561536300000002 9.64624167 0.7764320700000001 -0.005339 0.003197 0.004231
6680 1.6835529600000003 9.743684400000001 0.63962181 0.047234 0.063756 -0.00082
6700 1.70914725 9.77886306 0.5502527100000001 0.082479 0.060484 -0.01232
6720 1.61319564 9.840234420000002 0.51193485 0.072877 0.046725 -0.026256
6740 1.4994290700000001 9.79248915 0.54785907 0.02584 0.029827 -0.02229
6760 1.39823892 9.834397469999999 0.54142371 -0.010549 0.008631999999999999 -0.018245
6780 1.5040692000000002 9.82601973 0.54292464 -0.027705 -0.001995 -0.009805
6800 1.6712708400000003 9.66210444 0.56462436 -0.015989 0.00113 -0.00225
6820 1.67935428 9.728115930000001 0.5020561800000001 0.008621 0.028694 0.009637
6840 1.5756233400000001 9.76030254 0.47646189000000005 0.034279000000000004 0.046688 0.016203
6860 1.60571061 9.72227898 0.56373165 0.043832 0.038124 0.018417
6880 1.57577049 9.723927060000001 0.66701133 0.036283 0.022163 0.020521
6900 1.4956914600000002 9.80281908 0.7429014899999999 0.026619 0.005165 0.017271
6920 1.51006311 9.75716334 0.7295795100000001 0.022256 -0.015064 0.018335
6940 1.48027014 9.75461274 0.6785380799999999 0.017907 -0.028915 0.022595
6960 1.4726379600000001 9.73036242 0.5578947 0.011448 -0.036371 0.0279
6980 1.4283261900000002 9.767934720000001 0.5394813299999999 0.0006349999999999999 -0.061925 0.034267
7000 1.4732363700000002 9.67857543 0.5313978900000002 -0.013287 -0.065107 0.04272
7020 1.4662026 9.74308599 0.50085936 -0.009081 -0.072604 0.049168
7040 1.52652429 9.73515951 0.52420716 0.01959 -0.099349 0.052607000000000015
7060 1.5646950000000002 9.80191656 0.55175364 0.036717 -0.086626 0.05271
7080 1.6404380100000002 9.80760636 0.5448670200000001 0.050687 -0.068548 0.048512
7100 1.59074055 9.78485697 0.48079791 0.060417999999999986 -0.049368 0.038941
7120 1.5208344900000001 9.76988691 0.46134468 0.05849500000000001 -0.012038 0.029266000000000007
7140 1.43865612 9.70746588 0.42945237 0.042588 -0.000226 0.019526
7160 1.4432962500000002 9.70985952 0.42781410000000003 0.031852 -0.017224 0.017336
7180 1.49898762 9.72976401 0.42361542 0.019117 -0.008631999999999999 0.010827
7200 1.4917968900000003 9.76539393 0.40864536 0.014916999999999996 -0.002191 0.002243
7220 1.48401756 9.799071660000001 0.36314658000000005 0.012817 -0.001093 -0.004182
7240 1.5444864 9.75895857 0.38634723000000004 0.014898 -0.016000999999999998 -0.007353
7260 1.60002081 9.73724904 0.39472497000000006 0.012716 -0.027708 -0.008421
7280 1.6842985200000002 9.731559240000001 0.37347651000000004 0.016897 -0.046897 -0.008368
7300 1.6973163900000001 9.78500412 0.42391953000000004 0.010405 -0.066054 -0.00732
7320 1.6735173300000001 9.84008727 0.40191570000000004 -0.007751000000000002 -0.073435 -0.010642
7340 1.5826571100000002 9.86134554 0.44113608000000004 -0.024873 -0.087215 -0.012881
7360 1.54359369 9.796079610000001 0.46223739 -0.042403 -0.185177 -0.008605
7380 1.5274268100000001 9.76120506 0.49352148 -0.023626 -0.278991 -0.007285
7400 1.53685422 9.83425032 0.50939406 0.006351 -0.253538 -0.004972
7420 1.5236793900000003 9.76149936 0.50999247 0.003639 -0.140626 -0.000863
7440 1.5864045300000003 9.756260820000001 0.48514374000000005 -0.00122 -0.026658 0.007503
7460 1.58610042 9.70416972 0.4776587100000001 -0.019462 -0.030932 0.026609
7480 1.5375997800000003 9.70117767 0.5049010799999999 -0.051919000000000014 -0.12565 0.031845
7500 1.5928398900000003 9.727517520000001 0.5096883600000001 -0.031787 -0.171468 0.017089
7520 1.6013745900000003 9.78185511 0.32991030000000005 0.005917 -0.112919 -0.005155
7540 1.6404380100000002 9.768385980000001 0.29474145 0.016749 -0.07992 -0.008326
7560 1.68145362 9.736797780000002 0.32617269000000004 -0.002632 -0.104414 0.006525
7580 1.6646883300000002 9.712253160000001 0.31000581 -0.008938 -0.075659 0.013921
7600 1.56544056 9.73605222 0.33260805000000004 -0.002407 -0.049042 0.011796
7620 1.5018227100000001 9.80206371 0.49292307 -0.007669 -0.037288 0.007471999999999999
7640 1.54463355 9.8159841 0.38979054 -0.018348 -0.040442 0.006333
7660 1.63804437 9.80191656 0.18621342 -0.019577 -0.07877999999999999 0.004237
7680 1.8049419 9.72243594 0.26435007 -0.014229 -0.07878500000000001 0.00107
7700 1.76408325 9.72303435 0.22902426 -0.01198 -0.051104 0.003186
7720 1.6058577600000001 9.707613030000001 0.10463346000000001 -0.021543 -0.038305 0.0073760000000000015
7740 1.4415010200000002 9.780658290000002 0.09954207 -0.036508 -0.038278 0.013681
7760 1.46081691 9.80805762 0.24354306000000003 -0.04388 -0.00952 0.02107
7780 1.6128915300000002 9.68979807 0.26853894 -0.030934 0.024515 0.023253
7800 1.63206027 9.66734298 0.20866851000000003 -0.0042 0.030844 0.015954
7820 1.58056758 9.780962400000002 0.08427771 0.011827 0.029748 0.009658
7840 1.6874377200000001 9.8822997 0.20716758000000002 0.019333000000000003 0.034 0.005433
7860 1.6184341800000002 9.743988510000001 0.33978897 0.024667 0.027615 -0.000931
7880 1.61768862 9.71449965 0.3634408800000001 0.026743 0.00952 -0.006235
7900 1.6193367 9.72992097 0.49471830000000006 0.023533 0.012705 -0.00092
7920 1.6259192100000002 9.723927060000001 0.6116240700000001 0.005464 0.028743 1e-06
7940 1.56289977 9.7115076 0.5017520700000001 -0.0072 0.062864 0.003074
7960 1.55945646 9.75372003 0.2989303200000001 -0.011414 0.075658 0.004096
7980 1.6001679600000003 9.751473540000001 0.18082773000000002 -0.003846 0.092697 -0.001214
8000 1.6024144500000002 9.790988220000001 0.23411565 0.0035310000000000007 0.070309 -0.0032700000000000003
8020 1.6563105900000004 9.82616688 0.2951829 0.004531 0.055392 -0.003244
8040 1.7235189000000002 9.865985669999999 0.34787241 -0.000741 0.06819800000000001 -0.004365
8060 1.67367429 9.79727643 0.28500993 0.003618 0.08417899999999999 -0.008628
8080 1.6096051800000002 9.834397469999999 0.20567646 0.010019 0.085217 -0.007517
8100 1.56873672 9.72183753 0.20791314000000002 0.015358000000000004 0.086264 -0.007481
8120 1.54747845 9.62663148 0.28141947 0.019573 0.07559199999999999 -0.006369
8140 1.54688004 9.65821968 0.39742272 0.015286 0.071346 -0.006394
8160 1.5798122100000003 9.7582032 0.40940073 0.004632 0.07457899999999999 -0.0064730000000000005
8180 1.59313419 9.82346913 0.33170553 -0.008103 0.095904 -0.000179
8200 1.6167861 9.772133400000001 0.22153923 -0.012381 0.096971 0.002994
8220 1.6697797200000002 9.69010218 0.25611948 -0.011352 0.092689 0.007279000000000002
8240 1.7139345300000002 9.6568659 0.28156662 -0.005984000000000001 0.10331 0.010508
8260 1.66708197 9.689346810000002 0.35431757999999997 -0.001654 0.117144 0.010521
8280 1.58939658 9.72946971 0.22438413000000001 0.006919 0.120331 0.005235
8300 1.5952335300000002 9.7866522 0.13905675 0.011134 0.104354 0.001012
8320 1.5938895600000003 9.7519248 0.16794720000000002 0.006881 0.104382 -0.002222
8340 1.56904083 9.74728467 0.22348161 0.003714 0.11291099999999997 -0.001187
8360 1.5865516800000001 9.79368597 0.24548544000000003 0.001575 0.110792 -0.0022670000000000004
8380 1.60361127 9.76240188 0.2894931 -0.004793 0.121455 0.0008789999999999999
8400 1.60436664 9.747431820000001 0.2311236 -0.013318 0.127859 0.005084
8420 1.6540640999999998 9.79488279 0.23186916000000002 -0.011175 0.132104 0.007229999999999999
8440 1.6651395900000001 9.75042387 0.22438413000000001 -0.007988 0.12571400000000002 0.004056000000000001
8460 1.6393883400000002 9.72572229 0.27093258000000003 0.00157 0.116093 0.004135
8480 1.63190331 9.736954740000002 0.22617936000000002 0.013243 0.099021 0.001034
8500 1.6872905700000003 9.69818562 0.21570228000000002 0.019611 0.09048 2.1e-05
8520 1.6853481900000002 9.7260264 0.1360647 0.016372 0.08302999999999999 0.001076
8540 1.6408892700000002 9.78201207 0.09490194 0.009913 0.07027 0.001047
8560 1.59433101 9.813590460000002 0.14669874000000002 0.005569 0.054301 0.002106
8580 1.5663430800000002 9.77273181 0.22019526000000003 -0.002865 0.075641 0.000951
8600 1.6070545800000002 9.78964425 0.27228636 -0.011088 0.145974 0.001872
8620 1.63070649 9.73874997 0.29249496 -0.013141 0.16833499999999998 0.006102000000000001
8640 1.61723736 9.74248758 0.25147935000000005 -0.000405 0.153376 0.00621
8660 1.6368475500000002 9.72707607 0.19399275000000002 0.00701 0.14163199999999998 0.0062770000000000005
8680 1.6801096500000001 9.7345611 0.16450389 0.030514 0.144763 0.002164
8700 1.6769606400000001 9.73096083 0.21479976 0.04225 0.138356 -0.004155
8720 1.6691813100000001 9.73784745 0.30266793 0.044278 0.113852 -0.005178
8740 1.6455294 9.74264454 0.34263387 0.046359 0.100004 -0.0072819999999999985
8760 1.61319564 9.76060665 0.37137717000000003 0.039996 0.108549 -0.0073370000000000015
8780 1.62606636 9.74817738 0.4122456300000001 0.025056 0.112841 -0.002106
8800 1.64926701 9.751473540000001 0.42616602000000003 0.007895000000000001 0.095843 0.001001
8820 1.62981378 9.78021684 0.42391953000000004 0.005665 0.074546 0.001012
8840 1.6115475600000002 9.73396269 0.41433516000000004 0.000336 0.07456900000000001 -9.3e-05
8860 1.6181398800000002 9.712400310000001 0.32557428000000005 -0.007061 0.090574 -0.000165
8880 1.6578017100000002 9.78230637 0.23395869 -0.010242 0.095907 0.000874
8900 1.6233784199999999 9.763147440000001 0.17917965 -0.011366 0.085249 0.003016
8920 1.53730548 9.75042387 0.22079367 -0.009261 0.077789 0.001972
8940 1.5795179099999999 9.76419711 0.28410741 -0.001789 0.078829 0.002023
8960 1.5920845200000002 9.76613949 0.3583593 0.003483 0.067083 0.004211
8980 1.60630902 9.83679111 0.32332778999999995 0.0077129999999999985 0.056424 0.002118
9000 1.56380229 9.768385980000001 0.32332778999999995 0.0077129999999999985 0.055363 0.001051
9020 1.53535329 9.767189160000001 0.3583593 0.004517 0.054318 -0.001106
9040 1.60107048 9.771829290000001 0.32646699000000007 -0.0008320000000000001 0.05008 -0.002206
9060 1.6188854400000001 9.747578970000001 0.3614985 -0.007238 0.051159 -0.000116
9080 1.6229271600000001 9.71000667 0.26779338 -0.013591 0.063956 0.00196
9100 1.5971759099999998 9.70971237 0.23845167 -0.014658 0.066082 0.004086
9120 1.5828042600000003 9.740241090000001 0.22812174000000002 -0.013606 0.061821 0.00303
9140 1.56963924 9.70821144 0.24249339000000003 -0.009386 0.051153 0.003074
9160 1.5575140800000002 9.73755315 0.24234624000000002 -0.005162 0.038368 -8.499999999999999e-05
9180 1.5988239899999999 9.77617512 0.30536568000000003 -0.005152 0.04156 0.0009789999999999998
9200 1.60541631 9.744135660000001 0.36434340000000004 -0.007281 0.044754 0.003096
9220 1.6139412000000002 9.74638215 0.28410741 -0.009396 0.051145 0.00521
9240 1.60346412 9.767189160000001 0.24309180000000002 -0.00619 0.052199 0.005231
9260 1.56904083 9.74728467 0.18845991 -0.010462 0.050088 0.004136
9280 1.5458401800000001 9.78036399 0.1935513 -0.010429 0.05648400000000001 0.003059
9300 1.52891793 9.7692885 0.27437589 -0.011496 0.057548 0.004118999999999999
9320 1.5549634799999998 9.747431820000001 0.33545295 -0.011525 0.050096 0.00306
9340 1.56380229 9.73844586 0.27108954 -0.007252 0.050085000000000005 0.002022
9360 1.5864045300000003 9.74204613 0.25566822 -0.005071 0.058608000000000014 -0.000111
9380 1.60810425 9.73036242 0.30012714 -0.001846 0.06392300000000001 -9.5e-05
9400 1.61948385 9.74279169 0.30835773000000005 -0.011496 0.056487 0.003052
9420 1.5934383 9.75760479 0.33141123 -0.022184 0.051202 0.001916
9440 1.5644007 9.78230637 0.29862621000000006 -0.028556 0.058677 0.00293
9460 1.58550201 9.76628664 0.25327458 -0.023222 0.061842 0.006168
9480 1.58684598 9.78156081 0.25356888000000005 -0.019002 0.051174 0.006211
9500 1.5751720800000002 9.747726120000001 0.25641378000000004 -0.014754 0.047959 0.007312999999999998
9520 1.5705319500000001 9.740545200000001 0.35985042 -0.010462 0.053271000000000006 0.007336
9540 1.5849035999999999 9.756113670000001 0.34159401 -0.010424 0.059671 0.005192
9560 1.5688838700000003 9.756564930000001 0.31090833 -0.00831 0.054340999999999993 0.004145
9580 1.5507746100000002 9.77392863 0.26808768000000005 -0.007276 0.046881 0.004162
9600 1.5760746 9.77692068 0.28156662 -0.007315 0.040481 0.006306
9620 1.5721800300000002 9.73515951 0.2945844900000001 -0.013682 0.050082 0.008386
9640 1.5874443900000004 9.74848149 0.34937334000000003 -0.018993 0.053305 0.006208
9660 1.6064561700000002 9.79847325 0.30670965 -0.028575 0.055477 0.004002
9680 1.5832555200000002 9.8043102 0.28680516 -0.032886 0.046966 0.005051
9700 1.54568322 9.73860282 0.27991854 -0.035067 0.03526 0.003983
9720 1.57457367 9.74279169 0.32122845000000005 -0.029738 0.035237 0.0050880000000000005
9740 1.6302552300000002 9.69922548 0.34847082000000007 -0.023308 0.041606 0.005125
9760 1.61334279 9.73066653 0.3469797 -0.017945 0.04904 0.006221
9780 1.57248414 9.78649524 0.26150517 -0.015806 0.049037 0.005168
9800 1.55720997 9.79248915 0.28515708 -0.019002 0.04693 0.001944
9820 1.5988239899999999 9.75341592 0.34922619 -0.012639 0.037325 0.000932
9840 1.57741857 9.756564930000001 0.39158577000000006 -0.000933 0.027709 -0.002178
9860 1.57457367 9.755662410000001 0.41897529 0.011927 0.038326 -0.004239
9880 1.6079571000000001 9.77871591 0.41897529 0.015123 0.035127 -0.0063490000000000005
9900 1.5846093 9.74099646 0.34862778 -0.003042 0.030921 -0.004334
9920 1.5976271700000002 9.73096083 0.36314658000000005 -0.015821 0.037353 -0.003363
9940 1.6254679500000002 9.719591040000001 0.37886220000000004 -0.022174 0.048028 -0.003421
9960 1.6313049000000004 9.70222734 0.38410074000000005 -0.017911 0.048009 -0.002323
9980 1.63086345 9.71868852 0.40117014 -0.012606 0.039477 -0.004412
10000 1.6256151 9.76135221 0.40236696 -0.012625 0.033094 -0.006540000000000001
10020 1.66214754 9.768238830000001 0.3715243200000001 -0.019036 0.033107 -0.004448
10040 1.68923295 9.78620094 0.33351057 -0.022217 0.038441 -0.003409
10060 1.6766663400000001 9.799375770000001 0.29219085 -0.01474 0.038423 -0.005493
10080 1.65256317 9.78589683 0.31988447999999997 -0.009434 0.035196 -0.002247
10100 1.6420860900000003 9.747431820000001 0.40610457000000005 -0.014821 0.02668 0.000931
10120 1.59179022 9.76988691 0.47466666 -0.02659 0.020325 0.001925
10140 1.55990772 9.78589683 0.44726733 -0.030843 0.026718 0.005091
10160 1.5651462600000001 9.803260530000001 0.37048446 -0.024394 0.035227 0.002989
10180 1.5483809699999997 9.76180347 0.32736951 -0.019084 0.028821 0.001966
10200 1.5413472000000001 9.715990770000001 0.41134311000000007 -0.019098 0.024564 0.000903
10220 1.55481633 9.73755315 0.46134468 -0.022318 0.019253 -0.000181
10240 1.57232718 9.768385980000001 0.46778004 -0.025581 0.006476999999999999 0.0008810000000000002
10260 1.5482338199999999 9.7174917 0.38754405000000003 -0.028844 -0.003116 0.005144
10280 1.57143447 9.775871010000001 0.39368511 -0.029896 8.3e-05 0.005132
10300 1.6257720600000003 9.78605379 0.42092748 -0.024543 0.003265 0.004097
10320 1.5672456000000001 9.74683341 0.42556761000000004 -0.018165 -0.003145 0.003082
10340 1.54209276 9.73365858 0.46209024000000004 -0.018175 -0.007398 0.000951
10360 1.5658918200000003 9.74728467 0.44966097000000005 -0.018204 -0.011667 0.003092
10380 1.57308255 9.7610481 0.35326791 -0.019251 -0.005281 0.005213000000000001
10400 1.5519714300000003 9.759851280000001 0.28141947 -0.020294 5e-05 0.0051990000000000005
10420 1.57113036 9.75057102 0.31854051 -0.016017 0.002165 0.005226
10440 1.6118516699999998 9.75895857 0.43589754000000003 -0.011716 0.007484999999999999 0.003113
10460 1.5911918100000002 9.72018945 0.49157910000000005 -0.015965 0.013883 0.005212
10480 1.53969912 9.751473540000001 0.44742429 -0.018026 0.030930000000000006 0.006244
10500 1.54015038 9.78904584 0.35805518999999997 -0.022275 0.035206 0.006209
10520 1.5699335399999998 9.7607538 0.38096154000000004 -0.020155000000000003 0.030942 0.005161
10540 1.61529498 9.7260264 0.41957370000000005 -0.014787 0.035197000000000006 0.001988
10560 1.5964303499999999 9.723632760000001 0.46912401000000004 -0.008401 0.031979 0.002037
10580 1.56544056 9.73500255 0.50669631 -0.004186 0.023429 0.005282
10600 1.5539138099999998 9.77632227 0.49607208 -0.010582 0.028761 0.009503
10620 1.52503317 9.783650340000001 0.45580203 -0.006185 0.053264 0.005229999999999999
10640 1.56289977 9.76044969 0.40086603 0.000225 0.054311 0.004205
10660 1.5694822800000003 9.749227050000002 0.47825712 0.001259 0.04579 0.0031550000000000003
10680 1.5663430800000002 9.721386270000002 0.5516064900000001 -0.004118999999999999 0.038343 0.005263
10700 1.5771242700000003 9.751473540000001 0.53708769 -0.007329 0.041529 0.010578
10720 1.5521185800000001 9.736797780000002 0.49352148 -0.009424 0.050058 0.010552
10740 1.5458401800000001 9.744135660000001 0.44637462000000006 -0.001918 0.05431 0.006326
10760 1.60061922 9.73815156 0.41404086 0.0066170000000000005 0.054281 0.006386
10780 1.5929870400000001 9.73126494 0.49562082 0.005521 0.050015 0.00852
10800 1.5425440200000002 9.73949553 0.53812755 0.001254 0.05003 0.008490000000000001
10820 1.52982045 9.740241090000001 0.56402595 -0.0008609999999999999 0.054298 0.00847
10840 1.53610866 9.74188917 0.5092371000000001 0.003426 0.0543 0.004227000000000001
10860 1.54553607 9.755515260000001 0.52480557 0.003412 0.050043 0.003164
10880 1.5663430800000002 9.73351143 0.5688132300000002 0.001273 0.050047 0.004218
10900 1.59927525 9.765246780000002 0.5822921700000002 -0.007281 0.050059 0.008431000000000001
10920 1.6104978900000002 9.79457868 0.5288472900000001 -0.01152 0.058588 0.010527
10940 1.56139884 9.75760479 0.5334874200000002 -0.00829 0.061785 0.00734
10960 1.5232281300000001 9.74503818 0.49786731 -0.0008269999999999999 0.05857200000000001 0.00526
10980 1.5669414900000003 9.7408395 0.44038071 0.004464 0.048966 0.0053100000000000005
11000 1.6290584099999998 9.71105634 0.47242017000000003 0.00443 0.04257 0.006386
11020 1.6136469 9.76195062 0.50595075 0.002268 0.037247 0.007445999999999999
11040 1.5632038799999999 9.75416148 0.49038228 -0.001995 0.037266 0.006348
11060 1.56080043 9.75880161 0.44697303 -0.002009 0.035131 0.0074189999999999985
11080 1.59702876 9.76943565 0.48634056000000003 -0.0063100000000000005 0.02875 0.008465
11100 1.59238863 9.76060665 0.5074418700000001 -0.008497 0.018101 0.009531
11120 1.5200889300000002 9.775871010000001 0.5291514 -0.010649 0.01703 0.012722
11140 1.52353224 9.75745764 0.5815367999999999 -0.010693 0.010626 0.015934999999999998
11160 1.54343673 9.72992097 0.54067815 -0.008597 0.004218 0.018094
11180 1.5663430800000002 9.7348554 0.46328706 -0.006468000000000001 0.006329 0.021311
11200 1.5706791 9.736954740000002 0.48394692000000006 -0.003258 0.007387 0.020264
11220 1.58610042 9.74204613 0.51911577 -0.002254 -0.005404 0.021356
11240 1.60032492 9.743537250000001 0.5161237200000001 -0.001168 -0.005391 0.01709
11260 1.5780169800000001 9.76135221 0.48902850000000003 0.000957 -0.004346 0.020308
11280 1.5886510200000001 9.764795520000002 0.48947976000000004 0.003033 -0.012892 0.024607
11300 1.60541631 9.75700638 0.46582785000000004 -0.000129 -0.007542 0.021373
11320 1.6145396100000002 9.78005988 0.49906413000000005 0.001009 0.010555 0.023494
11340 1.6188854400000001 9.727674480000001 0.51807591 0.006401 0.025442 0.025649
11360 1.61140041 9.76568823 0.5206167 0.013884 0.025428 0.022497
11380 1.63295298 9.75865446 0.49921128000000003 0.024624 0.031820999999999995 0.01295
11400 1.6302552300000002 9.73904427 0.4504163400000001 0.031059 0.031829 0.005517
11420 1.67516541 9.73081368 0.43769277 0.031136 0.046751 0.0033619999999999995
11440 1.6860937500000002 9.75416148 0.48155328000000003 0.027978 0.055288 0.002261
11460 1.6363962900000002 9.74069235 0.48739023 0.022653 0.056376 0.001154
11480 1.6422332400000001 9.78021684 0.46627911 0.017286000000000003 0.048938 0.001126
11500 1.6271160300000003 9.796373910000002 0.42451794000000004 0.014085 0.046827 -0.00103
11520 1.6040625300000002 9.752366250000001 0.46029501 0.015185 0.052159 -0.003165
11540 1.5968816099999998 9.76374585 0.47555937000000004 0.015209 0.057485 -0.003172
11560 1.6278615900000002 9.79712928 0.53857881 0.017338 0.05429 -0.00529
11580 1.6266647700000003 9.752523210000001 0.5312409300000001 0.016315 0.063881 -0.005309
11600 1.59733287 9.72572229 0.46388547 0.017343 0.056416 -0.004224
11620 1.63759311 9.72303435 0.48813579 0.016305 0.059629 -0.00744
11640 1.6853481900000002 9.72542799 0.56072979 0.0163 0.059624 -0.006372
11660 1.61499087 9.74817738 0.6084848700000001 0.016262000000000002 0.04898 -0.008495
11680 1.5545220300000002 9.807007950000001 0.6170195700000001 0.018367 0.043642 -0.007405
11700 1.5013812600000003 9.77677353 0.62898777 0.020515 0.051075 -0.003127
11720 1.5498819000000004 9.7260264 0.5706182700000001 0.019438 0.05107 -0.000998
11740 1.58146029 9.7146468 0.53783325 0.018367 0.051069 6.3e-05
11760 1.62950967 9.71524521 0.5553441 0.019438 0.05107 -0.000998
11780 1.64687337 9.72227898 0.58453866 0.017305 0.050016000000000005 -0.0020800000000000003
11800 1.6477758900000001 9.71060508 0.5851370700000001 0.01618 0.038298 -0.001004
11820 1.6509150900000003 9.72183753 0.54112941 0.014047 0.041488 0.002181
11840 1.6497182700000002 9.73515951 0.47751156 0.016194999999999998 0.044677 0.0021920000000000004
11860 1.65390714 9.71988534 0.47122335000000004 0.023663 0.042529 0.000111
11880 1.6428316500000002 9.73231461 0.45340839000000005 0.02584 0.051047 -0.000953
11900 1.6199351100000001 9.76120506 0.44248005 0.027973 0.05104 -0.000938
11920 1.6420860900000003 9.739348380000001 0.43289568 0.019414 0.045744 -0.000991
11940 1.6304121900000001 9.73036242 0.40835106000000004 0.009794 0.038333 -0.004254
11960 1.6428316500000002 9.73051938 0.43035489 0.0066170000000000005 0.044732 -0.003216
11980 1.64957112 9.723328650000001 0.41523768 0.00233 0.041546 -0.002173
12000 1.6711236900000002 9.75372003 0.4122456300000001 0.003373 0.038338 -2.6e-05
12020 1.6808552100000003 9.76943565 0.40251411 -0.0008939999999999998 0.041536 0.003145
12040 1.6591456800000002 9.768385980000001 0.37736127 0.000149 0.037267 0.004226
12060 1.65136635 9.73650348 0.37077876000000004 0.00543 0.02447 0.003211
12080 1.6127443799999999 9.75716334 0.35850645000000003 0.009678 0.018072 0.001113
12100 1.6143924600000004 9.72932256 0.32811507000000006 0.013984 0.024457 -0.001002
12120 1.6239768300000001 9.75326877 0.37197558000000003 0.016118 0.022327 -0.003121
12140 1.62950967 9.768385980000001 0.38319822000000003 0.015041999999999996 0.01914 -0.004192
12160 1.6232214600000001 9.71390124 0.39637305000000006 0.0075689999999999985 0.019161 -0.003176
12180 1.6290584099999998 9.75431844 0.36688419000000005 -0.003086 0.023456 -0.002188
12200 1.6188854400000001 9.78455286 0.35356221 -0.011649 0.017093999999999998 -0.00224
12220 1.6242711300000001 9.78859458 0.38828961 -0.012735 0.012836000000000002 -0.002242
12240 1.6199351100000001 9.71315568 0.40296537000000004 -0.010592 0.016021 -0.001163
12260 1.5985296900000001 9.7115076 0.43110045 -0.008463 0.014948 -0.001146
12280 1.6098994800000002 9.72677196 0.40565331 -0.004176 0.019194 -0.0011220000000000002
12300 1.6072115399999998 9.76135221 0.40146444000000003 -0.002033 0.018134 -0.0043100000000000005
12320 1.61917974 9.768533130000002 0.27587682 -0.000995 0.009617 -0.006429000000000001
12340 1.6640899200000001 9.77781339 0.26659656 -0.002052 0.013872999999999998 -0.004305
12360 1.68250329 9.74817738 0.27258066000000003 -0.0041670000000000006 0.018141 -0.004325
12380 1.6262135100000001 9.73949553 0.3379937400000001 -0.008425 0.021348 -0.003291
12400 1.6136469 9.75042387 0.35386632 -0.009492 0.023474 -0.001165
12420 1.60525935 9.760155390000001 0.37556604 -0.016984 0.019234 -0.000143
12440 1.6031698200000002 9.76943565 0.33095997000000005 -0.021261 0.016058000000000003 -0.0012369999999999998
12460 1.57412241 9.7465293 0.27602397 -0.015955 0.013891999999999998 0.003075
12480 1.6108020000000003 9.7493742 0.27977139 -0.008492 0.014922 0.005263
12500 1.6070545800000002 9.73800441 0.30551283 -0.00842 0.026657 0.000975
12520 1.6437341699999999 9.71495091 0.32512302000000004 0.003383 0.038347000000000006 -0.0021620000000000003
12540 1.5976271700000002 9.736797780000002 0.41808258000000004 0.0034020000000000005 0.04473 -3.4e-05
12560 1.5967344600000002 9.731412090000001 0.40445649000000006 -0.004104 0.035173 -0.001142
12580 1.5756233400000001 9.771976440000001 0.33724818 -0.018055 0.020295 0.001984
12600 1.57577049 9.77392863 0.27333603 -0.024452 0.027749 0.008339
12620 1.5826571100000002 9.748922940000002 0.29054277 -0.01795 0.051158 0.009423
12640 1.57652586 9.75895857 0.34188831000000003 -0.006176 0.058578 0.008428
12660 1.5938895600000003 9.763893 0.3469797 -0.007276 0.050064 0.007363
12680 1.5606532800000001 9.77108373 0.33231375 -0.0041140000000000005 0.04153 0.007396
12700 1.57292559 9.74518533 0.29982303 -0.001956 0.045788 0.006337
12720 1.5995695500000002 9.73724904 0.28381311 0.003445 0.054317 -4.6e-05
12740 1.61828703 9.70985952 0.29069973 0.003455 0.055387 -0.001115
12760 1.6154421300000001 9.72303435 0.34398765000000003 -0.001923 0.04794 0.000993
12780 1.6018160399999999 9.791135370000001 0.39278259 -0.014749000000000003 0.045842 0.004111
12800 1.55691567 9.71449965 0.40535900999999996 -0.024346 0.050123 0.007243
12820 1.55646441 9.79368597 0.33710102999999997 -0.026441000000000003 0.057592 0.006151
12840 1.5582596400000002 9.823174830000001 0.29039562 -0.017911 0.054375 0.004078
12860 1.57412241 9.780658290000002 0.33605136 -0.005152 0.042621 0.002046
12880 1.5657446700000002 9.723328650000001 0.3409956 0.0033880000000000004 0.043656 0.002104
12900 1.5958319400000003 9.70252164 0.36748260000000005 0.000144 0.037263 0.005294
12920 1.6001679600000003 9.72213183 0.37302525000000003 -0.008391 0.035171 0.003101
12940 1.6110963 9.74488122 0.32048288999999996 -0.013706 0.037328 0.000925
12960 1.58999499 9.78545538 0.29159244 -0.012639 0.036264 -0.000135
12980 1.56844242 9.755809560000001 0.29952873 -0.013749 0.027741 0.000937
13000 1.5846093 9.76733631 0.33246090000000006 -0.018026 0.029869 0.005177
13020 1.5617029500000001 9.78185511 0.34772526 -0.021217 0.035194 0.008352
13040 1.54568322 9.76508982 0.39742272 -0.017983000000000002 0.041579000000000005 0.007298999999999998
13060 1.53161568 9.75011976 0.4309533 -0.014792 0.036254 0.004123
13080 1.5926927400000002 9.764491410000002 0.3873969 -0.0062770000000000005 0.029841000000000006 0.002054
13100 1.61125326 9.73635633 0.36284247000000003 -0.005261999999999999 0.01812 0.002076
13120 1.6443325800000002 9.719738190000001 0.31943322 -0.009549 0.017056 0.005253
13140 1.6064561700000002 9.73036242 0.36987624 -0.013749 0.029863 0.00307
13160 1.57741857 9.74982546 0.39457782 -0.011544 0.046896 0.004132
13180 1.5760746 9.74668626 0.37422207 -0.010477 0.047953 0.0052060000000000006
13200 1.58760135 9.808499070000002 0.33320646000000004 -0.009492 0.030901 0.006303
13220 1.6262135100000001 9.82526436 0.32527017 -0.014864 0.022397 0.0062770000000000005
13240 1.6072115399999998 9.79413723 0.36898353 -0.019112 0.026673 0.006242
13260 1.5819115499999998 9.7465293 0.40581027000000003 -0.016936 0.037314 0.007311
13280 1.58116599 9.74279169 0.42032907 -0.012635 0.042634 0.005198
13300 1.5658918200000003 9.74264454 0.46642626 -0.007334 0.034098 0.004178
13320 1.5817644000000004 9.76060665 0.41538483 -0.008429 0.029832 0.006312
13340 1.60061922 9.77482134 0.38410074000000005 -0.007382 0.025567 0.006325
13360 1.62606636 9.78560253 0.34054434000000006 -0.008444 0.025575 0.005249
13380 1.601973 9.75431844 0.35521029 -0.009506 0.026644 0.005241
13400 1.5751720800000002 9.76584519 0.39263544 -0.009492 0.026657 0.002036
13420 1.5666373800000002 9.82332198 0.44786574 -0.007348 0.027719 0.000981
13440 1.5676870500000002 9.75057102 0.43229727000000007 -0.008415 0.026661 -9.3e-05
13460 1.58894532 9.759409830000001 0.39412656000000007 -0.01053 0.031991000000000006 0.000954
13480 1.6235255700000002 9.77632227 0.44502084000000003 -0.008367 0.037314 -0.000106
13500 1.60286571 9.77063247 0.49411989 -0.005138 0.043694 -9.2e-05
13520 1.5648421500000003 9.75176784 0.47196891 -0.001952 0.037304 -0.003266
13540 1.58071473 9.76374585 0.4076055 -0.00198 0.030913 -0.003258
13560 1.64717748 9.75880161 0.40670298000000005 -0.005186 0.028798 -0.004346
13580 1.6247223900000003 9.76240188 0.42855966000000006 -0.006257 0.029858 -0.002218
13600 1.57098321 9.78529842 0.41793543000000005 -0.004079999999999999 0.040499 -0.001149
13620 1.5829612199999998 9.787692060000001 0.4340925 -0.001961 0.038357 -6.3e-05
13640 1.5982255800000003 9.79053696 0.41404086 -0.0008849999999999998 0.038362 -0.0021920000000000004
13660 1.61499087 9.807302250000001 0.36568737 -0.001937 0.042622 -0.001136
13680 1.5995695500000002 9.7926363 0.384552 -0.001961 0.037296 -0.00113
13700 1.60525935 9.78485697 0.43753581 0.00123 0.035154000000000005 -0.001105
13720 1.5916430700000002 9.75386718 0.48289725 0.004493 0.04687 -0.003233
13740 1.57113036 9.771525180000001 0.45280998 0.005593 0.055384 -0.002168
13760 1.5612516900000002 9.77018121 0.43649595 0.005531 0.044718 0.00105
13780 1.5994224000000004 9.78634809 0.43349409 -0.003023 0.038365 -0.001139
13800 1.5947822700000003 9.755515260000001 0.44233290000000003 0.000197 0.040493 -0.003255
13820 1.5838539300000003 9.747127710000001 0.50399856 -0.0008609999999999999 0.044749 -0.001132
13840 1.5959790900000002 9.75401433 0.4827501 -0.001918 0.047944 -7.5e-05
13860 1.59148611 9.75356307 0.47046798 -0.005152 0.042621 0.002046
13880 1.60107048 9.75386718 0.4564004400000001 -0.003042 0.04047 0.005268
13900 1.5813131400000002 9.74952135 0.42272271 -0.003066 0.036205 0.006342
13920 1.6137940499999999 9.744439770000001 0.48739023 0.0012109999999999998 0.03832 0.006369
13940 1.6096051800000002 9.743841360000001 0.51223896 0.008722 0.048943 0.007476000000000002
13960 1.5989711400000002 9.74547963 0.46403262 0.013004 0.04894 0.004301
13980 1.57232718 9.7547697 0.39892365 0.008679000000000001 0.035111 0.00322
14000 1.5849035999999999 9.72871434 0.44742429 0.009726 0.030846 0.003233
14020 1.58760135 9.74264454 0.47091924000000007 0.004454 0.044713 0.0031780000000000003
14040 1.52458191 9.75072798 0.44906256 0.000173 0.040472 0.002086
14060 1.55675871 9.78529842 0.41239278 -0.0019760000000000003 0.039405 0.004209
14080 1.58505075 9.76374585 0.43215012 -0.003033 0.041539 0.004198
14100 1.6015217400000001 9.727370370000001 0.42556761000000004 -0.004104 0.043661 0.007393
14120 1.60571061 9.77677353 0.43769277 0.000182 0.046846 0.006351
14140 1.62127908 9.77302611 0.46822149 0.002316 0.043656 0.003165
14160 1.5783210900000002 9.72528084 0.50939406 0.007597 0.03298 0.0042840000000000005
14180 1.56739275 9.705670650000002 0.44862111000000005 0.009741 0.032981 0.0021620000000000003
14200 1.58894532 9.71404839 0.40835106000000004 0.007626000000000002 0.039372 0.004275999999999999
14220 1.6390940399999998 9.743841360000001 0.37496763 0.004435000000000001 0.041513 0.004251
14240 1.61334279 9.743390100000001 0.37377081000000006 0.002282 0.040443 0.007442
14260 1.5901421400000002 9.772280550000001 0.39488193 -0.0008939999999999998 0.044719 0.006346
14280 1.6104978900000002 9.7692885 0.43245423 0.000173 0.041533 0.003153
14300 1.5880428 9.767189160000001 0.43080615000000005 0.001263 0.045794 0.0020870000000000003
14320 1.5670886400000001 9.74728467 0.41029344 0.00233 0.044729000000000005 0.001027
14340 1.58624757 9.74264454 0.44502084000000003 0.003378 0.041526 0.002107
14360 1.60810425 9.74803023 0.48079791 0.000153 0.037271 0.003158
14380 1.5786153900000002 9.71524521 0.48902850000000003 0.001239 0.043651 0.005294
14400 1.5829612199999998 9.75446559 0.44726733 0.00233 0.047912 0.004228
14420 1.60286571 9.740241090000001 0.4281084 0.005516 0.043644 0.003187
14440 1.5968816099999998 9.739946790000001 0.36568737 0.005531 0.043657 -1.7e-05
14460 1.57846824 9.75372003 0.41208867000000005 0.008745999999999999 0.046842 1e-06
14480 1.57472082 9.73260891 0.43349409 0.006579000000000001 0.041514 0.002129
14500 1.57412241 9.75910572 0.44816985000000004 -0.000904 0.038345 0.002081
14520 1.57232718 9.76988691 0.43769277 -0.006224 0.04262 0.003107
14540 1.55092176 9.767934720000001 0.41493357000000003 -0.0051140000000000005 0.054326 0.005236
14560 1.60571061 9.75745764 0.40416219000000003 0.001307 0.058565 0.005275
14580 1.59702876 9.752817510000002 0.43948800000000005 0.007689 0.05322 0.004258
14600 1.58220585 9.75372003 0.46598481 0.008722 0.041515 8e-06
14620 1.5452319600000002 9.73500255 0.42406668000000003 0.007684000000000002 0.04685 -0.001075
14640 1.54179846 9.75431844 0.4300605900000001 0.004483 0.046861 -0.001097
14660 1.53685422 9.759556980000001 0.42227145000000005 0.005555 0.047923 -0.001091
14680 1.5563172600000001 9.746235 0.42466509 0.003412 0.047921 0.001031
14700 1.5828042600000003 9.746235 0.42616602000000003 0.0033880000000000004 0.042595 0.001037
14720 1.5810090300000001 9.76943565 0.42841251 0.001235 0.038342 0.0010279999999999998
14740 1.55122587 9.76733631 0.45790137000000003 0.000182 0.04048 -5.1e-05
14760 1.54223991 9.735453810000001 0.42241860000000003 -0.001942 0.042618 -6.8e-05
14780 1.57577049 9.77018121 0.40012047 -0.001952 0.041549 0.001001
14800 1.5928398900000003 9.81045126 0.37766538 0.000197 0.043676 -5.5e-05
14820 1.59538068 9.764795520000002 0.42092748 0.003392 0.04366 0.001036
14840 1.54852812 9.71495091 0.42870681 0.00765 0.041515 0.001068
14860 1.6078099500000003 9.70641621 0.41718006 0.006626000000000001 0.050045 -1.8e-05
14880 1.63175616 9.705366540000002 0.43858548 0.004497999999999999 0.050057 -0.001101
14900 1.5989711400000002 9.756113670000001 0.44862111000000005 0.002349 0.045807 -0.002179
14920 1.55242269 9.779010210000001 0.43858548 -0.0008560000000000001 0.044753 -0.0022
14940 1.5423968700000001 9.768690090000002 0.39682431 -0.002985 0.046887 -0.001149
14960 1.5898478400000002 9.7493742 0.31554846000000003 -0.0008179999999999999 0.053275 -0.00221
14980 1.5881997600000002 9.740241090000001 0.34083863999999997 -0.0008029999999999999 0.057532000000000014 -0.001148
15000 1.6051122000000002 9.73920123 0.41418801000000005 -0.002961 0.052213 -0.001156
15020 1.61738451 9.735757920000001 0.45489951000000006 -0.001913 0.046888 -0.00221
15040 1.61199882 9.74308599 0.42286986 -0.003961 0.062887 -0.005449
15060 1.61917974 9.73260891 0.39921795000000004 -0.003913000000000001 0.073539 -0.005463
15080 1.61948385 9.740545200000001 0.3468325500000001 -0.003961 0.062887 -0.005449
15100 1.6078099500000003 9.74503818 0.35087427000000004 0.000273 0.056476 -0.004343
15120 1.60121763 9.75491685 0.37391796 0.006742000000000001 0.071367 -0.0043170000000000005
15140 1.5838539300000003 9.74578374 0.40521186000000003 0.006784999999999999 0.078833 -0.006462999999999999
15160 1.59074055 9.76659075 0.42601887000000005 0.00036 0.067163 -0.012902
15180 1.59807843 9.76269618 0.40775265 -0.008246999999999999 0.048031 -0.016142
15200 1.5721800300000002 9.76090095 0.37182843 -0.017868000000000002 0.043803 -0.016204
15220 1.5636453300000002 9.73425699 0.37048446 -0.018878 0.055529 -0.017294999999999998
15240 1.60032492 9.74473407 0.35042301000000003 -0.018806 0.07363 -0.015181
15260 1.5769673100000001 9.74308599 0.41509053000000007 -0.027288 0.086439 -0.014188
15280 1.5829612199999998 9.7291656 0.43185582000000006 -0.030551 0.073663 -0.013126
15300 1.58610042 9.72243594 0.39383226000000005 -0.028455 0.06195 -0.016301
15320 1.5777226800000002 9.755064 0.40071888000000006 -0.017835 0.050199 -0.01728
15340 1.5658918200000003 9.75356307 0.35087427000000004 -0.003965 0.04909 -0.01825
15360 1.5525698400000003 9.73515951 0.36269532000000004 -0.007152 0.05548 -0.015076
15380 1.56259566 9.76628664 0.34802937000000006 -0.016782 0.050182 -0.014068
15400 1.555866 9.75836016 0.40251411 -0.032833 0.044891 -0.008833
15420 1.5175481400000002 9.73860282 0.45654759 -0.042483 0.040638 -0.002485
15440 1.52278668 9.772133400000001 0.42691158 -0.044655 0.035306 0.000711
15460 1.5928398900000003 9.78889869 0.31883481 -0.038292 0.027823 0.001833
15480 1.5905934000000002 9.73920123 0.34188831000000003 -0.03302 0.0182 0.006155
15500 1.5232281300000001 9.74803023 0.43948800000000005 -0.029791 0.027763 0.00937
15520 1.5039220500000001 9.715843620000001 0.56373165 -0.037278 0.024589 0.01039
15540 1.5486752700000002 9.707917140000001 0.48843009000000004 -0.038335 0.025662 0.009313
15560 1.58834691 9.69458535 0.42960933 -0.031977 0.018174 0.011504
15580 1.5621542100000003 9.76284333 0.35850645000000003 -0.029887 0.014946 0.017932
15600 1.56873672 9.80071974 0.37646856 -0.033121 0.012805 0.023253
15620 1.5675399000000003 9.74099646 0.37751823000000007 -0.03634 0.014921 0.029637
15640 1.55990772 9.71913978 0.38664153 -0.033154 0.017019 0.034998
15660 1.52443476 9.77077962 0.38096154000000004 -0.027858 0.004234 0.030778
15680 1.4904529199999998 9.780815250000002 0.34368354000000007 -0.021481 -0.005358 0.026562
15700 1.4804172899999999 9.81373761 0.2945844900000001 -0.012913 -0.004297 0.020212
15720 1.5444864 9.78904584 0.24892875000000003 -0.015046 -0.003229 0.021263
15740 1.56918798 9.75296466 0.3065625 -0.009654 0.007414 0.019151
15760 1.5944879699999999 9.72662481 0.35776089000000005 -0.013663 0.055404 0.009448
15780 1.57741857 9.72992097 0.39383226000000005 -0.008126999999999999 0.090577 -0.000173
15800 1.55512044 9.74279169 0.40430934 -0.009223 0.07357899999999999 -0.010841
15820 1.5486752700000002 9.76733631 0.32691825 -0.014547999999999997 0.06511900000000001 -0.02155
15840 1.5658918200000003 9.760155390000001 0.31898196000000006 -0.025116 0.086465 -0.022719
15860 1.5742793700000002 9.783208890000001 0.35999757000000004 -0.038913 0.102493 -0.022836
15880 1.50362775 9.823773240000003 0.44472654 -0.046376 0.105706 -0.020756
15900 1.4415010200000002 9.75057102 0.47795301 -0.05072 0.092921 -0.016497
15920 1.48595994 9.7695828 0.45999090000000004 -0.047688 0.070479 -0.001492
15940 1.50916059 9.792783450000002 0.38155995000000004 -0.033908999999999995 0.060801 0.009299
15960 1.55990772 9.780962400000002 0.3876912 -0.01263 0.05537 0.016932
15980 1.57472082 9.77377167 0.40191570000000004 0.008717 0.058487 0.018146
16000 1.57652586 9.80222067 0.48619341000000005 0.023615 0.047791 0.016127000000000002
16020 1.52413065 9.755515260000001 0.55864026 0.018199 0.030761 0.017179
16040 1.50766947 9.736797780000002 0.55953297 -0.002182 0.011636 0.022403
16060 1.5058644300000001 9.75027672 0.5929164 -0.021543 -0.012841 0.032981
16080 1.50721821 9.784101600000001 0.65323809 -0.038723 -0.025611 0.044628
16100 1.50901344 9.73979964 0.6908103900000001 -0.045206 -0.037332 0.051007
16120 1.4807214000000002 9.68650191 0.72943236 -0.042991 -0.021352 0.048865
16140 1.3855153500000001 9.73380573 0.7575772500000001 -0.026882 -0.002216 0.04468
16160 1.2958519500000003 9.73231461 0.76131486 0.002913 -0.020426 0.043844
16180 1.34345988 9.75312162 0.78436836 0.017811 -0.037488 0.035424000000000004
16200 1.4693418 9.75176784 0.7460505000000001 0.044583 -0.027943 0.02278
16220 1.53161568 9.69488946 0.73766295 0.054362 -0.012965 -0.0017399999999999998
16240 1.55840679 9.68919966 0.62615268 0.04599 0.002064 -0.023182
16260 1.5751720800000002 9.69788151 0.5300441100000001 0.018434 0.023543 -0.04263
16280 1.6584001200000003 9.72153342 0.4197306600000001 -0.023193 0.013061 -0.049317
16300 1.68489693 9.80057259 0.33126408 -0.075627 -0.015544 -0.043237
16320 1.6597440900000002 9.80461431 0.36673704 -0.095965 -0.015533000000000003 -0.028424
16340 1.60630902 9.86283666 0.41509053000000007 -0.104596 -0.020893 -0.012454
16360 1.5533154000000002 9.831258270000001 0.4713705 -0.093038 -0.046556 0.001546
16380 1.47877902 9.80071974 0.41913225000000004 -0.064343 -0.064792 0.008179
16400 1.51635132 9.756113670000001 0.41373675 -0.02594 -0.06493 0.009516
16420 1.57412241 9.73605222 0.51956703 0.013395 -0.098083 0.007697
16440 1.63220742 9.70971237 0.53364438 0.031392 -0.1301 0.006795000000000001
16460 1.6527103200000002 9.71689329 0.5405211900000001 0.029201 -0.140753 0.00893
16480 1.6509150900000003 9.74204613 0.5185173599999999 0.018484 -0.143942 0.016337
16500 1.6392411900000001 9.759556980000001 0.5897772000000001 -0.008178 -0.128986 0.02895
16520 1.5633510300000002 9.76224492 0.6643233900000001 -0.043331 -0.099108 0.046826
16540 1.4694987600000002 9.715696470000001 0.7354164599999999 -0.062487 -0.080961 0.054147
16560 1.47967173 9.70087356 0.7824259800000002 -0.064678 -0.091615 0.056281
16580 1.4441987699999999 9.771829290000001 0.91490022 -0.056162 -0.094845 0.057413
16600 1.40677362 9.77333022 1.01698308 -0.039093 -0.098087 0.054332000000000005
16620 1.4049783900000001 9.711949050000001 1.01848401 -0.021994 -0.091755 0.054443
16640 1.4180060700000001 9.63036909 0.92956617 0.001616 -0.06625 0.049234
16660 1.4865583500000001 9.59384646 0.82808172 0.040119 -0.047201 0.047342
16680 1.64911986 9.565112970000001 0.6427610100000001 0.060542999999999986 -0.026976 0.033572000000000005
16700 1.7931208500000002 9.69070059 0.4784042700000001 0.06388200000000001 -0.014132 0.015419
16720 1.8263473200000002 9.73410984 0.33590421000000004 0.055554 0.000935 -0.015636
16740 1.76602563 9.831709530000001 0.22304016000000004 0.037652 0.027733 -0.041433
16760 1.6919307000000001 9.85311495 0.29443734 0.009956 0.017258000000000003 -0.06190900000000001
16780 1.65136635 9.84248091 0.31120263000000004 -0.048707 0.020659 -0.062324
16800 1.59224148 9.899967509999998 0.37616445 -0.10418800000000003 0.039946 -0.04244
16820 1.5874443900000004 9.89098155 0.39653001 -0.13207 0.030366000000000008 -0.020189
16840 1.58610042 9.78156081 0.41299119 -0.12900899999999998 0.021744 0.002276
16860 1.5998736599999999 9.67498497 0.5007122100000001 -0.093884 0.014121000000000003 0.013213
16880 1.68174792 9.64279836 0.64890207 -0.030035000000000006 -0.019139 0.016906
16900 1.7452186200000002 9.668392650000001 0.69814827 0.031766 -0.039582 0.014159
16920 1.71273771 9.708809850000002 0.6742020599999999 0.079626 -0.071712 0.015603
16940 1.66079376 9.73829871 0.64007307 0.087032 -0.084526 0.01674
16960 1.6227800100000003 9.75416148 0.67629159 0.079497 -0.094108 0.02204
16980 1.5934383 9.77317326 0.6968043 0.052964 -0.055695 0.029283
17000 1.5519714300000003 9.73560096 0.6448603500000001 0.035039 -0.0023940000000000003 0.035499
17020 1.5024211200000002 9.700128000000001 0.6854247 0.025552 0.020023 0.032199
17040 1.4690475 9.76195062 0.77733459 0.028748000000000006 -0.000152 0.01302
17060 1.4585704199999998 9.880651620000002 0.9310671 0.022553 0.020213 -0.012687
17080 1.41860448 9.839783160000001 1.0309034700000002 0.007947 0.069365 -0.037421
17100 1.3578217199999998 9.72273024 1.0666805400000001 -0.017619 0.07161100000000001 -0.044012
17120 1.28702295 9.632017170000001 1.04812002 -0.048735 0.035487 -0.040978
17140 1.3248993599999999 9.6104646 0.9050215500000001 -0.078694 0.023844 -0.033695
17160 1.52697555 9.528737490000001 0.7577244000000001 -0.08311900000000001 0.008864 -0.013411
17180 1.81646865 9.58396779 0.64141704 -0.06936 -0.004014 -0.001548
17200 1.90897695 9.676181790000001 0.49172625000000003 -0.045937 -0.013688 -0.000303
17220 1.9423603800000002 9.763893 0.35207109 -0.021515 -0.037218 0.002034
17240 1.9323345600000001 9.841284090000002 0.25432425000000003 0.0007700000000000001 -0.059684 0.006490999999999999
17260 1.8526969800000002 9.883947779999998 0.1998297 0.01993 -0.067217 0.008771
17280 1.7580893400000002 9.887391090000001 0.15792137999999997 0.036976 -0.07048099999999999 0.011031
17300 1.6458237 9.93169305 0.18172044 0.047702 -0.055613 0.013223
17320 1.63893708 9.85999176 0.29309337 0.052137 -0.023648 0.007872
17340 1.61319564 9.787996170000001 0.45520362000000003 0.05109 -0.028933 -0.001743
17360 1.64493099 9.64115028 0.66282246 0.042622 -0.026721 -0.014623
17380 1.6866921599999998 9.62572896 0.84109959 0.023533 -0.018064 -0.031859
17400 1.64986542 9.6884541 0.89678115 -0.013697 -0.00192 -0.040686
17420 1.53655011 9.75057102 0.84633813 -0.050965 0.018433 -0.036699
17440 1.38716343 9.752523210000001 0.93001743 -0.073292 0.044044 -0.028342000000000006
17460 1.38955707 9.60372513 1.03225725 -0.088291 0.040858 -0.017761000000000002
17480 1.4573736000000002 9.57663972 1.00889964 -0.088554 0.001366 0.001516
17500 1.5518242800000004 9.62244261 0.7896069 -0.07587200000000001 -0.007273000000000002 0.019776
17520 1.7501628599999999 9.68156748 0.58543137 -0.043847 0.002181 0.025328
17540 1.8799393500000001 9.72617355 0.44936667 -0.0077129999999999985 -0.026716000000000004 0.027754
17560 1.9109291400000001 9.787250610000001 0.30371760000000003 0.018786 -0.059854 0.033323
17580 1.86391962 9.828109260000002 0.18262296000000003 0.029460000000000007 -0.043972 0.048332
17600 1.8413173800000002 9.85056435 0.14954364 0.030647000000000008 0.002815 0.068577
17620 1.7815941 9.839940120000001 0.11855385 0.037259 0.057091 0.076031
17640 1.6962765300000002 9.82990449 0.16016787000000002 0.057735 0.090095 0.063313
17660 1.6341498 9.834397469999999 0.28245933 0.090889 0.072015 0.027248
17680 1.6178357700000001 9.74862864 0.42062337 0.091846 -0.003418 -0.023923
17700 1.5834026700000001 9.70266879 0.6156657900000001 0.064247 -0.003198 -0.055095000000000005
17720 1.57397526 9.73590507 0.81730053 0.011225 0.052446000000000007 -0.07156
17740 1.58056758 9.723632760000001 0.8942403600000001 -0.057853 0.114465 -0.069985
17760 1.49973318 9.707308920000001 0.9907903800000001 -0.12087 0.119926 -0.049068
17780 1.4630535900000003 9.63605889 0.97941078 -0.143221 0.165675 -0.0151
17800 1.56110454 9.59040315 0.9036677700000001 -0.126396 0.144178 0.01816
17820 1.6829545500000003 9.60208686 0.7743425400000001 -0.092304 0.150382 0.035482
17840 1.75375332 9.62917227 0.57390462 -0.021977 0.128839 0.033864
17860 1.8214128900000002 9.73096083 0.40864536 0.048186 0.06365 0.024824
17880 1.88338266 9.79457868 0.24144372 0.082053 -0.002494 0.019804
17900 1.8931141800000002 9.82886463 0.20297871000000003 0.092712 0.001704 0.026283
17920 1.77066576 9.870625800000001 0.20402838 0.07467599999999999 0.037931 0.039997000000000005
17940 1.66543389 9.889186320000002 0.1707921 0.049219 0.08165399999999999 0.050446
17960 1.62606636 9.82556847 0.12813822000000002 0.03336 0.113667 0.050294
17980 1.6646883300000002 9.82930608 0.21479976 0.034571 0.138195 0.042793
18000 1.6820520300000001 9.743988510000001 0.39562748999999997 0.040054 0.149979 0.021452
18020 1.53715833 9.64729134 0.6468027300000001 0.039021 0.12773199999999998 -0.008437
18040 1.34136054 9.8216739 0.9279180900000001 0.018798 0.116174 -0.030996
18060 1.1578448700000001 9.915830280000002 1.06518942 0.005164 0.15780999999999998 -0.041827
18080 1.11204198 9.79203789 1.11083535 -0.005303 0.201528 -0.043024
18100 1.27279845 9.668696760000001 1.15664805 -0.01812 0.202621 -0.038842
18120 1.4566182300000001 9.56226807 1.0330028100000002 -0.027827 0.19089 -0.027145
18140 1.5995695500000002 9.45433845 0.76790718 -0.029995 0.199355 -0.011147
18160 1.8615259800000001 9.40374828 0.4939727400000001 -0.013968 0.210992 -0.004640999999999999
18180 2.02678524 9.70716177 0.35251254000000004 0.019105 0.21087600000000006 -0.00441
18200 2.11615434 9.84802356 0.13651596 0.0457 0.1948 -0.003135
18220 1.9706524200000002 9.84831786 0.17198892 0.06159700000000001 0.172369 -0.001927
18240 1.7597374200000002 9.90834525 0.20731473 0.06678300000000001 0.141449 0.000285
18260 1.58550201 9.97630893 0.20821725000000002 0.06452000000000001 0.117999 0.005640999999999999
18280 1.5901421400000002 9.89157996 0.20582361000000002 0.05809 0.119057 0.013072
18300 1.6440284700000003 9.78529842 0.3305087100000001 0.041097 0.138283 0.015065
18320 1.6404380100000002 9.69893118 0.5246584200000001 0.026199 0.145796 0.013883
18340 1.6007663699999999 9.664056630000001 0.6611743800000001 0.015483000000000004 0.136242 0.014889
18360 1.5530210999999998 9.667794240000001 0.7807779 0.009033 0.129856 0.019125
18380 1.5399934199999998 9.73904427 0.8156524500000002 0.005828 0.131985 0.022304
18400 1.4995860300000001 9.81478728 0.92403333 0.012301 0.14794100000000002 0.022329
18420 1.37862873 9.735453810000001 1.01698308 0.030582 0.17347 0.016015
18440 1.35498663 9.66974643 1.01234295 0.046609 0.177679 0.015053
18460 1.47577716 9.651774510000001 0.9261228600000001 0.052966999999999986 0.163825 0.010842
18480 1.6049650500000001 9.623786579999999 0.79783749 0.057172 0.14465699999999998 0.005555
18500 1.7058510900000003 9.65133306 0.7125199200000001 0.05841100000000001 0.178759 0.001247
18520 1.7458170300000002 9.72048375 0.61582275 0.055378 0.214993 0.000111
18540 1.7585406000000001 9.77048532 0.52540398 0.041528 0.211876 -0.007459
18560 1.6919307000000001 9.80041563 0.45071064 0.01257 0.174705 -0.010818
18580 1.67382144 9.83634966 0.42870681 -0.008921 0.145996 -0.005591
18600 1.6646883300000002 9.82346913 0.41268708000000004 -0.014322 0.13958900000000002 0.002926
18620 1.6363962900000002 9.791292330000001 0.42182019000000004 -0.012232 0.135299 0.008287000000000001
18640 1.6386427800000003 9.78215922 0.39443067000000004 -0.004769 0.13208599999999998 0.006207
18660 1.64358702 9.74832453 0.41418801000000005 0.009086 0.127781 0.005241
18680 1.69447149 9.72243594 0.48409407000000004 0.019616 0.101095 0.009621
18700 1.71962433 9.700432110000001 0.5568450300000001 0.022668 0.069121 0.010752
18720 1.69118514 9.69847992 0.61806924 0.024782 0.063792 0.009705
18740 1.6844456700000001 9.69847992 0.5998030200000001 0.023744 0.071248 0.010757
18760 1.66154913 9.72932256 0.52870014 0.02051 0.063802 0.010744
18780 1.5769673100000001 9.747726120000001 0.5204695500000001 0.010817 0.043596 0.010702
18800 1.52726985 9.767189160000001 0.5104339200000001 0.00223 0.029786 0.008523000000000001
18820 1.48086855 9.80909748 0.55728648 0.001139 0.025524 0.009589
18840 1.4690475 9.77452704 0.5605826400000001 5.3e-05 0.022328 0.010654
18860 1.4426978400000001 9.77108373 0.5929164 -0.003129 0.024478 0.008493
18880 1.46709531 9.80385894 0.58019283 -0.003105 0.026621 0.005285
18900 1.56933513 9.78560253 0.6391705499999999 -0.001009 0.012787 -2.3e-05
18920 1.5769673100000001 9.707917140000001 0.6674625900000001 0.0 -0.001061 -0.001067
18940 1.5751720800000002 9.65881809 0.6466555799999999 -2.9e-05 -0.006392 8e-06
18960 1.66079376 9.64339677 0.5505568200000001 -0.002143 0.00106 0.003188
18980 1.7318966400000002 9.67542642 0.47691315 -0.001067 0.005309 0.005327
19000 1.7580893400000002 9.71000667 0.44802270000000005 0.001105 0.012762 0.004264
19020 1.73069982 9.767189160000001 0.46732878 0.008592 0.015936000000000002 0.003244
19040 1.70151507 9.7519248 0.43470072 0.006483 0.022331 0.00429
19060 1.6983660600000001 9.75011976 0.35176698 0.006511 0.028723 0.004282
19080 1.71572976 9.75805605 0.36599148000000004 0.004406 0.037244 0.006392
19100 1.6693284600000002 9.77362452 0.3558087 -0.000904 0.042589 0.006348
19120 1.66244184 9.779314320000001 0.35191413000000005 -0.004124 0.038339 0.006331
19140 1.6997198400000002 9.73784745 0.45130905 -0.003119 0.02767 0.009557
19160 1.6844456700000001 9.73006812 0.53183934 0.006520999999999999 0.032975 0.006412999999999999
19180 1.6880361300000002 9.69338853 0.5206167 0.016146999999999998 0.035085000000000005 0.003272
19200 1.6932746699999999 9.6884541 0.53663643 0.009654 0.014866999999999997 0.003253
19220 1.7160338700000002 9.71390124 0.57330621 -0.005406 -0.013838 0.002116
19240 1.6470205200000003 9.72542799 0.58662819 -0.012869 -0.014869 -7.099999999999999e-05
19260 1.61828703 9.747883080000001 0.5683717800000001 -0.010717 -0.011676 -0.001128
19280 1.60735869 9.736797780000002 0.5427676800000001 -0.010717 -0.011676 -0.001128
19300 1.58011632 9.75326877 0.54307179 -0.007481999999999998 -0.006353 -0.003249
19320 1.59179022 9.72976401 0.53573391 -0.004282 -0.006364 -0.003226
19340 1.6268217299999999 9.727370370000001 0.46957527000000004 -0.003244 -0.011698 -0.002144
19360 1.65585933 9.72018945 0.43514217000000005 -0.003287 -0.022347 -0.003199
19380 1.6522688700000001 9.744135660000001 0.43155171000000003 0.002023 -0.024509 4.6e-05
19400 1.6259192100000002 9.755515260000001 0.47855142 0.009468 -0.026678 0.003305
19420 1.5916430700000002 9.75716334 0.51882147 0.005162 -0.028819 0.009687
19440 1.54149435 9.7465293 0.52750332 -0.0033200000000000005 -0.013888 0.012813
19460 1.53655011 9.76300029 0.5022033300000001 -0.0064730000000000005 -0.003225 0.012778
19480 1.5387966000000002 9.78455286 0.45549792000000006 -0.004296 0.002111 0.008513
19500 1.58684598 9.74967831 0.50714757 0.0021 -3.7e-05 0.007492
19520 1.59313419 9.72273024 0.51537816 0.006372 0.001013 0.007520999999999998
19540 1.6181398800000002 9.715990770000001 0.52391286 0.009611 0.009524 0.007532
19560 1.6890858000000002 9.75895857 0.5471135100000001 0.0075590000000000015 0.025519 0.005361
19580 1.73144538 9.81045126 0.5276504700000001 0.002239 0.027672 0.004253
19600 1.69118514 9.71779581 0.49352148 -0.001009 0.015969999999999998 0.003177
19620 1.6805511 9.66929517 0.48094506000000004 0.002167 0.009571 0.002139
19640 1.76348484 9.65477637 0.48424122 0.010731 0.014872 0.001124
19660 1.7348886900000002 9.69429105 0.54591669 0.014018 0.03828 0.00539
19680 1.66753323 9.75640797 0.5096883600000001 0.010904 0.056405 0.004277
19700 1.6274201400000001 9.760155390000001 0.40280841 0.005574 0.057489 0.004238
19720 1.63190331 9.77706783 0.43439661 0.007717 0.055368 -1.7e-05
19740 1.6416348300000003 9.72512388 0.43229727000000007 0.01198 0.054287 1.4e-05
19760 1.59733287 9.74114361 0.50774598 0.016252000000000003 0.054277 -0.001024
19780 1.56230136 9.77003406 0.48768453 0.018396 0.05852200000000001 0.0011220000000000002
19800 1.6078099500000003 9.763451550000001 0.46867275 0.014138 0.065972 0.006423999999999999
19820 1.5828042600000003 9.73021527 0.43948800000000005 0.009841 0.059596 0.006402
19840 1.55945646 9.746235 0.44621766 0.007731999999999998 0.064929 0.006379999999999999
19860 1.57741857 9.73336428 0.48993102000000005 0.016324 0.0745 0.003223
19880 1.5929870400000001 9.715696470000001 0.55400013 0.021644 0.07234600000000001 0.004331000000000001
19900 1.5844523400000003 9.740398050000001 0.55864026 0.024849 0.071278 0.002219
19920 1.6128915300000002 9.78335604 0.45714600000000005 0.016281 0.063851 0.002168
19940 1.60346412 9.79053696 0.40999914 0.014103999999999997 0.056394000000000014 0.004299
19960 1.62756729 9.75836016 0.42227145000000005 0.014113999999999996 0.05428 2.9e-05
19980 1.6374459600000002 9.68620761 0.55280331 0.013066 0.055362 -0.003184
20000 1.65211191 9.6796251 0.59635971 0.009832 0.046855 -0.004264
20020 1.60286571 9.75326877 0.56402595 0.00344 0.047947 -0.005379
20040 1.5825099599999999 9.76060665 0.47032083 -0.006152 0.055416 -0.000114
20060 1.56873672 9.783208890000001 0.38096154000000004 -0.011534 0.044782 -0.000138
20080 1.59972651 9.74473407 0.38679849 -0.006219 0.039441 -0.0011619999999999998
20100 1.6122931200000001 9.72512388 0.48215169 0.001239 0.036224 -0.002174
20120 1.60331697 9.71988534 0.56177946 0.0065260000000000006 0.025552 -0.002124
20140 1.5756233400000001 9.76060665 0.50370426 0.00864 0.024467 0.001097
20160 1.57936095 9.77003406 0.39008484000000004 0.003268 0.020208 0.005338
20180 1.6411835700000001 9.79353882 0.3376994400000001 -0.002091 0.012778 0.003174
20200 1.6872905700000003 9.75461274 0.37391796 -0.002081 0.013847 0.002104
20220 1.6842985200000002 9.71000667 0.47630493 -0.003129 0.018112 0.002091
20240 1.67202621 9.73410984 0.48663486 -0.002105 0.011704 0.005311
20260 1.6515135 9.77482134 0.44921952000000004 -0.003186 0.008512 0.005308
20280 1.5911918100000002 9.76195062 0.40505490000000005 -0.004196 0.02236 0.006351
20300 1.5649991100000002 9.72377991 0.3381507 -0.000981 0.024484 0.005303
20320 1.6301080800000003 9.711654750000001 0.39188987999999997 0.001163 0.020241 -0.001086
20340 1.67576382 9.689650920000002 0.40700709 0.004406 0.024512 -0.006409999999999999
20360 1.64986542 9.70656336 0.46044216 0.003364 0.028781 -0.0074909999999999985
20380 1.61125326 9.736797780000002 0.44113608000000004 -0.005167000000000001 0.026693 -0.010753
20400 1.6233784199999999 9.755211150000001 0.43050204000000003 -0.010458 0.036299 -0.010802
20420 1.6847497800000002 9.71913978 0.42406668000000003 -0.011472 0.048021 -0.010824
20440 1.7148370499999999 9.707613030000001 0.38664153 -0.017897 0.043778 -0.009795
20460 1.7187218100000001 9.716147730000001 0.40804695 -0.022227 0.034188 -0.00554
20480 1.6730660700000002 9.72287739 0.40700709 -0.02759 0.03312 -0.000235
20500 1.6554080700000002 9.74069235 0.36224406000000003 -0.015811000000000002 0.044789 0.0019690000000000003
20520 1.6411835700000001 9.755368110000001 0.29503575000000004 -0.002999 0.046874 0.002055
20540 1.6455294 9.75836016 0.27677934 0.00444 0.042579 0.004249
20560 1.67935428 9.7582032 0.29024847 0.001215 0.042568 0.009568
20580 1.64313576 9.75865446 0.32377905 0.000177 0.048964 0.009552
20600 1.60765299 9.739348380000001 0.37916631 0.007684000000000002 0.055338 0.00746
20620 1.6175316599999998 9.73844586 0.41822973 0.017324000000000003 0.062765 0.00645
20640 1.65526092 9.74547963 0.37795968 0.015243 0.069186 0.001086
20660 1.64058516 9.75745764 0.3559558500000001 -0.00064 0.087385 -0.007594
20680 1.6184341800000002 9.759409830000001 0.34263387 -0.020834 0.098134 -0.014158
20700 1.61409816 9.74832453 0.36539307000000004 -0.033636 0.096057 -0.016381
20720 1.5916430700000002 9.74638215 0.393381 -0.040066 0.090749 -0.015350999999999997
20740 1.5663430800000002 9.76044969 0.42077052000000004 -0.041143 0.093927 -0.010022
20760 1.53715833 9.735757920000001 0.44846415 -0.035847000000000004 0.093874 -0.001439
20780 1.57876254 9.76060665 0.49322718000000004 -0.032723 0.080002 0.001805
20800 1.5416415 9.748922940000002 0.47496096000000004 -0.025312 0.06613200000000001 0.000807
20820 1.55436507 9.72662481 0.36419625 -0.013601 0.060764 0.000895
20840 1.6118516699999998 9.716147730000001 0.34143705 -0.011467 0.06075700000000001 0.00091
20860 1.63070649 9.73036242 0.34937334000000003 -0.012601 0.043725 -0.001212
20880 1.63355139 9.72961686 0.41793543000000005 -0.015835 0.041584 0.004109000000000001
20900 1.63565073 9.763598700000001 0.36389214000000003 -0.025379 0.055462 0.005093
20920 1.62037656 9.81808344 0.26824464000000003 -0.035077 0.03419 0.005052
20940 1.6072115399999998 9.81119682 0.19459116000000004 -0.038316 0.021435 0.000773
20960 1.61065485 9.78993855 0.20642202000000004 -0.034025 0.028869 0.00293
20980 1.5530210999999998 9.73275606 0.30177522 -0.035087 0.029938 0.002921
21000 1.50167556 9.73874997 0.37601730000000005 -0.039349 0.031018 0.00289
21020 1.49090418 9.74967831 0.44906256 -0.037182 0.036345 0.000762
21040 1.51185834 9.80581113 0.49516956 -0.029704 0.03845 0.000811
21060 1.49538735 9.80581113 0.50549949 -0.024471 0.017121 0.001944
21080 1.51320231 9.727370370000001 0.55429443 -0.024504 0.010726 0.00302
21100 1.52443476 9.65925954 0.62749665 -0.02449 0.01286 0.001949
21120 1.54658574 9.654021 0.57031416 -0.032011000000000005 0.007534999999999998 0.008313
21140 1.5959790900000002 9.71090919 0.41613039 -0.039507 0.001169 0.008268000000000001
21160 1.66079376 9.749227050000002 0.329616 -0.041689 -0.0031100000000000004 0.014668
21180 1.6970220900000001 9.76659075 0.31674527999999996 -0.042708 0.005424 0.012513
21200 1.69147944 9.78021684 0.36104724000000005 -0.03203 0.006456999999999999 0.011518
21220 1.6242711300000001 9.77437008 0.35730963 -0.017108 0.0032090000000000005 0.011627
21240 1.5967344600000002 9.79069392 0.29653668000000005 -0.010736 -0.004266 0.010613
21260 1.58700294 9.79413723 0.2980278 -0.013932 -0.001068 0.012723
21280 1.6139412000000002 9.768385980000001 0.36523611 -0.023495 0.00961 0.014779
21300 1.66992687 9.755966520000001 0.35955612 -0.026648 0.018152 0.012609
21320 1.6563105900000004 9.760008240000001 0.44802270000000005 -0.019132 0.024534 0.008381
21340 1.57876254 9.76943565 0.5213622600000001 -0.014845 0.024536 0.004138
21360 1.55316825 9.696988800000002 0.5194198800000001 -0.015936000000000002 0.021336 0.006271
21380 1.6103507400000001 9.73860282 0.5236087500000001 -0.025523 0.026687 0.008333
21400 1.5920845200000002 9.74817738 0.47182176000000003 -0.030829 0.035219 0.010422
21420 1.5310172700000002 9.76704201 0.44502084000000003 -0.026528 0.0416 0.009375
21440 1.54314243 9.75386718 0.47331288 -0.017978 0.041583 0.006229999999999999
21460 1.5844523400000003 9.744439770000001 0.49516956 -0.008386 0.039419 0.0063
21480 1.53685422 9.78455286 0.54831033 -0.007315 0.042603 0.008440000000000001
21500 1.5232281300000001 9.78589683 0.52929855 -0.008314 0.05752 0.008414
21520 1.56349818 9.743684400000001 0.5171733900000002 -0.00829 0.061785 0.00734
21540 1.60032492 9.7692885 0.48828294 -0.006205 0.050064 0.006302
21560 1.6266647700000003 9.71075223 0.5322906000000001 -0.00731 0.042607 0.007372
21580 1.64462688 9.699980850000001 0.55639377 -0.006209 0.053242999999999985 0.010571
21600 1.7055567900000002 9.759252870000001 0.54831033 -0.00297 0.062815 0.011649
21620 1.6777160100000001 9.79817895 0.5956141500000001 0.001302 0.061742999999999985 0.009544
21640 1.58370678 9.752817510000002 0.57540555 0.0044740000000000005 0.052157 0.006374
21660 1.57442652 9.751473540000001 0.49562082 0.005521 0.045771 0.004253
21680 1.6242711300000001 9.740093940000001 0.50549949 -0.000837 0.052197 0.000995
21700 1.6398396000000002 9.743390100000001 0.6165683100000001 -0.006166 0.053281 0.000957
21720 1.5751720800000002 9.72871434 0.66671703 -0.006181 0.050086 0.000961
21740 1.5513730200000002 9.747578970000001 0.7081740900000001 -0.008319 0.050089 0.002014
21760 1.56289977 9.77797035 0.6643233900000001 -0.007271 0.049007 0.005228
21780 1.58430519 9.71419554 0.61282089 -0.002999 0.051118 0.006323
21800 1.6137940499999999 9.73470825 0.58138965 0.0033590000000000004 0.038326 0.003179
21820 1.6229271600000001 9.72303435 0.65698551 0.007597 0.028736 1.6e-05
21840 1.60032492 9.72273024 0.68078457 0.001215 0.033019 -3.4e-05
21860 1.59508638 9.75372003 0.6655202100000001 -0.0008990000000000002 0.038349 0.001013
21880 1.5621542100000003 9.78649524 0.6060912300000001 -0.005195 0.034094 0.003125
21900 1.5971759099999998 9.780962400000002 0.54037404 -0.009472 0.03304 0.004164
21920 1.6304121900000001 9.77991273 0.5809383900000001 -0.006272 0.034089999999999995 0.005254
21940 1.6272631800000001 9.743988510000001 0.6373753200000001 0.001206 0.037255 0.006370000000000001
21960 1.5769673100000001 9.719738190000001 0.6902119800000001 0.007587999999999998 0.032972 0.00642
21980 1.5846093 9.74877579 0.6611743800000001 0.014003 0.031901 0.002193
22000 1.61304849 9.735306660000001 0.6185106900000001 0.014013 0.031909 5.7e-05
22020 1.65196476 9.75745764 0.64725399 0.009746 0.031924 2.7e-05
22040 1.63998675 9.72662481 0.6782437800000001 0.007626000000000002 0.03725 0.002142
22060 1.59433101 9.73784745 0.64560591 0.003378 0.040465 0.00104
22080 1.5657446700000002 9.744439770000001 0.64635147 0.00122 0.037268 0.003165
22100 1.5928398900000003 9.721239120000002 0.6698562300000002 0.002278 0.034072000000000005 0.002109
22120 1.6108020000000003 9.72018945 0.7086253500000002 0.005483 0.039371 0.006397
22140 1.6248695400000002 9.689650920000002 0.70293555 0.010812 0.035104 0.003235
22160 1.6488255600000001 9.71090919 0.69066324 0.008664 0.030854000000000006 0.002157
22180 1.63460106 9.72542799 0.62015877 0.010808 0.032977 0.00217
22200 1.66049946 9.73739619 0.59171958 0.011884 0.035104 0.002174
22220 1.6386427800000003 9.74547963 0.6117810300000001 0.009741 0.036164 0.005363000000000001
22240 1.62097497 9.707917140000001 0.5978606400000002 0.006531 0.036167000000000005 0.007476999999999998
22260 1.6272631800000001 9.74069235 0.6303415499999999 0.0076019999999999985 0.036167000000000005 0.006416
22280 1.69283322 9.74607804 0.6483036600000001 0.007593000000000002 0.031915 0.004285
22300 1.6416348300000003 9.736199370000001 0.64995174 0.010769 0.025516 0.003247
22320 1.61768862 9.68860125 0.6140275199999999 0.009722 0.029781 0.0032340000000000003
22340 1.6531615800000001 9.69084774 0.62659413 0.009741 0.035102999999999995 0.004296
22360 1.66902435 9.73874997 0.61462593 0.004445 0.044705 0.005315
22380 1.65675204 9.75431844 0.63842499 0.0033880000000000004 0.046839 0.005305
22400 1.59927525 9.76060665 0.60025428 0.001254 0.047908 0.006357
22420 1.5901421400000002 9.74324295 0.59905746 0.000211 0.048994 0.002075
22440 1.61693325 9.73275606 0.64950048 0.000206 0.047928 0.002076
22460 1.63070649 9.70971237 0.6848262900000002 0.001263 0.045794 0.0020870000000000003
22480 1.5976271700000002 9.72467262 0.68303106 0.0023350000000000003 0.048978 0.004226
22500 1.6164918 9.72932256 0.63438327 0.005593 0.057506 -3.5e-05
22520 1.62891126 9.73979964 0.60219666 0.012004 0.057492 -0.0021260000000000003
22540 1.6293625200000001 9.72647766 0.5623778700000001 0.014071 0.044693 4.1e-05
22560 1.6293625200000001 9.71823726 0.6188148 0.007659999999999998 0.041523 -0.001068
22580 1.60346412 9.76704201 0.60982884 0.001268 0.046859 0.002085
22600 1.57292559 9.755515260000001 0.63498168 -0.0008609999999999999 0.050054 0.004203
22620 1.5838539300000003 9.73260891 0.5918667300000001 0.001283 0.050055 0.002081
22640 1.6098994800000002 9.74503818 0.5590915200000001 0.0076739999999999985 0.047902 0.002129
22660 1.64822715 9.735453810000001 0.57435588 0.017305 0.053199 0.001121
22680 1.63070649 9.72258309 0.58962024 0.018386000000000003 0.056391 0.001124
22700 1.6247223900000003 9.739642680000001 0.6020495100000001 0.017252 0.041481 0.001136
22720 1.6233784199999999 9.73306017 0.61747083 0.015056 0.026579 7.099999999999999e-05
22740 1.58879817 9.72048375 0.58677534 0.012922 0.028709 0.00219
22760 1.60630902 9.72153342 0.58079124 0.0044210000000000005 0.037257 0.003188
22780 1.5976271700000002 9.728115930000001 0.6072880500000001 0.000177 0.042598 0.003151
22800 1.6024144500000002 9.73784745 0.6297431400000001 0.000173 0.041533 0.003153
22820 1.5783210900000002 9.73365858 0.61237944 0.000168 0.040467 0.003154
22840 1.5944879699999999 9.72617355 0.5900715000000001 -0.000909 0.03834 0.003149
22860 1.5919373700000001 9.74967831 0.57705363 0.001244 0.041533 0.002092
22880 1.5940367100000001 9.73500255 0.6209043299999999 0.005526 0.043653 0.001051
22900 1.5874443900000004 9.688149990000001 0.61192818 0.012946 0.030852 -0.001017
22920 1.6060147200000001 9.73351143 0.57660237 0.010764 0.021268 4.8e-05
22940 1.6274201400000001 9.787849020000001 0.56732211 0.002254 0.030868 0.004249
22960 1.6341498 9.76464837 0.5550498 -0.003042 0.04047 0.005268
22980 1.5715816200000001 9.705670650000002 0.55070397 -0.004124 0.036217 0.004198
23000 1.6116947100000003 9.7032672 0.57914316 -0.004152 0.030886 0.005273
23020 1.63893708 9.71988534 0.57645522 -0.003071 0.035139 0.006343
23040 1.6359450300000002 9.719434080000001 0.6033934800000001 -0.001966 0.042597 0.005273
23060 1.6007663699999999 9.75176784 0.58394025 0.00016299999999999998 0.040463 0.004222
23080 1.59777432 9.760008240000001 0.55115523 0.005483 0.037249 0.004263
23100 1.6200822600000002 9.756113670000001 0.5224119300000001 0.007606999999999998 0.036172 0.005348
23120 1.6390940399999998 9.76269618 0.51807591 0.0022440000000000003 0.031921 0.0074519999999999986
23140 1.60466094 9.75341592 0.52196067 -0.005195 0.035155 0.004192
23160 1.6115475600000002 9.72976401 0.5194198800000001 -0.001966 0.039414 0.002072
23180 1.61738451 9.71060508 0.52092081 -0.0040950000000000005 0.041547 0.003123
23200 1.6367004000000003 9.73036242 0.55639377 -0.011596 0.036239 0.005214
23220 1.63055934 9.72243594 0.57225654 -0.01373 0.04049 0.009466
23240 1.6301080800000003 9.7291656 0.55608966 -0.009453 0.043667 0.01056
23260 1.58355963 9.75865446 0.5017520700000001 -0.002004 0.036197 0.007417
23280 1.59044625 9.76240188 0.49217751000000004 0.003325 0.032991 0.005322
23300 1.6060147200000001 9.7490799 0.53812755 0.00334 0.036187 0.005318
23320 1.61663895 9.74143791 0.5698629000000001 -0.000937 0.035132 0.006358
23340 1.60466094 9.75087513 0.5568450300000001 -0.005234 0.030877 0.00847
23360 1.6079571000000001 9.75386718 0.46867275 -0.00198 0.040462 0.006344
23380 1.6413405300000004 9.73351143 0.44068482 -0.004109000000000001 0.043657 0.008461
23400 1.6753125600000003 9.71285157 0.48559500000000005 -0.006253 0.040473 0.007382
23420 1.6272631800000001 9.727370370000001 0.55295046 -0.005186 0.039408 0.006323
23440 1.60061922 9.74069235 0.58138965 -0.0052 0.036212 0.006327
23460 1.5967344600000002 9.76149936 0.5144756400000001 -0.005195 0.039399 0.008459
23480 1.61558928 9.73815156 0.4801995 -0.001966 0.044719 0.007406999999999999
23500 1.6048080900000001 9.73560096 0.48574215000000004 -0.0019760000000000003 0.042588 0.0074090000000000015
23520 1.58879817 9.768238830000001 0.48947976000000004 -0.002 0.036201 0.0063490000000000005
23540 1.60571061 9.72946971 0.52540398 -0.0073430000000000014 0.034089 0.006314
23560 1.6108020000000003 9.72557514 0.49471830000000006 -0.008391 0.039415 0.007368
23580 1.61738451 9.771976440000001 0.50280174 -0.007324 0.039411 0.0073760000000000015
23600 1.59044625 9.7377003 0.5694116400000001 -0.003062 0.036209 0.005273
23620 1.5995695500000002 9.71344998 0.5439645000000001 -0.002019 0.03194 0.006354
23640 1.6377402600000002 9.69833277 0.5116405499999999 -0.001995 0.037266 0.006348
23660 1.6780103100000001 9.715990770000001 0.51762465 -0.0019760000000000003 0.041527 0.006342
23680 1.64567655 9.7203366 0.5225590800000001 -0.005167000000000001 0.041547 0.004184
23700 1.60047207 9.76898439 0.49143195 -0.005176 0.039416 0.004186
23720 1.5497249400000002 9.77452704 0.46613196000000007 -0.00088 0.044732 0.003141
23740 1.63460106 9.743988510000001 0.49980969000000003 0.002321 0.046843 0.005297
23760 1.64598066 9.74293884 0.5516064900000001 0.004435000000000001 0.043635 0.006384
23780 1.5925357800000002 9.71823726 0.60054858 0.00123 0.043642 0.00743
23800 1.5898478400000002 9.73336428 0.59097402 0.000225 0.052189 0.002071
23820 1.6257720600000003 9.73979964 0.5215192200000001 0.000211 0.047933 0.001008
23840 1.63729881 9.712704420000001 0.49667049 -0.001932 0.04581 0.000996
23860 1.6287641099999999 9.72617355 0.54740781 -0.007228 0.05435 0.000948
23880 1.60436664 9.74159487 0.58079124 -0.005118999999999999 0.0522 0.00417
23900 1.6060147200000001 9.73874997 0.5599842300000001 -0.004124 0.038339 0.006331
23920 1.61529498 9.74607804 0.5246584200000001 0.002302 0.042582 0.005303
23940 1.64058516 9.75731049 0.49112784 0.006631000000000001 0.054293 0.003181
23960 1.6281657 9.73051938 0.50774598 0.011975 0.053222000000000005 1.5e-05
23980 1.62217179 9.747883080000001 0.5396284800000001 0.009798 0.044703 0.001079
24000 1.63206027 9.71809011 0.5379804 0.008684 0.036176 0.003219
24020 1.6262135100000001 9.728115930000001 0.5975565300000001 0.006564 0.042563 0.006401
24040 1.5935854500000002 9.74803023 0.5780934900000001 0.001263 0.050038 0.006354
24060 1.6208278200000001 9.75312162 0.5364892800000001 0.000177 0.04472 0.005285
24080 1.6658851500000003 9.74428281 0.45235872000000005 0.002311 0.04259 0.003166
24100 1.64462688 9.69833277 0.5333402700000001 0.002297 0.040456 0.004237
24120 1.6188854400000001 9.737101890000002 0.5762982600000002 -0.000937 0.037254 0.008491
24140 1.6031698200000002 9.72497673 0.60054858 0.00015800000000000002 0.042581 0.007423999999999998
24160 1.5789195000000003 9.723632760000001 0.5803399800000001 0.002297 0.042578 0.006371
24180 1.6290584099999998 9.75671208 0.49891698 0.006569 0.039384 0.002132
24200 1.6458237 9.73231461 0.51118929 0.004411 0.036187 0.004257
24220 1.6278615900000002 9.705366540000002 0.55713933 0.002268 0.035125 0.005312
24240 1.62262305 9.77092677 0.5860297800000001 0.000168 0.042589 0.005288
24260 1.6175316599999998 9.780511140000002 0.6149202300000001 0.003373 0.042582 0.004242
24280 1.573524 9.74234043 0.5987533500000001 0.003364 0.039391 0.0031780000000000003
24300 1.58220585 9.69474231 0.57046131 0.003364 0.040452 0.0042450000000000005
24320 1.6696325699999999 9.724525470000001 0.55010556 0.008698000000000001 0.040433 0.004282
24340 1.6983660600000001 9.73081368 0.55713933 0.006593000000000001 0.046832 0.004259000000000001
24360 1.65031668 9.75836016 0.5072947200000001 0.005555 0.053228 0.004243
24380 1.6148437199999999 9.7490799 0.48244599000000005 0.005564 0.055358 0.004241
24400 1.63654344 9.74174202 0.53812755 0.008794 0.059616 0.002121
24420 1.6262135100000001 9.731863350000001 0.55204794 0.006626000000000001 0.052167 0.002116
24440 1.6355035800000002 9.723328650000001 0.5177718 0.006606999999999999 0.050028 0.004255
24460 1.63206027 9.72961686 0.50250744 0.013076 0.062797 0.002147
24480 1.6576545599999999 9.72976401 0.5343899400000001 0.013071 0.062793 0.003216
24500 1.6428316500000002 9.72303435 0.59471163 0.013047 0.056406 0.002155
24520 1.6377402600000002 9.751473540000001 0.5632803900000002 0.008765 0.052164 0.001063
24540 1.6340026500000002 9.72992097 0.51343578 0.005536 0.051088 0.006383
24560 1.6560064800000003 9.743684400000001 0.50999247 0.005545 0.055341 0.008514
24580 1.6458237 9.74069235 0.54262053 0.008794 0.064921 0.007456
24600 1.65002238 9.735453810000001 0.5439645000000001 0.013104 0.071311 0.004273
24620 1.62861696 9.740093940000001 0.5322906000000001 0.0142 0.07557699999999999 0.002139
24640 1.61873829 9.743841360000001 0.55400013 0.01419 0.072385 0.001075
24660 1.6304121900000001 9.73800441 0.5203224 0.0131 0.068124 0.002141
24680 1.6497182700000002 9.764795520000002 0.567018 0.014147 0.06492 0.00322
24700 1.65959694 9.727370370000001 0.5334874200000002 0.0131 0.07130700000000001 0.005340999999999999
24720 1.6387899300000002 9.70462098 0.5634275400000002 0.012037 0.072376 0.005332
24740 1.60870266 9.73605222 0.5480062200000001 0.008856000000000001 0.074526 0.003171
24760 1.60166889 9.72691911 0.55070397 0.006708 0.07027699999999999 0.002093
24780 1.64567655 9.759252870000001 0.5161237200000001 0.002436 0.068165 0.000998
24800 1.6217303400000003 9.751169430000001 0.5472606600000001 0.001378 0.07136 0.002055
24820 1.59104466 9.74877579 0.53259471 0.0035310000000000007 0.074553 0.000997
24840 1.59313419 9.73021527 0.52540398 0.0056890000000000005 0.080933 0.002072
24860 1.6227800100000003 9.740545200000001 0.5638788 0.009937 0.07559600000000001 0.001041
24880 1.60735869 9.71299872 0.5313978900000002 0.006731999999999999 0.071359 -0.002181
24900 1.65196476 9.75072798 0.51118929 0.003493 0.06390900000000001 -0.001126
24920 1.6543584000000002 9.79562835 0.49067658000000003 0.00455 0.062836 -4.9e-05
24940 1.65062079 9.76284333 0.5140341900000001 0.006673999999999999 0.060698 -3.1e-05
24960 1.6066131300000002 9.7029729 0.51343578 0.011999 0.058549 9e-06
24980 1.6401437100000003 9.69713595 0.51088518 0.010918 0.056417 0.001072
25000 1.6889386500000003 9.7029729 0.5397756300000001 0.003435 0.051126 -0.00111
25020 1.6543584000000002 9.752817510000002 0.53183934 -0.005109000000000001 0.047964 -0.002234
25040 1.61334279 9.75836016 0.48124917000000006 -0.008281 0.051184 -0.005465
25060 1.6058577600000001 9.759252870000001 0.45190746000000004 -0.007214 0.050119 -0.006523999999999999
25080 1.6384956300000002 9.73500255 0.47586348000000006 -0.008305 0.045858 -0.005458
25100 1.63998675 9.72856719 0.50983551 -0.007267 0.041584 -0.0033090000000000003
25120 1.64792304 9.7288713 0.5159765700000001 -0.012625 0.036277 -0.003339
25140 1.66334436 9.74817738 0.52420716 -0.012577 0.039502 -0.010821
25160 1.67546952 9.75416148 0.44233290000000003 -0.005095000000000001 0.041611 -0.011839
25180 1.6572033000000002 9.71674614 0.43829118000000006 -0.001932 0.034139 -0.010739
25200 1.65031668 9.72018945 0.47870838000000004 -0.006305 0.011779 -0.009673
25220 1.6301080800000003 9.71479395 0.51972399 -0.010602 0.01389 -0.00116
25240 1.63460106 9.71868852 0.5334874200000002 -0.014797 0.030945 -0.000143
25260 1.6357978800000001 9.72871434 0.47316573 -0.007291 0.034136 -0.005436
25280 1.6464221100000003 9.740093940000001 0.47900268000000007 0.0023350000000000003 0.037307 -0.007509
25300 1.6554080700000002 9.74159487 0.41598324 0.0076310000000000015 0.028766000000000007 -0.007461
25320 1.66528674 9.74248758 0.44068482 -0.000937 0.024522 -0.004311
25340 1.64672622 9.71913978 0.4625415 -0.013721 0.03095 -0.002272
25360 1.63489536 9.73231461 0.49995684000000007 -0.022227 0.03631 -0.003406
25380 1.63369854 9.74143791 0.52166637 -0.020098 0.036298 -0.002323
25400 1.6524160200000002 9.74728467 0.48170043 -0.019002 0.040564 -0.004458
25420 1.6464221100000003 9.740545200000001 0.45864693000000006 -0.016883000000000002 0.038422000000000005 -0.003372
25440 1.6570561500000003 9.72722322 0.46268865000000003 -0.014797 0.030945 -0.000143
25460 1.6341498 9.72183753 0.5167221300000001 -0.015844999999999998 0.034149 -0.001223
25480 1.56784401 9.73006812 0.51582942 -0.012649 0.033072000000000004 -0.001199
25500 1.5877485 9.727968780000001 0.50834439 -0.009415 0.037335 -0.004386
25520 1.5832555200000002 9.731863350000001 0.48139632000000004 -0.010501 0.032017000000000004 -0.005455
25540 1.6051122000000002 9.76284333 0.4504163400000001 -0.012659 0.026698000000000003 -0.005464
25560 1.6378972200000002 9.70716177 0.46403262 -0.01696 0.022439 -0.002284
25580 1.6651395900000001 9.74279169 0.44757144 -0.024418 0.026717 -0.000205
25600 1.6369947000000002 9.7926363 0.45056349000000007 -0.036182 0.022489 0.001855
25620 1.5949294200000002 9.74234043 0.48574215000000004 -0.031891 0.023556 -0.002389
25640 1.5938895600000003 9.71763885 0.49098069000000005 -0.026547 0.025668 -0.002355
25660 1.6407421200000003 9.71015382 0.44906256 -0.021189 0.028854 -0.004458
25680 1.70869599 9.719591040000001 0.40670298000000005 -0.021184 0.033102 -0.001259
25700 1.70405586 9.75011976 0.43529913000000003 -0.019012 0.042678 -0.000187
25720 1.5905934000000002 9.755368110000001 0.47017368 -0.010453 0.04373 -0.0044020000000000005
25740 1.5147032400000002 9.76090095 0.50399856 -0.006261999999999999 0.028793 -0.002217
25760 1.56005487 9.76883724 0.45295713 -0.007377 0.019205 -0.001144
25780 1.5816074400000002 9.755515260000001 0.39802113000000006 -0.016964 0.025617 0.001985
25800 1.60420968 9.74683341 0.42047622 -0.023289 0.03844 -0.002348
25820 1.6051122000000002 9.72153342 0.50310585 -0.020107 0.033107 -0.0033880000000000004
25840 1.57756572 9.7029729 0.5436702 -0.019151 0.010724 -0.001216
25860 1.55885805 9.72258309 0.51582942 -0.028815 -0.00203 -0.000199
25880 1.5808618800000003 9.74248758 0.49067658000000003 -0.036312 -0.004151 0.004025
25900 1.6301080800000003 9.771525180000001 0.45849978 -0.035226 -0.000955 0.00296
25920 1.62501669 9.771230880000001 0.45266283000000007 -0.023471 0.003265 0.003037
25940 1.59538068 9.732010500000001 0.45415395000000003 -0.014941 0.0032310000000000004 0.004164
25960 1.5597605700000001 9.755211150000001 0.46702467 -0.01175 0.003211 0.006323
25980 1.5780169800000001 9.77512545 0.51059088 -0.018113 0.012817 0.007334999999999999
26000 1.56739275 9.75910572 0.49157910000000005 -0.018103 0.014947 0.007331999999999998
26020 1.57816413 9.73425699 0.48723327000000005 -0.00742 0.017044999999999998 0.006336
26040 1.61589339 9.735453810000001 0.52436412 -0.000957 0.029810000000000007 0.005296
26060 1.6164918 9.71809011 0.54067815 -0.003086 0.030883 0.00528
26080 1.5965775000000002 9.711350640000001 0.5568450300000001 -0.011596 0.0373 0.006281
26100 1.5617029500000001 9.72542799 0.57854475 -0.012572 0.055421000000000005 0.0041140000000000005
26120 1.55795553 9.74683341 0.5465151 -0.010362 0.071397 0.003041
26140 1.5416415 9.75386718 0.54471987 -0.006046 0.07885199999999999 -0.000143
26160 1.56050613 9.771976440000001 0.50504823 -0.0060420000000000005 0.079917 -0.000145
26180 1.5639494400000002 9.76180347 0.52540398 -0.007084999999999998 0.085247 -0.00015900000000000002
26200 1.5488322300000001 9.767934720000001 0.54292464 -0.008118 0.095891 0.003025
26220 1.5660389700000001 9.75880161 0.55564821 -0.011237 0.108707 -0.002354
26240 1.5203930399999999 9.72961686 0.5502527100000001 -0.006954999999999999 0.10976500000000003 -0.004462
26260 1.56918798 9.7547697 0.59097402 -0.0059310000000000005 0.100174 -0.004443
26280 1.6104978900000002 9.7784118 0.61776513 -0.007031999999999999 0.090599 -0.006575
26300 1.6340026500000002 9.73889712 0.5676164100000001 -0.009233 0.080998 -0.0012369999999999998
26320 1.62068067 9.69773436 0.49756320000000004 -0.013529 0.079926 0.004076
26340 1.65959694 9.712704420000001 0.5081972400000001 -0.009252 0.08204199999999999 0.004103
26360 1.68848739 9.70596495 0.54037404 -0.005018 0.070326 -0.000125
26380 1.62921537 9.736954740000002 0.5661252900000001 0.002369 0.052191 -5e-05
26400 1.55436507 9.771682140000001 0.49651353 0.001249 0.043659 0.003157
26420 1.5602020200000002 9.78005988 0.49112784 0.00016299999999999998 0.040463 0.004222
26440 1.5636453300000002 9.78814332 0.4742154 -0.003081 0.033009 0.006346
26460 1.5492736800000002 9.774968490000001 0.5912683200000002 -0.003081 0.031948000000000004 0.005279
26480 1.5013812600000003 9.7547697 0.64141704 -0.003042 0.034104 -0.001133
26500 1.4852143800000002 9.77108373 0.6460571700000001 -0.007348 0.025597 -0.001152
26520 1.51590006 9.751473540000001 0.60130395 -0.015998 0.003243 0.002021
26540 1.5181465500000002 9.74129076 0.62749665 -0.022418 6.6e-05 0.003048
26560 1.5021268200000002 9.73560096 0.66416643 -0.026696 0.002194 0.0072879999999999985
26580 1.5010771500000002 9.74293884 0.71491356 -0.025609 0.00539 0.006224
26600 1.4879023200000001 9.73784745 0.7319731500000001 -0.017051 0.007504 0.003076
26620 1.48282074 9.75910572 0.6854247 -0.00644 -0.003195 0.0053
26640 1.5057172800000003 9.74143791 0.66775689 -0.002196 -0.008536 0.005337
26660 1.54403514 9.74952135 0.66088008 -0.009707 -0.014913999999999997 0.008497
26680 1.5500290500000002 9.73515951 0.6825798 -0.012913 -0.017029 0.0074090000000000015
26700 1.5477825600000001 9.740545200000001 0.6824326500000001 -0.007587999999999998 -0.018117 0.008516
26720 1.54269117 9.735757920000001 0.61611705 -0.007659999999999998 -0.028791000000000008 0.01387
26740 1.5792138 9.7348554 0.59830209 -0.007708 -0.0352 0.018151
26760 1.64328291 9.73500255 0.5294457 -0.011951 -0.028798 0.019181
26780 1.6313049000000004 9.74143791 0.5095412100000001 -0.003373 -0.024545 0.013895
26800 1.64462688 9.74503818 0.58004568 0.003009 -0.027768 0.015012
26820 1.6190325900000002 9.76149936 0.62015877 0.010558 -0.011806 0.012908
26840 1.57143447 9.7664436 0.56821482 0.023428 0.004124 0.014044999999999998
26860 1.57652586 9.743390100000001 0.52570809 0.038465 0.019015 0.006654
26880 1.6143924600000004 9.77032836 0.53154504 0.039656 0.030793 -0.009376
26900 1.6398396000000002 9.79712928 0.58737375 0.039853 0.051127 -0.032902
26920 1.5790666500000001 9.72287739 0.62615268 0.022984 0.078952 -0.050147
26940 1.5619972500000001 9.71330283 0.6297431400000001 0.001709 0.083326 -0.059915
26960 1.5819115499999998 9.7897914 0.5882762699999999 -0.03044 0.058905999999999986 -0.052631
26980 1.59074055 9.75087513 0.6423097500000001 -0.057289 0.037622 -0.034631
27000 1.60121763 9.667794240000001 0.6749476200000001 -0.063791 0.036494 -0.013311000000000002
27020 1.6259192100000002 9.683813970000001 0.7024842900000001 -0.045707 0.041689 0.0039
27040 1.6188854400000001 9.721239120000002 0.7188081300000001 -0.016993 0.025592 0.008394
27060 1.57652586 9.72691911 0.67719411 0.026648 0.000946 0.006594
27080 1.52607303 9.74832453 0.6195603599999999 0.055314 -0.030047000000000008 0.006834000000000001
27100 1.5561603 9.75731049 0.64335942 0.060552 -0.047127 0.011166
27120 1.5633510300000002 9.77632227 0.70264125 0.046645 -0.048173 0.018547
27140 1.55795553 9.75162069 0.71850402 0.022136000000000003 -0.03533 0.024769
27160 1.54149435 9.749227050000002 0.6932040300000001 0.001995 -0.006497 0.024591
27180 1.5783210900000002 9.764795520000002 0.64111293 1.9e-05 0.028664 0.024533000000000003
27200 1.6271160300000003 9.73111779 0.61237944 0.010774 0.049924 0.026717
27220 1.64522529 9.71823726 0.6334807499999999 0.03536 0.052002 0.01834
27240 1.6239768300000001 9.74428281 0.6810788700000001 0.047244 0.065887 -0.0008230000000000001
27260 1.57172877 9.735306660000001 0.7198578 0.045326 0.07987899999999999 -0.035037
27280 1.5290748900000002 9.72273024 0.6855718500000001 0.016697999999999998 0.096052 -0.05875900000000001
27300 1.5051188700000002 9.736797780000002 0.69664734 -0.00772 0.123831 -0.057897
27320 1.51305516 9.72377991 0.73137474 -0.04518 0.10794 -0.047456
27340 1.46964591 9.756564930000001 0.85681521 -0.067929 0.06527100000000001 -0.013377000000000002
27360 1.41590673 9.76568823 0.96878655 -0.06693400000000001 0.08324 0.02079
27380 1.3796784000000002 9.743390100000001 1.01324547 -0.028676 0.06918099999999999 0.040303
27400 1.3305793499999998 9.71060508 1.00097316 0.020184 0.024256 0.043907
27420 1.36635642 9.66435093 0.9337550400000001 0.071087 -0.055771 0.032615
27440 1.4895504000000002 9.652677030000001 0.7831715400000001 0.07733 -0.099436 0.024168
27460 1.65450555 9.66389967 0.58753071 0.061317 -0.10151 0.024059
27480 1.77485463 9.7032672 0.34667559 0.032593000000000004 -0.07799500000000001 0.02917
27500 1.8688638600000003 9.763893 0.24339591000000002 -0.000192 -0.01078 0.032059
27520 1.83967911 9.85340925 0.23875578 -0.011611 0.05638500000000001 0.028689
27540 1.66079376 9.88035732 0.27527841000000003 0.001287 0.068096 0.01915
27560 1.5477825600000001 9.87511878 0.27527841000000003 0.007659999999999998 0.041523 -0.001068
27580 1.56649023 9.87421626 0.24952716000000003 -0.005181 0.012887 -0.021417
27600 1.5983727300000001 9.816739470000002 0.35386632 -0.015719999999999998 0.028954 -0.03433
27620 1.60870266 9.73590507 0.48978387 -0.024106 0.05458 -0.041899
27640 1.58624757 9.700275150000001 0.6541406099999999 -0.024188 0.043898 -0.034408
27660 1.56289977 9.70806429 0.75158334 -0.028628 0.0236 -0.016253999999999998
27680 1.46979306 9.687855690000001 0.76356135 -0.027643 0.032012 0.010448
27700 1.3780303200000001 9.68515794 0.7731457200000001 -0.011644 0.045745 0.025497
27720 1.31725737 9.823626090000001 0.8828607600000001 0.013869 0.027538 0.027835
27740 1.2478025700000002 9.84278502 1.03120758 0.039306 -0.013019 0.02486
27760 1.0865948400000003 9.727674480000001 1.0204263900000001 0.040315 -0.028989 0.021683
27780 1.21442895 9.6884541 0.9262700100000001 0.037105 -0.028986 0.023797
27800 1.49419053 9.639953460000001 0.76026519 0.025408 -0.017240000000000002 0.026905
27820 1.73100393 9.63516618 0.43289568 0.012683 0.003032 0.029995
27840 2.0558228400000003 9.62722989 0.16750575 0.005406 0.040363 0.024555
27860 2.1356075700000003 9.752219100000001 0.03592422 0.009846 0.069149 0.014935
27880 1.9865151900000002 9.897416909999999 0.10059174 0.009861 0.059613 0.002129
27900 1.79656416 9.89412075 0.17887554 0.001316 0.045841 -0.009664
27920 1.58610042 9.88035732 0.2977335 -0.014682 0.04484 -0.01191
27940 1.4825166300000001 9.836496810000002 0.32227812 -0.023188 0.054445000000000014 -0.008778
27960 1.4876080200000001 9.8014653 0.44457939 -0.019973 0.062934 -0.003425
27980 1.47937743 9.73440414 0.5881291200000001 -0.008265999999999999 0.060746 0.000933
28000 1.47443319 9.639953460000001 0.7824259800000002 0.007689 0.05322 0.004258
28020 1.41021693 9.596397060000001 0.80547948 0.019367 0.041457 0.005423
28040 1.3627659600000002 9.69833277 0.8583161400000001 0.024696 0.041434 0.006529000000000001
28060 1.3304322000000002 9.85670541 0.91026009 0.028968 0.039301 0.003357
28080 1.28836692 9.83738952 0.9560629800000001 0.022529 0.031863 0.004389
28100 1.34449974 9.768533130000002 0.8815167900000002 0.015022 0.025489 0.006481999999999999
28120 1.43896023 9.716294880000001 0.65787822 0.0054210000000000005 0.028705 0.009615
28140 1.56529341 9.672287220000001 0.43349409 -0.003057 0.045762 0.013807
28160 1.70376156 9.67767291 0.25028253 -0.011544 0.058567 0.015868
28180 1.84102308 9.79218504 0.11331531000000002 -0.010486 0.05431 0.013744
28200 1.84281831 9.87256818 0.11645451 -0.000933 0.041502 0.011691
28220 1.7009166599999999 9.808803180000002 0.26719497000000003 0.012913 0.031883 0.007527
28240 1.5370013700000003 9.80251497 0.37900935 0.0204 0.032935 0.004372999999999999
28260 1.50002748 9.79712928 0.44906256 0.015088999999999997 0.03828 0.004329
28280 1.5313115700000002 9.79233219 0.46522944000000005 0.004454 0.045774 0.0042450000000000005
28300 1.53161568 9.705366540000002 0.51911577 -0.000851 0.054307000000000015 0.006334
28320 1.5114070800000001 9.688306950000001 0.5953100400000001 0.0012779999999999998 0.052173 0.005283
28340 1.4898545100000002 9.71330283 0.68872086 0.0044740000000000005 0.051096 0.005307
28360 1.45407744 9.759252870000001 0.7469432100000001 0.004459 0.050023000000000005 0.007445
28380 1.35767457 9.76764042 0.7403607000000001 -0.005186 0.042591 0.009523
28400 1.35678186 9.74234043 0.74650176 -0.009448 0.043671 0.009492
28420 1.45213506 9.72213183 0.6683553 -0.008357999999999999 0.046872 0.007359
28440 1.58969088 9.68575635 0.5683717800000001 0.001235 0.041525 0.004228
28460 1.64672622 9.71779581 0.52810173 0.007635999999999999 0.043624 0.006407
28480 1.67487111 9.73425699 0.5149269000000001 0.000168 0.045772 0.008487999999999999
28500 1.6593026400000002 9.78844743 0.44876826000000003 -0.01053 0.042601 0.011622
28520 1.60810425 9.83379906 0.36403929000000007 -0.015816 0.050089 0.008371
28540 1.5844523400000003 9.807155100000001 0.33695388000000004 -0.0083 0.056472 0.004143
28560 1.54553607 9.7348554 0.40954788000000003 -0.003009 0.045805 0.003125
28580 1.5349118400000004 9.71495091 0.50190903 -0.006286 0.029833 0.004190999999999999
28600 1.5721800300000002 9.71105634 0.5652227700000001 -0.016984 0.028783 0.009458
28620 1.58969088 9.721386270000002 0.50250744 -0.020165 0.035177999999999994 0.011565
28640 1.6163348400000004 9.72662481 0.46522944000000005 -0.015888 0.036232 0.010525
28660 1.63804437 9.72617355 0.49576797 -0.00952 0.024509 0.006311
28680 1.6355035800000002 9.72932256 0.57959442 -0.005315 0.008524 0.004225
28700 1.5705319500000001 9.74668626 0.56163231 -0.003186 0.009573 0.006375
28720 1.51963767 9.76164651 0.49516956 -0.006348 0.020228 0.008476000000000001
28740 1.54658574 9.77467419 0.3912816600000001 -0.010621 0.020239 0.009514
28760 1.56259566 9.76254903 0.43140456000000005 -0.004220000000000001 0.015972999999999998 0.005291
28780 1.57203288 9.735453810000001 0.52540398 5e-06 0.007431 0.0064
28800 1.5886510200000001 9.72243594 0.5751014400000001 -0.006392 0.00958 0.007421
28820 1.60166889 9.712557270000001 0.5159765700000001 -0.014922 0.012797 0.009493
28840 1.60121763 9.74248758 0.40041477000000003 -0.022371 0.017084000000000002 0.009436
28860 1.6178357700000001 9.76419711 0.37302525000000003 -0.017016999999999997 0.021327 0.009468
28880 1.6434300600000002 9.74728467 0.42781410000000003 -0.013802000000000002 0.025572 0.010553
28900 1.6277144399999999 9.728115930000001 0.51313167 -0.005277 0.022351 0.009548
28920 1.56289977 9.7174917 0.54831033 -0.001029 0.018075 0.009584
28940 1.5387966000000002 9.744135660000001 0.49232466 -0.003148 0.021278 0.009565
28960 1.55960361 9.784248750000001 0.39323385000000005 -0.003119 0.028731 0.010624
28980 1.59807843 9.759252870000001 0.35535744 -0.006286 0.035138 0.009525
29000 1.63804437 9.736954740000002 0.42257556000000007 -0.008453 0.029810000000000007 0.011653
29020 1.6257720600000003 9.76030254 0.54531828 -0.008468 0.027676 0.012724
29040 1.58071473 9.740398050000001 0.6149202300000001 -0.006286 0.038321 0.012726
29060 1.5402975300000001 9.72722322 0.50370426 -0.004079999999999999 0.054291999999999986 0.012721
29080 1.5796650600000002 9.733207320000002 0.39548034000000004 -0.001913 0.060680999999999985 0.011659
29100 1.65002238 9.752219100000001 0.40385808000000006 0.002345 0.056413 0.009558
29120 1.66184343 9.71344998 0.46762308 0.008741 0.053204 0.00747
29140 1.63833867 9.743537250000001 0.5469663599999999 0.010841 0.048922 0.010695
29160 1.59179022 9.721239120000002 0.5312409300000001 0.008703 0.047864 0.010682
29180 1.55092176 9.771525180000001 0.4742154 0.00554 0.055337 0.009582
29200 1.5715816200000001 9.76044969 0.41957370000000005 0.006670000000000001 0.06705900000000001 0.007437999999999998
29220 1.62606636 9.768690090000002 0.43679025000000005 0.006622 0.058529 0.009585
29240 1.6386427800000003 9.77317326 0.50759883 0.006603 0.054268 0.009591
29260 1.60121763 9.72856719 0.5436702 0.004512 0.062802 0.008497
29280 1.5688838700000003 9.71659899 0.49457115 0.004541 0.070254 0.009556
29300 1.56005487 9.74832453 0.45580203 0.009889 0.07237 0.008522
29320 1.6151380200000003 9.7493742 0.51028677 0.014141999999999997 0.068099 0.007489
29340 1.58879817 9.73275606 0.55759059 0.017329 0.061709 0.004315
29360 1.58789565 9.71988534 0.5471135100000001 0.024763 0.052104 0.002243
29380 1.60331697 9.75431844 0.53783325 0.032298 0.06592999999999999 0.001209
29400 1.5994224000000004 9.784405710000001 0.52645365 0.02805 0.073389 0.004375
29420 1.5828042600000003 9.78215922 0.5049010799999999 0.018419 0.067031 0.004316
29440 1.56813831 9.78005988 0.47990520000000003 0.004493 0.056419 0.006368
29460 1.5976271700000002 9.73800441 0.48139632000000004 0.004497999999999999 0.051118 -3.4e-05
29480 1.5905934000000002 9.727370370000001 0.55549125 0.017281 0.043629 -0.00314
29500 1.5864045300000003 9.70447383 0.60054858 0.026902 0.043612 -0.007345999999999998
29520 1.56244851 9.73515951 0.59396607 0.034418000000000004 0.0553 -0.00624
29540 1.58220585 9.740398050000001 0.54890874 0.035513 0.064871 -0.00304
29560 1.60420968 9.77377167 0.50879565 0.032255 0.055282000000000005 0.000154
29580 1.6139412000000002 9.739642680000001 0.5364892800000001 0.025777 0.039321 0.001198
29600 1.5976271700000002 9.721386270000002 0.5638788 0.024677 0.027624 -0.003068
29620 1.5946351200000002 9.73739619 0.5568450300000001 0.025744 0.025498 -0.005194
29640 1.5949294200000002 9.77422293 0.55040967 0.017223 0.028724 -0.005258
29660 1.6137940499999999 9.743988510000001 0.5263065 0.003397 0.040482 -0.003233
29680 1.6200822600000002 9.716294880000001 0.5276504700000001 -0.005085 0.056473 0.00096
29700 1.63519947 9.75042387 0.55070397 -0.01041 0.058623 0.00092
29720 1.64447973 9.7667379 0.60773931 -0.0083 0.053289 0.000942
29740 1.6458237 9.72617355 0.57121668 -0.000808 0.056467 -0.001146
29760 1.61948385 9.69294708 0.52001829 0.000259 0.054340999999999993 -0.003272
29780 1.64732463 9.705670650000002 0.54037404 0.001283 0.043689 -0.00432
29800 1.6510622400000001 9.72467262 0.48289725 0.001268 0.040493 -0.004316
29820 1.6181398800000002 9.737101890000002 0.51628068 -0.005075 0.054360000000000006 -0.00331
29840 1.6413405300000004 9.743684400000001 0.5041555199999999 -0.010453 0.046913 -0.001201
