time Ax Ay Az Gx Gy Gz
20 -0.53393868 9.70596495 -2.29952286 -0.045475 -0.292212 -0.14522100000000002
40 -0.52106796 9.442360440000002 -2.42570889 0.000544 -0.241316 -0.125737
60 -0.34338924000000004 9.477087840000001 -2.2867992900000003 -0.051334000000000005 -0.13786199999999998 -0.111277
80 -0.20417553000000002 10.008936990000002 -1.91945403 -0.05242 -0.07952000000000001 -0.048334
100 -0.12469491 10.33510968 -1.5117111900000002 -0.056783000000000014 -0.065798 -0.013131
120 0.31105548 10.449317700000002 -1.2805875900000003 -0.02472 -0.061614 -0.021458
140 0.55923867 9.94426947 -1.2925655999999999 -0.014936 -0.05512 -0.055580999999999985
160 0.13651596 9.86897772 -1.61558928 -0.025399 -0.03474 -0.081318
180 -0.52510968 9.81389457 -1.7980650900000001 -0.024934 0.086627 -0.06331
200 -0.8608569300000001 9.62947638 -2.09324799 -0.045137 0.148296 -0.016529
220 -0.72374256 9.54804357 -2.20386555 -0.00473 0.148035 0.013664
240 -0.28845324000000006 9.864936 -1.94999256 0.017048 0.241721 0.009423
260 0.15088761 9.653128290000001 -1.9303823700000002 0.007321999999999999 0.198142 -0.006612000000000001
280 0.42391953000000004 9.719591040000001 -1.79462178 0.002541 0.07144199999999999 -0.019302
300 0.53393868 9.62558181 -1.6603425000000003 0.017765 0.132123 -0.022478
320 0.24729048000000003 9.641003130000001 -1.7456698800000001 -0.005954999999999999 0.09697 -0.002302
340 -0.05403348 9.695635020000001 -1.81287819 -0.008573 0.018033 0.026623
360 -0.13905675 9.94412232 -1.784439 -0.014925999999999997 0.027647 0.025498
380 0.00045126000000000004 9.96328125 -1.6591456800000002 -0.03079 0.039497 0.006144
400 0.265851 9.5757372 -1.57936095 -0.040296 0.051287 -0.003552000000000001
420 0.32736951 9.61885215 -1.41081534 -0.033914 0.047004 -0.0035020000000000003
440 0.12469491 9.68665887 -1.8606332700000001 -0.035938 0.071512 -0.003547
460 -0.28889469 9.52424451 -2.0122664400000003 -0.031325 0.147135 -0.00468
480 -0.50834439 9.7348554 -2.06720244 -0.02789 0.204627 0.000611
500 -0.7093709100000001 9.890079029999999 -2.0670552900000003 -0.035468 0.186518 0.006991
520 -0.33530580000000004 9.668098350000001 -1.8244049400000002 -0.040735 0.191902 -0.002667
540 0.10807677000000002 9.711949050000001 -1.6679844900000003 -0.028904000000000006 0.200434 -0.015414
560 0.15777423000000002 9.85520448 -1.68714342 -0.040548 0.220715 -0.015521
580 0.034874550000000004 9.86223825 -1.6527103200000002 -0.040692 0.209977 0.005856
600 0.063765 9.990072360000001 -1.6374459600000002 -0.032306 0.200266 0.029428
620 0.12498921000000002 9.73560096 -1.68114951 -0.035871 0.13098800000000002 0.041242
640 0.11720988 9.73470825 -1.76093424 -0.02214 0.094742 0.036043
660 0.05583852 9.65477637 -1.90628901 -0.012318 0.12461300000000003 0.016846
680 0.09684432000000001 9.7610481 -1.77066576 -0.021805 0.130053 -0.003524
700 0.26614530000000003 9.67782006 -1.83174282 -0.034415 0.16528199999999998 -0.011134
720 0.1357704 9.73051938 -1.7283061800000001 -0.049328 0.177026 -0.004843999999999999
740 -0.15148602000000003 9.918822330000001 -1.6239768300000001 -0.028129 0.15773 0.007079
760 -0.11420802000000001 9.78141366 -1.75794219 -0.016303 0.183234 0.01247
780 -0.05867361000000001 9.653128290000001 -1.72306764 -0.03974 0.188651 0.010163
800 0.13831119 9.680969070000002 -1.60630902 -0.04219 0.1279 0.019838
820 0.22797459 9.61555599 -1.54314243 -0.025097 0.134228 0.021017
840 0.25342173 9.63291969 -1.52772111 -0.011108 0.158689 0.018947
860 0.050148719999999994 9.80222067 -1.5539138099999998 -0.009127 0.140508 0.035008
880 0.0577809 9.83410317 -1.5968816099999998 -0.026173 0.167114 0.056219000000000005
900 0.24624081 9.77482134 -1.65211191 -0.044516 0.138347 0.073219
920 0.35790804000000004 9.76030254 -1.5658918200000003 -0.02461 0.058377 0.074529
940 0.37377081000000006 9.70746588 -1.47098988 0.002071 0.04556 0.059777
960 0.40550616000000006 9.76508982 -1.56110454 0.018117 0.050848 0.055609000000000006
980 0.49487526 9.70626906 -1.83877659 0.0008699999999999999 0.012554 0.056606
1000 0.47450970000000003 9.660162060000001 -1.8799393500000001 -0.012057 -0.01616 0.055484000000000006
1020 0.43125741 9.70746588 -1.67023098 -0.011014 -0.0321 0.04483
1040 0.42197715 9.67438656 -1.44449307 -0.004704 -0.058728 0.038498
1060 0.51028677 9.755662410000001 -1.45497015 -0.013397 -0.099157 0.033148000000000004
1080 0.6291447300000002 9.75162069 -1.57577049 -0.013459 -0.125737 0.020363
1100 0.6379737300000001 9.66974643 -1.70405586 -0.018587 -0.091583 0.008533
1120 0.5884234200000001 9.708809850000002 -1.64598066 -0.021802 -0.100073 0.003181
1140 0.46223739 9.732010500000001 -1.58580612 -0.027256 -0.125625 0.004243
1160 0.27781920000000004 9.640699020000001 -1.63369854 -0.026098000000000003 -0.112816 -0.003242
1180 0.41449212 9.684412380000001 -1.5615558 -0.019424 -0.056362 -0.007541
1200 0.5613282000000002 9.756113670000001 -1.63369854 -0.016075 -0.040326 -0.024630000000000003
1220 0.5084915400000001 9.82257642 -1.57816413 -0.019573 -0.103178 -0.021369
1240 0.5427676800000001 9.80626239 -1.51035741 -0.014377 -0.107565 0.005379
1260 0.5213622600000001 9.79323471 -1.5447905100000001 -0.002287 -0.044691 -0.010641
1280 0.44862111000000005 9.79817895 -1.61573643 0.012472 -0.08415800000000001 -0.010487
1300 0.41389371 9.84697389 -1.62217179 0.018523 -0.14390799999999998 0.0077909999999999984
1320 0.5276504700000001 9.792783450000002 -1.6058577600000001 -0.002719 -0.122528 0.007615999999999999
1340 0.7288339500000001 9.75700638 -1.51619436 0.000549 -0.116113 -0.000916
1360 0.7973960400000001 9.780962400000002 -1.5666373800000002 0.017518000000000002 -0.139605 -0.001835
1380 0.67748841 9.80266212 -1.47772935 0.021838 -0.12896300000000002 -0.002887
1400 0.65832948 9.695487870000001 -1.48177107 0.016653 -0.10547 -0.012567
1420 0.67165146 9.5350257 -1.45601982 0.025159 -0.12144 -0.022101
1440 0.73332693 9.836496810000002 -1.5176952900000003 0.030536 -0.120359 -0.030611000000000006
1460 0.58573548 9.85685256 -1.5232281300000001 -0.00345 -0.109494 -0.054363
1480 0.5492030400000001 9.533377620000001 -1.55481633 -0.011927 -0.128511 -0.08644500000000001
1500 0.7548795 9.712106010000001 -1.50886629 -0.010693 -0.115633 -0.111022
1520 0.9351088200000001 9.81898596 -1.43850897 -0.011362 -0.035701 -0.119674
1540 0.6366297600000002 9.68171463 -1.45781505 -0.015442 0.020714 -0.10482
1560 0.54740781 9.71674614 -1.4630535900000003 -0.019959 -0.016628 -0.086644
1580 0.62884062 9.8014653 -1.5070612500000002 -0.001908 -0.0295 -0.080092
1600 0.67719411 9.73739619 -1.5593093100000002 0.02198 0.076889 -0.066175
1620 0.57854475 9.66270285 -1.53745263 0.032782 0.134265 -0.038399
1640 0.6107313599999998 9.763147440000001 -1.4223420900000001 0.029342 0.11708699999999997 -0.002082
1660 0.6316855199999999 9.743684400000001 -1.50721821 0.012483 0.191604 0.025479
1680 0.5619266099999999 9.73515951 -1.42248924 0.001891 0.227784 0.044587
1700 0.41029344 9.87211692 -1.22460192 0.002929 0.213962 0.037134
1720 0.25207776000000004 9.895327380000001 -1.3455494099999998 -0.004318 0.230099 0.003948
1740 0.11630736000000001 9.799071660000001 -1.4732363700000002 -0.012608 0.256871 -0.023918
1760 0.24294465 9.693094230000002 -1.53955197 -0.009365 0.267508 -0.022841
1780 0.29818476 9.69383979 -1.55856375 4.5e-05 0.228047 -0.01952
1800 0.21764466000000002 9.69070059 -1.5500290500000002 0.008614 0.23123 -0.023737
1820 0.0953532 9.61555599 -1.6118516699999998 0.000371 0.289875 -0.030279
1840 0.10568313 9.62708274 -1.5789195000000003 0.005993 0.350589 -0.033522
1860 0.14624748 9.56301363 -1.601973 -0.002422 0.377251 -0.033615
1880 0.1329255 9.549093240000001 -1.6660323000000001 -0.033682 0.32508400000000004 -0.014538999999999996
1900 0.017363700000000003 9.91912644 -1.7149842000000002 -0.054259 0.272893 0.001408
1920 -0.13771278 9.983342700000001 -1.7631807300000002 -0.0713 0.278283 0.000214
1940 -0.3097017 9.949812120000002 -1.78518456 -0.06390900000000001 0.265457 0.004555
1960 -0.36823797 9.962829990000001 -1.63295298 -0.039462 0.248314 0.007951999999999999
1980 -0.24983127000000002 9.78649524 -1.6762150800000002 -0.016044 0.235453 0.007064
2000 -0.16420959 9.60687414 -1.7336918700000001 0.004418 0.293908 0.023155
2020 -0.35386632 9.65507067 -1.7411769000000001 0.006920999999999999 0.425793 0.07321
2040 -0.63842499 9.82241946 -1.7486619300000001 -0.006814 0.516146 0.13388699999999998
2060 -0.7346709 9.91313253 -1.6217303400000003 0.002534 0.503155 0.177766
2080 -0.51343578 9.982440180000001 -1.555866 0.044887 0.433755 0.180287
2100 -0.33365772000000005 10.078695900000001 -1.36635642 0.054144000000000005 0.32307 0.146311
2120 -0.27961443 10.17613863 -1.36934847 0.048421 0.198606 0.107974
2140 -0.54097245 9.90400923 -1.4430019500000002 0.026657 0.082652 0.08660599999999999
2160 -0.79859286 9.783503190000001 -1.5208344900000001 -0.024658000000000003 0.050907 0.07774299999999999
2180 -0.6836294700000001 9.691593300000001 -1.67291892 -0.100338 0.065025 0.076128
2200 -0.44398098 9.60073308 -1.84042467 -0.130181 0.08107 0.085513
2220 -0.25267617 9.70462098 -1.8166256100000002 -0.141576 0.164172 0.092804
2240 -0.011673900000000001 9.73724904 -1.7179762500000002 -0.145345 0.267547 0.085168
2260 0.06811083000000001 9.693241380000002 -1.7571966300000001 -0.126031 0.293042 0.086338
2280 0.02544714 9.61675281 -1.9676603700000002 -0.093438 0.19701 0.097371
2300 -0.09026181000000001 9.6827643 -2.10702123 -0.072422 0.118136 0.090142
2320 -0.13651596 9.667647089999999 -2.41746849 -0.08217200000000001 0.061804 0.06664500000000001
2340 0.11286405000000001 9.775566900000001 -2.1761719200000007 -0.069634 -0.014866999999999997 0.048671
2360 0.5809383900000001 9.84233376 -1.6244182800000002 -0.047393 -0.037372 0.06274199999999999
2380 0.8928963900000001 9.89712261 -1.0722231899999999 -0.085809 -0.027697000000000003 0.074212
2400 1.09707192 9.88753824 -0.8328690000000001 -0.109213 -0.023311 0.06336
2420 1.04661909 9.94426947 -0.8464852800000001 -0.107815 0.03109 0.044072
2440 0.88795215 9.810304109999999 -0.86625243 -0.114886 0.113167 0.037508
2460 0.5830377300000001 9.55043721 -1.16068977 -0.118024 0.131271 0.041736
2480 0.44083197 9.55732383 -1.44479718 -0.106077 0.170675 0.034292
2500 0.38664153 9.48248334 -1.51125993 -0.073678 0.249426 0.025871
2520 0.13890960000000002 9.75446559 -1.44045135 -0.054326 0.277077 0.020630000000000003
2540 0.09370512 10.013125859999999 -1.4124634200000001 -0.06103 0.21211 0.022803
2560 0.25297047 9.83425032 -1.5808618800000003 -0.066465 0.184453 0.017459
2580 0.66896352 9.821075490000002 -1.4988306599999999 -0.061092 0.180225 0.004683
2600 1.10080953 9.92346246 -1.31845419 -0.047333 0.168407 0.017613
2620 1.2404745000000001 9.94053186 -1.15065414 -0.063962 0.271776 0.022706
2640 1.2686095800000001 9.88380063 -0.9367569000000001 -0.07672999999999999 0.271851 0.015138999999999996
2660 1.2205602 9.780962400000002 -0.98899515 -0.064321 0.186576 0.017471
2680 1.19226816 9.70147197 -1.2954105 -0.046151 0.174872 -0.001615
2700 1.10740185 9.5612184 -1.52413065 -0.021287 0.216455 -0.032473
2720 0.8333202600000001 9.51930027 -1.4844590100000001 -0.00925 0.259122 -0.057012
2740 0.74949381 9.59085441 -1.29914811 -0.029357 0.276314 -0.076403
2760 0.8931906900000001 9.667941390000001 -1.20933756 -0.050618 0.27964 -0.090443
2780 1.0159334100000001 9.73800441 -1.12656078 -0.07382000000000001 0.33195 -0.098149
2800 1.05620346 9.890235990000003 -1.0057604400000002 -0.08311 0.390615 -0.108971
2820 1.03449393 9.93513636 -0.7846724700000001 -0.070126 0.4130140000000001 -0.12706900000000002
2840 1.01728719 9.92420802 -0.57884886 -0.063782 0.387476 -0.139811
2860 0.8728349400000001 9.81329616 -0.78302439 -0.065729 0.418419 -0.150546
2880 1.0912349700000001 9.81209934 -1.00530918 -0.061318 0.438691 -0.16229200000000002
2900 1.05740028 9.76374585 -0.9861502500000001 -0.047707 0.380057 -0.16319
2920 0.81251325 9.77632227 -0.95680854 -0.051061 0.34598 -0.16317
2940 0.8502327000000002 9.84922038 -0.9304686900000001 -0.061773 0.337491 -0.162165
2960 1.04362704 9.835594290000001 -0.84992859 -0.050191 0.308666 -0.156707
2980 1.22804523 9.78889869 -0.79035246 -0.038456 0.308625 -0.156624
3000 1.2427111800000001 9.93513636 -0.7924517999999999 -0.051291 0.294847 -0.163106
3020 1.15380315 9.9577386 -0.75098493 -0.038633 0.267088 -0.158709
3040 1.09392291 9.82751085 -0.8178989400000001 -0.023649 0.28936 -0.14688199999999998
3060 1.00261143 9.796530870000002 -0.8584632900000001 -0.024826 0.268046 -0.14365899999999998
3080 0.91834353 9.82272357 -0.99213435 -0.018708 0.20623400000000006 -0.142468
3100 0.71940654 9.80086689 -1.05694902 -0.011316 0.195529 -0.135994
3120 0.6198644700000001 9.74458692 -0.8946916200000001 -0.011326 0.190216 -0.139192
3140 0.6334807499999999 9.747578970000001 -0.7697024100000001 0.0023710000000000003 0.155001 -0.135846
3160 0.6297431400000001 9.839940120000001 -0.80472411 0.016130000000000002 0.138939 -0.127184
3180 0.59740938 9.878562089999999 -0.7800323400000001 0.022469 0.133556 -0.11858699999999997
3200 0.55833615 9.836045550000001 -0.71910243 0.028769 0.123896 -0.105712
3220 0.49098069000000005 9.80191656 -0.7137167400000001 0.039404 0.124889 -0.097093
3240 0.43454376000000006 9.804015900000001 -0.7286868000000001 0.054369000000000015 0.135473 -0.092729
3260 0.47106639 9.8358984 -0.6391705499999999 0.053201 0.118411 -0.08737400000000001
3280 0.43499502 9.7692885 -0.71790561 0.063688 0.08744299999999999 -0.07764700000000001
3300 0.38230551 9.771682140000001 -0.7318260000000001 0.064726 0.08104700000000001 -0.077632
3320 0.35566155000000005 9.84637548 -0.6047472600000001 0.066716 0.045899 -0.080778
3340 0.28381311 9.847719450000001 -0.58633389 0.076279 0.03416 -0.0839
3360 0.23232042000000003 9.84068568 -0.6842278800000001 0.092397 0.057549 -0.085954
3380 0.29293641 9.80222067 -0.64007307 0.09776 0.074532 -0.07525599999999999
3400 0.31419467999999995 9.7954812 -0.65039319 0.100822 0.062726 -0.055991999999999986
3420 0.26525259 9.75087513 -0.7021899899999999 0.094219 0.027556 -0.046379
3440 0.24729048000000003 9.799817220000001 -0.7081740900000001 0.098377 -0.002265 -0.051653
3460 0.25940583 9.80191656 -0.6987466800000001 0.103745 -0.009681 -0.066561
3480 0.27317907 9.79398027 -0.6956074800000001 0.104907 -5e-05 -0.078316
3500 0.23696055000000005 9.82766781 -0.72509634 0.092158 0.012774 -0.07735299999999999
3520 0.16930098000000005 9.78634809 -0.59097402 0.084512 -0.017066 -0.067754
3540 0.11630736000000001 9.867928049999998 -0.7021899899999999 0.086574 -0.031991000000000006 -0.066652
3560 0.08322804 9.81643536 -0.75742029 0.096142 -0.040543 -0.067643
3580 0.00958437 9.76195062 -0.7656606900000001 0.100391 -0.037392 -0.06014
3600 -0.031136940000000002 9.744439770000001 -0.74215593 0.102352 -0.05983400000000001 -0.044074
3620 0.07724394 9.77077962 -0.7093709100000001 0.105361 -0.087601 -0.029062
3640 0.25028253 9.796079610000001 -0.7126670700000001 0.109355 -0.146214 -0.026823000000000003
3660 0.18157329000000003 9.7664436 -0.7920005400000001 0.12621400000000002 -0.201634 -0.03518
3680 -0.05988024 9.84202965 -0.8297199900000001 0.133615 -0.228245 -0.046844
3700 -0.20118348 9.88095573 -0.9348047100000001 0.135705 -0.237839 -0.046817
3720 -0.17035065000000002 9.8564013 -0.9919872000000001 0.137791 -0.227279 -0.025452
3740 -0.00538569 9.870625800000001 -0.94932351 0.115334 -0.209211 0.004278
3760 0.09805095000000001 9.81 -0.89962605 0.102508 -0.185846 0.033001
3780 -0.00045126000000000004 9.73829871 -0.9743193900000001 0.088586 -0.193271 0.037186
3800 -0.16600482 9.767934720000001 -1.09287324 0.094973 -0.21877 0.014831
3820 -0.23381154 9.80281908 -1.17640539 0.101345 -0.254892 -0.014989
3840 -0.20402838 9.71839422 -1.23134139 0.09592 -0.284663 -0.024603
3860 -0.09011466 9.787692060000001 -1.17805347 0.091393 -0.33368400000000004 -0.016026
3880 -0.13981212 9.73396269 -1.22430762 0.087852 -0.392331 0.001116
3900 -0.27377748 9.73260891 -1.3578217199999998 0.082523 -0.381698 0.01068
3920 -0.34757811 9.727517520000001 -1.4880592800000003 0.070993 -0.32524000000000003 0.021209
3940 -0.33215679000000004 9.72707607 -1.5682854600000002 0.066649 -0.321049 0.042538
3960 -0.16435674 9.768690090000002 -1.49464179 0.074012 -0.323291 0.063956
3980 0.07394777999999999 9.75296466 -1.4274334800000001 0.063497 -0.280677 0.07237400000000001
4000 0.060920100000000005 9.75356307 -1.4599143900000002 0.043452 -0.227356 0.07537
4020 -0.05283666000000001 9.836496810000002 -1.50002748 0.027482 -0.208172 0.086985
4040 -0.34473321000000007 9.869880240000002 -1.7188787700000001 0.022143 -0.201792 0.094417
4060 -0.6054928200000002 9.75296466 -1.9357778700000001 0.03805 -0.223153 0.094555
4080 -0.71027343 9.747127710000001 -1.87470081 0.049901 -0.195506 0.096739
4100 -0.49337432999999997 9.755211150000001 -1.7911784700000002 0.040486 -0.15074400000000002 0.099821
4120 -0.26210358 9.66989358 -1.77485463 0.02554 -0.157066 0.095451
4140 -0.29173959000000005 9.67363119 -1.76782086 0.016924 -0.186817 0.08367899999999999
4160 -0.32871348000000006 9.64533915 -1.65825297 -0.006293 -0.150435 0.063174
4180 -0.27707364 9.655816230000001 -1.7191730700000003 -0.037896 -0.07251200000000001 0.051103
4200 -0.24878160000000002 9.77333022 -1.71003996 -0.067807 -0.081991 0.049838
4220 -0.23156505000000002 9.759851280000001 -1.8053931600000002 -0.079935 -0.16505699999999998 0.054132000000000007
4240 -0.34293798000000003 9.891128700000001 -1.7714211300000002 -0.053508000000000014 -0.221601 0.052253
4260 -0.40730139000000004 9.86239521 -1.71842751 -0.026961 -0.233476 0.068477
4280 -0.4827501 9.80416305 -1.7805444300000002 -0.01535 -0.237872 0.092065
4300 -0.56851893 9.768385980000001 -1.720674 -0.00075 -0.283846 0.121068
4320 -0.60683679 9.72198468 -1.7031631500000002 0.009554 -0.344684 0.141514
4340 -0.59920461 9.66749994 -1.7404313400000002 0.032006 -0.341537 0.134189
4360 -0.48753738 9.80281908 -1.7498587500000002 0.055636 -0.330868 0.109771
4380 -0.3844048500000001 10.03467843 -1.6235255700000002 0.06144400000000001 -0.288025 0.046732
4400 -0.46762308 10.13602554 -1.53670707 0.04249 -0.289858 -0.011082
4420 -0.64246671 10.07121087 -1.47997584 -0.006226 -0.25647600000000004 -0.058467
4440 -0.5812425 10.018962810000001 -1.40662647 -0.054535 -0.132546 -0.105965
4460 -0.39532338 9.764795520000002 -1.40392872 -0.096509 -0.034162 -0.16406800000000002
4480 -0.36119439 9.64564326 -1.50482457 -0.168322 0.07284299999999999 -0.221323
4500 -0.36314658000000005 9.74683341 -1.5991281 -0.2623 0.261838 -0.249995
4520 -0.32887044 9.66345822 -1.5003315900000003 -0.32612 0.31422100000000003 -0.240894
4540 -0.24324876 9.652078620000001 -1.54463355 -0.333058 0.221459 -0.214118
4560 0.04984461 9.61555599 -1.61858133 -0.308664 0.203208 -0.200037
4580 0.20687328 9.649537830000002 -1.85509062 -0.236645 0.101691 -0.183381
4600 0.20731473 9.90265545 -1.9145196 -0.165143 -0.118058 -0.169781
4620 0.24309180000000002 10.0789902 -2.0868126300000003 -0.124226 -0.24295500000000006 -0.140493
4640 0.3305087100000001 10.13213097 -2.18246013 -0.149854 -0.23546 -0.127863
4660 0.44802270000000005 10.08468 -2.05821648 -0.144429 -0.190835 -0.10331400000000003
4680 0.57361032 10.068513120000002 -1.8756033300000001 -0.157579 -0.030997000000000007 -0.10361
4700 0.66956193 10.39543137 -1.76453451 -0.190129 0.086293 -0.10292
4720 0.72284985 10.102789259999998 -1.58370678 -0.207744 0.172762 -0.13306400000000002
4740 0.5655268800000002 9.63815823 -1.1563439400000002 -0.244916 0.185774 -0.157909
4760 0.25327458 9.44880561 -0.88646103 -0.359554 0.057361 -0.17991
4780 -0.07334936999999998 9.48517128 -0.8422964100000001 -0.425101 0.153615 -0.217879
4800 -0.39936510000000003 9.50269194 -0.9587607300000001 -0.517777 0.338571 -0.303153
4820 -0.66251835 9.61316235 -1.12880727 -0.561537 0.281413 -0.356796
4840 -0.5912683200000002 9.846669780000001 -1.3967478000000002 -0.584989 0.233766 -0.409242
4860 -0.41777847 9.784248750000001 -1.4293758600000002 -0.622096 0.044293 -0.413531
4880 -0.33425613 9.652225770000001 -1.38132648 -0.718855 0.08948400000000001 -0.442039
4900 -0.50340015 9.55493019 -1.21847067 -0.862771 0.090086 -0.467614
4920 -0.40880232000000005 9.874814670000001 -0.7857123300000001 -0.977107 0.029846 -0.488631
4940 -0.33291216 9.85864779 -1.0027683900000002 -1.042922 0.081299 -0.51159
4960 -0.15762708 9.90310671 -1.07146782 -1.090926 0.098447 -0.495924
4980 -0.19908414 9.88708698 -0.9370512 -1.144279 0.16759000000000002 -0.424814
5000 -0.41703291000000003 9.908492400000002 -0.8156524500000002 -1.214342 0.357006 -0.313383
5020 -0.43274853 10.362352049999998 -0.1995354 -1.30953 0.700783 -0.154255
5040 -0.6342263100000001 10.225384830000001 -0.1300806 -1.423989 1.080641 0.055967
5060 -0.99452799 10.02166056 -0.64022022 -1.436588 1.595344 0.28916
5080 -0.86265216 9.87047865 -0.40191570000000004 -1.4179959999999998 1.840777 0.434253
5100 -1.09886715 9.767189160000001 -0.10073889000000001 -1.291962 1.847892 0.410555
5120 -1.4106681900000002 9.87780672 0.15148602000000003 -1.044661 1.694055 0.305658
5140 -1.25887806 10.03123512 0.17513793000000002 -0.649131 1.3254290000000002 0.239458
5160 -1.2434665500000002 9.73066653 0.05538726 -0.345609 0.5825779999999999 0.331193
5180 -0.9515699999999999 9.933792390000002 0.48184758000000005 -0.269393 0.048310000000000006 0.406117
5200 -0.95456205 9.928848150000002 0.7324244100000001 -0.248346 -0.210798 0.449325
5220 -0.88630407 9.72647766 1.0204263900000001 -0.211715 -0.30811 0.510594
5240 -0.68183424 9.524538810000001 1.35812583 -0.176609 -0.281798 0.559944
5260 -0.38259981000000004 9.61166142 1.76692815 -0.067909 -0.21438 0.6556890000000001
5280 0.12109464000000002 9.86044302 2.4788496600000003 0.086738 -0.123717 0.759202
5300 0.48394692000000006 10.158774930000002 2.7625058100000004 0.155212 -0.250994 0.827141
5320 0.5924651400000001 10.289306790000001 2.85965424 0.128591 -0.4098979999999999 0.894457
5340 -0.00434583 10.06956279 2.20790727 0.174528 -0.37499 0.916098
5360 -0.9985697100000002 10.030793670000001 1.10290887 0.170836 -0.261997 0.900972
5380 -1.8348820200000002 9.911190150000001 0.7634142 0.229122 -0.133216 0.87985
5400 -3.2837209200000004 9.5350257 -0.05583852 0.275295 -0.083245 0.864085
5420 -3.99354309 9.28280079 -0.34937334000000003 0.288802 -0.030674 0.759426
5440 -3.29090184 9.41587344 0.4176313200000001 0.326 -0.011942 0.571655
5460 -2.39981049 9.03745269 0.99273276 0.368173 -0.108136 0.348814
5480 -1.85434506 8.72385642 1.2843252 0.365246 -0.21822600000000006 0.176951
5500 -1.4585704199999998 8.482559850000001 1.9327760100000002 0.307799 -0.234856 0.12316
5520 -1.2250531800000002 8.31700629 2.33080695 0.232555 -0.153507 0.091552
5540 -1.04752161 8.54677611 2.6698503600000003 0.125583 -0.017689 0.052175
5560 -0.2956341600000001 9.00916065 2.8677376800000003 -0.010662 0.203647 -0.035587
5580 0.60923043 9.33219414 2.7619074 -0.032433 0.28386300000000003 -0.09673
5600 0.55429443 9.0206874 2.85321888 -0.037772 0.288122 -0.091432
5620 0.13905675 9.015752970000001 2.3397831 -0.074074 0.318992 -0.054337
5640 -0.23336028 9.35733717 2.08965753 -0.094493 0.329541 -0.010696
5660 -0.37960776 9.548190720000001 2.07124416 -0.07602300000000001 0.22166 0.045118
5680 -0.37108287 9.57139137 2.37391209 -0.055611 0.088138 0.118071
5700 -0.28860039000000004 9.0665001 2.70443061 -0.011599 -0.035802 0.171949
5720 -0.3409956 8.69840928 2.8367478900000003 0.061876 -0.040427 0.199173
5740 -0.49292307 9.00392211 2.7401978700000003 0.123138 0.073288 0.213342
5760 -0.6857288100000001 9.656718750000001 2.5578790200000006 0.155843 0.236132 0.22084
5780 -0.61686261 10.21461345 2.6206041600000005 0.150286 0.404543 0.201357
5800 0.030391380000000003 10.80423369 3.05813997 0.161281 0.474821 0.199207
5820 0.68332536 11.58051861 3.3093152100000003 0.217632 0.436257 0.203923
5840 0.81251325 10.701395459999999 3.0602393100000005 0.278878 0.313463 0.222668
5860 0.78422121 9.71704044 2.7617602500000005 0.267835 0.212373 0.204561
5880 0.64650843 9.421406280000001 2.51941401 0.205799 0.148788 0.175367
5900 0.46897686000000005 9.3559932 2.55309174 0.151106 0.076579 0.165464
5920 0.5632803900000002 9.283399200000002 2.47825125 0.157325 0.023344 0.152757
5940 0.8490358800000001 9.37605465 2.34532575 0.193364 -0.015187 0.166945
5960 0.94902921 9.57423627 2.20461111 0.246836 0.01551 0.169415
5980 0.84439575 9.62318817 1.94145786 0.322972 0.11002 0.178372
6000 0.7982887500000001 9.59819229 1.7016622199999998 0.344525 0.1982 0.219002
6020 0.7530842700000001 10.0328832 1.58580612 0.35638000000000003 0.254499 0.248922
6040 0.7562234700000001 10.4550075 1.79221833 0.355958 0.188342 0.276778
6060 0.80218332 10.437045390000002 2.0547731700000003 0.381175 0.094539 0.269597
6080 0.8689403700000001 10.08408159 2.1399534 0.40951 -0.025873 0.25392600000000004
6100 0.8614553400000001 9.652824180000001 1.90658331 0.443161 -0.142076 0.246832
6120 0.8542744200000001 9.32246262 1.6440284700000003 0.435669 -0.173901 0.220115
6140 0.7276371300000001 9.19657089 1.4844590100000001 0.38812 -0.10542 0.185512
6160 0.60923043 9.26692821 1.57232718 0.35138400000000003 -0.007140000000000001 0.14881
6180 0.3505701600000001 9.501043860000001 1.66633641 0.303941 0.084776 0.114178
6200 0.11480643 9.752817510000002 1.71902592 0.219018 0.16078499999999998 0.094259
6220 0.21824307 9.911043 1.6097523300000003 0.124163 0.171812 0.0829
6240 0.63558009 9.79009551 1.33462107 0.03558 0.15193299999999998 0.069488
6260 1.0627859700000002 9.48936996 1.11532833 -0.07256599999999999 0.047982 0.051775
6280 1.2813331500000003 9.390426300000001 0.9128008800000001 -0.143027 0.003623 0.017156
6300 1.40827455 9.38413809 0.69036894 -0.182299 0.016672 -0.015182
6320 1.33521948 9.44041806 0.49935843 -0.189523 0.047684 -0.038773
6340 1.06099074 9.493411680000001 0.40894947000000004 -0.178519 0.087203 -0.07399800000000001
6360 0.9128008800000001 9.517505040000001 0.6051887100000001 -0.168845 0.07343999999999999 -0.103823
6380 0.8297199900000001 9.48248334 0.6930568800000001 -0.167931 0.013884 -0.129377
6400 0.90397188 9.59100156 0.9726811200000001 -0.155388 -0.065967 -0.15162
6420 0.9515699999999999 9.82841337 1.20903345 -0.120321 -0.113958 -0.168405
6440 1.02491937 10.141558380000001 1.3362691500000001 -0.099017 -0.12573399999999998 -0.172514
6460 1.12027257 10.201889880000001 1.399887 -0.10859 -0.115065 -0.168322
6480 1.2156257700000002 10.15203546 1.3897140300000002 -0.139423 -0.080911 -0.157899
6500 1.28448216 10.114021710000001 1.2880726200000001 -0.16806600000000002 -0.031859 -0.145343
6520 1.41380739 10.06237206 1.20484458 -0.175467 -0.005248 -0.133678
6540 1.4193500399999999 10.0733004 1.01877831 -0.1692 -0.028732 -0.127195
6560 1.2274468200000002 10.14455043 0.97163145 -0.172674 -0.07989199999999999 -0.11754
6580 1.12087098 10.18048446 0.94183848 -0.201747 -0.137324 -0.115533
6600 1.0728215999999997 10.00908414 0.8958884400000001 -0.250039 -0.205312 -0.121124
6620 1.0255177800000002 9.78560253 0.87298209 -0.293953 -0.265789 -0.143786
6640 0.86879322 9.649233720000002 0.7235954100000002 -0.338689 -0.279362 -0.173992
6660 0.8491830300000001 9.6309675 0.62494605 -0.375823 -0.274804 -0.215917
6680 0.9156457800000001 9.73470825 0.5749542900000001 -0.440605 -0.267946 -0.276199
6700 1.02282003 9.84577707 0.58858038 -0.537267 -0.26511 -0.368745
6720 1.20170538 9.83948886 0.6736036500000001 -0.670165 -0.274845 -0.482892
6740 1.2407688000000001 9.636814260000001 0.73407249 -0.805153 -0.296205 -0.618404
6760 1.12355892 9.60388209 0.8156524500000002 -0.898366 -0.313318 -0.786744
6780 1.01758149 9.72587925 0.85547124 -0.891284 -0.302125 -0.927714
6800 0.99348813 9.833651910000002 0.9017253900000001 -0.800653 -0.349173 -0.962272
6820 0.9168426000000001 9.73860282 0.9313614 -0.7211609999999999 -0.383869 -0.8794190000000001
6840 0.83960847 9.649086570000001 0.9713273400000001 -0.694271 -0.41655 -0.7221609999999999
6860 0.77344002 9.62244261 0.9292718700000001 -0.619744 -0.410582 -0.681056
6880 0.71101899 9.63277254 0.8916995700000001 -0.469369 -0.5214989999999999 -0.779208
6900 0.64141704 9.938736630000001 0.9467827200000001 -0.194512 -0.601324 -0.76864
6920 0.60025428 10.246643100000002 1.0666805400000001 0.021706 -0.5896640000000001 -0.675277
6940 0.54067815 10.119701700000002 1.3073787000000001 0.139879 -0.507542 -0.535688
6960 0.5505568200000001 9.802966230000001 1.5590052 0.247037 -0.4925310000000001 -0.386476
6980 0.5245112700000001 9.707308920000001 1.8088364700000001 0.37251 -0.493342 -0.292663
7000 0.47346984000000003 9.636363 2.05522443 0.509088 -0.466216 -0.268243
7020 0.43709436 9.63082035 2.3297572800000004 0.606321 -0.428227 -0.262272
7040 0.33904341000000005 9.633213990000002 2.6538306300000003 0.710334 -0.288068 -0.238224
7060 -0.01018278 9.57049866 2.84903001 0.73122 0.067736 -0.256694
7080 -0.13995926999999997 9.42635052 2.8062191700000003 0.639077 0.027389 -0.21028400000000005
7100 0.15462522000000004 9.346114530000001 2.8168434 0.6705220000000001 -0.02415 -0.136291
7120 0.27377748 9.25300782 2.80457109 0.6265069999999999 0.044726 -0.006363000000000001
7140 0.50160492 9.43922124 2.7991755900000004 0.640446 -0.043215 0.128443
7160 0.6577310700000001 9.2458269 2.66041314 0.7520640000000001 -0.016378 0.246692
7180 -0.0047872800000000005 9.1334043 2.76580197 0.770975 0.032101 0.361062
7200 -0.45130905 9.42769449 2.68436916 0.799912 -0.07599600000000001 0.461816
7220 -0.6334807499999999 9.333538110000001 2.7524799900000003 0.809905 -0.212442 0.475947
7240 -0.50310585 9.086855850000001 2.98748835 0.77666 -0.302666 0.423488
7260 -0.43874244 8.71787232 3.1540915800000002 0.756524 -0.325818 0.369966
7280 -0.42736284 8.30203623 3.3055776 0.7653800000000001 -0.311769 0.312325
7300 -0.35102142000000003 8.24021361 3.32219574 0.801941 -0.314823 0.245287
7320 -0.26689086 8.908578720000001 3.2983868700000003 0.814122 -0.283699 0.176966
7340 -0.18860706000000002 9.82751085 3.1174218000000002 0.769745 -0.244962 0.118922
7360 0.03891627 9.950410530000001 2.5481475 0.683502 -0.234958 0.089465
7380 0.60623838 9.93334113 2.7006831900000003 0.5963930000000001 -0.169599 0.070613
7400 0.47720745000000003 10.114168860000001 2.5421633999999997 0.5156810000000001 -0.093656 0.063542
7420 0.13113027000000002 10.29828294 2.2659922800000003 0.453443 -0.139382 0.097349
7440 0.03981879 10.27418958 1.7432762400000001 0.357754 -0.262783 0.137432
7460 -0.25506981 10.048608630000002 1.1576879100000002 0.284002 -0.267954 0.16255999999999998
7480 -0.18336852 9.896072940000002 0.8201454300000001 0.263196 -0.160246 0.151595
7500 0.08322804 9.935440470000001 0.63766962 0.272158 -0.088809 0.128065
7520 -0.01751085 10.08377748 0.7048877400000001 0.29439 -0.156945 0.098397
7540 -0.3210813 10.36040967 0.90621837 0.387029 -0.20305 0.092694
7560 -0.5171733900000002 10.194846300000002 0.8405011800000001 0.387852 -0.290273 0.059697
7580 -0.65144286 9.739946790000001 0.63871929 0.29587600000000003 -0.40368 -0.004894
7600 -0.53843166 9.63980631 0.4656807 0.24161 -0.417155 -0.051189
7620 -0.42092748 9.620048970000001 0.18905832000000003 0.223272 -0.468199 -0.057661
7640 -0.21539817000000003 9.5148171 0.01092834 0.233797 -0.5001939999999999 -0.057546000000000014
7660 0.12903093000000002 9.683666820000001 -0.07184844 0.215034 -0.397879 -0.053536
7680 0.30926025 9.72856719 0.22333446 0.192407 -0.207127 -0.050733
7700 0.53064252 9.63500922 0.40356378000000004 0.172324 -0.140047 -0.025322
7720 0.7071342300000001 9.55612701 0.08442486000000002 0.146402 -0.197533 -0.012611
7740 0.56088675 9.61390791 -0.10104300000000001 0.158157 -0.208167 -0.027471
7760 0.33200964 9.763294590000001 -0.36853227000000005 0.194646 -0.170967 -0.037946
7780 0.053140770000000004 9.99471249 -0.74335275 0.219117 -0.170051 -0.021752
7800 0.0011968200000000001 10.220744700000001 -0.6165683100000001 0.230325 -0.257563 0.008348000000000001
7820 -0.10612458 10.113717600000001 -0.25820901 0.245906 -0.334387 0.025647000000000003
7840 -0.33724818 9.81777933 -0.66911067 0.248881 -0.377038 0.0332
7860 -0.47196891 9.51810345 -0.9351088200000001 0.256201 -0.41327 0.030093
7880 -0.36254817 9.68142033 -0.7198578 0.245714 -0.378058 0.024633
7900 -0.03023442 9.98394111 -0.51059088 0.217422 -0.27034 0.017888
7920 0.31210515000000005 9.93948219 -0.34518447 0.198573 -0.197809 0.011255
7940 0.5049010799999999 9.92346246 -0.40521186000000003 0.173074 -0.178528 0.006779
7960 0.47510811000000003 9.849965939999999 -0.6515998200000002 0.146594 -0.13476300000000002 0.007606
7980 0.5620835700000001 9.839783160000001 -0.7661021400000001 0.148972 -0.084686 0.003286
8000 0.50535234 9.71644203 -0.8641530900000001 0.146757 -0.095361 0.010761
8020 0.09759969 9.7610481 -0.8041257 0.157359 -0.098641 0.02259
8040 -0.21120930000000002 9.878562089999999 -0.79888716 0.149963 -0.077331 0.027852
8060 -0.22902426 9.890079029999999 -0.98165727 0.154086 -0.116731 0.020454
8080 -0.16091343000000002 9.780815250000002 -1.15170381 0.149641 -0.160375 0.016206
8100 -0.18831276000000002 9.67303278 -1.15065414 0.137906 -0.169883 0.006522
8120 -0.19654335 9.675877680000001 -1.12326462 0.12396 -0.192184 0.001112
8140 -0.21106215 9.75162069 -1.0991614500000002 0.131399 -0.212395 -0.012697
8160 -0.07469334000000001 9.787397760000001 -1.0716247800000003 0.119923 -0.156951 -0.014985
8180 0.08337519 9.77826465 -1.1499085800000002 0.108269 -0.130313 -0.006554000000000001
8200 0.2080701 9.85999176 -0.9746235 0.106145 -0.120748 0.0008960000000000002
8220 0.20776599 9.83320065 -1.03644612 0.102088 -0.07067799999999999 0.004007999999999999
8240 0.06571719 9.80954874 -1.22684841 0.09042 -0.03132 0.028445
8260 -0.09894366 9.93498921 -1.3648653000000002 0.08497 -0.022916 0.06258
8280 -0.14400099 9.89337519 -1.4668010100000002 0.08177899999999999 -0.011225 0.072156
8300 -0.13053186 9.687855690000001 -1.6997198400000002 0.088348 0.012244 0.058285
8320 -0.22931856000000003 9.572598000000001 -1.70944155 0.07674199999999999 0.034681000000000003 0.051766
8340 -0.34787241 9.67018788 -1.6104978900000002 0.073556 0.028339 0.042138
8360 -0.32542713 9.719591040000001 -1.61499087 0.078684 -0.025974 0.033698
8380 -0.36987624 9.808803180000002 -1.6790599800000001 0.070298 -0.004592000000000001 0.021861
8400 -0.42960933 9.82078119 -1.7199186300000002 0.047316 0.081866 -0.000843
8420 -0.46343421000000007 9.807155100000001 -1.76573133 0.028314 0.107576 -0.020236
8440 -0.38395359 9.68860125 -1.8375797700000003 -0.001405 0.119488 -0.042892
8460 -0.22768029 9.67602483 -1.9050921900000002 -0.031769 0.214536 -0.07634099999999999
8480 -0.055230299999999996 9.719591040000001 -1.9374259500000002 -0.058105 0.279649 -0.08622200000000001
8500 -0.09609875999999999 9.73126494 -1.92365271 -0.063319 0.312665 -0.079891
8520 -0.10492776000000001 9.68186178 -1.93068648 -0.055775 0.318012 -0.091596
8540 0.07543890000000002 9.7058178 -2.00073969 -0.052387 0.34575300000000003 -0.105495
8560 0.08157996 9.70103052 -1.9818750600000001 -0.062936 0.371361 -0.106669
8580 -0.13756563000000002 9.703571310000001 -1.84147434 -0.057673 0.375523 -0.086342
8600 -0.34308513000000007 9.796079610000001 -1.8103374 -0.07467599999999999 0.424448 -0.05234
8620 -0.42646032 9.796678020000002 -1.8233552700000002 -0.079135 0.426415 -0.007509
8640 -0.47106639 9.687708540000001 -1.80194985 -0.062497 0.342152 0.004466
8660 -0.48244599000000005 9.712253160000001 -1.9426644900000003 -0.040107 0.31978 -0.014577
8680 -0.5605826400000001 9.80041563 -1.9696027500000002 -0.040862 0.375233 -0.02854
8700 -0.44307846000000006 9.913436640000002 -1.8413173800000002 -0.0612 0.365695 -0.023329
8720 -0.20627487000000003 9.950861790000001 -1.8949094100000001 -0.076395 0.333687 0.002243
8740 -0.20432268 9.97256151 -1.88892531 -0.100909 0.364563 0.02767
8760 -0.30686661000000004 10.00175607 -1.84207275 -0.11595 0.357095 0.043598000000000005
8780 -0.17453952 9.92525769 -1.8663230700000002 -0.091671 0.310095 0.05451
8800 -0.12649014 9.84622833 -1.9863680400000001 -0.066249 0.280135 0.06540800000000001
8820 -0.3379937400000001 9.675877680000001 -2.14399512 -0.050476 0.251228 0.087988
8840 -0.54666225 9.68546205 -2.1582098100000007 -0.034694 0.22339 0.109498
8860 -0.5553441 9.74518533 -2.01675942 -0.029196 0.27232199999999995 0.122293
8880 -0.42092748 9.75910572 -1.85599314 -0.044912 0.341599 0.127435
8900 -0.26734212 9.60103719 -1.8086893200000003 -0.054173 0.407717 0.117672
8920 -0.27333603 9.68261715 -1.84117023 -0.084757 0.459069 0.089619
8940 -0.47691315 9.61196553 -1.9535830200000002 -0.13046 0.467871 0.059378
8960 -0.7782273000000001 9.747578970000001 -2.02243941 -0.151831 0.429719 0.028299
8980 -0.75278016 9.81209934 -1.8968517900000001 -0.1668 0.395789 0.001532
9000 -0.44008641 9.80445735 -1.73818485 -0.18088 0.345783 -0.001707
9020 -0.2989303200000001 9.870920100000001 -1.6248695400000002 -0.15775 0.278555 0.007087
9040 -0.31554846000000003 9.807007950000001 -1.64447973 -0.124046 0.196351 0.022383
9060 -0.50085936 9.727370370000001 -1.79986032 -0.109561 0.118445 0.045016
9080 -0.72973647 9.65102895 -1.94879574 -0.124746 0.072653 0.054583000000000007
9100 -0.79709193 9.49131234 -2.0269323900000003 -0.131363 0.013067 0.042863
9120 -0.6210612900000001 9.433835550000001 -2.0092743900000003 -0.143017 0.003631 0.01502
9140 -0.32677110000000004 9.556274160000001 -1.8756033300000001 -0.164913 0.09753 -0.004482
9160 0.01781496 9.716294880000001 -1.66049946 -0.188226 0.151864 0.014514
9180 0.26689086 9.9489096 -1.45242936 -0.200081 0.15073699999999998 0.04007
9200 0.33844500000000005 10.02899844 -1.2948120900000002 -0.184471 0.082427 0.05949400000000001
9220 0.19414971 10.063127430000002 -1.26472482 -0.139104 -0.014736 0.075959
9240 -0.07514459999999999 10.0499526 -1.2871701 -0.114219 -0.16931 0.08167200000000001
9260 -0.3381507 10.0300383 -1.19975319 -0.073321 -0.327114 0.08216
9280 -0.51477975 9.87047865 -1.1713140000000002 -0.045644 -0.34318200000000004 0.080238
9300 -0.55893456 9.66135888 -1.21113279 -0.060101 -0.242969 0.073599
9320 -0.4837899600000001 9.652372920000001 -1.23703119 -0.084203 -0.142761 0.076507
9340 -0.38380644 9.67063914 -1.3503465000000001 -0.1125 -0.013828 0.092167
9360 -0.27153099 9.59924196 -1.49389623 -0.153436 0.132272 0.088489
9380 -0.07753824000000002 9.712704420000001 -1.5015284100000001 -0.191311 0.247467 0.084873
9400 0.25012557 9.96402681 -1.20154842 -0.203951 0.285853 0.086872
9420 0.43589754000000003 9.80206371 -1.01698308 -0.197521 0.285856 0.08050700000000001
9440 0.41882814000000007 9.68142033 -0.97507476 -0.178447 0.254905 0.078544
9460 0.50549949 9.709113960000002 -1.01264706 -0.14141800000000002 0.202508 0.095961
9480 0.48034665000000004 9.65057769 -1.0822490100000002 -0.11822 0.174597 0.129274
9500 0.20432268 9.735757920000001 -1.3662092700000001 -0.112222 0.121167 0.165703
9520 -0.032186610000000004 9.833053500000002 -1.60061922 -0.118829 0.097664 0.18812
9540 -0.0031392000000000004 9.60792381 -1.8827842500000003 -0.111433 0.083781 0.190326
9560 0.09834525 9.532475100000001 -2.05148682 -0.075188 0.06453099999999999 0.177785
9580 0.42601887000000005 9.700128000000001 -1.87874253 -0.044408 0.034574 0.18338
9600 0.78122916 9.69099489 -1.58236281 -0.032806 0.026986000000000003 0.20590300000000006
9620 1.1858328 9.884399040000002 -1.17745506 -0.041221 0.07699 0.229281
9640 1.35573219 10.00205037 -0.8598072600000001 -0.052899 0.112095 0.251587
9660 1.336122 9.92780829 -0.77599062 -0.047589 0.112055 0.256965
9680 1.13868594 9.87646275 -0.82089099 -0.032696 0.080135 0.23467800000000005
9700 1.0177384500000002 9.83425032 -0.88465599 -0.041217 0.055774 0.20687600000000006
9720 0.8038314000000001 9.735306660000001 -0.93899358 -0.060123 0.10385 0.188522
9740 0.53888292 9.69398694 -1.08883152 -0.063223 0.120927 0.183138
9760 0.33335360999999997 9.67513212 -1.11218913 -0.082426 0.098713 0.160599
9780 0.33739533 9.77960862 -1.05141618 -0.132416 0.090537 0.117532
9800 0.50983551 9.808499070000002 -0.9879454800000002 -0.18971 0.109056 0.064765
9820 0.80682345 9.71524521 -0.86565402 -0.23723400000000006 0.16801 0.015219
9840 0.9499219200000001 9.78574968 -0.8300241 -0.268699 0.251361 -0.022495
9860 0.91175121 9.85984461 -0.8993317500000001 -0.296025 0.31760700000000003 -0.048408
9880 0.7020428400000001 9.791586630000001 -1.06682769 -0.32884800000000003 0.354018 -0.067912
9900 0.73347408 9.73231461 -1.08150345 -0.359715 0.371166 -0.067082
9920 1.00530918 9.73515951 -1.02192732 -0.386281 0.401061 -0.06089600000000001
9940 1.2536395200000001 9.67123755 -0.99707859 -0.389439 0.418087 -0.053462
9960 1.4069207700000002 9.66345822 -1.04302863 -0.371283 0.423346 -0.052274
9980 1.4573736000000002 9.77617512 -1.0612948500000001 -0.359682 0.401965 -0.04362
10000 1.2603789900000002 9.846071370000002 -1.06443405 -0.356711 0.365675 -0.028598
10020 1.0075556700000001 9.77737194 -0.95680854 -0.365337 0.359258 -0.014763
10040 0.9110056500000001 9.69234867 -0.89393625 -0.369437 0.39974 -0.011639
10060 0.9609974100000002 9.69010218 -0.8890018199999999 -0.362902 0.425301 -0.015899
10080 1.01369673 9.77287896 -0.7803266400000001 -0.335225 0.406051 -0.021022
10100 0.9758203200000001 9.88993188 -0.60085269 -0.317161 0.377277 -0.033677
10120 0.8176046400000001 9.91628154 -0.4167288 -0.30256500000000003 0.30053 -0.034545
10140 0.75607632 10.073751660000001 -0.29847906 -0.307101 0.24195100000000005 -0.033434
10160 0.8062250400000001 10.182279690000001 -0.26989272000000003 -0.312531 0.251433 -0.0025050000000000003
10180 0.96340086 10.07944146 -0.25461855 -0.262288 0.298032 0.022355
10200 1.11383721 9.92092167 -0.32048288999999996 -0.214408 0.295627 0.049398
10220 1.17221652 9.849965939999999 -0.32946885000000004 -0.194282 0.28375700000000004 0.06985
10240 1.2278980800000001 9.7263207 -0.3962259 -0.176982 0.361355 0.096577
10260 1.217421 9.73470825 -0.42571475999999997 -0.209599 0.478586 0.112222
10280 1.1982620700000002 9.77960862 -0.38859372000000003 -0.280859 0.512984 0.096725
10300 1.19556432 9.71419554 -0.29757654 -0.338426 0.502614 0.07604
10320 1.10530251 9.628132410000001 -0.12603888 -0.383531 0.397467 0.036336
10340 1.01683593 9.572293890000001 -0.03547296 -0.498112 0.254251 -0.013419
10360 0.9922913100000001 9.66599901 -0.006141059999999999 -0.662428 0.196453 -0.068972
10380 1.04063499 9.7490799 0.01616688 -0.83193 0.125013 -0.171546
10400 1.0985630400000002 9.823920390000001 0.08337519 -0.982022 0.099311 -0.274042
10420 1.1801430000000002 9.73860282 0.1591182 -1.04056 0.092213 -0.312898
10440 1.2265541100000001 9.58231971 0.21225897000000002 -0.989838 0.17743399999999998 -0.35645
10460 1.16727228 9.57035151 0.3210813 -0.8550540000000001 0.243066 -0.36948
10480 1.05276015 9.80985285 0.40835106000000004 -0.6882729999999999 0.335102 -0.353477
10500 1.03419963 9.97165899 0.50759883 -0.5270239999999999 0.364384 -0.356661
10520 1.10979549 10.01881566 0.6560829899999999 -0.366798 0.339596 -0.4238770000000001
10540 1.01623752 9.86897772 0.98285409 -0.216986 0.282181 -0.580854
10560 0.93405915 9.755966520000001 1.1825366400000001 -0.072042 0.0895 -0.739827
10580 1.00889964 9.83814489 1.27564335 0.057349 -0.191742 -0.849658
10600 1.1410795800000002 9.90236115 1.55840679 0.15776600000000002 -0.395578 -0.8444229999999999
10620 1.14706368 9.96103476 1.81706706 0.237476 -0.570024 -0.712251
10640 0.97956774 10.03139208 2.1721302000000002 0.223627 -0.790429 -0.461033
10660 0.58753071 10.08886887 2.7167029200000004 0.067717 -1.029585 -0.192624
10680 0.19474812000000002 10.198740870000002 3.10873995 -0.202652 -1.153073 0.020358
10700 0.05837931 10.19230551 3.2379180300000003 -0.384899 -1.042985 0.08731
10720 0.30027429 9.967322970000001 3.34614195 -0.280932 -0.806424 -0.020157
10740 0.45310428 9.652981140000001 3.2540849100000004 -0.024739 -0.5770609999999999 -0.058186
10760 0.6026479200000002 9.521399610000001 2.7791239500000002 0.232545 -0.313727 -0.06740800000000001
10780 0.7174543500000001 9.43802442 2.348769060000001 0.387748 -0.181191 -0.046198
10800 0.71042058 9.206302410000001 2.2230244800000003 0.436311 -0.239112 0.010832
10820 0.5665765500000001 9.01051443 2.22722316 0.397329 -0.286174 0.091804
10840 0.29129814000000004 9.18070812 2.44142451 0.333823 -0.335258 0.167268
10860 -0.16406244 9.30764952 2.5773420600000003 0.308863 -0.4214890000000001 0.174681
10880 -0.7324244100000001 9.194334210000001 2.63945898 0.331363 -0.435275 0.139605
10900 -1.2639694500000003 9.083863800000001 2.7306233100000004 0.327671 -0.359418 0.087139
10920 -1.7441689500000002 8.86756311 2.6174551500000005 0.33791 -0.28037 0.024084
10940 -1.6576545599999999 8.92938573 2.4659691300000004 0.382539 -0.166207 -0.059072
10960 -1.0704279600000002 9.12127914 2.25131652 0.554109 -0.065233 -0.15093800000000002
10980 0.03622833 9.402551460000002 2.2559566500000003 0.763727 -0.043227 -0.241369
11000 1.1418251400000001 9.65432511 2.65442904 0.882551 -0.02949 -0.31640100000000004
11020 1.90059921 9.58980474 3.25901934 0.74939 -0.013995 -0.346193
11040 2.22931269 9.23698809 3.48415884 0.476564 -0.136811 -0.29880300000000004
11060 1.65301443 9.11739438 3.26965338 0.291846 -0.34627 -0.238936
11080 0.9985697100000002 9.01080873 2.8575549000000002 0.24217600000000006 -0.407104 -0.167634
11100 0.74365686 9.094792140000001 2.5114777200000002 0.305116 -0.328814 -0.08717799999999999
11120 0.5468094 9.152121780000002 2.40474492 0.384327 -0.199413 -0.01522
11140 0.18695898 9.19268613 2.5909583400000002 0.434781 -0.05925900000000001 0.056524
11160 -0.08217837 9.103022730000001 2.6084790000000004 0.501047 0.023375 0.113497
11180 0.06660990000000001 9.13655331 2.47016781 0.614364 0.105943 0.146229
11200 0.25162650000000003 9.10931094 2.6087733 0.694355 0.117313 0.163865
11220 0.3559558500000001 9.383088420000002 2.87522271 0.727039 0.024545 0.157803
11240 0.6611743800000001 9.934842060000001 2.8180402200000003 0.708533 -0.088186 0.126839
11260 0.84305178 10.59376995 2.6885580300000003 0.677398 -0.18056 0.077602
11280 0.71401104 10.683737460000001 2.76924528 0.634685 -0.225007 0.041041
11300 0.34024023 10.19155995 2.36642706 0.579414 -0.174763 0.044864
11320 -0.14160735 9.94621185 1.83353805 0.530411 -0.12466 0.07864
11340 -0.6216597000000001 10.0354338 1.4431491 0.5023270000000001 -0.168371 0.111615
11360 -0.7385654700000001 10.07674371 1.28252997 0.520085 -0.226066 0.138518
11380 -0.24100227 9.81718092 1.33117776 0.5561189999999999 -0.253992 0.164443
11400 0.40894947000000004 9.665253450000002 1.4200956 0.579393 -0.280773 0.181732
11420 0.6453116099999999 9.53262225 1.9902626100000003 0.570944 -0.237166 0.206186
11440 0.84813336 9.57019455 1.9809823500000001 0.539929 -0.210601 0.249732
11460 0.9454387500000001 9.82616688 1.31665896 0.5086109999999999 -0.25433 0.290162
11480 0.73332693 9.867928049999998 1.0033668 0.452612 -0.378738 0.281385
11500 0.19699461000000001 10.022553270000001 0.6572798100000001 0.439876 -0.412586 0.232201
11520 -0.29548701 10.069857090000001 0.03907323000000001 0.420239 -0.34617 0.157203
11540 -0.37841094 10.07030835 -0.3990708 0.347536 -0.206112 0.093491
11560 -0.34997175 10.42327215 -0.29369178 0.243803 -0.053295 0.06266000000000001
11580 -0.39966921 10.39049694 0.13936086 0.196847 -0.046777 0.071938
11600 -0.57540555 9.921372930000002 0.26599815 0.197612 -0.11071 0.07522999999999999
11620 -0.42616602000000003 9.576335610000001 0.30266793 0.18924 -0.134938 0.014313
11640 0.023799060000000004 9.346114530000001 0.02215098 0.154724 -0.06841900000000001 -0.073607
11660 0.6074352000000001 9.20046546 -0.20716758000000002 0.13658199999999998 -0.113983 -0.118541
11680 0.8358610499999999 9.44864865 -0.47062494000000005 0.132253 -0.144793 -0.135623
11700 0.6427610100000001 9.81119682 -0.6390234 0.128057 -0.12773800000000002 -0.134606
11720 0.36224406000000003 9.69369264 -0.7637085 0.104831 -0.063778 -0.125236
11740 0.43424946000000003 9.52230213 -0.8180460900000001 0.089823 -0.051058 -0.096515
11760 0.83376171 9.44775594 -0.85920885 0.096955 -0.095945 -0.066498
11780 1.12101813 9.6796251 -0.8416980000000001 0.110685 -0.12900799999999998 -0.068496
11800 1.02506652 9.71479395 -0.79005816 0.121244 -0.1684 -0.083327
11820 0.66775689 9.736954740000002 -0.9080136000000001 0.125406 -0.184424 -0.0758
11840 0.44846415 10.058781600000001 -1.2205602 0.124185 -0.188801 -0.045892
11860 0.28965006000000004 10.170301680000001 -1.18089837 0.133543 -0.212393 -0.014818
11880 0.42841251 9.936637290000002 -0.8063721899999999 0.128141 -0.210312 0.002233
11900 0.7315317000000001 9.83963601 -0.60773931 0.128127 -0.191227 0.024641
11920 0.6942537000000001 9.799522920000001 -0.7951495500000001 0.127026 -0.173216 0.050247
11940 0.20791314000000002 9.77766624 -1.2494506500000002 0.128045 -0.163714 0.070539
11960 -0.39472497000000006 9.858794940000001 -1.4687433900000002 0.12920299999999998 -0.132867 0.081189
11980 -0.46118772 9.86658408 -1.25394363 0.115406 -0.110474 0.087474
12000 -0.23531247000000002 9.70237449 -1.1744532 0.094236 -0.06144400000000001 0.099013
12020 0.12229146 9.84876912 -1.15290063 0.075043 -0.053941 0.10421099999999997
12040 0.23321313 9.881848440000002 -1.26367515 0.063904 -0.15723900000000002 0.105334
12060 0.27917298 9.759851280000001 -1.4084217 0.048203 -0.147365 0.047527
12080 0.22887711000000002 9.675730530000001 -1.39495257 0.023572 0.020167 -0.001998
12100 0.10463346000000001 9.69802866 -1.53924786 0.000621 -0.059816 0.039605
12120 -0.1998297 9.74234043 -1.6799526900000001 0.016857 -0.21128 0.07409600000000001
12140 -0.29398608000000004 9.79457868 -1.7342902800000002 0.034945 -0.237911 0.058233000000000014
12160 -0.13472073 9.827814960000001 -1.64732463 0.04571 -0.228314 0.046545
12180 0.07753824000000002 9.77018121 -1.5393950100000002 0.030683 -0.253807 0.041132
12200 0.26748927000000006 9.70491528 -1.60032492 -0.004423 -0.24722800000000006 0.024855
12220 0.12798126 9.593248050000001 -1.67710779 -0.023171 -0.171425 -0.00101
12240 0.033530580000000004 9.649233720000002 -1.7443259100000001 -0.027036 -0.097843 -0.017155
12260 0.033530580000000004 9.64698723 -1.8684126 -0.052396000000000005 -0.037059 -0.011001
12280 0.02529999 9.65492352 -1.9053864900000002 -0.078684 0.048255 -0.011294
12300 0.045802890000000006 9.624384990000001 -1.89670464 -0.110148 0.159193 -0.02127
12320 -0.08981055 9.64729134 -1.8652734000000002 -0.125801 0.217915 -0.040682
12340 -0.11661147000000001 9.67542642 -1.84207275 -0.12921300000000002 0.163628 -0.048114
12360 -0.18037647 9.75880161 -1.8479097000000002 -0.121119 0.077265 -0.036196
12380 -0.3379937400000001 9.955197810000001 -1.90359126 -0.106346 0.04736 -0.029646
12400 -0.45670455000000004 9.947418480000001 -2.0420496000000004 -0.083057 0.017407 -0.018762
12420 -0.15074046 9.867035340000001 -1.8302418900000001 -0.064103 -0.015772 0.003845
12440 0.04879494 9.484876980000001 -1.7874310500000001 -0.068562 -0.022294 0.040142
12460 -0.23830452000000002 9.44550945 -2.0395088100000005 -0.057869 0.013763999999999998 0.071149
12480 -0.44412813 9.83065986 -2.19697893 -0.047033 0.076475 0.096782
12500 -0.49232466 10.25293131 -2.2758709500000003 -0.052262 0.109479 0.106317
12520 -0.44352972000000007 10.102338000000001 -2.16135882 -0.045736 0.13503099999999998 0.104193
12540 -0.5707654200000002 9.784405710000001 -1.9243982700000002 -0.038052 0.19143 0.11272
12560 -0.66282246 9.89801532 -1.91811006 -0.049644 0.234039 0.123267
12580 -0.33650262000000003 10.02420135 -1.8827842500000003 -0.062331 0.27026 0.13381400000000002
12600 0.01272357 10.066570740000001 -1.66543389 -0.067718 0.258561 0.133792
12620 0.019011780000000002 9.980193690000002 -1.6423803900000002 -0.056241999999999986 0.181898 0.114742
12640 -0.055230299999999996 9.888735060000002 -1.62068067 -0.049076 0.089296 0.089273
12660 -0.05089428 9.909993329999999 -1.63055934 -0.054607 0.022297 0.06582
12680 -0.00074556 9.75745764 -1.75404762 -0.055625 0.017038 0.049796
12700 -0.045802890000000006 9.66315411 -1.75629411 -0.055276 0.090558 0.045431
12720 -0.11121597 9.469612620000001 -1.7863813800000001 -0.064326 0.214158 0.046278
12740 0.00973152 9.572293890000001 -1.7905800600000001 -0.084151 0.305872 0.038544
12760 0.36119439 9.68201874 -1.7069007600000001 -0.1104 0.373183 0.011569
12780 0.5569921800000001 9.565260120000001 -1.77635556 -0.133526 0.427683 -0.011095
12800 0.5855785200000001 9.520801200000001 -1.80914058 -0.140932 0.44474 -0.007964
12820 0.6921641700000001 9.54115695 -1.8785953800000001 -0.140129 0.397818 0.003853
12840 0.65787822 9.54684675 -1.78563582 -0.12448499999999997 0.326355 0.012599
12860 0.5986062000000002 9.593405010000001 -1.5507746100000002 -0.098039 0.280439 0.017116
12880 0.56492847 9.696390390000001 -1.6256151 -0.082199 0.25053000000000003 0.023674
12900 0.5553441 9.76300029 -1.58595327 -0.070646 0.21107 0.024873
12920 0.50340015 9.743988510000001 -1.40198634 -0.064475 0.158854 0.023915
12940 0.35985042 9.77407578 -1.37384145 -0.047366000000000005 0.174743 0.031492
12960 0.18935262 9.86942898 -1.42428447 -0.058833 0.243988 0.040937
12980 0.08382645000000001 9.84262806 -1.4838605999999999 -0.080089 0.27066 0.0493
13000 0.032785020000000005 9.85654845 -1.5212857499999999 -0.07276 0.239741 0.049391
13020 0.14954364 9.880651620000002 -1.40153508 -0.053384 0.27378 0.04521
13040 0.47046798 9.832150980000002 -1.3042395000000002 -0.054331 0.296171 0.040902
13060 0.68212854 9.77048532 -1.2979512899999999 -0.041548 0.293987 0.04313
13080 0.7687998900000002 9.86014872 -1.28388375 -0.058416 0.334544 0.038687
13100 0.7674559200000002 9.879601950000001 -1.26771687 -0.066927 0.3399 0.038621
13120 0.65533743 9.94426947 -1.18987452 -0.06377000000000001 0.326058 0.034388
13140 0.51956703 9.92915226 -1.28238282 -0.067855 0.35488200000000003 0.022572
13160 0.48679182000000004 9.82542132 -1.40811759 -0.072916 0.398644 0.005389
13180 0.50579379 9.67886973 -1.4004854100000002 -0.07710700000000001 0.400849 -0.009598
13200 0.4451778 9.637108560000001 -1.41710355 -0.075916 0.411567 -0.026695
13220 0.36838512000000007 9.61121016 -1.4130618300000002 -0.08440700000000001 0.412696 -0.035302
13240 0.43589754000000003 9.62722989 -1.29420387 -0.095018 0.428699 -0.032191000000000004
13260 0.55235205 9.7465293 -1.2889653300000001 -0.10685 0.41274 -0.026913
13280 0.6086320199999999 9.76809168 -1.19422035 -0.08989 0.396667 -0.018228
13300 0.7589212200000001 9.76164651 -1.1795445900000001 -0.069505 0.42959 -0.01065
13320 0.84753495 9.72691911 -1.27355382 -0.060061 0.40289 -0.002004
13340 0.9692378100000001 9.75700638 -1.19526021 -0.054053 0.33355300000000004 0.016287
13360 0.91325214 9.807007950000001 -1.03285566 -0.050059 0.285551 0.029195
13380 0.78616359 9.72377991 -1.09347165 -0.048002 0.267438 0.028164
13400 0.8684891100000001 9.82526436 -0.99752985 -0.039481 0.263151 0.027161
13420 0.91834353 9.75341592 -1.02132891 -0.024584 0.25776 0.030476
13440 0.88615692 9.69788151 -1.10559681 -0.030009 0.247088 0.040066
13460 0.8589145499999999 9.77601816 -1.05665472 -0.048117 0.25566500000000003 0.042065
13480 0.7337781900000001 9.79218504 -1.03719168 -0.055652 0.231228 0.03243
13500 0.65204127 9.927955440000002 -1.02896109 -0.044027 0.197137 0.022941
13520 0.7587740700000001 9.952352910000002 -1.05874425 -0.035535000000000004 0.180093 0.015544
13540 0.81880146 9.81164808 -1.04243022 -0.03653 0.19077 0.010183
13560 0.8454454200000001 9.75072798 -0.9580053600000001 -0.036602 0.17266900000000002 0.008069
13580 0.8617594500000001 9.81059841 -0.91624419 -0.033636 0.12576500000000002 0.013491
13600 0.8652027600000002 9.8216739 -0.93899358 -0.035043 0.05544 0.018912
13620 0.88945308 9.81418887 -0.97971489 -0.037326 0.014997 0.011471
13640 0.95216841 9.747883080000001 -0.9845021700000001 -0.044717 0.028885 0.008196
13660 0.8765725499999999 9.67482801 -1.11652515 -0.047803 0.056584 0.010276
13680 0.85681521 9.68919966 -1.13179932 -0.039349 0.04375 0.015691999999999998
13700 0.8195470199999999 9.775723860000001 -0.96474483 -0.034226 4.3e-05 0.018989
13720 0.79723908 9.843677730000001 -0.9096616800000001 -0.034331 -0.026576 0.015818000000000002
13740 0.8439444899999999 9.833504759999999 -0.8990276400000001 -0.031083 -0.014874 0.016893000000000002
13760 0.8402068800000001 9.74308599 -0.93031173 -0.027834 0.001073 0.022237
13780 0.83660661 9.728115930000001 -0.8990276400000001 -0.035427 -0.01811 0.030754000000000007
13800 0.7836228 9.83814489 -0.7628157900000001 -0.036609 -0.035185 0.039314
13820 0.80053524 9.89696565 -0.74050785 -0.025979 -0.044805000000000005 0.038332
13840 0.8315250300000001 9.860295870000002 -0.7599708900000002 -0.013334 -0.081064 0.037399
13860 0.74859129 9.891285660000001 -0.78407406 -0.011388 -0.121556 0.038532
13880 0.70084602 9.90445068 -0.8556183900000001 -0.013536 -0.125806 0.037454
13900 0.7370645400000001 9.77692068 -0.82912158 -0.010326 -0.11732 0.043875
13920 0.73736865 9.763893 -0.73736865 -0.010431 -0.137573 0.047105
13940 0.7511418900000002 9.80222067 -0.6318326700000001 -0.014814 -0.164185 0.04604
13960 0.7608636000000001 9.799670070000001 -0.5926221000000002 -0.007403 -0.17593399999999998 0.047176
13980 0.7577244000000001 9.802966230000001 -0.6548861700000002 -0.001059 -0.182373 0.053637
14000 0.78826293 9.922118489999999 -0.7791298200000001 0.004169 -0.203706 0.055838
14020 0.8572664700000001 9.81299205 -0.88465599 0.009422 -0.223956 0.053764
14040 0.9967744800000001 9.84202965 -0.8327218500000001 0.019048 -0.222907 0.049557
14060 1.05366267 9.81793629 -0.68767119 0.02431 -0.2336 0.054948
14080 0.94707702 9.80162226 -0.63453042 0.026425 -0.233624 0.059236
14100 0.850527 9.765246780000002 -0.7174543500000001 0.031793 -0.227247 0.05819700000000001
14120 0.93195981 9.752366250000001 -0.74978811 0.033864 -0.235798 0.063564
14140 1.0472175000000001 9.74982546 -0.7426071900000001 0.026468 -0.220854 0.062425
14160 0.95816232 9.73351143 -0.71970084 0.021354 -0.178199 0.055925
14180 0.8072747100000001 9.79383312 -0.7138638900000001 0.019431 -0.137686 0.04945
14200 0.8087658299999999 9.79758054 -0.69754986 0.007754 -0.13122799999999998 0.042951
14220 0.8797215600000001 9.765246780000002 -0.7232913 0.000338 -0.12585 0.036483
14240 0.8684891100000001 9.78185511 -0.72374256 -0.004819 -0.093843 0.028929000000000007
14260 0.86235786 9.831552570000001 -0.6773412600000002 -0.005727 -0.070357 0.017141999999999998
14280 0.90995598 9.85027005 -0.66581451 -0.001426 -0.074586 0.005427
14300 0.9542677500000001 9.755515260000001 -0.5951628900000002 -0.007798999999999999 -0.07666 -0.003161
14320 0.9096616800000001 9.652824180000001 -0.63438327 -0.023739 -0.069122 -0.009691
14340 0.96264549 9.779314320000001 -0.7562234700000001 -0.041852 -0.06373200000000001 -0.009825
14360 1.05665472 9.80222067 -0.8201454300000001 -0.038661 -0.06163 -0.0055320000000000005
14380 1.14272766 9.75446559 -0.84573972 -0.027055000000000003 -0.085128 -8e-05
14400 1.1921210100000001 9.70671051 -0.79859286 -0.0263 -0.14058099999999998 0.013883
14420 1.25992773 9.77333022 -0.77089923 -0.025429 -0.168345 0.029948
14440 1.2807347400000002 9.835594290000001 -0.7738912800000001 -0.02231 -0.16630699999999998 0.050264
14460 1.25798535 9.81777933 -0.87762222 -0.014929 -0.181264 0.054607
14480 1.29720573 9.807007950000001 -0.8849601 -0.01403 -0.21643 0.05679500000000001
14500 1.3115773800000001 9.828707670000002 -0.80427285 -0.014106 -0.236657 0.053616
14520 1.3401637199999998 9.79353882 -0.7274899800000001 -0.005456 -0.225975 0.038707
14540 1.31201883 9.772280550000001 -0.66970908 0.002079 -0.228063 0.021671
14560 1.27295541 9.86852646 -0.6453116099999999 0.006318 -0.23553 0.020642
14580 1.125207 9.96418377 -0.5492030400000001 0.001036 -0.221672 0.022724
14600 0.9587607300000001 9.94067901 -0.5439645000000001 -0.00316 -0.202495 0.025875
14620 0.8858626199999999 9.799071660000001 -0.60219666 0.0044280000000000005 -0.169524 0.032295
14640 0.89813493 9.780962400000002 -0.6936552900000001 0.02057 -0.134443 0.036636
14660 0.88046712 9.86583852 -0.7375158 0.022781 -0.11104 0.04303
14680 0.80847153 9.82990449 -0.73586772 0.009113 -0.075799 0.033276
14700 0.68662152 9.74698056 -0.6956074800000001 -0.005526 -0.031982 0.010685
14720 0.60309918 9.816141060000001 -0.7188081300000001 -0.010683 -0.010586 -0.007539
14740 0.63273519 9.890677440000001 -0.85188078 -0.021208 0.007617 -0.021522
14760 0.70668297 9.796226760000001 -0.942741 -0.034957 0.020504 -0.035522000000000005
14780 0.67748841 9.78455286 -0.9256716 -0.045559 0.025906 -0.045217
14800 0.5727078 9.75416148 -0.89259228 -0.045367000000000005 0.057905999999999985 -0.055939
14820 0.5643300600000001 9.655669080000001 -0.81610371 -0.041999 0.087752 -0.063431
14840 0.6825798 9.75461274 -0.75518361 -0.049476 0.083526 -0.06561399999999999
14860 0.7592253299999999 9.828707670000002 -0.68647437 -0.06234600000000001 0.06865700000000001 -0.06568500000000001
14880 0.8792703000000001 9.795029940000001 -0.65787822 -0.067637 0.074019 -0.070002
14900 0.95247252 9.700128000000001 -0.6730052400000001 -0.07510499999999999 0.07722799999999999 -0.066853
14920 1.0716247800000003 9.71674614 -0.6649218 -0.08043 0.085743 -0.060492
14940 1.1859799500000001 9.899967509999998 -0.66251835 -0.066512 0.109079 -0.047606
14960 1.27534905 10.074055770000001 -0.72673461 -0.055887 0.117492 -0.029383
14980 1.3697997299999998 9.84637548 -0.75652758 -0.037861 0.108842 -0.013223
15000 1.3921076700000001 9.59833944 -0.7274899800000001 -0.002937 0.079821 0.021242
15020 1.34255736 9.67946814 -0.72913806 0.020433 0.069039 0.033169
15040 1.26815832 9.9170271 -0.68093172 0.010693 0.044546 0.039542
15060 1.19735955 9.99126918 -0.6643233900000001 -0.002182 0.015880000000000002 0.02667
15080 1.16906751 9.93903093 -0.74904255 -0.007564 -0.015974000000000002 0.005309
15100 1.15529427 9.841735350000002 -0.8403540300000001 -0.001148 -0.038265 -0.020255
15120 1.1726579700000002 9.83185668 -0.9318126600000001 -0.01063 -0.029637 -0.038492
15140 1.18494009 9.755809560000001 -0.92403333 -0.020127000000000003 -0.011472 -0.043923
15160 1.07985537 9.79742358 -0.81610371 -0.024274 0.016235 -0.042919
15180 1.0030626900000001 9.873765 -0.84004992 -0.02103 0.042787 -0.025839
15200 1.07461683 9.915084720000001 -0.9078664500000001 -0.017887 0.04803 -0.007664
15220 1.20364776 9.80445735 -0.9184906800000001 -0.016998 0.020283 0.004128
15240 1.23837516 9.75491685 -0.94947066 -0.008655 -0.023419 0.003174
15260 1.1972124 9.73081368 -0.94812669 0.007295 -0.034132 0.004368
15280 1.1241671400000002 9.64669293 -0.8930435400000001 0.011553 -0.043704 -0.003068
15300 1.1123362800000003 9.731716200000001 -0.8006823900000002 0.001913 -0.05962000000000001 -0.010592
15320 1.18613691 9.71644203 -0.79185339 -0.005555 -0.068082 -0.019180000000000003
15340 1.17774936 9.69788151 -0.7719489 -0.010702 -0.032884 -0.02567
15360 1.11742767 9.77063247 -0.72284985 -0.009357 0.025715 -0.02894
15380 0.8402068800000001 9.65492352 -0.65473902 -0.012409 0.056627 -0.031138
15400 0.62824221 9.73650348 -0.59710527 -0.010194 0.07579 -0.030079
15420 0.50459697 9.901605779999999 -0.6072880500000001 0.001551 0.089551 -0.018264
15440 0.45699885 9.93005478 -0.61642116 -0.001707 0.086328 -0.008668
15460 0.56253483 9.858049379999999 -0.61611705 -0.012381 0.08636100000000001 -0.007675
15480 0.68048046 9.851614020000001 -0.57914316 -0.021915 0.096003 -0.013095
15500 0.714168 9.857755080000002 -0.50444982 -0.008983 0.092891 -0.045047
15520 0.6921641700000001 9.93334113 -0.40071888000000006 0.006718000000000001 0.036333 -0.034183
15540 0.7143151499999999 9.90939492 -0.3924882900000001 0.022788 0.07347200000000001 -0.011685
15560 0.78226902 9.834397469999999 -0.46986957000000007 -0.008902 0.166172 0.010407
15580 0.8057737800000001 9.75776175 -0.5619266099999999 -0.012251 0.141648 0.018961
15600 0.78182757 9.76149936 -0.69290973 0.006737000000000001 0.081973 0.00742
15620 0.7831715400000001 9.78545538 -0.71970084 0.002527 0.070368 -0.017164
15640 0.7460505000000001 9.81164808 -0.6683553 0.002599 0.073615 -0.029986
15660 0.6996492000000001 9.8879895 -0.6393177000000001 0.007895000000000001 0.073562 -0.021404
15680 0.73167885 9.90700128 -0.56088675 0.024763 0.048921 -0.000958
15700 0.7683486300000001 9.856254150000002 -0.55115523 0.026882 0.049961 0.003328
15720 0.8384018400000001 9.81538569 -0.49023513 0.015257 0.08723600000000001 0.016018
15740 0.9092104200000001 9.787996170000001 -0.53169219 0.012052 0.09467 0.024532
15760 1.01085183 9.78679935 -0.61731387 0.024754 0.075437 0.02785
15780 1.0484241300000001 9.747127710000001 -0.64515465 0.017218 0.056306 0.023549
15800 1.01324547 9.759851280000001 -0.65743677 0.010741 0.043528 0.027793
15820 1.05949962 10.0613322 -0.7253906400000001 0.00433 0.042481 0.028818
15840 0.9922913100000001 9.98963091 -0.7312275899999999 0.006334 0.005222999999999999 0.020334
15860 1.0027683900000002 9.90265545 -0.75518361 0.020107 -0.027802 0.008722
15880 1.05874425 9.620941680000001 -0.74215593 0.023298 -0.029944 0.008747
15900 1.02027924 9.53846901 -0.6846791400000001 0.012558 -0.044824 0.009759
15920 0.8684891100000001 9.74877579 -0.61192818 0.007104000000000002 -0.070376 0.010822
15940 0.7244979300000001 9.907746840000001 -0.7289811 0.005004 -0.06079 0.012932
15960 0.68976072 9.724525470000001 -0.88885467 0.0007650000000000001 -0.0512 0.016094
15980 0.6643233900000001 9.692642970000001 -0.84604383 0.002865 -0.056543 0.018252
16000 0.68408073 9.85670541 -0.9018725400000001 -0.007665000000000002 -0.042589 0.001069
16020 0.82299033 9.86568156 -0.8282288700000001 -0.014965 -0.037108 -0.031035000000000007
16040 0.93121425 9.739946790000001 -0.73077633 -0.013941 -0.066859 -0.051286
16060 0.87881904 9.82930608 -0.71970084 -0.014874 -0.046577 -0.060933
16080 0.8381075400000001 9.77482134 -0.6869256300000001 -0.039263 -0.03681 -0.084617
16100 0.7717919400000001 9.7582032 -0.6899176800000001 -0.057333 -0.057907000000000014 -0.121035
16120 0.8328690000000001 9.890677440000001 -0.59471163 -0.060365 -0.055624 -0.15631099999999998
16140 0.8467893900000001 9.95340258 -0.5840874 -0.08911799999999999 -0.066087 -0.178931
16160 0.62390619 9.815238540000001 -0.6149202300000001 -0.124334 -0.08294800000000001 -0.19411
16180 0.43769277 9.667647089999999 -0.6041390400000001 -0.141083 -0.03698 -0.219924
16200 0.37960776 9.705670650000002 -0.6649218 -0.120501 0.007788 -0.244406
16220 0.55968993 9.93304683 -0.7044364800000001 -0.051572 -0.056485 -0.215
16240 0.77209605 9.938579670000001 -0.66760974 0.044401 -0.223329 -0.132931
16260 0.6408186300000001 9.69818562 -0.6620769 0.06769700000000001 -0.431415 -0.064136
16280 0.61806924 9.81239364 -0.7030925100000001 0.060514 -0.564712 -0.023423
16300 0.80173206 9.9605835 -0.6723970199999999 0.09264 -0.5816939999999999 -0.066974
16320 1.02282003 9.78485697 -0.62390619 0.194556 -0.705575 -0.07785399999999999
16340 1.0565075700000002 9.65461941 -0.6403673700000001 0.293813 -1.123705 -0.028554000000000006
16360 0.9262700100000001 9.77797035 -0.69724575 0.370045 -1.437378 0.025791
16380 0.7969447800000001 9.995016600000001 -0.63139122 0.427662 -1.173492 0.051493
16400 0.7824259800000002 10.007887320000002 -0.49591512000000004 0.421284 -0.671812 0.073238
16420 0.89768367 9.715843620000001 -0.32617269000000004 0.438869 -0.280013 0.113451
16440 0.86384898 9.810304109999999 -0.31270356000000005 0.396504 0.06512799999999999 0.15223699999999998
16460 0.82837602 10.16655426 -0.36853227000000005 0.296319 0.539618 0.128497
16480 0.88061427 10.1253915 -0.26150517 0.114784 0.909114 0.058389
16500 0.7234482600000001 9.816141060000001 -0.10792962 -0.030027 0.908811 -0.0067150000000000005
16520 0.49427685 9.74952135 -0.025898400000000002 0.030519 0.615634 -0.002712
16540 0.32722236 10.0442628 -0.02963601 0.106839 0.462143 -0.045779
16560 0.29429019 10.169703270000001 -0.08083440000000001 0.128994 0.336644 -0.115967
16580 0.33246090000000006 9.88424208 -0.27767205 0.125743 0.033273000000000004 -0.171148
16600 0.48155328000000003 9.69115185 -0.46837845000000006 0.150279 -0.208614 -0.17494
16620 0.47900268000000007 9.82601973 -0.53783325 0.14991 -0.267298 -0.151366
16640 0.30252078000000004 10.274336730000002 -0.54292464 0.166553 -0.344129 -0.132992
16660 0.26375166 10.67295627 -0.44757144 0.189091 -0.29846500000000004 -0.116869
16680 0.3179421 10.42477308 -0.47646189000000005 0.15172 -0.024732 -0.073684
16700 0.41853384000000005 9.811049670000001 -1.25543475 0.089058 0.093511 -0.018726
16720 0.5144756400000001 9.1937358 -2.1933884700000004 0.079286 -0.100662 0.06264
16740 0.5783976000000002 9.362281410000001 -2.55593664 0.132109 -0.413136 0.104002
16760 1.4855086800000001 9.49161645 -2.4727086000000003 0.19667 -0.563425 0.06939400000000001
16780 2.4727086000000003 8.60845158 -2.09504322 0.221625 -0.5535909999999999 -0.013766
16800 3.1985505 8.142918029999999 -1.13388885 0.216574 -0.548016 -0.071492
16820 3.6206748 8.569525500000001 -0.34353639 0.189859 -0.5522050000000001 -0.066332
16840 3.22698969 8.979524640000001 -0.29623257000000003 0.1657 -0.42128 -0.019667
16860 2.516265 9.023532300000001 -0.8137100700000001 0.107693 -0.227375 0.024544
16880 1.8277011 9.365577570000001 -1.29316401 0.099647 -0.102774 0.040352
16900 0.93016458 11.71778013 -1.2873270600000002 0.104131 -0.072889 0.022185
16920 0.13905675 13.160782080000002 -1.2031965 0.100901 -0.105794 -0.004501
16940 -0.8978308200000001 10.80557766 -1.35109206 0.095486 -0.137678 -0.018385
16960 -1.0548594900000001 9.26453457 -2.14668306 0.0997 -0.14835 -0.017273
16980 -0.71042058 8.82699876 -2.40983631 0.111556 -0.115393 -0.010823
17000 -0.09370512 9.00991602 -2.0915999100000002 0.111455 -0.127154 -0.000127
17020 0.58528422 9.44431263 -1.47862206 0.094208 -0.168631 -0.002331
17040 0.9617527800000001 9.84113694 -0.94078881 0.064441 -0.150396 -0.007903
17060 0.9023238000000001 9.88079877 -0.8867553300000001 0.047414 -0.139688 -0.006967
17080 0.71042058 9.77976558 -0.9786652200000001 0.03875 -0.175847 -0.014459
17100 0.76715181 10.041869160000001 -0.8960355900000001 0.023723 -0.210889 -0.029474
17120 0.47780586 9.72064071 -1.1648786400000002 -0.012191 -0.146782 -0.045831
17140 -0.31464594 9.52903179 -1.76692815 -0.021433 -0.11141600000000003 -0.090806
17160 -0.8684891100000001 9.58247667 -2.16315405 -0.054333000000000006 -0.110086 -0.128425
17180 -0.91698975 9.56286648 -2.0430992700000004 -0.061791999999999986 -0.093075 -0.113544
17200 -0.44862111000000005 9.621088830000001 -1.65585933 -0.05849 -0.019788 -0.06234
17220 0.24369021 9.76688505 -1.25409078 -0.070073 0.023891 -0.052863
17240 0.87089256 9.80760636 -1.17939744 -0.044564 -0.032517000000000004 -0.087864
17260 0.9108585 9.72662481 -1.26427356 -0.032339 0.028354 -0.135926
17280 0.37886220000000004 9.83140542 -1.48700961 -0.05648400000000001 0.10836400000000003 -0.143675
17300 -0.31734369000000007 10.05294465 -1.71768195 -0.07277 0.090131 -0.0989
17320 -0.56792052 9.819133110000001 -1.9981989000000002 -0.117904 0.08469299999999999 -0.031911
17340 -0.52271604 9.63141876 -2.2065633 -0.163899 0.086869 -0.003393
17360 -0.44981793 9.589961700000002 -2.02304763 -0.102054 0.089806 0.007718000000000002
17380 -0.32272938000000007 9.64713438 -1.8582396300000001 -0.017657 0.12780999999999998 0.021077
17400 -0.25147935000000005 9.65193147 -1.9399667400000002 -0.009386 0.069191 0.02121
17420 -0.34817652000000004 9.68470668 -2.20297284 0.0016350000000000002 -0.086392 0.024691
17440 -0.39233133000000003 9.7490799 -2.20821138 -0.0020350000000000004 -0.148336 0.067474
17460 -0.33320646000000004 9.82542132 -2.21419548 -0.007911 -0.20185 0.134799
17480 -0.25716915 9.7929306 -2.32616682 0.033016000000000004 -0.306578 0.182221
17500 -0.32782077000000004 9.699980850000001 -2.35625409 0.0841 -0.424639 0.09193
17520 -0.25521696000000005 10.158176520000001 -2.38034745 0.121235 -0.608507 -0.046443
17540 -0.11630736000000001 9.811343970000001 -2.30595822 0.06564299999999999 -0.685868 -0.099075
17560 0.20551950000000002 9.954295290000001 -2.25506394 0.024049 -0.648575 -0.065231
17580 0.19054944000000001 9.79562835 -2.14369101 -0.014046 -0.551613 -0.037847000000000006
17600 -0.17753157 9.52005564 -2.1862075500000007 -0.109375 -0.5558609999999999 0.041609
17620 -0.42901092 9.7029729 -2.28395439 -0.118548 -0.6179359999999999 0.121741
17640 -0.8243343 9.906844320000001 -2.20671045 -0.022808 -0.675813 0.12675699999999998
17660 -0.8628091200000001 9.882750960000001 -2.08666548 0.063104 -0.803883 0.111498
17680 -0.51882147 9.77467419 -1.7078032800000003 0.105266 -0.912711 0.117273
17700 0.025143030000000004 9.707917140000001 -1.32968664 0.122225 -0.922417 0.132359
17720 0.33021441000000007 9.649233720000002 -1.42069401 0.137166 -0.8779030000000001 0.176203
17740 0.26001405 9.72213183 -1.77829794 0.09132 -0.8458870000000001 0.201479
17760 -0.004188870000000001 9.53412318 -1.7893832400000003 -0.024067 -0.652638 0.192948
17780 -0.33904341000000005 9.37575054 -1.7053998300000002 -0.15279600000000002 -0.35171 0.174572
17800 -0.38335518 9.53472159 -1.9570263300000001 -0.143738 -0.256846 0.153149
17820 -0.34159401 9.67827132 -1.90389537 -0.1056 -0.40576 0.063876
17840 -0.36898353 9.699529590000001 -1.81078866 -0.091524 -0.440638 -0.017166
17860 -0.6723970199999999 9.66210444 -1.78219251 -0.079036 -0.339215 -0.083439
17880 -1.20080286 9.49865022 -1.7805444300000002 -0.07495399999999999 -0.199451 -0.140205
17900 -1.4431491 9.64219995 -1.9020903300000003 -0.05705 -0.055533000000000006 -0.181925
17920 -0.9147432600000001 8.722659600000002 -1.62996093 -0.038534 0.030681 -0.17977
17940 -0.93091014 9.96163317 -1.5370013700000003 -0.066095 0.095657 -0.154408
17960 -0.65309094 10.74031173 -1.5846093 -0.072314 0.201942 -0.088358
17980 -0.41059755000000003 10.471625640000001 -1.4768268300000003 -0.061277 0.345468 -0.026508
18000 -0.08083440000000001 9.860590170000002 -1.48177107 -0.017593 0.345264 -0.013384
18020 -0.37960776 9.43891713 -1.46829213 0.035304 0.253435 -0.005419
18040 -0.77613777 9.40688748 -1.6938730800000001 0.060789 0.246873 0.015063
18060 -0.92088432 9.14373423 -2.0570196600000004 0.044161 0.327961 -0.002248
18080 -1.01009646 9.33324381 -2.28214935 0.030164 0.519829 -0.019683000000000003
18100 -0.66102723 9.700579260000001 -2.3572939500000003 -0.0008349999999999999 0.7192430000000001 -0.044725
18120 -0.12857967 9.596995470000001 -2.1874043700000003 -0.041772 0.8197190000000001 -0.094278
18140 0.36883638 9.572293890000001 -1.82650428 -0.076484 0.8765139999999999 -0.148004
18160 0.32586858 10.859022540000002 -1.8935654400000002 -0.098721 0.8820469999999999 -0.180213
18180 0.14998509000000002 10.737172529999999 -1.78279092 -0.100931 0.849095 -0.196209
18200 0.23785326 10.31504823 -1.4533318800000001 -0.095558 0.826829 -0.227122
18220 0.48498678000000006 9.48353301 -1.5039220500000001 -0.100018 0.785295 -0.226032
18240 0.47450970000000003 9.43608204 -1.89505656 -0.091929 0.7456119999999999 -0.166104
18260 0.28695231 9.52708941 -2.2246725600000006 -0.071572 0.784875 -0.145716
18280 0.2311236 9.53906742 -2.3373894600000003 -0.073523 0.8359719999999999 -0.135113
18300 0.47526507 9.46616931 -2.15028333 -0.052565 0.79206 -0.094317
18320 0.8195470199999999 9.249711660000001 -1.84147434 -0.028219 0.758912 -0.084491
18340 0.9157929300000001 9.46751328 -1.77186258 -0.029161000000000006 0.7505390000000001 -0.120806
18360 0.68497344 9.763451550000001 -1.8857763000000003 -0.056784 0.7433109999999999 -0.154105
18380 0.31749084 9.75372003 -2.03860629 -0.076825 0.794515 -0.15431
18400 0.06615864 9.56810502 -2.19503655 -0.085106 0.8340270000000001 -0.171511
18420 0.11197134000000002 9.409428270000001 -2.07169542 -0.093693 0.793692 -0.200361
18440 0.11810259 9.53412318 -2.14099326 -0.104443 0.769254 -0.206814
18460 0.37377081000000006 9.708957000000002 -2.21419548 -0.117255 0.7788390000000001 -0.195165
18480 0.7054861499999999 9.938736630000001 -1.94250753 -0.118591 0.7128220000000001 -0.201499
18500 0.88331202 10.035129690000002 -1.58535486 -0.093542 0.619931 -0.170227
18520 0.7697024100000001 9.991573290000002 -1.56110454 -0.073588 0.553797 -0.16573
18540 0.5213622600000001 9.795334050000001 -1.7238132000000002 -0.088018 0.454674 -0.140066
18560 0.15328125 9.759252870000001 -1.7925224400000002 -0.047192000000000005 0.314842 -0.105419
18580 -0.15971661 9.73396269 -1.9279887300000003 -0.02753 0.209191 -0.075236
18600 -0.35655426000000007 9.63396936 -2.06435754 -0.054465 0.147511 -0.07855
18620 -0.44487369000000004 9.62962353 -2.1489295500000005 -0.060862 0.099793 -0.127671
18640 -0.66102723 9.70776018 -2.10626586 -0.06589400000000001 0.090531 -0.204607
18660 -1.0326987 9.72258309 -1.8628797600000002 -0.117605 0.14851099999999998 -0.273408
18680 -1.07132067 9.851015610000001 -1.9264976100000002 -0.136492 0.227373 -0.265096
18700 -0.67434921 9.671688810000001 -1.79417052 -0.178099 0.254044 -0.238715
18720 -0.6474011400000002 9.70940826 -1.6591456800000002 -0.177994 0.29551700000000003 -0.22060700000000005
18740 -0.7461976499999999 9.801171 -1.5926927400000002 -0.181286 0.260434 -0.235541
18760 -0.68063742 9.75731049 -1.55945646 -0.151778 0.228175 -0.186155
18780 -0.5822921700000002 9.76688505 -1.53924786 -0.100583 0.268302 -0.142052
18800 -0.5761511099999999 9.87196977 -1.40378157 -0.040122000000000005 0.23700900000000005 -0.094587
18820 -0.58348899 9.822272309999999 -1.3777360200000002 -0.022977 0.07903500000000001 -0.03124
18840 -0.59276925 9.820928339999998 -1.52262972 0.022332 0.010468 0.026848
18860 -0.7351221600000001 9.90640287 -1.5476354099999998 0.07223500000000001 -0.002653 0.06780599999999999
18880 -0.88391043 10.06806186 -1.6281657 0.08289400000000001 -0.011186 0.061482
18900 -0.6634208699999999 9.27695403 -1.4748844500000002 0.092462 -0.00064 0.079695
18920 -1.15005573 9.83320065 -1.3883602500000003 0.073273 0.011111 0.08809199999999999
18940 -1.2769971300000003 9.765246780000002 -1.4319264600000001 0.045587 0.034597 0.099619
18960 -1.13689071 9.49640373 -1.4296799699999998 0.047836 0.066522 0.106003
18980 -1.14421878 9.55717668 -1.3060347300000001 0.041478 0.06764400000000001 0.097411
19000 -1.08853722 9.72183753 -1.40512554 0.027652 0.061365 0.081299
19020 -0.89708526 9.98124336 -1.37668635 0.038393 0.063513 0.067485
19040 -0.6375224700000001 9.94053186 -1.5214329000000002 0.028407 0.000607 0.089928
19060 -0.43394535 9.82901178 -1.7687233800000002 0.00562 -0.049523000000000005 0.125085
19080 -0.34772526 9.70192323 -1.42308765 0.027254 -0.0005269999999999999 0.108081
19100 -0.37302525000000003 9.67438656 -1.27684017 0.030661 0.0007059999999999999 0.063238
19120 -0.35371917 9.984088259999998 -1.5645478499999999 0.005191 0.020013 0.052353
19140 -0.52795458 9.67154166 -1.5826571100000002 -0.025696 0.057303 0.077727
19160 -0.64950048 9.84831786 -1.71587691 -0.029402 0.171344 0.066873
19180 -0.9015782400000001 9.72153342 -1.66827879 -0.054772 0.202411 0.045292
19200 -1.07146782 9.52034994 -1.63624914 -0.059351 0.143794 0.056017
19220 -0.84439575 9.2170836 -1.5670886400000001 -0.056376 0.111752 0.074239
19240 -0.59485878 9.29971323 -1.6507679400000002 -0.048119 0.048876 0.073309
19260 -0.70473078 9.4920579 -1.50930774 -0.043005 -0.003328 0.070207
19280 -0.73781991 9.28144701 -1.3639627800000003 -0.045393 -0.048108 0.081998
19300 -0.7801794900000001 9.760155390000001 -1.5025780800000001 -0.054168 -0.081183 0.102275
19320 -0.7625116799999999 9.791292330000001 -1.47653253 -0.081968 -0.08114099999999999 0.115968
19340 -0.6474011400000002 9.803260530000001 -1.46096406 -0.06692200000000001 -0.072607 0.100038
19360 -0.82897443 9.926307360000001 -1.21847067 -0.056095000000000006 -0.05765 0.079799
19380 -1.0041123600000001 9.64249425 -1.2156257700000002 -0.082666 -0.035186 0.079584
19400 -1.09347165 9.573941970000002 -1.4329663200000002 -0.104075 -0.015017 0.115728
19420 -1.19585862 9.751473540000001 -1.51125993 -0.08505900000000001 -0.009945 0.162857
19440 -1.1064993300000001 9.727674480000001 -1.4154554700000002 -0.047733 0.045084 0.221799
19460 -1.03465089 9.80086689 -1.5021268200000002 -0.021773 0.152471 0.250685
19480 -1.3986901800000002 9.94501503 -1.62996093 -0.006053 0.15216400000000002 0.31382
19500 -1.4256382500000002 9.708809850000002 -1.52786826 0.018063 0.096531 0.352516
19520 -1.10035827 9.81299205 -1.46859624 0.022651 0.167889 0.352456
19540 -0.9174410100000001 9.76508982 -1.39883733 -0.009616 0.28330900000000003 0.28799
19560 -0.8372050200000001 9.847719450000001 -1.4283261900000002 -0.069866 0.32858200000000004 0.207394
19580 -1.13553693 10.008034470000002 -1.3611178800000001 -0.179068 0.402784 0.12748800000000002
19600 -1.22460192 9.78904584 -1.4004854100000002 -0.306224 0.533446 0.063407
19620 -1.1563439400000002 9.851015610000001 -1.4238430200000003 -0.412133 0.672439 0.028306
19640 -1.27279845 9.83454462 -1.5383551500000001 -0.5537380000000001 0.736851 0.027235
19660 -1.1088929699999999 9.66690153 -1.50856218 -0.6143529999999999 0.786044 0.032089
19680 -0.8255311200000001 9.73560096 -1.2609774000000002 -0.484038 0.7793640000000001 -0.008653000000000001
19700 -0.7770304800000001 9.56795787 -0.96878655 -0.406962 0.598005 -0.010018
19720 -1.0591955100000001 9.55732383 -1.1696659200000001 -0.4164890000000001 0.399807 0.012602
19740 -1.30184586 9.879003540000001 -1.48775517 -0.419582 0.257848 0.084333
19760 -1.18418472 9.56226807 -1.52786826 -0.414861 0.174526 0.13788399999999998
19780 -1.0788057 10.12584276 -1.62232875 -0.35081100000000004 0.240119 0.195931
19800 -0.8587674 9.7869465 -1.68384726 -0.305667 0.34742199999999995 0.229224
19820 -0.7982887500000001 9.492960420000001 -1.6826504400000002 -0.375095 0.3147 0.213826
19840 -0.76535658 9.61166142 -1.9091339100000002 -0.397705 0.296558 0.241465
19860 -0.80457696 9.67498497 -2.2125474 -0.266466 0.326882 0.270116
19880 -0.63483453 9.54370755 -2.42181432 -0.16605699999999998 0.395607 0.31239
19900 -0.36479466 9.50793048 -2.12228559 -0.116665 0.4859020000000001 0.332916
19920 -0.28515708 9.480384 -1.90134477 -0.159099 0.510668 0.303746
19940 -0.2817137700000001 9.76404996 -1.91392119 -0.254753 0.5293640000000001 0.240029
19960 -0.13831119 10.108027800000002 -1.6542112500000001 -0.339862 0.52457 0.180688
19980 0.27977139 10.20323385 -1.30228731 -0.402653 0.515378 0.136464
20000 0.71955369 10.29828294 -0.92836935 -0.445112 0.5125350000000001 0.084897
20020 0.83780343 10.396176930000003 -0.82043973 -0.422946 0.650068 0.037873
20040 0.6273495000000001 10.151289900000002 -0.95666139 -0.395011 0.67667 0.020943
20060 0.10912644 10.138115070000001 -1.40751918 -0.377807 0.701133 0.015691
20080 -0.26210358 9.72961686 -1.64807019 -0.364105 0.680776 0.032904
20100 -0.30701375999999997 9.0784683 -1.16113122 -0.335477 0.656115 0.048091
20120 -0.13501503 9.22397022 -0.72239859 -0.303519 0.646412 0.049394
20140 0.07739109000000001 9.57094992 -0.67569318 -0.293898 0.6124430000000001 0.011049
20160 0.06392196 9.656414640000001 -0.66102723 -0.28732 0.6189439999999999 -0.022028
20180 -0.03098979 9.516612330000001 -0.5465151 -0.297008 0.619962 -0.001801
20200 0.14055768000000002 9.872715330000002 -0.30117681 -0.308767 0.59664 -0.020013
20220 0.33500169 10.06836597 0.04281084 -0.352868 0.5020439999999999 -0.035155
20240 0.33859215 10.09261629 -0.33036156 -0.400299 0.397795 -0.03108
20260 0.7683486300000001 9.920774520000002 -0.6611743800000001 -0.43973 0.387361 -0.051638
20280 0.5783976000000002 9.35974062 -0.18621342 -0.449044 0.40887 -0.094459
20300 0.14010642 9.46256904 -0.006582510000000001 -0.409455 0.425811 -0.10275
20320 0.39053610000000005 9.41302854 0.029488860000000002 -0.412555 0.44607 -0.104934
20340 0.34578288 9.53950887 -0.09924777 -0.454062 0.4632810000000001 -0.110587
20360 0.48498678000000006 9.756564930000001 -0.25970994000000003 -0.507084 0.534841 -0.11105
20380 0.6051887100000001 10.13272938 -0.32617269000000004 -0.5418729999999999 0.607482 -0.131682
20400 0.5553441 10.12285071 -0.29398608000000004 -0.539212 0.694946 -0.161686
20420 0.5405211900000001 10.038425850000001 -0.17887554 -0.468373 0.773593 -0.177315
20440 0.5343899400000001 10.0559367 -0.01511721 -0.317327 0.8616809999999999 -0.225511
20460 0.48768453 9.74129076 0.23591088000000002 -0.19492 0.83978 -0.182967
20480 0.38275677 9.771525180000001 0.56282913 -0.156003 0.715011 -0.183604
20500 0.33305931000000005 9.684559530000001 0.7806307500000002 -0.116167 0.610264 -0.130848
20520 0.19459116000000004 9.76060665 0.9891423 -0.07709099999999999 0.58537 -0.06645
20540 0.12708855 9.60238116 0.97956774 -0.18727 0.513346 -0.07460499999999999
20560 0.17004654 9.53277921 0.96204708 -0.264736 0.400568 -0.042955
20580 0.29982303 9.829158930000002 0.97357383 -0.262986 0.342926 -0.015095
20600 0.44053767000000005 10.13602554 0.93869928 -0.20017 0.371238 0.042991
20620 0.5364892800000001 10.176442740000002 0.9457330500000001 -0.115735 0.478241 0.117151
20640 0.87852474 9.93364524 0.99153594 -0.073811 0.60888 0.17816500000000002
20660 1.12355892 9.88589016 0.9370512 -0.066189 0.6694680000000001 0.204847
20680 1.1687732100000001 10.186164450000001 1.03479804 0.009817 0.7585569999999999 0.23731
20700 1.17550287 9.63277254 1.20798378 0.036244 0.727478 0.261035
20720 1.23822801 9.847121040000001 1.53910071 0.084478 0.755096 0.238904
20740 1.06398279 9.97585767 1.85599314 0.15853699999999998 0.770089 0.155013
20760 0.8753757300000001 10.0063962 1.9428116400000002 0.230986 0.867251 0.036822
20780 0.8129547 10.003100040000001 2.15072478 0.217047 1.01673 -0.036106
20800 0.7295795100000001 9.755809560000001 2.1911419800000003 0.164698 1.011544 -0.025783
20820 0.6243476400000001 9.57334356 2.2658353200000003 0.11843499999999997 0.971041 0.019879
20840 0.55190079 9.48368016 2.2829047200000003 0.076029 1.03615 0.024841
20860 0.50879565 9.46062666 2.2676305500000007 0.072982 1.081921 0.036511
20880 0.62659413 9.684108270000001 2.2671891000000004 0.07583200000000001 1.024304 0.056901
20900 0.09655002 9.799522920000001 2.18365695 0.06094400000000001 0.939519 -0.039234
20920 0.15612615000000002 9.69084774 2.10028176 -0.043786 0.838931 -0.101794
20940 0.054936000000000006 9.63052605 2.33020854 -0.181895 0.766834 -0.067415
20960 -0.24698637000000004 9.63845253 2.7415516500000003 -0.185254 0.785802 -0.012983
20980 0.2484873 9.50418306 2.73765708 -0.125275 0.836731 -0.013697999999999998
21000 0.48902850000000003 9.61914645 2.7762790500000003 -0.103904 0.854723 -0.002889
21020 0.49292307 9.41018364 2.9207214900000005 -0.116687 0.8622120000000001 0.000217
21040 0.16211025 9.28459602 2.93195394 -0.068855 0.808836 -0.013268
21060 -0.01586277 9.23190651 2.82117942 0.008791 0.737268 -0.031862
21080 0.18920547 9.18010971 2.57299623 0.036462 0.712708 -0.041251
21100 0.36269532000000004 9.234300150000001 2.4508519200000007 0.002428 0.7341409999999999 -0.043653
21120 0.27557271000000005 9.01964754 2.5584774300000004 -0.030760000000000006 0.71824 -0.03425
21140 -0.37257399 10.006994610000001 2.4379812 -0.037123 0.721479 -0.03964
21160 -0.27872172 9.453445740000001 2.39666148 -0.023139 0.7554850000000001 -0.03104
21180 -0.19908414 9.548347680000001 2.37017448 -0.030669 0.769249 -0.003336
21200 0.13936086 9.40434669 2.5881134400000003 -0.041707 0.7562260000000001 0.066038
21220 0.34832367 9.286989660000001 2.6364669300000005 -0.047659 0.681425 0.129117
21240 0.02006145 9.33473493 2.37586428 -0.053598 0.5854159999999999 0.167655
21260 -0.2803698 9.656120340000001 2.0966913000000007 -0.049786 0.5075430000000001 0.191282
21280 -0.37018035000000005 9.93453795 2.3755601700000004 -0.034128 0.453069 0.213894
21300 -0.4397823 9.93903093 2.96473896 -0.036544 0.418873 0.242763
21320 -0.5276504700000001 9.90415638 2.7928873800000003 -0.03875 0.399719 0.239567
21340 -0.37601730000000005 9.51077538 2.48603058 -0.05804500000000001 0.345594 0.205319
21360 -0.38544471 9.723632760000001 2.4783984000000006 -0.016849 0.20715100000000006 0.158782
21380 -0.48873420000000006 9.68126337 2.59964019 0.072393 0.109954 0.145643
21400 -0.54531828 9.65776842 2.42855379 0.16917100000000002 0.01173 0.116535
21420 -0.5870794500000001 9.60792381 1.9862208900000002 0.241305 -0.1056 0.091551
21440 -0.71356959 9.38234286 1.8965574900000002 0.258852 -0.243057 0.085441
21460 -0.63467757 9.40882986 1.9028457 0.225631 -0.30249000000000004 0.058579
21480 -0.52181352 9.44416548 1.90329696 0.164978 -0.311686 0.013302
21500 -0.54831033 9.52020279 1.7775523800000002 0.10954 -0.325251 -0.0095
21520 -0.92059002 9.648341010000001 1.7480635200000003 0.06490399999999999 -0.271891 0.005075
21540 -1.1329961400000002 9.79038981 1.85793552 0.069114 -0.242249 0.047795
21560 -1.01473659 9.93678444 1.9184141700000001 0.091307 -0.236148 0.101353
21580 -0.80038809 9.80057259 1.9589785200000003 0.048426 -0.324246 0.058438
21600 -0.71805276 9.59250249 2.0368110600000007 -0.022183 -0.398445 0.027061
21620 -0.76356135 9.552987810000001 2.13531327 -0.00197 -0.399628 0.038954
21640 -0.8716381200000001 9.667647089999999 2.19503655 0.07369099999999999 -0.407396 0.051243
21660 -0.9666872100000001 9.584723160000001 2.1661461 0.092837 -0.463747 0.007652
21680 -1.0897340400000002 9.30824793 2.0446002 0.110506 -0.43781 -0.100148
21700 -1.2798420300000002 9.09044631 1.90254159 0.031996 -0.269615 -0.268623
21720 -1.5057172800000003 9.076525920000002 1.8826371000000002 -0.054352 -0.32867 -0.343926
21740 -1.78084854 9.203016060000001 1.84581036 -0.04505 -0.568647 -0.27946
21760 -1.81587024 9.45104229 1.8841282200000002 -0.043196 -0.7788729999999999 -0.189447
21780 -1.93068648 9.7029729 1.88981802 -0.06468 -0.999508 -0.140176
21800 -1.89670464 9.53921457 1.9431059400000001 -0.12673 -1.07796 -0.181102
21820 -2.18291139 9.2284632 1.98442566 -0.192898 -0.978123 -0.315219
21840 -2.4550407900000004 9.23384889 1.8467128800000001 -0.157727 -0.868042 -0.434756
21860 -2.43169299 9.25630398 1.58999499 -0.084888 -0.837267 -0.468469
21880 -1.9636186500000001 9.37680021 1.54807686 0.020434 -0.842144 -0.405771
21900 -1.4443459200000002 9.37889955 1.7006125500000002 0.067762 -0.906577 -0.317763
21920 -1.01204865 9.43577793 1.85614029 0.029583 -1.069526 -0.29432
21940 -0.7566747300000001 9.56211111 1.90105047 -0.014012 -1.274969 -0.29543
21960 -0.64904922 9.68126337 1.98531837 0.006381 -1.461558 -0.271547
21980 -0.46074627 9.628132410000001 2.1263273100000006 0.048106 -1.580322 -0.178168
22000 -0.3844048500000001 10.118808990000002 2.13515631 0.114432 -1.62803 -0.027025
22020 -0.38844657000000005 10.21400523 2.0392047 0.168796 -1.66953 0.180643
22040 -0.55983708 9.80760636 1.8622813500000002 0.151506 -1.5784200000000002 0.321411
22060 -1.1976636600000001 9.17592084 1.7065966500000003 0.069463 -1.499525 0.376284
22080 -1.71244341 9.48217923 1.7699202 0.002663 -1.432081 0.351162
22100 -1.93922118 9.93393954 1.94879574 0.011598 -1.16343 0.293196
22120 -1.9981989000000002 10.370131380000002 2.1914460900000003 0.135095 -0.770679 0.27005500000000005
22140 -2.02364604 10.389594420000002 2.24234037 0.278687 -0.580696 0.321021
22160 -1.7610912000000003 9.61959771 1.49404338 0.360687 -0.59597 0.339773
22180 -1.5058644300000001 8.828793990000001 1.18958022 0.316276 -0.481932 0.364954
22200 -1.39150926 8.84735451 1.58954373 0.17931 -0.152063 0.309095
22220 -1.32040638 9.69010218 1.93173615 0.189662 0.198592 0.255307
22240 -1.10260476 10.491078869999999 2.3571468 0.380493 0.337746 0.189164
22260 -0.7762849200000002 10.528504020000002 2.7366074100000004 0.610916 0.192628 0.049954000000000005
22280 -1.02432096 9.920617560000002 2.87027847 0.617958 0.039438 -0.008553
22300 -1.35393696 9.723927060000001 2.5361793000000006 0.523767 -0.033716 -0.014458000000000004
22320 -1.43551692 9.334136520000001 1.8690110100000001 0.369509 -0.366785 0.028688
22340 -1.22775093 9.25704954 1.5135064200000001 0.261723 -0.8012319999999999 0.075494
22360 -0.79005816 9.44326296 1.59433101 0.322306 -1.077398 0.088021
22380 -0.48962690999999997 9.36018207 1.79087436 0.477575 -1.206763 0.07004400000000001
22400 -0.5298969600000001 9.206606520000001 1.91945403 0.6348010000000001 -1.143297 0.046492
22420 -0.43305264000000004 8.92698228 2.0104712100000004 0.7041350000000001 -0.910239 0.045609
22440 -0.10269108 8.43645285 2.1136037400000003 0.685967 -0.67583 0.049455
22460 0.6694049700000001 7.900120530000001 2.3556556800000004 0.645987 -0.506491 0.093824
22480 1.1651729400000002 8.05954284 2.7324185400000003 0.520987 -0.466955 0.171948
22500 0.8422964100000001 8.828941140000001 3.1193641800000007 0.34617 -0.414222 0.189888
22520 0.14594337000000002 9.60642288 3.21366771 0.244355 -0.272214 0.196472
22540 -0.6412698900000001 10.21894947 3.1043941200000003 0.25250900000000004 -0.1337 0.182465
22560 -1.36307007 10.041869160000001 2.58736788 0.304838 -0.134897 0.170013
22580 -1.0627859700000002 9.29641707 1.79850654 0.393047 -0.222511 0.15899100000000002
22600 0.08831943 9.16394283 1.2633710399999998 0.474793 -0.328196 0.143674
22620 1.21247676 9.80131815 1.3046907600000002 0.464345 -0.349182 0.073125
22640 1.9320304500000003 10.936256670000002 1.7435705400000001 0.396343 -0.36249 -0.003176
22660 2.406393 12.09275757 2.2552110900000004 0.351912 -0.573029 -0.060901
22680 2.27975571 11.98602477 2.6695462500000002 0.366287 -0.712571 -0.07557699999999999
22700 1.1737076400000002 10.216555829999999 2.76699879 0.370559 -0.7125819999999999 -0.076615
22720 -0.29967588 9.06619599 2.23380567 0.32355500000000004 -0.720961 -0.07159199999999999
22740 -1.45033002 8.72445483 1.48401756 0.225389 -0.722753 -0.071207
22760 -1.81153422 8.52522354 0.90397188 0.193891 -0.6033569999999999 -0.06517
22780 -1.10724489 8.75798541 0.5921708400000001 0.208389 -0.44688 -0.048178
22800 0.01302768 9.274864500000001 0.6032463299999998 0.232869 -0.440651 -0.028787
22820 0.56163231 9.512717760000001 0.40101318 0.253067 -0.454579 -0.026492
22840 0.7144623 9.628279560000001 0.38080458 0.255383 -0.400313 -0.012658
22860 0.6203059200000002 10.06416729 0.46433673000000003 0.214814 -0.402319 -0.008666
22880 0.57959442 10.31504823 0.70173873 0.201781 -0.470383 -0.025762
22900 1.17550287 10.705290030000002 0.76535658 0.231567 -0.510882 -0.046866000000000005
22920 1.75390047 10.59616359 0.6911145000000001 0.26350100000000004 -0.543949 -0.063692
22940 1.7552542500000001 10.377018000000001 0.59920461 0.274992 -0.591953 -0.057141
22960 1.5825099599999999 10.298430090000002 0.66387213 0.259282 -0.534343 -0.064802
22980 1.07910981 9.70087356 0.76775022 0.226367 -0.493768 -0.059743
23000 0.7403607000000001 9.214385850000001 0.84724065 0.20058 -0.52461 -0.05027
23020 0.86669388 9.06499917 0.44936667 0.15920299999999998 -0.47121 -0.048491
23040 1.02147606 9.36601902 -0.25911153 0.120031 -0.391228 -0.036048
23060 0.68931927 9.496698030000001 -0.83990277 0.119997 -0.384892 -0.022169
23080 0.14654178 9.7260264 -1.00875249 0.13893699999999998 -0.448853 -0.027296
23100 -0.20702043 10.10533986 -0.7819747200000001 0.137005 -0.446545 -0.070042
23120 -0.02080701 10.296634860000001 -0.16121754000000002 0.08835599999999999 -0.37809 -0.097175
23140 0.3844048500000001 10.14500169 0.24444558 -0.002145 -0.33411 -0.094659
23160 0.6333336 9.799522920000001 0.03233376 -0.010201 -0.243469 -0.110854
23180 0.9078664500000001 9.822272309999999 -0.33634566000000005 0.062054999999999985 -0.124196 -0.163914
23200 1.04018373 9.995310900000002 -0.54262053 0.041967 -0.052876 -0.133167
23220 1.10350728 9.92570895 -0.44068482 -0.022982 -0.005849 -0.115521
23240 1.1139843600000001 9.69219171 -0.41344245 0.02419 0.047241000000000005 -0.113123
23260 1.21442895 9.88858791 -0.5307994800000001 0.08415 0.104518 -0.103164
23280 1.2627726300000002 9.83948886 -0.6009998400000001 0.113351 -0.007587999999999998 -0.065428
23300 0.9843550200000001 9.640699020000001 -0.9575541000000001 0.116063 -0.096097 -0.045
23320 0.77014386 9.61959771 -1.2117312 0.138256 -0.115461 -0.017046000000000002
23340 0.6617727900000001 9.71854137 -1.09647351 0.162592 -0.13058 0.013053
23360 0.71206866 9.77946147 -1.0334540700000001 0.179403 -0.18392 0.017512
23380 0.82792476 9.64624167 -1.03659327 0.171988 -0.17642 0.013178
23400 0.83825469 9.909542069999999 -1.1627793 0.147743 -0.096499 0.027861
23420 0.8482903200000002 9.7582032 -1.34270451 0.107427 -0.029313 0.044585
23440 0.9139977 9.927052920000001 -1.2814803000000001 0.069236 0.014514 0.039989
23460 1.08014967 10.2150549 -1.05216174 0.055366999999999986 0.009257 0.034558
23480 0.9547190100000001 10.06492266 -1.09407006 0.07918700000000001 0.063597 0.011154
23500 0.7174543500000001 9.727674480000001 -1.3052891699999998 0.085603 0.069954 0.014394999999999996
23520 0.66222405 9.693094230000002 -1.4780236500000004 0.029963 0.026502 0.006585
23540 0.6991979400000001 9.81014715 -1.55780838 0.070336 -0.018351 -0.000553
23560 0.50669631 9.76613949 -1.76662404 0.096152 -0.016131 -0.045241
23580 0.47646189000000005 9.8936793 -1.87799697 0.077035 -0.020232 -0.06887
23600 0.49711194 10.245142170000001 -1.8709632 0.059778 -0.052167999999999985 -0.059336
23620 0.64246671 10.03273605 -1.6667876700000002 0.036494 -0.012663 -0.06168600000000001
23640 0.96340086 9.34881228 -1.10395854 0.012483 0.087626 -0.079074
23660 1.14840765 9.26079696 -1.01728719 0.008154 0.068487 -0.08442000000000001
23680 0.7253906400000001 9.90894366 -1.6079571000000001 0.018381 -0.028493 -0.083156
23700 0.33994593000000006 9.768690090000002 -1.54658574 0.026672 -0.074363 -0.074494
23720 0.050590170000000004 9.54010728 -1.38462264 0.04232 -0.124602 -0.045478
23740 -0.05747679000000001 9.75296466 -1.2578382000000001 0.0588 -0.22492 -0.014256
23760 -0.30866184 9.8358984 -1.4792204699999998 0.073539 -0.253794 0.000839
23780 -0.40999914 9.59219838 -1.5849035999999999 0.081386 -0.177091 -0.006682
23800 -0.37063161000000006 9.4516407 -1.59508638 0.075292 -0.122685 -0.020681
23820 -0.18771435 9.43503237 -1.6340026500000002 0.055309 -0.06400299999999999 -0.026237
23840 0.029488860000000002 9.62887797 -1.65390714 0.022692 0.028824 -0.03513
23860 0.15971661 9.95505066 -1.6078099500000003 -0.000372 0.113088 -0.041808
23880 0.21555513 9.978104160000001 -1.42817904 -0.0044280000000000005 0.159974 -0.041897
23900 0.24923286000000003 10.02704625 -1.33222743 -0.001213 0.157854 -0.047213
23920 0.24548544000000003 10.07030835 -1.3790799900000001 0.001748 0.097153 -0.054592
23940 0.12573477 9.81090252 -1.4278847399999999 0.008995 0.044941 -0.057679
23960 0.24174783000000002 9.44341011 -1.5304188600000002 0.021716 0.026787 -0.057566999999999986
23980 -0.13022775 10.20861954 -1.81392786 0.02905 0.005422 -0.048942
24000 -0.06660990000000001 9.57319641 -1.93308012 0.026863 0.002199 -0.040408
24020 -0.27812331 9.66210444 -1.6413405300000004 0.030246 0.050095 -0.032968
24040 -0.13921371000000002 9.743537250000001 -1.6462749600000002 0.026103 0.08735599999999999 -0.02343
24060 0.06496182 9.74698056 -1.45542141 0.034504 0.056438 -0.0244
24080 0.11286405000000001 9.727517520000001 -1.35169047 0.037522 0.005336 -0.034996
24100 0.07589016 9.81777933 -1.34959113 0.031231 0.024555 -0.040406
24120 0.18606627000000003 9.83140542 -1.3335812100000002 0.008784 0.030961 -0.024547
24140 0.21450546 9.74174202 -1.49419053 0.017016999999999997 -0.005412 0.006534999999999999
24160 -0.14849397 9.653128290000001 -1.81811673 0.033832999999999995 -0.0301 0.038731
24180 -0.37587015 9.68650191 -2.07394191 0.060289 -0.055849 0.061380999999999984
24200 -0.34787241 9.62677863 -2.24353719 0.084687 -0.07409600000000001 0.074394
24220 -0.11945637 9.71359713 -2.25760473 0.097389 -0.088023 0.08304600000000001
24240 0.17558919000000003 9.787996170000001 -2.15806266 0.098418 -0.087 0.092666
24260 0.51896862 9.82542132 -2.03396616 0.096356 -0.068891 0.094765
24280 0.6976970100000001 9.70342416 -1.8083852100000002 0.083803 -0.027246 0.080737
24300 0.63632565 9.74803023 -1.72501002 0.058529 0.024066 0.058062
24320 0.4601478600000001 9.83963601 -1.6163348400000004 0.030141 0.093503 0.034274
24340 0.38799531000000004 9.77452704 -1.60301286 0.019712 0.136193 0.023464
24360 0.23875578 9.83484873 -1.6613921699999998 0.026127 0.13830499999999998 0.022438
24380 0.004188870000000001 9.73336428 -1.76827212 0.029428 0.15536 0.017098
24400 -0.26435007 9.656571600000001 -1.8419157900000003 0.021119 0.19803 0.009508
24420 -0.36299943 9.63127161 -1.78893198 0.027688 0.228926 0.003105
24440 -0.27602397 9.624689100000001 -1.79910495 0.034142 0.223645 -0.013935
24460 -0.19578798 9.67558338 -1.8724543200000003 0.043782 0.205609 -0.04055
24480 -0.19175607 9.74473407 -1.8347348700000001 0.032099 0.196148 -0.061984
24500 -0.06392196 9.708358590000001 -1.83803103 0.014909 0.165332 -0.06633700000000001
24520 0.02410317 9.61106301 -1.9461078 0.007087 0.095016 -0.057756
24540 0.00928026 9.6423471 -1.8974502000000002 0.00031600000000000004 0.024684 -0.045963
24560 -0.07364366999999998 9.75461274 -1.9513463400000002 -0.008367 -0.0008820000000000002 -0.038513
24580 -0.0663156 9.739946790000001 -2.0119623300000002 -0.014984 -0.028638 -0.018228
24600 -0.06780672000000001 9.74593089 -1.9546326900000002 -0.011047 -0.078814 0.005365
24620 -0.045204480000000005 9.612711090000001 -1.93382568 0.002668 -0.099157 0.019374
24640 -0.19803447000000002 9.51166809 -2.08980468 -0.002757 -0.111952 0.02683
24660 -0.26913735 9.477686250000001 -2.1625556400000003 0.004855 -0.08214199999999999 0.024708
24680 -0.29593827000000006 9.41871834 -2.135911680000001 0.008246999999999999 -0.04697 0.017209000000000002
24700 -0.2689902 9.461372220000001 -2.03531994 0.005138 -0.026718 0.017162
24720 -0.08172711 9.655816230000001 -1.9740957300000002 -0.0034590000000000003 -0.042659 0.014986
24740 -0.00373761 9.7724277 -1.9220046300000002 -0.001283 -0.037323 0.010721
24760 -0.06122421 9.8216739 -1.83803103 -0.001163 -0.013875 0.0074870000000000015
24780 -0.060321690000000004 9.847719450000001 -1.77665967 -0.002254 -0.021319 0.005353
24800 0.00014715 9.83934171 -1.7805444300000002 0.003153 -0.009603 0.001103
24820 0.12364524000000002 9.81045126 -1.83383235 0.008602 0.017006 0.002175
24840 0.15806852999999998 9.87301944 -1.96421706 0.012836000000000002 0.023327 0.016083
24860 0.09325386000000001 9.816582510000002 -2.07918045 0.012711 0.008362 0.02892
24880 -0.05643693 9.78515127 -2.06540721 0.006229 -0.009725 0.028898000000000007
24900 -0.28695231 9.60687414 -1.96510977 0.007348 -0.002255 0.024623
24920 -0.43229727000000007 9.4889187 -1.9473046200000002 0.004267 0.023327 0.023501
24940 -0.5351355 9.62064738 -1.89925524 0.003167 0.020118 0.02777
24960 -0.5007122100000001 9.77976558 -1.84147434 -0.000129 0.008373 0.037376
24980 -0.41119596 9.85745097 -1.85240268 -0.005449 0.015831 0.041602
25000 -0.35161983 9.848621970000002 -1.90553364 -0.004445 0.010467 0.050162
25020 -0.35311095000000003 9.81928026 -2.00103399 0.003894 -0.02475 0.058811
25040 -0.34203546 9.822272309999999 -2.15461935 0.007037000000000002 -0.043911 0.052448
25060 -0.24997842000000003 9.74488122 -2.16913815 0.0040420000000000005 -0.021435 0.028898000000000007
25080 -0.22677777 9.633518100000002 -2.21778594 -0.008559 0.006375 0.011682
25100 -0.22632651000000004 9.61704711 -2.2643442 -0.023389 0.023497 0.005148
25120 -0.31180104000000003 9.61824393 -2.22766461 -0.031924 0.028831 0.010422
25140 -0.33155838000000004 9.57439323 -2.0588148900000003 -0.035115 0.040522 0.019999
25160 -0.22199049 9.60986619 -1.98067824 -0.029685000000000007 0.06287000000000001 0.021077
25180 -0.0047872800000000005 9.62663148 -1.96481547 -0.029647000000000007 0.067148 0.016798
25200 0.11436498 9.656571600000001 -1.9151180100000003 -0.027422 0.081014 0.010387
25220 0.10612458 9.73605222 -1.8685597500000002 -0.030565 0.090626 0.007148000000000002
25240 0.03771945 9.69534072 -1.9736444700000002 -0.033905000000000005 0.070354 0.017833
25260 -0.0068866199999999995 9.65073465 -2.03516298 -0.035029000000000005 0.066063 0.026376
25280 -0.1130112 9.64549611 -2.10642282 -0.038148 0.082062 0.024197
25300 -0.16660323000000002 9.62513055 -2.16494928 -0.036923 0.10448 0.011359
25320 -0.09684432000000001 9.636814260000001 -2.17078623 -0.032435000000000005 0.13330799999999998 -0.008943000000000001
25340 -0.025751250000000003 9.63561744 -2.15971074 -0.036439 0.167509 -0.033584
25360 -0.07244685 9.69115185 -2.11375089 -0.037333 0.202679 -0.03684
25380 -0.15433092 9.73096083 -2.12049036 -0.032114 0.199375 -0.014367
25400 -0.18142614 9.677074500000002 -2.08231965 -0.033301 0.193968 0.006996
25420 -0.058232160000000005 9.68142033 -2.02453875 -0.033291 0.201403 0.012328
25440 0.00194238 9.69788151 -2.0254412700000004 -0.04186 0.185488 0.003743
25460 -0.0925083 9.66465504 -2.0917470600000008 -0.038587 0.185541 -0.012258
25480 -0.10432935000000002 9.60357798 -2.11030758 -0.044758 0.228208 -0.020901
25500 -0.08981055 9.60672699 -2.1278282400000004 -0.05536 0.242098 -0.022061
25520 -0.14354973000000004 9.68336271 -2.1615059700000003 -0.053403 0.213286 -0.011329
25540 -0.23665644 9.74593089 -2.19099483 -0.052495000000000014 0.179189 -0.01021
25560 -0.3150972 9.825715620000002 -2.21180184 -0.062154 0.15476900000000002 -0.021997
25580 -0.23860863000000002 9.829610190000002 -2.15971074 -0.070603 0.16018 -0.03595
25600 -0.17184176999999998 9.799071660000001 -2.1622515300000003 -0.075846 0.167707 -0.048815
25620 -0.13426947 9.659857950000001 -2.18171457 -0.07266399999999999 0.15919 -0.053054
25640 -0.21031659 9.605226060000001 -2.19383973 -0.07901799999999999 0.165621 -0.05738
25660 -0.17662905 9.640699020000001 -2.2191397200000003 -0.08648099999999999 0.166713 -0.05743300000000001
25680 -0.08322804 9.68321556 -2.09818242 -0.091925 0.139047 -0.060641
25700 0.08876088000000001 9.671688810000001 -1.9755868500000002 -0.095284 0.097539 -0.06702000000000001
25720 0.24938001 9.736199370000001 -1.88802279 -0.08152000000000001 0.072994 -0.06796100000000001
25740 0.21300453 9.711350640000001 -1.8544922099999999 -0.074187 0.059055 -0.051869000000000005
25760 0.019011780000000002 9.67872258 -1.9145196 -0.067867 0.068509 -0.024063
25780 -0.08921214 9.656267490000001 -2.0390575500000003 -0.087773 0.179248 0.005567
25800 -0.09056592000000001 9.719591040000001 -2.10222414 -0.046386 0.174663 0.050727
25820 -0.0076321800000000006 9.71299872 -2.06061012 0.008324 0.044345 0.091868
25840 0.14893542 9.64743849 -2.03456457 0.030335 -0.039902 0.095335
25860 0.35446473 9.648036900000001 -2.00688075 0.025221 0.008058 0.094169
25880 0.33110712 9.68635476 -1.9565848799999999 0.050438 -0.07513500000000001 0.097657
25900 0.17858124000000003 9.68979807 -1.9393683300000002 0.041644 -0.124142 0.106204
25920 -0.044007660000000004 9.73739619 -1.9565848799999999 0.022886 -0.045164 0.085675
25940 -0.12020193000000001 9.7493742 -1.85973075 -0.000312 -0.016191999999999998 0.05343
25960 -0.0811287 9.720935010000002 -1.73668392 -0.031342 -0.06603200000000001 0.023367
25980 0.02185668 9.73006812 -1.6976205000000002 -0.049521 -0.103142 -0.004487
26000 0.09640287000000002 9.72198468 -1.6717220999999998 -0.048435 -0.106312 -0.011953
26020 0.00030411 9.841284090000002 -1.82351223 -0.056913 -0.087133 -0.005627
26040 -0.12962933999999998 9.85759812 -1.93248171 -0.051435 -0.037156 0.012507
26060 -0.237402 9.81389457 -1.9260463500000002 -0.028223 -0.08415299999999999 0.023412
26080 -0.26465418 9.70132482 -1.85704281 -0.023281 -0.151364 0.043828
26100 -0.19714176 9.740093940000001 -1.7380377 -0.060506 -0.123545 0.045669
26120 -0.14115609 9.81014715 -1.6980717600000002 -0.106545 -0.14899400000000002 0.056062
26140 -0.12813822000000002 9.807007950000001 -1.7465724 -0.042854 -0.200431 0.076869
26160 -0.23067234 9.81868185 -1.7229204900000001 -0.003337 -0.22175100000000006 0.046194
26180 -0.2956341600000001 9.79457868 -1.6676803800000002 0.016886 -0.257938 0.020745
26200 -0.26554689 9.763451550000001 -1.64761893 -0.023641 -0.249296 0.025792
26220 -0.10313253 9.65387385 -1.6890858000000002 -0.051375 -0.237524 0.036265
26240 -0.04266369 9.55747098 -1.7095985100000002 -0.043643 -0.194875 0.020241
26260 -0.07978473 9.53950887 -1.52262972 -0.012445 -0.145947 0.011851
26280 0.10777265999999999 9.739642680000001 -1.2340293300000003 -0.007240000000000002 -0.159874 0.02686
26300 0.70892946 9.696233430000001 -1.74177531 -0.035882 -0.138408 0.011677
26320 0.51358293 9.59520024 -2.08860786 -0.017746 -0.151204 -0.000998
26340 -0.18755739000000002 9.39476232 -2.1326155200000003 -0.00513 -0.18855 0.0034100000000000003
26360 -0.30955455000000004 9.54774927 -2.00088684 -0.027702 -0.218329 0.010768000000000002
26380 0.31060422000000004 9.50014134 -1.9589785200000003 -0.040471 -0.215071 0.006402
26400 0.41119596 9.78185511 -1.85599314 0.017159 -0.196157 0.021736
26420 0.13965516000000006 9.847719450000001 -1.6170902100000002 -0.038136 -0.167154 0.009562
26440 0.02544714 9.90924777 -1.5003315900000003 -0.014732 -0.157747 0.034282
26460 0.04715667 9.85909905 -1.77081291 -0.010326 -0.121564 0.039608
26480 0.07619427 9.77257485 -1.8462616200000002 -0.003011 -0.157801 0.037569
26500 0.04116276 9.75850731 -1.77037146 0.013083 -0.152471 0.022719
26520 0.03726819 9.66734298 -1.6259192100000002 0.020455 -0.152582 0.044136
26540 0.16780005000000003 9.667941390000001 -1.6338555000000001 0.015159 -0.133431 0.054755999999999985
26560 0.3182364 9.8415882 -1.63115775 0.020508 -0.145108 0.039853
26580 0.11406087000000001 9.63277254 -1.8372756600000002 0.026914 -0.156797 0.027094
26600 -0.15103476000000002 9.78245352 -1.8015084000000001 0.015341 -0.126903 0.020566
26620 -0.08352234000000001 9.860747130000002 -1.82679858 -0.012407 -0.139547 0.009706
26640 -0.01856052 9.63500922 -1.57337685 -0.030481 -0.145794 -0.010708
26660 0.06856209 9.6420528 -1.65585933 -0.032442 -0.106376 -0.009704
26680 0.13651596 9.751326390000001 -1.69343163 -0.02939 -0.133045 -0.003239
26700 0.03922038 9.864190440000002 -1.7193202200000002 -0.028175 -0.108513 -0.011808
26720 0.34638129 9.830502899999999 -1.7588447100000002 -0.020735 -0.102199 0.0010539999999999998
26740 0.15313410000000002 9.68635476 -1.41949719 -0.010258 -0.129993 0.016118
26760 0.28800198 9.765246780000002 -1.27220004 0.01415 -0.15353499999999998 0.02166
26780 0.04969746 9.712253160000001 -1.4263838100000001 0.026962 -0.129169 0.044151
26800 -0.15462522000000004 9.72691911 -1.7973097200000003 0.013350999999999998 -0.060986 0.054651
26820 -0.08906499000000001 9.711654750000001 -1.6589985300000003 0.011261 -0.045025 0.061025
26840 0.0230535 9.731559240000001 -1.53535329 0.016547 -0.062062 0.054674
26860 -0.00628821 9.771976440000001 -1.61873829 0.00619 -0.018247 0.028909
26880 -0.12393954 9.652529880000001 -1.71977148 0.003033 -0.020319 0.017138999999999998
26900 -0.00434583 9.696988800000002 -1.5798122100000003 0.001697 -0.085275 0.011872
26920 0.11661147000000001 10.013125859999999 -1.77994602 -0.017271 -0.05953500000000001 -0.014999
26940 0.20417553000000002 9.744135660000001 -1.51320231 -0.016022 -0.040279 -0.03638
26960 0.09415638000000001 9.62932923 -1.64942397 0.005152 -0.06277999999999999 -0.022316
26980 0.05957613 9.651774510000001 -1.83607884 -0.01087 -0.089266 -0.044827
27000 -0.01257642 9.61001334 -1.7624351699999998 -0.011946 -0.094576 -0.048032
27020 0.020208600000000004 9.53846901 -1.6116947100000003 -0.013946 -0.06368 -0.047018
27040 -0.016618140000000003 9.64339677 -1.6007663699999999 -0.013855 -0.040257 -0.043842
27060 0.06047865000000001 9.83274939 -1.7920711800000002 -0.021241 -0.022121 -0.043917000000000005
27080 0.14773860000000003 9.80940159 -1.7986635000000002 -0.011712 -0.029646 -0.035295
27100 0.05747679000000001 9.88409493 -1.65390714 -0.010712 -0.042441 -0.033135000000000005
27120 0.06182262000000001 9.94202298 -1.6841513700000001 -0.01286 -0.047752 -0.03528
27140 0.07260381 9.8652303 -1.656909 -0.009631 -0.047737 -0.041667
27160 0.12169305 9.83006145 -1.69043958 -0.016075 -0.059424 -0.043833
27180 0.20342997 9.84382488 -1.68399441 -0.033346 -0.112594 -0.052432000000000006
27200 0.17753157 9.616007250000001 -1.66184343 -0.055808 -0.12636 -0.053639
27220 0.10942074000000002 9.65193147 -1.7414810100000002 -0.056702 -0.076335 -0.041959
27240 0.11241279000000001 9.74578374 -1.7588447100000002 -0.035322000000000006 -0.081676 -0.056758
27260 0.22063671 9.58247667 -1.6208278200000001 -0.028084 -0.117981 -0.041706
27280 0.31554846000000003 9.66345822 -1.58624757 -0.022701 -0.115835 -0.050217000000000005
27300 0.22902426 9.58726395 -1.54104309 0.003908 -0.126594 -0.046812
27320 0.19100070000000002 9.700128000000001 -1.49224815 0.013456999999999998 -0.130918 -0.039262
27340 0.17303859 9.82212516 -1.4115609000000002 0.012352 -0.12670499999999998 -0.026457
27360 -0.00837774 9.824822910000002 -1.4485347899999998 0.02712 -0.155553 -0.017771000000000002
27380 -0.10537902 9.88215255 -1.44045135 0.022776 -0.183192 -0.028448
27400 -0.04190832 9.92810259 -1.4596102800000001 0.015265 -0.202303 -0.03809
27420 -0.16286562000000002 9.75296466 -1.54209276 0.001395 -0.203315 -0.039254
27440 -0.19100070000000002 9.78036399 -1.52188416 -0.004881 -0.162864 -0.026531
27460 -0.015568470000000001 9.79712928 -1.5645478499999999 0.013347 -0.136321 -0.020028
27480 0.08502327 9.2401371 -1.46261214 -0.024022 -0.154253 -0.032017000000000004
27500 0.08517042 9.830502899999999 -1.5820587000000002 0.003774 -0.13838399999999998 -0.028638
27520 0.09564750000000001 9.83080701 -1.51590006 0.018993 -0.085135 -0.038214
27540 0.14833701000000002 9.849671640000002 -1.63833867 0.024145 -0.105474 -0.017856
27560 0.1850166 9.689650920000002 -1.62097497 0.038702 -0.173768 -0.001643
27580 0.18351567000000002 9.687551580000001 -1.51514469 0.058709 -0.230306 0.000705
27600 0.14564907000000002 9.64848816 -1.5967344600000002 0.060809 -0.24095300000000006 -0.002471
27620 0.02215098 9.71704044 -1.6477758900000001 0.062828 -0.253795 0.010378
27640 -0.04730382 9.76120506 -1.6628931 0.071099 -0.296499 0.026514
27660 -0.0896634 9.795334050000001 -1.6254679500000002 0.069759 -0.344484 0.039385
27680 0.03547296 9.87511878 -1.6274201400000001 0.072715 -0.388213 0.050144
27700 0.07574300999999999 9.91478061 -1.5506274600000003 0.06439600000000001 -0.35085700000000003 0.039355
27720 -0.054484740000000004 9.78874173 -1.4756300100000002 0.054034000000000006 -0.295374 0.026393
27740 -0.10448631000000001 9.68126337 -1.6108020000000003 0.055899 -0.341244 0.040352
27760 -0.03053853 9.68994522 -1.6085555100000002 0.033433 -0.338038 0.05728200000000001
27780 -0.06137136000000001 9.787692060000001 -1.54104309 0.031007 -0.389218 0.07121799999999999
27800 0.06541308000000001 9.63172287 -1.51394787 0.043531 -0.45317 0.069251
27820 0.09864936 9.63291969 -1.5172440300000003 0.04899 -0.435041 0.059652
27840 0.01212516 9.73380573 -1.5760746 0.06480599999999999 -0.459666 0.07688500000000001
27860 -0.09445068 9.78829047 -1.47952458 0.06992899999999999 -0.473666 0.110054
27880 -0.11945637 9.77706783 -1.41830037 0.080387 -0.498293 0.132591
27900 -0.16734879000000003 9.82901178 -1.60915392 0.076999 -0.527096 0.145423
27920 -0.12962933999999998 9.796226760000001 -1.6515135 0.07257899999999999 -0.5494979999999999 0.157172
27940 -0.13217994000000002 9.70821144 -1.67561667 0.07045 -0.552669 0.15288800000000002
27960 -0.0868185 9.57169548 -1.4983794 0.061929 -0.5611149999999999 0.14108900000000002
27980 -0.10253412 9.62887797 -1.4615624699999998 0.056537 -0.583428 0.131466
28000 -0.16390548000000002 9.74473407 -1.6274201400000001 0.036761 -0.506526 0.098114
28020 -0.44547210000000004 9.705670650000002 -1.60166889 0.02315 -0.458503 0.08834299999999999
28040 -0.57315906 9.63531333 -1.58610042 0.033661 -0.485206 0.096997
28060 -0.53888292 9.52034994 -1.55048031 0.027274 -0.48517 0.093748
28080 -0.6198644700000001 9.7146468 -1.5533154000000002 0.029647000000000007 -0.448891 0.076626
28100 -0.78750756 9.846669780000001 -1.62412398 0.036188 -0.430752 0.06383
28120 -0.85816899 9.70671051 -1.7262068400000001 0.045991 -0.407265 0.042504
28140 -0.7801794900000001 9.7348554 -1.77186258 0.036552 -0.364646 0.048793
28160 -0.70413237 9.731716200000001 -1.7377335900000002 0.002676 -0.299572 0.054882000000000014
28180 -0.59081706 9.69488946 -1.5552675900000001 -0.002059 -0.187615 0.033341
28200 -0.5590915200000001 9.73260891 -1.4876080200000001 0.008003 -0.107664 0.010876
28220 -0.6899176800000001 9.79248915 -1.6067602800000003 0.009161 -0.096977 0.001256
28240 -0.45625329000000003 9.86388633 -1.6489727100000002 0.007315 -0.033054 0.0011619999999999998
28260 -0.36733545 9.78245352 -1.58760135 0.02027 0.017966 0.018278
28280 -0.6162642 9.65836683 -1.6510622400000001 0.009746 0.053144 0.021364
28300 -0.74335275 9.73336428 -1.6256151 0.013056 0.074451 0.018156
28320 -0.87253083 9.643691070000001 -1.72680525 0.004517 0.06598899999999999 0.010629
28340 -0.99423369 9.59159997 -1.65944979 -0.007132 0.07883899999999999 0.004122
28360 -0.69814827 9.612711090000001 -1.69372593 -0.028369 0.103406 0.006079
28380 -0.55100808 9.77333022 -1.77186258 -0.024962 0.132225 -0.011026
28400 -0.51013962 9.77601816 -1.67920713 -0.019278 0.194055 -0.027089
28420 -0.5373819900000001 9.59759388 -1.7000141400000002 -0.030434 0.304956 -0.045469
28440 -0.5953100400000001 9.7667379 -1.58011632 -0.053511 0.367987 -0.07028
28460 -0.5843817000000001 9.77467419 -1.7452186200000002 -0.09275 0.393798 -0.097292
28480 -0.45190746000000004 9.88603731 -1.71587691 -0.118708 0.5091140000000001 -0.14141900000000002
28500 -0.4288539600000001 9.72243594 -1.4949459 -0.149625 0.702235 -0.19102
28520 -0.63512883 9.759252870000001 -1.54613448 -0.198982 0.879236 -0.189455
28540 -0.4773546 9.85939335 -1.55481633 -0.208363 0.971773 -0.145842
28560 -0.36044883 9.79203789 -1.6110963 -0.187539 0.8906059999999999 -0.112478
28580 -0.44188164 9.767934720000001 -1.74731796 -0.148597 0.729783 -0.154729
28600 -0.51133644 9.74607804 -1.9552311 -0.070812 0.664705 -0.197899
28620 -0.36479466 9.94816404 -1.91466675 -0.041451 0.753162 -0.233059
28640 -0.2137599 9.536968080000001 -1.7574909300000001 -0.060875 0.744545 -0.192591
28660 0.0058369500000000005 9.73590507 -1.62921537 -0.063641 0.6824520000000001 -0.113482
28680 0.09999333 9.77661657 -1.6127443799999999 -0.063421 0.789809 -0.054866
28700 -0.08308088999999999 9.74458692 -1.80120429 -0.06384 0.950599 -0.037984
28720 -0.09504909 9.759851280000001 -1.9398195900000001 -0.043153 1.010315 -0.071031
28740 0.00344331 9.780511140000002 -1.7639361 -0.023944 0.983727 -0.098636
28760 -0.06586434000000001 9.79218504 -1.74896604 -0.04543 0.952901 -0.09661
28780 -0.03876912000000001 9.74129076 -1.8119854800000001 -0.062864 0.887915 -0.080625
28800 -0.0925083 9.60118434 -1.93951548 -0.055569000000000014 0.84954 -0.080525
28820 -0.15986376000000002 9.78036399 -1.9411635600000001 -0.037049 0.906051 -0.10931
28840 -0.20073222000000002 9.74129076 -1.81751832 -0.016654 0.919884 -0.123072
28860 -0.16525926000000002 9.74099646 -1.8721600200000001 -0.035934 0.929432 -0.096514
28880 -0.09564750000000001 9.77032836 -1.8134766 -0.063826 0.951673 -0.040121
28900 0.05223825 9.90400923 -1.69432434 -0.084312 0.931393 -0.012465
28920 0.08471916 9.759704130000001 -1.6810023600000001 -0.088536 0.93569 -0.017841
28940 -0.06361785 9.67946814 -1.80823806 -0.07245700000000001 0.933581 -0.036954
28960 0.040711500000000005 9.80236782 -1.7711170200000002 -0.062725 0.936845 -0.062527
28980 0.2576106 9.876158640000002 -1.65885138 -0.076331 0.975324 -0.082968
29000 0.51477975 10.23346827 -1.4724908100000003 -0.090349 0.948715 -0.07662200000000001
29020 0.62345493 10.09141947 -1.31845419 -0.108926 0.869873 -0.057423
29040 0.5397756300000001 9.3733569 -1.28477646 -0.134627 0.845474 -0.060776
29060 0.17274429 9.103169880000001 -1.36336437 -0.131518 0.811429 -0.074598
29080 -0.22887711000000002 9.58157415 -1.7962600499999999 -0.119648 0.815752 -0.100157
29100 -0.6742020599999999 10.254422430000002 -2.19683178 -0.117409 0.802045 -0.137512
29120 -1.05964677 10.008789839999999 -2.3601388500000002 -0.120954 0.7179300000000001 -0.14490699999999998
29140 -1.20484458 9.94381821 -2.24458686 -0.132901 0.68171 -0.134261
29160 -0.44248005 9.67078629 -1.9173645000000001 -0.13236099999999998 0.595296 -0.103168
29180 0.37632141 9.34027758 -1.43551692 -0.09908 0.438446 -0.068552
29200 0.59621256 9.282202380000001 -1.28417805 -0.074628 0.429796 -0.057688
29220 0.25866027 9.47215341 -1.57277844 -0.054075 0.5010640000000001 -0.04909
29240 -0.12678444 9.77377167 -1.9249966800000002 -0.048956 0.4785720000000001 -0.023388
29260 -0.37781253 9.99427104 -1.9779903 -0.061229 0.41872 0.036424
29280 -0.56177946 9.77781339 -1.8347348700000001 -0.060891 0.315151 0.095311
29300 -0.6970986 9.668098350000001 -1.9118218500000002 -0.031455000000000004 0.225535 0.103109
29320 -0.78302439 9.78620094 -2.03472153 -0.010189 0.1872 0.080874
29340 -0.9253773000000001 9.787849020000001 -2.10222414 -0.004673 0.189465 0.042453
29360 -0.8201454300000001 9.819584370000001 -1.9917537300000001 -0.020484 0.2194 0.029486
29380 -0.5944173300000001 9.65537478 -1.95448554 -0.036501 0.22687 0.040047
29400 -0.43529913000000003 9.68725728 -1.95642792 -0.051476 0.233254 0.054889
29420 -0.38140299 9.744439770000001 -1.8688638600000003 -0.060905 0.26421 0.047306
29440 -0.50100651 9.83829204 -1.75794219 -0.057474 0.299417 0.031262
