time Ax Ay Az Gx Gy Gz
20 0.46358136 9.81928026 -0.28470582000000005 -0.291207 0.363487 -0.602841
40 0.63079281 9.890677440000001 -0.37227969 -0.07757 0.229507 -0.31703000000000003
60 0.8490358800000001 10.031087970000002 -0.20387142 0.048592 -0.07911599999999999 0.029283
80 0.8529304500000001 9.983185740000001 -0.19205037000000003 0.043842 -0.006429000000000001 -0.028528
100 0.63139122 9.98528508 -0.24833034 0.07361799999999999 -0.054364 -0.054964
120 0.6159699000000001 9.7897914 -0.39966921 0.043832 -0.049939 -0.070132
140 0.9354031200000001 9.727968780000001 -0.6224052600000001 0.035461 -0.049764 -0.106511
160 0.7461976499999999 9.86613282 -0.45505647 0.027108 -0.02517 -0.122624
180 2.77223733 9.19103805 -0.3715243200000001 0.007484999999999999 0.087943 -0.153884
200 0.13890960000000002 9.938285370000001 -0.11765133000000001 0.013287 -0.013407 -0.121667
220 -1.2323910599999999 10.10833191 0.38844657000000005 0.007252 -0.041597 0.006513
240 0.40954788000000003 9.79189074 -0.24729048000000003 0.034235 0.003149 -0.017925
260 0.32841918 10.140508709999999 -0.27781920000000004 0.025758 0.01384 -0.020134
280 0.61941321 9.81793629 -0.24219909 -0.008166 0.045981 -0.036436
300 0.34757811 9.864033480000002 -0.26989272000000003 -0.009228 0.066148 -0.017241
320 0.79319736 10.02539817 -0.40625172 0.007918999999999999 0.083133 -0.017143000000000002
340 0.51732054 9.65148021 -0.25028253 0.016454 0.07143200000000001 -0.028819
360 -0.0058369500000000005 9.620941680000001 -0.08607293999999999 0.030222 0.055379 -0.022293
380 -0.01751085 10.007593020000002 -0.06466752 0.015492 0.08532200000000001 -0.038457
400 0.17738442000000001 10.03768029 -0.09700128 0.033226 0.02018 -0.013681
420 0.41987781 9.86732964 -0.060920100000000005 0.054463 0.022138 0.011034
440 0.17318574 9.84547296 -0.01257642 0.031222000000000007 0.053193 -0.009464
460 0.08547453 9.79069392 0.17499078 0.062739 -0.044965 0.001564
480 0.06287229000000001 10.01462679 0.07514459999999999 0.038273 -0.033145 -0.002895
500 0.08576883000000002 9.91373094 0.13785993 0.050917 -0.06728200000000001 -0.001695
520 0.17513793000000002 9.880053210000002 -0.13067901 0.032728 -0.088486 -0.011408
540 0.32242527000000004 9.90236115 -0.13981212 0.020021 -0.080929 -0.025394
560 0.320787 9.849367529999999 -0.21300453 0.031977 -0.053188 -0.04671
580 0.29593827000000006 9.9489096 -0.44802270000000005 0.022054 -0.105429 -0.027485
600 0.21884148000000003 9.90984618 -0.3555144 0.01239 -0.101207 -0.009398
620 0.14086179000000001 9.917625509999999 -0.32272938000000007 -0.001388 -0.076674 -0.005253
640 0.56313324 9.71375409 -0.39816828 -0.027892 -0.05309 -0.019355
660 0.36059598 9.759704130000001 -0.5096883600000001 -0.023691 -0.072262 -0.023574
680 0.24354306000000003 9.97226721 -0.5140341900000001 -0.019112 0.022429 0.001974
700 0.24952716000000003 9.79383312 -0.44786574 0.025343 0.089754 -0.089669
720 0.44532495 9.80505576 -0.42705873000000005 0.11891 0.288395 -0.29543600000000003
740 0.65039319 9.596691360000001 -0.28874754 0.083512 0.272433 -0.268958
760 -0.21570228000000002 10.22523768 -0.53183934 0.042056 0.175209 -0.1623
780 0.33425613 9.82856052 -0.27063828 0.035969 0.138485 -0.030905
800 0.03547296 9.85130991 -0.21435831 0.07574 0.260627 0.025832
820 0.03951468 9.85670541 0.22273605000000002 0.06965 0.30548800000000004 0.001163
840 -0.39712842 9.968225490000002 -0.02365191 0.046438 0.350362 -0.011875
860 -0.12214431 9.88215255 0.08921214 0.014212 0.305716 -0.00777
880 0.33664977 9.77273181 0.13546629000000002 0.019234 0.25237 0.008357
900 0.5825864700000001 9.895621680000001 -0.028144890000000002 0.032835 0.207521 0.023464
920 -0.12139875000000001 9.780511140000002 0.07634141999999998 0.041279 0.188312 0.024616
940 -0.43724151 10.08228636 -0.20223315000000003 0.024089 0.15219100000000002 0.014928
960 -0.6595263 10.217752650000001 -0.20492109000000003 0.022874 0.119172 0.014962
980 -0.6885639 10.00623924 0.10463346000000001 -0.008544 0.023363 0.025548
1000 -0.36853227000000005 9.89816247 -0.10253412 -0.014162 -0.032042 0.033057
1020 -0.07020036 9.84802356 -0.13381821000000002 -0.022821 -0.078807 0.013828
1040 0.50564664 9.87452037 -0.21959685 -0.035695 -0.098985 0.009492
1060 0.29414304 9.91912644 -0.28665801 -0.049704000000000005 -0.108609 0.03077
1080 0.08337519 9.85400766 -0.60563997 -0.089216 -0.105322 0.042241
1100 -0.16091343000000002 9.78829047 -0.86505561 -0.095723 -0.141468 0.029423
1120 -0.07648857 9.75776175 -1.03958532 -0.061636 -0.163915 0.019008
1140 0.10178856 9.719591040000001 -0.9342063 -0.004809000000000001 -0.108689 0.011856
1160 0.23950134000000003 9.80101404 -1.04991525 0.02115 -0.031010000000000006 0.01087
1180 0.21780162 9.767189160000001 -0.86116104 0.0152 0.037317 -0.021306
1200 0.15851979 9.75446559 -0.6541406099999999 0.024941 0.052261 -0.037281
1220 -0.02963601 9.808803180000002 -0.7749409500000002 0.057186 0.06827799999999999 -0.074464
1240 -0.02454462 9.828109260000002 -0.63826803 0.106775 0.154503 -0.102001
1260 0.05972328000000001 9.810304109999999 -0.26420292 0.032014999999999995 -0.013896 -0.015782
1280 0.0009025200000000001 9.80969589 0.06271533 -0.016017 0.001104 0.0041600000000000005
1300 -0.09894366 9.92152008 0.050148719999999994 -0.030867 0.025636000000000003 0.009366
1320 -0.13247424000000002 10.046656440000001 -0.07320222000000003 -0.024581 0.002169 0.011576
1340 -0.17483382000000003 9.97315992 -0.26554689 -0.015147 -0.024538 0.022358000000000003
1360 0.09729558 9.81 -0.27288477000000005 -0.006703 -0.03632 0.030978
1380 0.25072398 9.873313740000002 -0.18516375000000002 -0.030064 -0.010676 0.03185
1400 0.23665644 9.97315992 -0.26420292 -0.052137 0.038502 0.007064
1420 0.7575772500000001 9.835447140000001 -0.12828537000000004 -0.04775 0.047082 -0.011076
1440 -0.47795301 9.903852270000002 -0.65713266 -0.014624000000000003 0.05444 -0.015127000000000003
1460 0.17154747 9.80925444 -0.50669631 0.002508 0.06716799999999999 -0.016092
1480 0.21360294000000002 9.88574301 -0.42077052000000004 -0.001678 0.094842 -0.006543000000000001
1500 0.15237873000000005 9.97406244 -0.37227969 -0.01439 0.114065 -0.007723999999999998
1520 0.19310004 9.99606627 -0.22153923 -0.0006259999999999999 0.08952 -0.008665
1540 0.032785020000000005 9.977947200000001 -0.08352234000000001 0.031404 0.102162 -0.00098
1560 -0.20342997 9.80461431 -0.07260381 0.034547 0.10316 0.012928
1580 -0.27317907 9.66360537 0.1038879 0.009053 0.12881199999999998 0.013785
1600 -0.18681183 9.783503190000001 0.19878984000000002 0.000551 0.128871 0.006248
1620 -0.04041720000000001 9.93005478 -0.005542650000000001 0.011225 0.128838 0.005254
1640 -0.1357704 9.96373251 -0.25237206 0.02717 0.114938 0.004315
1660 -0.17753157 9.96208443 -0.44966097000000005 0.0336 0.126613 0.009686
1680 -0.04281084 9.836045550000001 -0.33904341000000005 0.01975 0.131983 0.010651
1700 -0.13905675 9.92346246 -0.26734212 0.00689 0.112879 0.004176
1720 -0.09774684000000002 9.99172044 -0.37826379000000004 0.010004 0.088388 -0.001112
1740 -0.13472073 9.936186029999998 -0.40311252 0.01853 0.08516599999999999 -0.002116
1760 -0.03398184 9.821821049999999 -0.36359784 0.017366999999999997 0.067048 0.001104
1780 -0.029488860000000002 9.819133110000001 -0.24055101 0.011999 0.063854 0.005343
1800 -0.01946304 9.90595161 -0.21869433000000002 -0.003014 0.046862 0.00526
1820 0.00987867 9.92975067 -0.20342997 -0.001033 0.004278 -0.003217
1840 -0.023946210000000002 9.93288987 -0.29474145 0.00854 0.001035 5.8e-05
1860 0.04041720000000001 9.81777933 -0.32706539999999995 0.012759 -0.0075099999999999984 0.002235
1880 0.023946210000000002 9.7897914 -0.25820901 0.011707 -0.007494 -0.000977
1900 0.06436341000000001 9.85999176 -0.24459273 0.002119 -0.006386 -0.003182
1920 0.053592030000000006 9.89712261 -0.40820391000000006 0.001019 -0.015961000000000003 -0.005314
1940 0.08188407 9.91313253 -0.46044216 0.012697 -0.025603 -0.002015
1960 0.09580446000000001 9.84592422 -0.48469248000000004 0.015883 -0.02881 -0.001989
1980 0.08831943 9.83664396 -0.42017211000000004 0.013807 -0.018141 -0.004153
2000 0.03098979 9.84891627 -0.29249496 0.013831 -0.010693 -0.002026
2020 0.01616688 9.89143281 -0.43874244 0.016984 -0.023478 -0.004124
2040 0.040711500000000005 9.899359290000001 -0.40610457000000005 0.019088 -0.031999 -0.006235
2060 -0.01721655 9.88589016 -0.36958194 0.024432 -0.024583 -0.000866
2080 -0.00748503 9.84876912 -0.36733545 0.005258 -0.013880000000000002 0.003259
2100 0.03967164 9.837840779999999 -0.28680516 -0.011817 -0.022312 -0.004327
2120 0.052993620000000005 9.91612458 -0.29383893 -0.01495 -0.010571 -0.007568000000000002
2140 -0.00209934 9.90909081 -0.35102142000000003 -0.0010960000000000002 -0.006388 1e-06
2160 -0.04161402 9.87256818 -0.36269532000000004 0.011731 -0.002167 -0.000984
2180 0.00194238 9.870772950000003 -0.36104724000000005 0.002143 -0.012731 -0.014924000000000003
2200 0.01197801 9.860747130000002 -0.30521853 -0.039464 0.001207 -0.0013449999999999998
2220 -0.023347800000000002 9.882750960000001 -0.34817652000000004 -0.05009 0.026747000000000003 0.014571
2240 -0.01856052 9.905353200000002 -0.38664153 -0.030824 0.050078 0.02429
2260 -0.02095416 9.906098759999999 -0.36688419000000005 -0.010506 0.097794 0.061758000000000014
2280 -0.06496182 9.82946304 -0.34832367 -0.110997 0.024752 0.033376
2300 -0.09624591 9.83843919 -0.24968412 -0.052849 0.148105 0.037897
2320 -0.004492980000000001 9.867182490000001 -0.30371760000000003 0.032322000000000004 0.062769 -0.007331999999999998
2340 -0.051796800000000004 9.894719160000001 -0.31060422000000004 -0.009228 0.111771 0.028634
2360 -0.14833701000000002 9.93558762 -0.24519114 -0.0041140000000000005 0.055323 0.021265
2380 -0.11256975000000001 9.860590170000002 -0.37407492000000003 -0.006353 0.022346 0.011677
2400 -0.11511054 9.863140770000001 -0.34997175 0.017079 0.013742 0.011852
2420 -0.15253569 9.91568313 -0.29084688000000003 0.016017 0.021177 0.018245
2440 -0.22976981999999999 9.90879651 -0.40071888000000006 -9.1e-05 -0.005386 0.014961000000000004
2460 -0.61866765 9.97406244 -0.43050204000000003 -0.006520999999999999 -0.012816 0.013858
2480 -0.02140542 9.89891784 -0.9879454800000002 -0.000115 -0.006468000000000001 0.019235
2500 -0.08786817 9.90700128 -0.14250006 0.005243 -0.002222 0.018199
2520 0.45699885 9.94711437 -0.61462593 0.001005 0.001002 0.014961000000000004
2540 -0.045802890000000006 9.8387433 -0.33934752000000007 -0.00533 0.015938 0.014897
2560 0.10537902 9.866878380000001 -0.40296537000000004 0.0011 0.021246 0.013867
2580 0.09744273000000002 9.86658408 -0.49651353 0.013978999999999998 0.032941000000000005 0.008601000000000001
2600 0.08322804 9.92197134 -0.50355711 0.017199000000000002 0.034008 0.005418
2620 0.12319398000000001 9.83185668 -0.39697146000000005 0.001249 0.047903 0.007425
2640 0.09385227000000002 9.83425032 -0.32332778999999995 -0.012716 0.028769 0.009488
2660 0.13037490000000002 9.84622833 -0.32093415000000003 -0.003143 0.021282 0.008497
2680 0.02425032 9.928848150000002 -0.35446473 0.012932 0.029778 0.00112
2700 -0.01122264 9.88888221 -0.23172201 0.017294999999999998 0.045764 -0.004211
2720 -0.00104967 9.85130991 -0.29114118 0.0033490000000000004 0.035134 0.002115
2740 0.08607293999999999 9.850711500000001 -0.24863445 -0.018103 0.012825 0.005198
2760 0.05883057 9.9340965 -0.25312743 -0.012817 -0.00209 0.000981
2780 -0.041309910000000005 9.894424859999999 -0.27617112 -0.004315 -0.014882 -0.0042840000000000005
2800 -0.005542650000000001 9.85939335 -0.3700332 0.005277 -0.015985 -0.003147
2820 0.13696722 9.85699971 -0.40789980000000003 0.004205 -0.008558 0.005381
2840 0.17348985 9.844276140000002 -0.28455867 -0.011894 -0.025564 0.009564
2860 0.01542132 9.90490194 -0.2809682100000001 -0.011889 -0.041474 -0.007506999999999998
2880 -0.07095573000000001 9.926013059999999 -0.33904341000000005 -0.002167 -0.011693 -0.004273
2900 0.023504760000000003 9.888283800000002 -0.32497587 0.004243 -0.007462999999999998 -0.002097
2920 0.13861530000000005 9.86283666 -0.37811664000000006 0.003138 -0.012799 0.001107
2940 0.26480133 9.79368597 -0.36090009000000006 -5.8e-05 -0.007478 0.00535
2960 0.16734879000000003 9.873765 -0.3505701600000001 0.002239 0.02555 0.002119
2980 0.05149269000000001 9.91283823 -0.36104724000000005 0.004507 0.05537 0.002097
3000 0.04730382 9.938736630000001 -0.47974824000000005 -0.00508 0.06072200000000001 0.0041600000000000005
3020 0.19264878 9.88095573 -0.37736127 -0.008242 0.073499 0.008394
3040 0.15672456 9.79877736 -0.26929431000000004 -0.007166 0.076687 0.009466
3060 0.01601973 9.811343970000001 -0.25282332 -0.006061 0.08520499999999999 0.009462
3080 -0.05972328000000001 9.99336852 -0.29488860000000006 -0.021026 0.073561 0.004032
3100 -0.050148719999999994 9.94172868 -0.26689086 -0.026417000000000003 0.06504 0.008278
3120 -0.01406754 9.832602240000002 -0.22917141000000002 -0.008329000000000001 0.051141000000000006 0.005217
3140 0.04116276 9.848621970000002 -0.21570228000000002 0.016271 0.067026 0.007504999999999999
3160 -0.12334113000000002 9.944867880000002 -0.18037647 0.02274 0.0851 0.010731999999999998
3180 -0.26090676 9.95624748 -0.20881566000000004 0.015252000000000003 0.084048 0.013886
3200 -0.20163474 9.89157996 -0.17019369 0.003445 0.06386599999999999 0.009556
3220 -0.1651023 9.84637548 -0.17064495 0.005588 0.060684 0.004234
3240 -0.08831943 9.88753824 -0.25492266 0.012018 0.064932 0.002137
3260 -0.042065280000000004 9.86343507 -0.33141123 0.014122999999999997 0.067021 0.010695
3280 -0.0022464900000000003 9.771976440000001 -0.34263387 0.00977 0.054227 0.01709
3300 -0.030685680000000003 9.82497006 -0.39517623 -0.008405 0.035158 0.006306
3320 -0.0031392000000000004 9.89337519 -0.36059598 0.007698 0.060656 0.00959
3340 0.02963601 9.9372357 -0.40880232000000005 0.01409 0.054259 0.005370000000000001
3360 0.01721655 9.93469491 -0.40041477000000003 0.020481 0.057411 0.010752
3380 0.05583852 9.84307932 -0.34607718 0.021563 0.062725 0.012889
3400 0.11226564 9.80490861 -0.26719497000000003 0.00988 0.06917899999999999 0.007458
3420 0.032186610000000004 9.85311495 -0.28186092 0.004493 0.051114 0.001034
3440 -0.027095220000000003 9.91253412 -0.33904341000000005 0.003378 0.041526 0.002107
3460 0.038170710000000004 9.918822330000001 -0.40820391000000006 0.010856 0.04363 0.002156
3480 0.1505835 9.880651620000002 -0.36224406000000003 0.014099 0.053206 0.002167
3500 0.07364366999999998 9.879758910000001 -0.28081125 0.015166 0.05108 4e-05
3520 -0.07139718 9.88888221 -0.17184176999999998 0.010808 0.030855 3.6e-05
3540 -0.02664396 9.919273590000001 -0.23905008000000003 0.006449 0.007447 -0.003169
3560 -0.01227231 9.930653190000001 -0.29324052 5e-06 -0.003179 -0.004268999999999999
3580 0.053739180000000004 9.846522629999999 -0.29293641 -0.00533 -0.007404000000000002 -0.008574
3600 0.02065986 9.823773240000003 -0.32631984 -0.008497 0.002186 -0.006470999999999999
3620 0.032785020000000005 9.851015610000001 -0.27527841000000003 0.002119 -0.007447 -0.004249
3640 0.09236115 9.922412790000001 -0.19623924 0.010702 0.00742 6.500000000000001e-05
3660 0.06720831000000001 9.8535564 -0.25416729000000005 0.006492 0.019157 -0.001047
3680 0.07768538999999999 9.911484450000001 -0.37795968 0.011788 0.012738 0.001134
3700 0.10552617 9.884399040000002 -0.39802113000000006 0.013941 0.023358 0.007545
3720 0.16346403 9.84891627 -0.33066567 0.026753 0.024382 0.0065650000000000005
3740 0.1272357 9.86508315 -0.32706539999999995 0.008607 0.019132 0.00324
3760 0.10178856 9.88858791 -0.32811507000000006 -0.006401 -0.005283 -0.005379
3780 0.03981879 9.88020036 -0.33485454 -0.003258 -0.018077 -0.005340999999999999
3800 0.03202965 9.87002739 -0.36314658000000005 0.016944999999999998 -0.03094 -0.003047
3820 0.03891627 9.89098155 -0.37331955 0.021088 -0.056529 -0.000848
3840 0.01886463 9.90205704 -0.42691158 0.036029000000000005 -0.054455 0.000321
3860 -0.00808344 9.920774520000002 -0.4281084 0.043852 0.023287 -0.000792
3880 -0.00344331 9.87466752 -0.35955612 0.031308 0.078734 -0.003087
3900 0.02499588 9.907893990000002 -0.39292974 -0.000755 0.071368 0.00204
3920 0.00209934 9.848170710000002 -0.35431757999999997 -0.025595 0.010708 0.008353
3940 -0.04056435 9.85745097 -0.45894123000000003 -0.012865 -0.007437999999999998 0.006329
3960 0.05883057 9.76943565 -0.42301701 0.001134 0.015971 0.001056
3980 0.13232709 9.827069400000001 -0.48034665000000004 0.006502 0.021287 -0.00105
4000 0.42661728 9.98738442 -0.54112941 0.007564 0.02234 0.001092
4020 0.2951829 9.831552570000001 -0.49307022000000006 0.006516 0.027666000000000003 0.002147
4040 0.04864779000000001 9.87556023 -0.38649438 -0.001952 0.041549 0.001001
4060 -0.30670965 9.978849720000001 -0.27692649 -0.011596 0.028812 -0.002254
4080 -0.37751823000000007 9.94621185 -0.15747012000000002 -0.011644 0.020281 -0.000107
4100 -0.19219751999999998 9.82990449 -0.21435831 -0.007339 0.034093 0.005246
4120 0.12349809 9.82062423 -0.2282787 -0.012649 0.037316 0.003068
4140 0.28126251 9.85266369 -0.38259981000000004 -0.011544 0.044774 0.001998
4160 0.08696565000000002 9.90205704 -0.47541222 -0.008376999999999999 0.045794 0.010565
4180 -0.10119015 9.878856390000001 -0.55938582 -0.003057 0.044701 0.01274
4200 -0.05568156 9.811795230000001 -0.47810997000000005 0.00122 0.044695 0.010633
4220 0.038023560000000005 9.836045550000001 -0.42541065000000006 0.004512 0.065985 0.011697
4240 0.00030411 9.89427771 -0.40969503 -0.0049700000000000005 0.096894 0.015864
4260 -0.004188870000000001 9.869272020000002 -0.39188987999999997 -0.010175 0.117187 0.007256
4280 0.034276140000000004 9.87242103 -0.37391796 -0.003793 0.10972 0.004106
4300 0.08667135 9.880504470000002 -0.38230551 0.00256 0.106472 0.011632
4320 -0.00538569 9.87601149 -0.45310428 0.000369 0.095818 0.013766999999999998
4340 -0.12319398000000001 9.85295799 -0.4776587100000001 0.000336 0.087301 0.012709
4360 0.00777933 9.878709240000001 -0.40535900999999996 -0.001726 0.102226 0.011607
4380 0.046548450000000005 9.909993329999999 -0.34743096000000007 0.001441 0.091575 0.008438
4400 -0.00837774 9.89322804 -0.31344912 -0.00398 0.070297 0.006291
4420 -0.08262963000000001 9.89322804 -0.27932013 -0.0051140000000000005 0.05857 0.009503
4440 -0.09355797 9.892629629999998 -0.34054434000000006 0.000206 0.058538 0.012745
4460 -0.12888378 9.86089428 -0.22797459 0.004483 0.060654 0.012772
4480 -0.16690734 9.858049379999999 -0.23201631 0.003344 0.040435000000000006 0.008517
4500 -0.07139718 9.8677809 -0.32796792 -0.002105 0.014887 0.008512
4520 0.028586340000000002 9.897416909999999 -0.40416219000000003 -0.008511 0.011722 0.006335
4540 0.07304525999999999 9.890677440000001 -0.4249692 -0.001038 0.0117 0.005319
4560 0.018109260000000002 9.860590170000002 -0.41822973 0.001153 0.027659 0.008518000000000001
4580 0.053140770000000004 9.881848440000002 -0.32946885000000004 2.9e-05 0.017002 0.010661
4600 0.045802890000000006 9.868232160000002 -0.28021284 -0.006363000000000001 0.012788 0.004212
4620 0.08397360000000001 9.851015610000001 -0.34293798000000003 -0.007387 0.019197 0.000992
4640 0.13441662000000001 9.87256818 -0.43185582000000006 0.00222 0.02235 0.003192
4660 0.12154590000000001 9.8879895 -0.43843833 0.008684 0.038298 0.005353
4680 0.10313253 9.908649359999998 -0.36359784 0.007669 0.051081 0.006397
4700 0.0896634 9.84233376 -0.30821058 0.00344 0.05855700000000001 0.00529
4720 0.10852803000000001 9.84742515 -0.33859215 -0.006329 0.020245 0.004203
4740 0.06900354 9.86433759 -0.36539307000000004 -0.003172 0.014891 0.008505
4760 0.024848730000000003 9.90834525 -0.42377238 -0.014946 0.004288 0.006299
4780 0.05627997 9.89203122 -0.39607875000000003 -0.019271 0.002129 0.016954
4800 0.05927202000000001 9.87256818 -0.31689243 -0.042703 0.004368 0.010378
4820 -0.03382488 9.829158930000002 -0.24863445 -0.048052 0.010739 0.019947
4840 0.0005984100000000001 9.87825798 -0.31225230000000004 -0.034197000000000005 -0.000993 0.011513
4860 -0.01107549 9.89801532 -0.3529638 -0.019127 0.031965 0.014781
4880 -0.015568470000000001 9.9230112 -0.33395202000000007 -0.001947 0.05640700000000001 0.014869
4900 -0.04281084 9.87511878 -0.37482048 -0.0007599999999999999 0.07985199999999999 0.011643
4920 0.07918631999999999 9.85654845 -0.38859372000000003 -0.033832999999999995 0.06829600000000001 -0.000324
4940 0.118701 9.857755080000002 -0.36284247000000003 -0.025274 0.078898 0.005063000000000001
4960 0.18741024 9.92855385 -0.34817652000000004 -0.014586000000000003 0.08630499999999999 0.008333
4980 0.1038879 9.881397179999999 -0.41703291000000003 -0.008228000000000001 0.072451 0.004123
5000 -0.09236115 9.844727400000002 -0.37946061000000003 0.008751 0.058516999999999986 0.010668
5020 0.20312586 9.864484740000002 -0.54202212 0.004406 0.041488 0.01066
5040 0.11181438 9.91014048 -0.37587015 -0.00099 0.022353 0.005306
5060 -0.00928026 9.867476790000001 -0.34308513000000007 0.011827 0.024443 0.004324000000000001
5080 -0.12364524000000002 9.878110829999999 -0.30910329 0.016031999999999998 0.01058 0.004371
5100 -0.13037490000000002 9.90879651 -0.22079367 0.019136 -0.00331 0.011888
5120 -0.06271533 9.8734707 -0.28500993 0.005277 0.000991 0.013922
5140 -0.062116920000000006 9.790988220000001 -0.25282332 0.013763999999999998 -0.012874000000000002 0.010795
5160 -0.04460607 9.83290635 -0.15148602000000003 0.023423 -0.004369 0.006579000000000001
5180 0.03577707 9.89891784 -0.29293641 0.009539 -0.009638 0.004352
5200 0.13517199 9.948016890000002 -0.36958194 -0.007473 0.001083 0.002083
5220 0.14654178 9.88424208 -0.39008484000000004 -0.004306 -0.002141 0.006382
5240 0.2137599 9.892178370000002 -0.42406668000000003 0.008525 0.0042060000000000005 0.006462999999999999
5260 0.20627487000000003 9.85685256 -0.36613863 0.01175 0.006338 0.003279
5280 0.09131148000000001 9.85984461 -0.37795968 4.3e-05 0.015953 0.006389
5300 0.12244842 9.89831943 -0.47646189000000005 0.00112 0.023385 0.011728
5320 0.18082773000000002 9.878562089999999 -0.46673037000000006 0.00433 0.023383 0.009614
5340 0.23351724 9.845178660000002 -0.37137717000000003 0.009741 0.037225 0.00643
5360 0.12993344999999998 9.85400766 -0.2775249 0.000153 0.040454 0.006359
5380 0.04221243000000001 9.898466580000001 -0.31629402 -0.003038 0.043657 0.0074
5400 0.01317483 9.84981879 -0.26225073 -0.004061 0.054309 0.008448
5420 0.04969746 9.80385894 -0.2601612 0.00987 0.067048 0.007461
5440 0.11705292 9.88903917 -0.23456691000000002 0.0077459999999999985 0.075552 0.013844
5460 0.023946210000000002 9.907746840000001 -0.25880742 0.003421 0.059601 0.01063
5480 -0.04266369 9.93334113 -0.40715424 0.004555 0.07451100000000001 0.010619
5500 -0.051796800000000004 9.84218661 -0.35820234 0.005655 0.08408600000000001 0.01275
5520 0.07648857 9.866878380000001 -0.33500169 -0.006094 0.07987000000000001 0.011606
5540 0.02170953 9.87256818 -0.29369178 -0.018911 0.074597 0.009386
5560 -0.08128566000000001 9.88095573 -0.37467332999999997 -0.021069 0.070339 0.010445
5580 -0.02889045 9.87751242 -0.3817071 -0.006118 0.074544 0.011612
5600 0.04415481 9.86508315 -0.27857457 0.005603 0.07130700000000001 0.011698
5620 0.07634141999999998 9.84876912 -0.27063828 -0.010405 0.066054 0.00732
5640 -0.01631403 9.888283800000002 -0.33904341000000005 -0.025322 0.065062 0.001876
5660 0.08128566000000001 9.90909081 -0.37212273 -0.018935 0.063966 0.004059
5680 0.13890960000000002 9.871371360000001 -0.40325967 0.000273 0.066025 0.005258
5700 0.09475478999999999 9.86283666 -0.39098736000000006 0.009861 0.06491799999999999 0.007462999999999998
5720 0.06960195000000002 9.90100737 -0.32557428000000005 -0.000755 0.075612 0.006307
5740 0.01197801 9.879160500000001 -0.27243351000000005 -0.001904 0.055384 0.004189
5760 0.09430353000000001 9.878562089999999 -0.33351057 0.008727 0.045764 0.003207
5780 0.12274272000000001 9.85759812 -0.32811507000000006 0.012975 0.037244 -0.001025
5800 0.11690577 9.89816247 -0.40012047 0.014023 0.029796 -0.004213000000000001
5820 0.16165899 9.91088604 -0.41164722000000004 0.003392 0.038355 -0.004298
5840 0.19264878 9.82766781 -0.37092590999999997 0.0033590000000000004 0.036204 0.001045
5860 0.16016787000000002 9.807155100000001 -0.26150517 0.009726 0.023419 -0.004235
5880 0.11661147000000001 9.920166300000002 -0.22244175000000002 0.010793 0.022355 -0.005294
5900 0.11121597 9.9141822 -0.19444401 0.009688 0.013836 -0.005291
5920 0.06002739000000001 9.92496339 -0.35715267000000006 0.005416 0.014908 -0.003186
5940 0.12319398000000001 9.88753824 -0.45310428 0.002172 0.006393 -0.002129
5960 0.21180771 9.846522629999999 -0.33485454 0.003119 -0.025548 -0.007423000000000002
5980 0.17139051000000002 9.890079029999999 -0.28800198 0.006286 -0.031955000000000004 -0.006324000000000001
6000 0.06780672000000001 9.899064990000001 -0.3097017 0.012683 -0.027737 -0.000944
6020 0.03143124 9.90624591 -0.33455042999999995 0.005229 -0.025576 -0.0020670000000000003
6040 0.07634141999999998 9.84202965 -0.38515041 0.003148 -0.018095 -0.006364
6060 0.18262296000000003 9.85445892 -0.28755072000000004 0.0010960000000000002 0.007449 0.001066
6080 0.13636880999999998 9.89277678 -0.25836597 0.009597 0.002084 0.003269
6100 0.09131148000000001 9.94472073 -0.22872015 0.004263 -0.002141 -0.001036
6120 0.11824974 9.89157996 -0.23800041000000002 0.003292 0.017046000000000002 -0.003204
6140 0.13995926999999997 9.86014872 -0.31134978 0.005502 0.037266 -9e-06
6160 0.18427104 9.878562089999999 -0.33200964 0.003397 0.042604 -0.001099
6180 0.22498254 9.874814670000001 -0.3176379900000001 0.005545 0.044731 -0.002155
6200 0.18576216000000004 9.8734707 -0.34578288 0.009837 0.053225 0.001069
6220 0.20043792 9.911641410000001 -0.3501189 0.008765 0.051103 -4e-06
6240 0.07589016 9.922864050000001 -0.35760393 0.009731 0.028729 3.1e-05
6260 -0.01497006 9.852212430000002 -0.39292974 0.002287 0.035142 0.001039
6280 0.04101561 9.85281084 -0.37108287 -0.000913 0.039397 0.0052840000000000005
6300 0.11001915 9.8968185 -0.33664977 -0.001956 0.043666 0.004203
6320 -0.03382488 9.890079029999999 -0.31404753 0.000153 0.03621 0.002091
6340 -0.13337676 9.83065986 -0.33889626 0.000139 0.037259 0.006363000000000001
6360 -0.07768538999999999 9.851162760000001 -0.37646856 0.005493 0.044684 0.009595
6380 -0.028439190000000003 9.87227388 -0.34757811 -0.000889 0.047907 0.008478
6400 -0.0378666 9.849965939999999 -0.32811507000000006 -0.01262 0.04583 0.005194
6420 -0.0318825 9.86508315 -0.3381507 -0.015792 0.053294000000000015 0.006231
6440 0.04415481 9.894876120000001 -0.42481224000000006 -0.007209 0.066038 0.008411
6460 0.09924777 9.89831943 -0.4016115900000001 0.006731999999999999 0.086213 0.012755
6480 0.10164141000000002 9.869880240000002 -0.39517623 -0.001736 0.101156 0.012677
6500 0.13546629000000002 9.84278502 -0.37900935 -0.003846 0.10649000000000003 0.012655
6520 0.11121597 9.90744273 -0.34219242000000005 -0.013423 0.110789 0.011515
6540 0.00973152 9.87436341 -0.36135135 -0.014615 0.082035 0.010475
6560 0.046548450000000005 9.86134554 -0.44786574 -0.003903 0.090524 0.009471
6580 0.10942074000000002 9.86613282 -0.41987781 0.004661 0.095825 0.008456
6600 0.09624591 9.88903917 -0.4128440400000001 0.001455 0.08946599999999999 0.0031
6620 0.02784078 9.854753220000003 -0.35326791 -0.014605000000000003 0.079921 0.006205
6640 -0.02889045 9.82257642 -0.36913068000000004 -0.010443 0.061776 0.011598
6660 0.01482291 9.854753220000003 -0.33919056000000003 -0.009405 0.054319000000000006 0.010547
6680 -0.03697389 9.923315310000001 -0.3617928 -0.006248 0.037294 0.003113
6700 -0.051041430000000006 9.917625509999999 -0.42930522000000004 -0.011568 0.050057 0.012674
6720 -0.03577707 9.85999176 -0.35611281 -0.012697 0.036213 0.012684
6740 0.038023560000000005 9.82542132 -0.31150674000000006 -0.004181 0.026617 0.007414
6760 0.09580446000000001 9.866436929999999 -0.29623257000000003 -0.002043 0.021308 0.001027
6780 0.05643693 9.870772950000003 -0.29907747 -0.001019 0.0149 0.004247
6800 0.09924777 9.89816247 -0.33335360999999997 -0.01063 0.021291 0.012717
6820 0.10373094000000001 9.91238697 -0.35925201 -0.010678 0.010639 0.01273
6840 0.14414814 9.87421626 -0.41718006 -0.005386999999999999 -0.005333 0.006379
6860 0.22737618 9.82886463 -0.34473321000000007 0.001 -0.007490000000000002 0.007494
6880 0.15014205 9.855351630000001 -0.27961443 0.005243 -0.008588 0.011798
6900 0.10313253 9.869880240000002 -0.40685013000000003 0.0063100000000000005 -0.003286 0.01714
6920 0.08053029000000002 9.89772102 -0.44891541000000007 0.003105 -0.005401 0.016052
6940 0.16435674 9.860295870000002 -0.47481381 -0.002124 0.009565 0.00745
6960 0.12469491 9.83858634 -0.28141947 0.002124 0.002106 0.004285
6980 0.01616688 9.882446850000001 -0.27513126000000004 0.003181 0.001033 0.005362
7000 0.0290376 9.91568313 -0.34488036 0.007515999999999998 0.020176 0.009641
7020 0.13965516000000006 9.86852646 -0.41179437 0.006497 0.031893 0.010687
7040 0.22438413000000001 9.878405129999999 -0.4122456300000001 -0.006267 0.036216000000000005 0.006319
7060 0.17124336 9.852359580000002 -0.30895614000000005 -0.012659 0.037308 0.005205
7080 0.04281084 9.88380063 -0.2809682100000001 -0.005109000000000001 0.057513 0.007368
7100 0.08053029000000002 9.9113373 -0.32272938000000007 0.008842000000000001 0.07663500000000001 0.008509000000000001
7120 0.13756563000000002 9.87032169 -0.2956341600000001 0.012109 0.092599 0.00958
7140 0.11975067000000002 9.88215255 -0.32572143000000003 -0.000669 0.093726 0.005215999999999999
7160 0.016765290000000002 9.862542359999999 -0.30701375999999997 -0.001755 0.086285 0.002014
7180 0.08562168 9.82062423 -0.26389881000000004 0.002508 0.086266 0.003112
7200 0.04715667 9.88110288 -0.23306598000000003 0.019553 0.07875800000000001 0.001104
7220 0.02499588 9.917625509999999 -0.24369021 0.020596 0.07555 0.003252
7240 0.059428980000000006 9.876315600000002 -0.34293798000000003 0.009837 0.054286 0.002136
7260 0.08442486000000002 9.87825798 -0.34219242000000005 0.001302 0.056438 0.00421
7280 0.07304525999999999 9.836045550000001 -0.32751666 -0.005162 0.04049 0.002049
7300 0.11824974 9.880053210000002 -0.26405577 0.001263 0.042611 -0.001114
7320 0.06496182 9.878856390000001 -0.23366439 0.004454 0.044713 0.0031780000000000003
7340 0.05403348 9.92915226 -0.27797616 0.002287 0.040447 0.006372999999999999
7360 0.06856209 9.921068819999999 -0.30161826 -0.00198 0.037279 0.003143
7380 0.173637 9.837095220000002 -0.26779338 0.005493 0.034074 -0.001074
7400 0.13876245 9.84068568 -0.24624081 0.012937 0.030844 0.001119
7420 0.19339434 9.905353200000002 -0.27557271000000005 0.003272 0.017029 0.001069
7440 0.15178032 9.93678444 -0.33170553 -0.00099 0.018109 0.001038
7460 0.16959528 9.886792680000003 -0.45699885 -0.010606 0.019191 0.005242
7480 0.22139208000000002 9.84697389 -0.40266126 -0.012802 0.006411 0.006312
7500 0.24773193000000002 9.874069109999999 -0.37541889 -0.009664 -0.004266 0.009552
7520 0.20791314000000002 9.890079029999999 -0.32887044 -0.005445 -0.019177 0.005328
7540 0.08592579000000002 9.86897772 -0.33724818 0.0052 -0.022419 0.007543000000000002
7560 0.14325543000000002 9.88289811 -0.37451637000000004 0.011563 -0.028842000000000007 0.009732
7580 0.18695898 9.86867361 -0.40640868 0.0008560000000000001 -0.035204 0.011802
7600 0.18396693 9.86223825 -0.40057173 0.000837 -0.045831 0.005406
7620 0.0953532 9.879160500000001 -0.31854051 0.005181 -0.034107 8e-05
7640 0.10552617 9.891285660000001 -0.37018035000000005 0.014898 -0.009635 -0.000952
7660 0.08876088000000001 9.86508315 -0.37018035000000005 0.022452 0.012696 0.002277
7680 0.12334113000000002 9.88079877 -0.39756987000000005 0.018247 0.025499 0.001163
7700 0.12109464000000002 9.845629920000002 -0.41643450000000004 0.005579 0.052188 -0.002164
7720 0.12169305 9.849367529999999 -0.43963515000000003 -0.0029230000000000003 0.063919 0.002034
7740 0.12304683000000001 9.891884070000001 -0.39068325000000004 -0.000731 0.07775499999999999 0.0031
7760 0.15567489 9.88454619 -0.40565331 0.010067 0.10648 0.003139
7780 0.12080034 9.8822997 -0.39592179 0.000585 0.134206 0.004105
7800 0.2080701 9.92436498 -0.42317397000000007 -0.011084 0.1481 0.002937
7820 0.24608385000000002 9.85670541 -0.36044883 -0.014265 0.151311 0.001843
7840 0.17483382000000003 9.80775351 -0.2935348200000001 -0.00463 0.152369 -0.0045
7860 0.029184750000000002 9.91852803 -0.22378572 0.003939 0.157674 -0.006584
7880 -0.07170129 9.879003540000001 -0.16944813 -0.002424 0.170462 -0.002372
7900 -0.017667810000000003 9.919273590000001 -0.20417553000000002 -0.018499 0.163027 0.006071
7920 0.02994012 9.884399040000002 -0.21570228000000002 -0.039989 0.122647 -0.000436
7940 0.04190832 9.87392196 -0.24668226000000004 -0.00385 0.097998 0.005189
7960 0.07454619 9.875265930000001 -0.23366439 0.008898999999999999 0.08093 -4.2e-05
7980 0.11092167 9.895170420000001 -0.18755739000000002 0.021692 0.082999 0.004318
8000 0.06735546 9.85909905 -0.27258066000000003 0.005646 0.077712 0.008486
8020 0.00958437 9.894719160000001 -0.37766538 -0.005123 0.052195000000000005 0.0052380000000000005
8040 0.046548450000000005 9.87436341 -0.36164565000000004 -0.007353 0.021348 -0.004352
8060 0.16406244 9.85984461 -0.26779338 -0.00743 0.006426 -0.002197
8080 0.06256818 9.81928026 -0.28305774 -0.006396 0.006393 0.005288
8100 0.03547296 9.9113373 -0.37496763 -0.007462999999999998 0.014884 0.013816
8120 0.06541308000000001 9.895327380000001 -0.45879408 -0.007334 0.040464 0.010579
8140 0.20118348 9.863140770000001 -0.51972399 -0.005162 0.044734 0.006316
8160 0.29728224000000003 9.83035575 -0.47271447000000005 -0.018065 0.019225 0.003054
8180 0.34772526 9.85086846 -0.47091924000000007 -0.028767 0.012866999999999998 0.004055
8200 0.1619631 9.9258561 -0.47406825 -0.033010000000000005 0.018208 0.004019
8220 0.15942230999999998 9.90580446 -0.6027950700000001 -0.023399 0.021366 0.00515
8240 0.06825798 9.86508315 -0.56043549 -0.026652 0.016025 0.011544
8260 0.13711437 9.81583695 -0.43813422 -0.03215 -0.020175 0.011552
8280 0.11406087000000001 9.78515127 -0.32631984 -0.029968 -0.008468999999999999 0.01262
8300 0.07125002999999999 9.84307932 -0.37751823000000007 -0.012822 0.015943000000000002 0.020186000000000003
8320 0.050295870000000006 9.90040896 -0.43934085000000006 -0.00743 0.027646 0.019141
8340 0.060174540000000006 9.884840490000002 -0.42945237 -0.024509 0.022392 0.015823
8360 0.0013439700000000003 9.84592422 -0.32452461 -0.024509 0.023453 0.016890000000000002
8380 0.017363700000000003 9.82886463 -0.21360294000000002 -0.009583 0.025515 0.021265
8400 0.0028449 9.89277678 -0.24758478 0.002158 0.024417 0.019212
8420 0.08397360000000001 9.859246200000001 -0.28186092 -0.010616 0.022365 0.010579
8440 0.16106058000000004 9.808499070000002 -0.30895614000000005 -0.021299 0.012841 0.004108
8460 0.17753157 9.85176117 -0.39008484000000004 -0.012778 0.010676 0.0052380000000000005
8480 0.12544047 9.89831943 -0.46493514 0.0042 -0.009624 0.005383
8500 0.18980388 9.877953869999999 -0.48184758000000005 0.010549 -0.021364 0.005442
8520 0.17423541000000003 9.8444331 -0.3924882900000001 -0.001139 -0.009609 0.006414
8540 0.21001248 9.8822997 -0.43903674000000004 -0.018204 -0.013789 0.000959
8560 0.058232160000000005 9.910738890000001 -0.43200297000000004 -0.008597 -0.013819 -4.2e-05
8580 0.05478885000000001 9.90370512 -0.42736284 0.005224 -0.022398 0.002202
8600 0.10313253 9.84218661 -0.30161826 0.012668 -0.026689 0.003327
8620 0.18681183 9.875717190000001 -0.3715243200000001 0.000952 -0.018143 0.007506999999999998
8640 0.19085355 9.92735703 -0.32736951 -0.002234 -0.014936 0.007481
8660 0.09879651 9.934842060000001 -0.34922619 0.004306 0.01169 0.00322
8680 0.1588239 9.833946209999999 -0.31629402 0.004517 0.050074 -0.005374
8700 0.22872015 9.81389457 -0.26554689 -0.007176 0.059702 -0.005468
8720 0.3182364 9.9025083 -0.23276187000000004 -0.020978 0.087396 0.007219
8740 0.2513322 9.88948062 -0.26884305000000003 -0.017758000000000003 0.093768 0.00937
8760 0.18666468 9.942327090000001 -0.34862778 0.001517 0.105436 0.005217
8780 0.20207619000000002 9.81987867 -0.26958861 0.022836 0.101101 0.005371
8800 0.19803447000000002 9.839940120000001 -0.17154747 0.023898 0.100032 0.005379999999999999
8820 0.07469334000000001 9.881397179999999 -0.11106882000000001 0.006737000000000001 0.081973 0.00742
8840 0.07679268 9.99291726 -0.14354973000000004 -0.011453 0.073502 0.010508
8860 0.12214431 9.937529999999999 -0.12603888 -0.007271 0.057495 0.013762
8880 0.18277011 9.883496520000001 -0.05673123 0.010856 0.05424 0.012825
8900 0.15014205 9.886635720000003 0.10448631000000001 0.017214 0.045691 0.013949
8920 -0.09774684000000002 9.94217994 0.05747679000000001 0.008707 0.057418 0.019215
8940 -0.14833701000000002 9.864484740000002 -0.060920100000000005 -0.001966 0.060634 0.023409
8960 0.0287433 9.80041563 -0.14954364 -0.003038 0.052145 0.015934999999999998
8980 0.14340258 9.890677440000001 -0.22558095000000003 0.001263 0.054282 0.010621
9000 0.14041053 9.879758910000001 -0.24384717000000003 0.00023 0.060682000000000014 0.009538
9020 0.04969746 9.8936793 -0.31854051 -0.005047 0.078789 0.014819
9040 -0.027242370000000002 9.92346246 -0.36015453000000003 -0.008246999999999999 0.077739 0.01373
9060 -0.0015009300000000001 9.8822997 -0.44577621000000006 -0.006118 0.07136100000000001 0.008412000000000001
9080 0.09205704 9.808351920000002 -0.48170043 -0.006181 0.055391 0.006295
9100 0.16406244 9.81059841 -0.44681607 -0.003042 0.039409 0.004201
9120 0.18037647 9.86732964 -0.3589577100000001 0.004469 0.051092 0.006375
9140 0.07648857 9.92780829 -0.34772526 0.006593000000000001 0.051076 0.008526
9160 0.07708698000000001 9.908198100000002 -0.39832524 0.006612000000000001 0.052154 0.00532
9180 0.21584943000000004 9.836496810000002 -0.35102142000000003 0.011932 0.041513 -0.002106
9200 0.31434183000000004 9.84592422 -0.21809592 0.005555 0.046862 -0.002158
9220 0.1761876 9.88619427 -0.09176274 -0.017931 0.046931 0.000883
9240 0.050148719999999994 9.94067901 -0.14445225 -0.029652 0.057595000000000014 0.008265
9260 0.11436498 9.876158640000002 -0.18172044 -0.030718 0.058659 0.009324
9280 0.22543380000000002 9.872872290000002 -0.29788065 -0.023289 0.042684 0.001919
9300 0.29429019 9.86553441 -0.26929431000000004 -0.014711000000000004 0.041632 -0.008702
9320 0.22453128 9.879307650000001 -0.22768029 0.006603 0.041536 -0.003212
9340 0.1704978 9.89816247 -0.26824464000000003 0.011898 0.043605 0.007504999999999999
9360 0.18322137000000002 9.87452037 -0.30880899 0.008636 0.027646 0.005365999999999999
9380 0.25072398 9.88424208 -0.42571475999999997 -0.004128 0.030908 -6.8e-05
9400 0.31390038 9.88095573 -0.37556604 -0.004220000000000001 0.005363000000000001 -0.005377000000000001
9420 0.23096664 9.85056435 -0.27946728 -0.003196 -0.001046 -0.002157
9440 0.1938456 9.888283800000002 -0.21899844000000002 0.005282 -0.010676 0.001119
9460 0.12618603 9.91238697 -0.1850166 0.009539 -0.01176 0.002218
9480 0.08846658 9.87032169 -0.21390705000000002 0.005248 -0.022376 -0.003139
9500 0.13876245 9.83843919 -0.35790804000000004 0.004181 -0.028739 -0.009548
9520 0.32302368 9.858951900000001 -0.29443734 0.019223 0.003133 -0.000938
9540 0.18037647 9.890079029999999 -0.21330864 0.027753 -0.001145 -0.004078
9560 0.06571719 9.807302250000001 -0.34488036 0.009674 0.008518000000000001 -0.007421
9580 0.17139051000000002 9.94127742 -0.44637462000000006 -0.004196 0.00114 -0.014986
9600 0.36389214000000003 9.95550192 -0.32347494000000004 -0.009482 0.020299 -0.006502
9620 0.31524435000000006 9.87301944 -0.26180928000000003 -0.004205 0.007497 -0.006448000000000001
9640 0.16690734 9.84547296 -0.31674527999999996 0.004378 0.019181 -0.005335
9660 0.18082773000000002 9.86867361 -0.22512969000000002 0.001206 0.03195 0.001036
9680 0.17963091 9.85745097 -0.30402171 0.001206 0.036194 0.005303
9700 0.22797459 9.88170129 -0.33410898 0.002287 0.037264 0.003173
9720 0.23201631 9.894719160000001 -0.3559558500000001 0.00334 0.02982 -0.001083
9740 0.23306598000000003 9.899516250000001 -0.31060422000000004 0.006603 0.043658 -0.001078
9760 0.13726152 9.86613282 -0.16301277 0.002364 0.052186 0.001018
9780 0.19863287999999998 9.89876088 -0.14998509000000002 -0.008295 0.056476 0.003074
9800 0.21899844000000002 9.85715667 -0.06930765000000003 -0.008295 0.057537 0.004141
9820 0.032785020000000005 9.92989782 -0.13711437 0.00233 0.053216999999999993 0.009562
9840 0.04745097 9.827363700000001 -0.10508471999999999 0.008775 0.059599 0.006394
9860 0.11945637 9.831709530000001 -0.18172044 0.00987 0.064926 0.005327
9880 0.15732297 9.918822330000001 -0.21539817000000003 0.015224 0.068108 0.004292
9900 0.02829204 9.921215970000002 -0.30386475 0.019515 0.067053 -0.002086
9920 0.08622009 9.891285660000001 -0.43365105000000004 0.011932 0.040452 -0.003173
9940 0.15642045 9.89203122 -0.43424946000000003 -0.003014 0.03519 -0.006475
9960 0.14086179000000001 9.88155414 -0.30177522 -0.010458 0.042665 -0.004401
9980 0.03367773 9.872715330000002 -0.24519114 -0.012635 0.039451 0.001998
10000 0.00373761 9.84143124 -0.30012714 -0.01905 0.032034 -0.002311
10020 0.046548450000000005 9.90026181 -0.35625996000000004 -0.007329 0.03198 0.000976
10040 0.09984618 9.881848440000002 -0.33829785 -0.0008609999999999999 0.051115 0.00527
10060 0.1329255 9.860295870000002 -0.25162650000000003 0.0076019999999999985 0.031923 0.002149
10080 0.12034908 9.88888221 -0.23411565 0.006587999999999999 0.04895 0.007461
10100 0.12843252 9.92824974 -0.22333446 0.0033880000000000004 0.0479 0.006372
10120 0.11661147000000001 9.90759969 -0.25880742 0.007617 0.037241 0.004278
10140 0.15822549 9.870625800000001 -0.25147935000000005 0.017175 0.029742 0.006490999999999999
10160 0.19504242000000002 9.8854389 -0.14610033 0.011822 0.028683 0.00966
10180 0.0953532 9.83769363 -0.09564750000000001 -0.001005 0.025523 0.011711
10200 0.08038314 9.879601950000001 -0.16630893 -0.006305 0.028755000000000006 0.007397
10220 0.16301277 9.835299990000001 -0.28441152000000003 -0.002043 0.030858 0.010628
10240 0.22213764000000003 9.86627997 -0.34368354000000007 0.001115 0.018076 0.007462000000000002
10260 0.19908414 9.87301944 -0.32198382000000003 -0.006377000000000001 0.012776 0.007417
10280 0.10642868999999999 9.862091099999999 -0.25866027 -0.015897 0.036224 0.012661
10300 0.11061756 9.891884070000001 -0.36748260000000005 -0.024384 0.043723000000000005 0.009388
10320 0.18891117000000002 9.9141822 -0.33305931000000005 -0.02438 0.040544 0.005118999999999999
10340 0.1158561 9.88574301 -0.38259981000000004 -0.017963999999999997 0.043718 0.0051600000000000005
10360 0.14610033 9.874069109999999 -0.4252635 -0.005133 0.053248 0.008442
10380 0.17842428 9.85086846 -0.36254817 -0.008295 0.067086 0.013743
10400 0.12094749 9.90370512 -0.38230551 -0.018964 0.066062 0.012602
10420 0.10373094000000001 9.89622009 -0.3555144 -0.02116 0.046916 0.00727
10440 0.15103476000000002 9.895327380000001 -0.40416219000000003 -0.009453 0.041545 0.008427
10460 0.10178856 9.824822910000002 -0.30506157000000006 0.002258 0.036177 0.008515
10480 0.15358536 9.869272020000002 -0.23500836000000003 -0.007319 0.046842 0.013775999999999998
10500 0.13682007 9.906697170000001 -0.23486121000000001 -0.022265 0.042642 0.01154
10520 0.10552617 9.86897772 -0.2342628 -0.021208 0.039447 0.010484
10540 0.12917808 9.83095416 -0.3010198500000001 -0.013663 0.054343 0.008381
10560 0.17244018 9.870772950000003 -0.30252078000000004 0.001326 0.063887 0.006337
10580 0.10777265999999999 9.83245509 -0.15074046 -0.003965 0.078798 0.011622
10600 0.00808344 9.87122421 -0.16585766999999998 -0.018844 0.092694 0.012568
10620 0.09086022 9.90355797 -0.22318731000000003 -0.016734 0.08205499999999999 0.007256
10640 0.11570895 9.899967509999998 -0.34712685000000004 -0.009204 0.092695 0.00409
10660 0.16525926000000002 9.88603731 -0.36299943 0.003613 0.090541 -0.001159
10680 0.14878826999999997 9.84577707 -0.22768029 0.004728 0.10225 -9.8e-05
10700 0.11077452 9.83035575 -0.16315992 0.00046 0.108631 0.006273
10720 0.14610033 9.875864340000001 -0.23696055000000005 0.002565 0.105415 0.009497
10740 0.14100894 9.899064990000001 -0.30955455000000004 0.003565 0.083071 0.002055
10760 0.20447964000000002 9.90624591 -0.39981636000000004 0.013109 0.06919299999999999 0.001071
10780 0.21749751 9.865387259999999 -0.22408002000000002 0.014157 0.069172 0.005351
10800 0.13157172 9.857303820000002 -0.11436498 0.007756 0.068134 0.00424
10820 0.09145863 9.89696565 -0.09236115 -0.000798 0.061781 0.002052
10840 -0.023504760000000003 9.92900511 -0.20312586 0.00122 0.035146 0.001032
10860 0.09131148000000001 9.901311480000002 -0.21180771 0.008607 0.01701 0.001107
10880 0.17468667000000002 9.84951468 -0.19025514000000002 0.013975 0.023387 6.8e-05
10900 0.11316816 9.85281084 -0.03847482 0.008592 0.014875 0.002177
10920 0.11121597 9.92092167 -0.07334936999999998 -0.006396 -0.002095 -0.003247
10940 0.06466752 9.90100737 -0.18231885 -0.011803 -0.019117 -0.004331000000000001
10960 0.12753 9.883496520000001 -0.29233800000000004 -5.3e-05 -0.012779 -0.001052
10980 0.27797616 9.84083283 -0.24878160000000002 0.01175 0.001033 -0.002056
11000 0.31658832000000003 9.899359290000001 -0.25177365 0.0074870000000000015 -0.00107 -0.005287
11020 0.22677777 9.88499745 -0.16540641000000003 -0.004291 -0.008494 -0.0032240000000000003
11040 0.17004654 9.88499745 -0.26449722000000003 -0.005386999999999999 -0.015943000000000002 -0.00429
11060 0.24683922000000003 9.902204189999999 -0.30206952000000004 0.004234 -0.010655 -0.003161
11080 0.25416729000000005 9.88409493 -0.32182686000000005 0.010664 -0.002164 -0.000991
11100 0.25177365 9.85909905 -0.26569404 0.001076 -0.001056 -0.003196
11120 0.24219909 9.866878380000001 -0.20043792 -0.005267 0.014932 -5.600000000000001e-05
11140 0.22244175000000002 9.90550035 -0.22617936000000002 -0.000995 0.013861000000000002 -0.002161
11160 0.17992521 9.90460764 -0.36853227000000005 0.009664 0.009571 -0.004218
11180 0.29129814000000004 9.868379310000002 -0.32722236 0.005368 0.006377000000000001 -0.001039
11200 0.23036823 9.877061160000002 -0.30641535000000003 0.004344 0.017029 9e-06
11220 0.25072398 9.84802356 -0.17722746 -0.007271 0.046885 0.003094
11240 0.18126918000000003 9.88334937 -0.23516532 -0.003009 0.037317 -0.00541
11260 0.20147778000000002 9.918822330000001 -0.26539974000000005 0.004459 0.040474 -0.002157
11280 0.12813822000000002 9.880053210000002 -0.29997999 0.009794 0.042577 1.4e-05
11300 0.22019526000000003 9.84143124 -0.29757654 0.010875 0.04683 0.001084
11320 0.27422874 9.8418825 -0.21735036 -0.000837 0.056441 0.005263
11340 0.18531090000000003 9.892629629999998 -0.23890293 -0.004023 0.053282 -0.001165
11360 0.12244842 9.90939492 -0.31120263000000004 -0.000851 0.047941 -6.7e-05
11380 0.10373094000000001 9.87122421 -0.29533986 0.000244 0.055389 0.000999
11400 0.16315992 9.84083283 -0.31105548 0.004531 0.055392 -0.003244
11420 0.18860706000000002 9.865387259999999 -0.21525102000000002 0.000297 0.06604600000000001 -8.3e-05
11440 0.08188407 9.907746840000001 -0.22992678000000003 -0.0008320000000000001 0.057507 0.005261999999999999
11460 0.09744273000000002 9.89772102 -0.27542556 0.002369 0.054313 0.002083
11480 0.12334113000000002 9.86433759 -0.26360451 0.005545 0.046853 -2.1e-05
11500 0.16944813 9.86478885 -0.31134978 0.008779 0.052177 -0.002142
11520 0.12049623000000001 9.863592030000001 -0.16839846000000003 0.007708 0.053237 -1.4e-05
11540 0.03248091 9.878562089999999 -0.16495515000000002 0.004517 0.058562 0.003161
11560 0.08846658 9.9230112 -0.20597076000000003 0.003378 0.042587 0.003174
11580 0.12813822000000002 9.884840490000002 -0.2977335 0.002292 0.033024 -0.002163
11600 0.10657584 9.90894366 -0.24114942 0.010803 0.028729 -0.00103
11620 0.16241436 9.831101310000001 -0.23336028 0.008703 0.036193 -0.0010539999999999998
11640 0.10253412 9.879758910000001 -0.13936086 0.005497 0.031956 -0.004275
11660 0.11032326000000002 9.922716900000001 -0.13981212 0.001259 0.037302 -0.005379999999999999
11680 0.07873506000000001 9.884840490000002 -0.23156505000000002 0.005488 0.030887 -0.003206
11700 0.08172711 9.845629920000002 -0.26704782000000005 0.01508 0.028723 -0.003136
11720 0.17558919000000003 9.87211692 -0.26839179 0.010798 0.026603 -0.002095
11740 0.17963091 9.87196977 -0.21495672000000002 0.002249 0.024498 -0.001084
11760 0.11331531000000002 9.91373094 -0.20043792 -0.000947 0.022391 -0.004308
11780 0.0634707 9.85850064 -0.23531247000000002 0.0065450000000000005 0.027692 -0.004263
11800 0.13426947 9.89143281 -0.24100227 0.015118 0.035123 -0.005281
11820 0.16854561000000004 9.863592030000001 -0.30746502000000003 0.011908 0.035125 -0.003166
11840 0.18112203000000002 9.863739180000001 -0.23306598000000003 0.009755 0.034055 2.5e-05
11860 0.1329255 9.90176274 -0.19938825000000002 0.006573999999999999 0.036205 -0.002137
11880 0.11316816 9.833504759999999 -0.20941407000000004 0.01297 0.032996 -0.004225
11900 0.14220576000000001 9.894876120000001 -0.27542556 0.015094 0.029797000000000008 -0.005274
11920 0.17064495 9.891128700000001 -0.27886887000000005 0.011884 0.029799000000000006 -0.00316
11940 0.10583028000000001 9.85864779 -0.20671632 0.002297 0.033029 -0.0032310000000000004
11960 0.1588239 9.869880240000002 -0.18590931 -0.000918 0.028783 -0.004316
11980 0.11451213 9.907295580000001 -0.20417553000000002 -0.001937 0.038378 -0.005404
12000 0.13441662000000001 9.882750960000001 -0.29039562 -0.008395999999999999 0.023495 -0.007566
12020 0.1300806 9.85819653 -0.29144529 -0.011568 0.027776 -0.00973
12040 0.1502892 9.86883057 -0.28245933 -0.016907 0.034157 -0.002298
12060 0.10628154000000001 9.867928049999998 -0.16002072 -0.023298 0.031005 -0.0076799999999999985
12080 0.05867361000000001 9.903852270000002 -0.22034241 -0.018012 0.016089 -0.011897
12100 0.10448631000000001 9.920617560000002 -0.25671789 -0.008386 0.024565 -0.008636
12120 0.12498921000000002 9.8851446 -0.29144529 -0.004109000000000001 0.02562 -0.009676
12140 0.15358536 9.87032169 -0.31703958 -0.00186 0.05224 -0.008626
12160 0.10044459 9.876609900000002 -0.20133063 -0.006147 0.053298000000000005 -0.0033159999999999995
12180 0.08607293999999999 9.89277678 -0.26824464000000003 0.004493 0.045809 -0.0043
12200 0.09205704 9.903852270000002 -0.25312743 0.016204 0.036197 -0.008479
12220 0.11256975000000001 9.86583852 -0.33574725 0.020505 0.042578 -0.009525
12240 0.11661147000000001 9.867182490000001 -0.3013239600000001 0.018348 0.039381 -0.0074
12260 0.09580446000000001 9.864484740000002 -0.19145196 0.011942 0.038338 -0.007443000000000002
12280 0.11092167 9.888283800000002 -0.24114942 0.01408 0.040457 -0.006363000000000001
12300 0.08906499000000001 9.860590170000002 -0.25940583 0.025796 0.038277 -0.004142
12320 0.12544047 9.855057330000001 -0.28530423000000005 0.022567 0.030836 -0.005222999999999999
12340 0.18980388 9.866436929999999 -0.27587682 0.0183 0.032973 -0.003119
12360 0.13307265000000001 9.82841337 -0.20941407000000004 0.008717 0.041511 0.001076
12380 0.10777265999999999 9.92001915 -0.12857967 0.003311 0.021307 -0.0032090000000000005
12400 0.12962933999999998 9.90056592 -0.21555513 0.002321 0.036233 -0.005371
12420 0.06556023 9.880053210000002 -0.29159244 0.006593000000000001 0.038344 -0.004275999999999999
12440 0.07858791000000001 9.904303530000002 -0.34578288 0.014037 0.035114 -0.002083
12460 0.17184176999999998 9.866731230000001 -0.27228636 0.014003 0.027657 -0.002074
12480 0.12738285000000002 9.86568156 -0.27138384000000004 0.0076019999999999985 0.029801 1.5e-05
12500 -0.00359046 9.917772660000002 -0.25746345000000004 0.010784 0.024468 -0.001024
12520 -0.005542650000000001 9.90265545 -0.30177522 0.010793 0.021294 -0.006361
12540 0.06331374000000001 9.879160500000001 -0.347274 0.009731 0.023424 -0.005303
12560 0.10028763 9.83679111 -0.32018859000000005 0.009707 0.023402000000000003 3.8e-05
12580 0.04775508 9.857755080000002 -0.31180104000000003 0.015075 0.028718 -0.002068
12600 0.04161402 9.894424859999999 -0.31614687 0.015050999999999997 0.022331 -0.003128
12620 0.06765957 9.872715330000002 -0.34607718 0.015066 0.024466 -0.0041990000000000005
12640 0.050590170000000004 9.83769363 -0.38065743 0.014018 0.028731 -0.004212
12660 0.13202298 9.867476790000001 -0.31194819 0.003368 0.028785 -0.008559
12680 0.03622833 9.871822620000001 -0.17947395 0.0076019999999999985 0.025557 -0.004253
12700 0.02798793 9.869272020000002 -0.31090833 0.011927 0.039387 -0.003172
12720 0.03367773 9.85699971 -0.29338767 0.015094 0.025552 -0.009541
12740 0.10298538000000002 9.890677440000001 -0.3559558500000001 0.010817 0.024498 -0.008502
12760 0.04625415 9.88364367 -0.34353639 0.009702 0.019154 -0.003161
12780 0.10747836000000001 9.8734707 -0.3441348 0.018194 0.0074150000000000015 -0.005224
12800 0.09011466 9.852359580000002 -0.29533986 0.017146 0.007436 -0.009504
12820 0.042065280000000004 9.84592422 -0.32677110000000004 0.013978999999999998 0.013843 -0.010602
12840 0.027242370000000002 9.88844076 -0.33619851000000006 0.006540000000000001 0.022382 -0.008529
12860 0.07170129 9.883947779999998 -0.3179421 -0.002014 0.018151 -0.008583
12880 0.09370512 9.878856390000001 -0.31898196000000006 -0.00199 0.024538 -0.007523
12900 0.0230535 9.89667135 -0.28530423000000005 0.002254 0.021319 -0.005353
12920 0.02889045 9.87047865 -0.27078543 0.015027 0.013822 -0.006322
12940 0.06526593 9.883202220000001 -0.30730806 0.009674 0.01064 -0.005287
12960 0.060772950000000006 9.862091099999999 -0.26764623000000004 0.010645 -0.008546999999999999 -0.003119
12980 0.03951468 9.876158640000002 -0.24713352 0.011688 -0.012816 -0.002038
13000 0.09236115 9.92616021 -0.31390038 0.01495 -0.0011 -0.0041670000000000006
13020 0.0068866199999999995 9.90205704 -0.33365772000000005 0.014879 -0.016018 -0.0030800000000000003
13040 0.00299205 9.861198390000002 -0.3634408800000001 0.009515 -0.016025 0.003292
13060 0.11181438 9.87301944 -0.36044883 0.003076 -0.022403 0.005391
13080 0.06361785 9.86732964 -0.35221824000000007 0.00731 -0.034119 0.001163
13100 -0.008985960000000001 9.91612458 -0.39098736000000006 0.01163 -0.019233 0.004379
13120 -0.02604555 9.878405129999999 -0.34308513000000007 0.014888 -0.006461 0.004385
13140 0.06466752 9.858049379999999 -0.30462012 0.002047 -0.01706 0.002173
13160 0.03098979 9.887391090000001 -0.30506157000000006 -0.011769 -0.005294 0.002061
13180 -0.004492980000000001 9.85445892 -0.28994436 -0.007377 0.02451 0.00419
13200 0.07679268 9.833946209999999 -0.37212273 0.008745999999999999 0.051086 0.004268999999999999
13220 0.034276140000000004 9.88304526 -0.42122178 0.003431 0.055366 0.004226
13240 0.06182262000000001 9.902802600000001 -0.48888135 0.003445 0.060683 0.0063560000000000005
13260 0.10733121 9.82556847 -0.47182176000000003 0.002484 0.086245 0.008453
13280 0.11316816 9.84547296 -0.47391129 0.004613 0.08198899999999999 0.005268
13300 -0.0085347 9.88215255 -0.4221243 -0.003898 0.086284 0.004135
13320 -0.04984461 9.90176274 -0.46328706 -0.011386 0.087354 0.009423
13340 -0.00434583 9.871077060000001 -0.46882971 -0.013567 0.072465 0.0051530000000000005
13360 0.07963758 9.832307940000002 -0.44561925 -0.002879 0.076689 0.005222999999999999
13380 0.01212516 9.84503151 -0.44068482 0.002464 0.080923 0.007391
13400 -0.04850064 9.88260381 -0.43424946000000003 -0.006109000000000001 0.074553 0.009476
13420 -0.05433759 9.900860220000002 -0.44113608000000004 -0.019997 0.072462 0.011518
13440 -0.08726976 9.880053210000002 -0.35416062000000004 -0.018969 0.063936 0.011536
13460 -0.08098155 9.82676529 -0.30910329 -0.010419 0.063919 0.008391
13480 -0.050148719999999994 9.86044302 -0.2484873 -0.001918 0.058554 0.010594
13500 -0.08412075 9.92420802 -0.2604555 -0.007248 0.06176 0.012689
13520 -0.11226564 9.905049089999999 -0.29653668000000005 -0.013663 0.06177000000000001 0.015849000000000002
13540 -0.06511878 9.84083283 -0.2956341600000001 -0.013687 0.050078 0.009454
13560 0.01122264 9.86583852 -0.33275520000000003 -0.011553 0.049009 0.008402
13580 -0.01182105 9.88424208 -0.30686661000000004 -0.012606 0.056453 0.012658
13600 -0.0663156 9.882446850000001 -0.37691982000000007 -0.011573 0.051114 0.014809
13620 -0.00104967 9.867476790000001 -0.37991187 -0.014735 0.056464 0.011575
13640 0.02080701 9.86223825 -0.38080458 -0.014826 0.035163 0.010534
13660 -0.050590170000000004 9.87017454 -0.36164565000000004 -0.012706 0.033020999999999995 0.011619
13680 -0.02170953 9.89726976 -0.41358960000000006 -0.013759 0.037282 0.012675
13700 -0.028439190000000003 9.8936793 -0.44996508 -0.015854 0.042628 0.009449
13720 -0.01751085 9.87122421 -0.39756987000000005 -0.016931 0.038379 0.00731
13740 0.01616688 9.82841337 -0.42437079 -0.008348000000000001 0.052185 0.010557
13760 0.028586340000000002 9.873765 -0.39532338 -0.005181 0.045778 0.011656
13780 -0.02604555 9.91478061 -0.42601887000000005 -0.00409 0.051101 0.011656
13800 0.02110131 9.89277678 -0.45879408 -0.011606 0.042596 0.013751
13820 0.07380063 9.84113694 -0.38874087000000007 -0.013754 0.036225 0.01054
13840 0.0344331 9.83634966 -0.33739533 -0.010491 0.050062 0.010545
13860 -0.00808344 9.91956789 -0.35131572000000005 -0.005123 0.059622 0.012706
13880 0.03098979 9.893973599999999 -0.3101529600000001 -0.009396 0.061755 0.015879
13900 0.10508471999999999 9.91088604 -0.34398765000000003 -0.016902 0.050076 0.012636
13920 0.01062423 9.882750960000001 -0.39352815 -0.008334000000000001 0.056442 0.01162
13940 0.07005321 9.857303820000002 -0.35985042 -0.004052 0.057501 0.009512
13960 0.06930765000000003 9.860295870000002 -0.36494181 -0.000866 0.052172 0.007405
13980 0.08547453 9.887685390000001 -0.33335360999999997 -0.004104 0.051088 0.014861
14000 0.022003830000000002 9.890235990000003 -0.32347494000000004 -0.011549 0.058562 0.016936
14020 -0.00359046 9.8680752 -0.2945844900000001 -0.011515 0.060714 0.011592
14040 0.01961019 9.87496182 -0.28425456 -0.00831 0.060707 0.010546
14060 0.07349652000000001 9.88978473 -0.34712685000000004 -0.001956 0.051093 0.011671
14080 0.07304525999999999 9.89891784 -0.34743096000000007 -0.008353 0.054303 0.013759
14100 0.034727400000000005 9.86583852 -0.3526695 -0.015806 0.056464 0.012636
14120 0.04625415 9.89203122 -0.34458605999999997 -0.015835 0.052194 0.014778
14140 0.0005984100000000001 9.846669780000001 -0.27572967000000004 -0.004076 0.056419 0.013786
14160 0.0059841 9.90205704 -0.29488860000000006 0.009817 0.057452 0.009609
14180 -0.029184750000000002 9.905049089999999 -0.3412899 0.005502 0.047876 0.010659
14200 0.0432621 9.88304526 -0.32916474 -0.007339 0.042581 0.013781
14220 0.02320065 9.8535564 -0.24638796000000002 -0.010554 0.037275 0.011629
14240 0.032186610000000004 9.875265930000001 -0.27991854 -0.007367 0.026641 0.004187
14260 0.00913311 9.90355797 -0.29593827000000006 0.000125 0.03088 0.003166
14280 0.02470158 9.880504470000002 -0.30761217 0.007593000000000002 0.034037 0.006418999999999999
14300 0.10178856 9.89667135 -0.32332778999999995 0.000105 0.03829 0.014907
14320 0.07349652000000001 9.863739180000001 -0.27722079 -0.010592 0.028753 0.01164
14340 0.02006145 9.87392196 -0.23052519000000005 -0.011611 0.038348 0.010552
14360 0.019011780000000002 9.90805095 -0.21435831 -0.008376999999999999 0.045794 0.010565
14380 0.01946304 9.8854389 -0.25896438000000005 0.00122 0.041512 0.007432999999999999
14400 0.09370512 9.883947779999998 -0.36449055 -0.0041140000000000005 0.043652 0.009529
14420 0.08756406 9.88020036 -0.31629402 -0.012663 0.043669 0.012674
14440 0.10956789 9.89232552 -0.25162650000000003 -0.004118999999999999 0.043648 0.010598
14460 0.04759812000000001 9.88813665 -0.22034241 -0.007305 0.044733 0.008437
14480 0.023504760000000003 9.92989782 -0.26839179 -0.008367 0.046863 0.009496
14500 0.07020036 9.875717190000001 -0.33859215 -0.014701 0.06604299999999999 0.0137
14520 0.15582204 9.85176117 -0.29578131 -0.016868 0.060716 0.015828000000000002
14540 0.20537235 9.88619427 -0.21749751 -0.021208 0.047935000000000005 0.019018
14560 0.06646275 9.894876120000001 -0.16330707 -0.013749 0.046839 0.02014
14580 0.00718092 9.88289811 -0.25028253 -0.011625 0.04364 0.019091
14600 0.10597743000000001 9.88948062 -0.36838512000000007 -0.013725 0.054287 0.022267
14620 0.17513793000000002 9.89277678 -0.29249496 -0.02338 0.046847 0.026482
14640 0.15148602000000003 9.88199559 -0.25791471 -0.020237 0.034053 0.026521
14660 0.01018278 9.868232160000002 -0.27513126000000004 -0.019204 0.027653 0.027604000000000004
14680 0.03517866 9.875864340000001 -0.2225889 -0.025557 0.043633 0.03288
14700 0.03202965 9.875265930000001 -0.31045707000000006 -0.036216000000000005 0.042618 0.029603
14720 0.02095416 9.86433759 -0.38589597 -0.049133 -0.002002 0.010342
14740 0.08951625 9.876315600000002 -0.37362366 -0.035197000000000006 0.018169 0.015754
14760 0.05957613 9.876315600000002 -0.27527841000000003 -0.038369 0.026693 0.017858000000000002
14780 -0.0464013 9.88813665 -0.2874035700000001 -0.043674 0.033104 0.017812
14800 -0.07244685 9.82332198 -0.32258223 -0.044674 0.041655000000000005 0.011385
14820 0.06256818 9.853860509999999 -0.3902418 -0.029752 0.037346 0.010427
14840 0.1357704 9.888735060000002 -0.35191413000000005 -0.019117 0.033035 0.013711
14860 0.12977649 9.85130991 -0.36808101 -0.025624 0.017048 0.021164
14880 0.12274272000000001 9.88380063 -0.38529756 -0.034144 0.031945 0.032835
14900 0.10432935000000002 9.91088604 -0.40940073 -0.034063 0.043689 0.026412
14920 0.11705292 9.86942898 -0.43439661 -0.015859 0.052173 0.020119
14940 0.2026746 9.86732964 -0.37855809 -0.009511 0.041494 0.021245
14960 0.16046217000000002 9.849671640000002 -0.31569561 -0.022289 0.046865 0.021149
14980 0.08143281000000001 9.87496182 -0.32766381 -0.040383 0.059698 0.024211
15000 0.02499588 9.88260381 -0.36793386 -0.028657 0.0501 0.016827
15020 0.10298538000000002 9.847719450000001 -0.30326634 -0.019036 0.043717 0.006220000000000001
15040 0.13621185 9.847572300000001 -0.13531914 -0.025456 0.037357 0.004047
15060 0.10987200000000001 9.851162760000001 -0.18681183 -0.047779 0.065094 0.01347
15080 0.19054944000000001 9.8822997 -0.22872015 -0.093649 0.076929 0.023816
15100 0.27527841000000003 9.88304526 -0.27408159 -0.124473 0.094116 0.015033
15120 0.2544714 9.87751242 -0.12828537000000004 -0.110685 0.061104 0.000217
15140 0.33231375 9.888735060000002 -0.06856209 -0.087061 0.092988 -0.001796
15160 0.36628578000000006 9.91283823 -0.12214431 -0.07298099999999999 0.13875 -0.002824
15180 0.3305087100000001 9.90805095 -0.19145196 -0.055810000000000005 0.154695 -0.009134
15200 0.35910486 9.87392196 -0.2870994600000001 -0.016316999999999998 0.156696 -0.010997
15220 0.30506157000000006 9.899516250000001 -0.17154747 0.025286000000000003 0.154424 -0.011772
15240 0.04281084 9.852212430000002 -0.12633318000000002 0.050943 0.179846 0.002262
15260 -0.01317483 9.954599400000001 -0.16390548000000002 0.026372000000000003 0.15656 -0.013903
15280 -0.04565574000000001 9.890235990000003 -0.17274429 0.033662 0.116058 -0.014869
15300 0.11106882000000001 9.86089428 -0.17528508000000004 0.051818 0.122378 -0.012614
15320 0.14086179000000001 9.823626090000001 -0.05074713 0.094469 0.116902 -0.012309
15340 0.02994012 9.861198390000002 0.06840513000000001 0.124192 0.081653 -0.014191999999999996
15360 0.00837774 9.947261520000001 0.02889045 0.109218 0.088037 0.00065
15380 0.13905675 9.85027005 -0.0038945700000000004 0.080307 0.067885 0.003679
15400 0.31464594 9.896524200000002 -0.02470158 0.066121 -0.006618000000000001 -0.000598
15420 0.24264054000000002 9.79697232 0.13412232000000002 0.05318 -0.045954 -0.009184
15440 0.24144372 9.792783450000002 0.51253326 0.035005 -0.050169 -0.005032
15460 0.15163317 9.88993188 0.47466666 0.008265999999999999 -0.056502 0.0033350000000000003
15480 0.09445068 9.99112203 0.21166056000000003 -0.016362 -0.0809 -0.001079
15500 0.19025514000000002 9.93783411 0.1417545 -0.020711 -0.103239 -0.005353
15520 0.24758478 9.897416909999999 0.17169462000000002 -0.029289 -0.110674 -0.0032670000000000004
15540 0.2282787 9.96538059 0.006141059999999999 -0.041082 -0.118111 0.002001
15560 0.21106215 10.039475520000002 -0.13651596 -0.056114 -0.143608 -0.002344
15580 0.24818319 9.934842060000001 -0.07648857 -0.077365 -0.124359 -0.002517
15600 0.25387299 9.81538569 -0.16690734 -0.074021 -0.099839 -0.010003
15620 0.20551950000000002 9.87765957 -0.13950801 -0.067553 -0.092375 -0.017445
15640 0.29697813 9.97720164 -0.26824464000000003 -0.048186 -0.051979 -0.013088999999999998
15660 0.18621342 9.937088549999999 -0.33560010000000007 -0.030968 -0.017953999999999998 -0.011944
15680 0.14864112000000002 9.96492933 -0.5363323200000001 -0.01063 -0.005234 -0.013954
15700 0.36913068000000004 9.926758620000001 -0.55953297 0.008688 0.027693 -0.006384
15720 0.50654916 9.72901845 -0.32586858 0.022653 0.052132000000000005 -0.003113
15740 0.31434183000000004 9.80162226 -0.2371077 0.023864 0.084087 -0.003146
15760 0.13651596 9.82257642 -0.27977139 0.023898 0.092605 -0.002088
15780 0.21255327 9.812246490000001 -0.3972755700000001 0.025094 0.121363 -0.002117
15800 0.39532338 9.8387433 -0.34862778 0.01974 0.112876 -0.006416
15820 0.38155995000000004 9.775272600000001 -0.07753824000000002 0.026213 0.128833 -0.006391
15840 0.14295132 9.856107 -0.15447807000000002 0.033696 0.138369 5.8e-05
15860 0.20642202000000004 9.88079877 -0.18336852 0.032572000000000004 0.128772 0.0032670000000000004
15880 0.27468 9.87047865 -0.18202455 0.020841 0.13094 0.004251
15900 0.1998297 9.81344331 -0.10552617 0.015438999999999996 0.111801 -3.5e-05
15920 0.18291726 9.819427410000001 -0.0013439700000000003 0.01754 0.10433599999999997 -1.1e-05
15940 0.07439904 9.843677730000001 0.16106058000000004 0.023864 0.08727 5.5e-05
15960 -0.01018278 9.90415638 0.10568313 0.029155 0.079786 0.002238
15980 0.004188870000000001 10.00130481 0.14639463000000003 0.008898999999999999 0.083052 0.002092
16000 0.06675705 9.89726976 0.15732297 0.008779 0.05536 0.001059
16020 -0.0022464900000000003 9.91478061 0.07844076 0.010836 0.039369 0.0021620000000000003
16040 0.07693983000000001 9.997714349999999 -0.02634966 0.022524 0.025492 -0.000944
16060 0.016461180000000002 9.932448420000002 -0.07739109000000001 0.012916999999999998 0.029766 0.004325
16080 0.031588200000000004 9.89038314 -0.01241946 1.9e-05 0.010627 0.006396
16100 -0.026192700000000003 9.88334937 0.0375723 -0.002143 0.002121 0.004255
16120 0.0025407900000000002 9.89756406 0.01241946 0.014931 -5.600000000000001e-05 0.001173
16140 -0.029783160000000003 9.89636724 0.02365191 0.02881 -9.6e-05 -0.000867
16160 0.00973152 9.85939335 -0.12288987000000001 0.014931 0.004188 0.00544
16180 0.15447807000000002 9.92166723 -0.12603888 -0.001115 -0.002161 0.008541
16200 0.07603731000000002 9.91956789 -0.14969079000000002 -0.001105 -0.005335 0.003204
16220 0.12214431 9.8242245 -0.16151184 0.019247 0.001032 -0.008413
16240 0.08741691000000001 9.855802890000001 -0.06870924 0.032068 0.008431999999999999 -0.005128
16260 0.13397517 9.86972328 -0.11137293000000001 0.026787 0.024412 -0.000912
16280 0.08935929000000001 9.87541308 -0.1240965 0.011836 0.026574 0.004322
16300 0.12034908 9.906697170000001 -0.17244018 0.011803 0.015934 0.00113
16320 0.15866694 9.847121040000001 -0.25207776000000004 0.00965 0.008497 -0.0020800000000000003
16340 0.164808 9.8302086 -0.16061913 0.021428 0.013799 -0.0062770000000000005
16360 0.15582204 9.90205704 -0.17887554 0.025801 0.038281 -0.00521
16380 0.08996751000000001 9.899516250000001 -0.22737618 0.026815 0.030804 -0.00092
16400 0.15223158 9.90071307 -0.31000581 0.011884 0.031921 -0.001026
16420 0.22648347000000002 9.85295799 -0.16959528 0.012956 0.035105000000000004 0.001114
16440 0.20073222000000002 9.84487455 -0.15956946 0.017204 0.029768 8.2e-05
16460 0.09939492000000001 9.889186320000002 -0.118701 0.022558 0.029766 -0.004153
16480 0.10552617 9.95280417 -0.21959685 0.017281 0.046812 6.1e-05
16500 0.13337676 9.905353200000002 -0.25432425000000003 -0.001923 0.04794 0.000993
16520 0.25057683000000003 9.823027680000001 -0.12229146 -0.005138 0.042633 -0.001159
16540 0.16944813 9.8617968 -0.0073378800000000015 -0.001899 0.050083 -0.0022140000000000003
16560 0.060174540000000006 9.89622009 -0.028144890000000002 0.008698000000000001 0.036189 1.4e-05
16580 0.01377324 9.98109621 -0.15986376000000002 0.010865 0.043639 2e-05
16600 0.12034908 9.920166300000002 -0.22976981999999999 0.007645 0.041511 0.002137
16620 0.2371077 9.871371360000001 -0.22153923 0.008717 0.043633 0.00321
16640 0.18800865000000003 9.83858634 -0.11511054 0.005488 0.036192 0.002128
16660 0.06361785 9.89756406 -0.04146687000000001 0.0076409999999999985 0.039384 0.001071
16680 0.0170694 9.88993188 -0.08532738000000001 0.002254 0.029807 0.003182
16700 0.06556023 9.90744273 -0.20926692000000002 0.0043630000000000006 0.025534 0.0042710000000000005
16720 0.13053186 9.93034908 -0.18306441 0.007597 0.035102 0.006417
16740 0.11256975000000001 9.885291750000002 -0.20851155000000002 0.0033159999999999995 0.03086 0.005325
16760 0.13682007 9.88125003 -0.16585766999999998 -0.005219 0.028768 0.003131
16780 0.12678444 9.879160500000001 -0.14010642 -0.0042 0.018112 0.003152
16800 0.055534410000000006 9.890079029999999 -0.22063671 -0.004148 0.030891 0.004204
16820 0.08547453 9.922716900000001 -0.24040386000000002 -0.00309 0.029817000000000007 0.005281
16840 0.14235291 9.85955031 -0.19010799 -0.002009 0.031948000000000004 0.004218
16860 0.11690577 9.8387433 -0.20537235 -0.004143 0.033017000000000005 0.00527
16880 0.09220419 9.88079877 -0.19848573000000003 -0.010496 0.042631 0.004145
16900 0.12633318000000002 9.91269108 -0.19609209 -0.010501 0.040505 0.003079
16920 0.11480643 9.87601149 -0.34308513000000007 -0.0073 0.043676 0.006302
16940 0.14938668000000002 9.90490194 -0.33590421000000004 -0.010477 0.052197 0.009474
16960 0.13472073 9.87780672 -0.26121087000000004 -0.012582 0.057535 0.008384
16980 0.14340258 9.87541308 -0.25940583 -0.013606 0.063943 0.005164
17000 0.06271533 9.87017454 -0.25267617 -0.006157 0.059656 0.005222
17020 0.12633318000000002 9.91269108 -0.30297204000000005 0.001287 0.055364 0.006347
17040 0.13127742 9.84742515 -0.31464594 -0.002942 0.064962 0.007373999999999999
17060 0.17004654 9.88364367 -0.26913735 -0.018887 0.078863 0.008313
17080 0.12469491 9.89143281 -0.30835773000000005 -0.029608 0.060816 0.001852
17100 0.09999333 9.839940120000001 -0.23890293 -0.018993 0.052244000000000006 0.005141
17120 0.12678444 9.853860509999999 -0.19534653000000002 -0.008362 0.047928 0.009494
17140 0.10119015 9.870920100000001 -0.21479976 -0.010448 0.055405 0.006265
17160 0.13457358 9.877061160000002 -0.22498254 -0.023188 0.07036 0.007225
17180 0.08951625 9.86433759 -0.28889469 -0.036048 0.059743 0.009286
17200 0.10403505 9.87751242 -0.24653511000000003 -0.017983000000000002 0.036274 0.001964
17220 0.10792962 9.86583852 -0.22123512000000004 -0.000842 0.049010000000000005 -0.001137
17240 0.07424208000000002 9.862091099999999 -0.19219751999999998 0.007689 0.047915 -0.001076
17260 0.08053029000000002 9.90190989 -0.19025514000000002 -0.008286 0.059667999999999985 0.004139
17280 0.1070271 9.88903917 -0.25671789 -0.008348000000000001 0.045819 0.004156
17300 0.11960352 9.88260381 -0.21854718 -0.006205 0.040515 -0.0033
17320 0.08607293999999999 9.861041430000002 -0.16121754000000002 0.00456 0.059661 -0.005386
17340 0.06556023 9.863140770000001 -0.1562733 0.011966 0.04897 -0.002116
17360 0.09669717 9.9025083 -0.17543223 0.008741 0.04896 0.003203
17380 0.118701 9.91403505 -0.210915 0.009794 0.044699 0.002148
17400 0.10792962 9.884840490000002 -0.22348161 0.016204 0.045746 0.001123
17420 0.12589173 9.837840779999999 -0.12513636 0.022553 0.031884 -0.000952
17440 0.06615864 9.88903917 -0.05718249 0.014008 0.028722 -0.002075
17460 0.17499078 9.926758620000001 -0.09805095000000001 0.011898 0.037239 0.001104
17480 0.11975067000000002 9.87452037 -0.23500836000000003 0.007635999999999999 0.037258 6e-06
17500 0.08741691000000001 9.88753824 -0.28575549 0.002196 0.013841 -2e-06
17520 0.20911977 9.82946304 -0.18531090000000003 -0.004253 0.00215 -0.001101
17540 0.18381978000000002 9.82975734 -0.02798793 -0.006416 -0.004234 -0.001108
17560 0.02889045 9.889186320000002 -0.06945480000000001 -0.005425 -0.022343 -0.002146
17580 0.09834525 9.95594337 -0.18007236000000001 -0.006478 -0.02551 -0.008558
17600 0.13381821000000002 9.87691401 -0.21644784 -0.007481999999999998 -0.008475 -0.005383
17620 0.20028096 9.87675705 -0.2200383 -0.006487000000000001 -0.023396 -0.004288
17640 0.14205861 9.87392196 -0.11496339000000001 0.001072 -0.002121 -0.003194
17660 0.03666978 9.88574301 -0.04850064 -0.001072 -0.005306 -0.004274
17680 0.08217837 9.91044459 -0.19908414 0.006462999999999999 0.009582 -0.00424
17700 0.0868185 9.91238697 -0.17573634 0.009726 0.022358000000000003 -0.005302
17720 0.15732297 9.89337519 -0.25686504 0.015085 0.026605 -0.006338
17740 0.17154747 9.83470158 -0.16899687000000005 0.020462 0.040418 -0.002045
17760 0.1360647 9.932448420000002 -0.20911977 0.021563 0.051054 0.001153
17780 0.06706116000000001 9.89143281 -0.16690734 0.022586 0.037219 -0.003095
17800 0.08337519 9.883202220000001 -0.18935262 0.02151 0.041458 0.003302
17820 0.11420802000000001 9.864484740000002 -0.16899687000000005 0.021495 0.037201 0.002239
17840 0.11855385 9.886939830000001 -0.20507805 0.020481 0.047862 0.00115
17860 0.11929941000000001 9.867633750000001 -0.18126918000000003 0.023672 0.046781 0.002242
17880 0.1505835 9.86343507 -0.17798283 0.011918000000000002 0.042561 0.002165
17900 0.12049623000000001 9.88110288 -0.17917965 0.000206 0.05005 0.00421
17920 0.12888378 9.86508315 -0.16660323000000002 0.00015800000000000002 0.04152 0.006357
17940 0.08128566000000001 9.87211692 -0.1329255 0.005497 0.039383 0.003193
17960 0.12843252 9.860747130000002 -0.15418377 0.002287 0.042569 0.008506999999999999
17980 0.10059174 9.894876120000001 -0.11541465 -0.006281 0.031958999999999994 0.005256
18000 0.10552617 9.90490194 -0.10597743000000001 -0.008381999999999999 0.037301 0.003098
18020 0.051041430000000006 9.89622009 -0.11181438 -0.003047 0.036222 0.002069
18040 0.053592030000000006 9.88634142 -0.13037490000000002 0.006603 0.047902 0.003189
18060 0.12513636 9.929456370000002 -0.18860706000000002 0.004416 0.038313 0.005323
18080 0.00104967 9.87541308 -0.16165899 0.002263 0.037243 0.008514
18100 0.06122421 9.89636724 -0.21809592 -0.003052 0.038339 0.0052710000000000005
18120 0.09056592000000001 9.884399040000002 -0.21899844000000002 -0.003047 0.035161000000000005 0.001002
18140 0.0779895 9.88334937 -0.237402 0.003378 0.041526 0.002107
18160 0.0634707 9.87990606 -0.25356888000000005 0.003378 0.042587 0.003174
18180 0.08457201 9.85295799 -0.26689086 0.001263 0.051099 0.007421
18200 0.09100737 9.90445068 -0.24488703 -0.000889 0.045785 0.006344
18220 0.10088604 9.89157996 -0.24354306000000003 0.003416 0.054291999999999986 0.006364
18240 0.08517042 9.88454619 -0.31225230000000004 0.00233 0.046851 0.003161
18260 0.057633750000000004 9.83484873 -0.29338767 0.000173 0.044716000000000006 0.006353
18280 0.1417545 9.85445892 -0.18037647 -0.008343000000000001 0.054311 0.011623
18300 0.06765957 9.88409493 -0.24578955000000002 -0.009391 0.058576 0.01161
18320 0.09295956000000001 9.919273590000001 -0.28455867 -0.000842 0.058559 0.008465
18340 0.08592579000000002 9.862091099999999 -0.21780162 0.000192 0.046855 0.004214
18360 0.10448631000000001 9.85340925 -0.17394111 0.001292 0.05749099999999999 0.007412999999999999
18380 0.09849240000000001 9.89053029 -0.16406244 -0.006166 0.063891 0.011625
18400 0.047902230000000004 9.89622009 -0.22527684 -0.006229 0.04686 0.008442
18420 0.11780829000000001 9.90176274 -0.25193061 -0.006229 0.043677 0.005242
18440 0.0981981 9.855802890000001 -0.20642202000000004 0.0023350000000000003 0.050039 0.005293
18460 0.11496339000000001 9.85864779 -0.18022932 0.011961 0.053209000000000006 0.00322
18480 0.005542650000000001 9.8387433 -0.13142457 0.007578 0.027658 0.003222
18500 0.019306080000000003 9.90026181 -0.15433092 0.003296 0.02766 0.006397
18520 0.07514459999999999 9.926611470000001 -0.23036823 -0.006296 0.026641 0.003127
18540 0.058977720000000004 9.886635720000003 -0.25147935000000005 0.00333 0.028751 -1.4e-05
18560 0.10956789 9.865985669999999 -0.23770611 -0.00199 0.029843 -0.002189
18580 0.07574300999999999 9.873166590000002 -0.17738442000000001 -0.005219 0.024524 -0.001136
18600 0.05583852 9.897416909999999 -0.21720321 -0.0020280000000000003 0.028748000000000006 0.00529
18620 0.04176117000000001 9.88095573 -0.23785326 0.006462999999999999 0.017009 0.003228
18640 0.13367106 9.878709240000001 -0.32048288999999996 0.013984 0.026579 0.001132
18660 0.1357704 9.88260381 -0.23022108 0.014003 0.027657 -0.002074
18680 0.053886329999999996 9.88364367 -0.21031659 0.001196 0.029819 0.001038
18700 0.00164808 9.88858791 -0.18920547 -0.007358 0.028771 0.004185
18720 0.05747679000000001 9.87211692 -0.21046374 -0.01164 0.026651 0.005226
18740 0.14579622 9.882446850000001 -0.23096664 -0.002057 0.021296 0.004231
18760 0.16106058000000004 9.88199559 -0.22019526000000003 -0.004190999999999999 0.021303 0.004215999999999999
18780 0.12020193000000001 9.88199559 -0.17394111 -0.004162 0.031938999999999995 0.008476000000000001
18800 0.10912644 9.89277678 -0.13321980000000003 -0.011592 0.042609 0.010547
18820 0.15492933000000003 9.89772102 -0.20387142 -0.011587 0.03943 0.006278
18840 0.15074046 9.93020193 -0.24144372 -0.00941 0.046888 0.004147
18860 0.14250006 9.867476790000001 -0.22453128 -0.001956 0.040483 0.001003
18880 0.19774017000000002 9.85520448 -0.21570228000000002 0.014122999999999997 0.056411 2.6e-05
18900 0.12544047 9.87541308 -0.058232160000000005 0.020582 0.072354 0.003256
18920 0.06256818 9.91657584 -0.11601306 0.016305 0.069178 0.0021620000000000003
18940 0.0287433 9.90176274 -0.23905008000000003 0.011985 0.053231 -0.002121
18960 0.12229146 9.864631890000002 -0.23456691000000002 0.009856 0.052180999999999984 -0.0042710000000000005
18980 0.19010799 9.87751242 -0.22617936000000002 0.013071 0.054304999999999985 -0.005319
19000 0.06586434000000001 9.88993188 -0.22153923 0.015224 0.05962000000000001 -0.004243
19020 0.05673123 9.94172868 -0.24504399000000002 0.011937 0.043639 -0.001041
19040 0.02604555 9.877061160000002 -0.25177365 0.014018 0.031914 -0.001011
19060 0.06691401 9.86014872 -0.24833034 0.01187 0.028725 -0.001022
19080 0.1212516 9.858049379999999 -0.26973576 -0.000909 0.034096 -0.001118
19100 0.1417545 9.895327380000001 -0.19504242000000002 -0.011587 0.02882 -0.004391
19120 0.09460764 9.894719160000001 -0.24578955000000002 -0.006272 0.025602 -0.003281
19140 0.06301944 9.88603731 -0.22722903 0.0044020000000000005 0.026629000000000003 -0.003208
19160 0.11197134000000002 9.89876088 -0.22139208000000002 0.00123 0.038337 0.002096
19180 0.13307265000000001 9.86553441 -0.19819143 -0.008395999999999999 0.033045 0.0020350000000000004
19200 0.07454619 9.85699971 -0.1155618 -0.003071 0.027712 -0.001125
19220 0.10028763 9.8734707 -0.09415638000000001 0.016199 0.040437 -0.003143
19240 0.060321690000000004 9.88813665 -0.10478061 0.023715 0.051063 -0.003104
19260 0.0782838 9.944867880000002 -0.23232042000000003 0.00555 0.046857 -0.001089
19280 0.14804271000000002 9.88888221 -0.23471406 0.000192 0.039428 -0.003254
19300 0.12349809 9.873765 -0.13890960000000002 0.010827 0.034055 -0.001036
19320 0.0896634 9.85340925 -0.11900511 0.026859 0.03933 -0.001999
19340 0.06466752 9.88619427 -0.12977649 0.025753 0.029751 -0.003063
19360 0.09849240000000001 9.886635720000003 -0.16390548000000002 0.021443 0.021239 -0.002014
19380 0.10328949000000001 9.89696565 -0.23935419000000002 0.010803 0.027668 -0.002096
19400 0.13412232000000002 9.89038314 -0.26061246000000005 0.016051 0.010597 9.9e-05
19420 0.13053186 9.862689510000001 -0.27961443 0.008559 0.002113 -0.003148
19440 0.10942074000000002 9.87511878 -0.31150674000000006 0.002153 0.002132 -0.002124
19460 0.07469334000000001 9.873313740000002 -0.3150972 -0.011683 0.010698 -0.001164
19480 0.09789399 9.829610190000002 -0.22648347000000002 -0.005325 -0.002095 -0.004307
19500 0.07993188000000001 9.878856390000001 -0.22722903 0.002129 -0.004256 -0.003184
19520 0.08188407 9.90116433 -0.3210813 0.001129 0.011723 -0.002144
19540 0.10298538000000002 9.92929941 -0.33006726 -0.000966 0.022374 -3.5e-05
19560 0.11975067000000002 9.83245509 -0.20851155000000002 -0.002038 0.019191 -0.002175
19580 0.06885639 9.85520448 -0.15657741000000003 -0.00309 0.023451 -0.00112
19600 0.03726819 9.937981259999999 -0.19145196 0.006559000000000001 0.03407 -0.001066
19620 0.03382488 9.962378730000001 -0.25162650000000003 0.016233 0.048955 -0.002086
19640 0.11016630000000001 9.8532621 -0.25057683000000003 0.014099 0.050023000000000005 -0.001034
19660 0.15897105 9.83754648 -0.17543223 0.006636 0.05642000000000001 0.004247
19680 0.12259557 9.88155414 -0.19190322 -0.003951 0.07244400000000001 0.002016
19700 0.07380063 9.90624591 -0.2803698 0.001393 0.073495 0.000984
19720 0.08592579000000002 9.926013059999999 -0.29907747 0.011076 0.09051 -3.9e-05
19740 0.12439080000000001 9.851015610000001 -0.34638129 0.00998 0.083061 -0.001105
19760 0.1707921 9.85250673 -0.27542556 -0.0007070000000000001 0.075655 -0.004375
19780 0.10373094000000001 9.866436929999999 -0.19474812000000002 -0.011467 0.061818 0.001977
19800 0.04879494 9.87765957 -0.2555210700000001 -0.004047 0.053261 0.004176
19820 0.02604555 9.847572300000001 -0.32213097 0.008754999999999999 0.050033 0.001065
19840 0.12229146 9.847572300000001 -0.32557428000000005 -0.00409 0.041552 0.002055
19860 0.09595161 9.87646275 -0.21300453 -0.015936000000000002 0.017092 0.002003
19880 -0.00014715 9.899212140000001 -0.23395869 -0.014931 0.002178 0.000961
19900 0.01287072 9.90040896 -0.28530423000000005 0.001048 -0.006387 -0.002121
19920 0.04086846000000001 9.87047865 -0.29233800000000004 0.017131999999999998 0.011667 -0.002032
19940 0.05089428 9.860295870000002 -0.24729048000000003 0.0054210000000000005 0.020217 0.00108
19960 0.0663156 9.87496182 -0.21015963000000001 -0.002047 0.019182 -3.9e-05
19980 0.0058369500000000005 9.88574301 -0.21570228000000002 -0.003153 0.011725 0.001031
20000 0.01002582 9.92092167 -0.26748927000000006 0.007515999999999998 0.006383 -0.004229
20020 -0.047902230000000004 9.895170420000001 -0.26884305000000003 0.013898 0.004221 -0.002045
20040 0.01586277 9.872872290000002 -0.26165232000000005 0.013908000000000002 0.008473999999999999 8.6e-05
20060 0.03907323000000001 9.84876912 -0.19279593 0.012898 0.022322 0.00113
20080 -0.03143124 9.84307932 -0.12439080000000001 0.013951 0.019122 0.001141
20100 -0.01511721 9.91283823 -0.21435831 0.017127 0.014846000000000003 0.0022370000000000003
20120 -0.00030411 9.905049089999999 -0.25536411 0.015008 0.018049000000000003 0.002218
20140 0.11570895 9.84458025 -0.29833191000000003 0.01075 0.020194 0.002186
20160 0.17214587999999997 9.83754648 -0.28515708 0.007587999999999998 0.029789 0.003219
20180 0.26913735 9.880053210000002 -0.28800198 0.010817 0.034047 0.0011
20200 0.15657741000000003 9.91717425 -0.31239945 0.01619 0.04255 0.001127
20220 0.10238697000000001 9.88948062 -0.39488193 0.017252 0.04042 6.9e-05
20240 0.12529332 9.82721655 -0.25088094 0.006612000000000001 0.051093 0.004254
20260 0.15956946 9.852359580000002 -0.2894931 0.007665000000000002 0.046833 0.003198
20280 0.09056592000000001 9.92989782 -0.27123669 0.014109 0.052154 -0.001037
20300 -0.03382488 9.94905675 -0.28725642 0.018386000000000003 0.053208000000000005 -0.002076
20320 -0.07784234999999999 9.89592579 -0.29488860000000006 0.013018 0.051075 0.00323
20340 -0.03262806 9.82212516 -0.32916474 0.004469 0.045787 0.001041
20360 0.04056435 9.84951468 -0.22063671 0.00555 0.05004 0.002111
20380 0.01257642 9.88334937 -0.27692649 0.004502 0.051122 -0.001102
20400 -0.06047865000000001 9.899516250000001 -0.31524435000000006 -0.015792 0.04905 0.001963
20420 -0.01946304 9.88289811 -0.28455867 -0.02116 0.037367 -0.002332
20440 0.03398184 9.89292393 -0.26135802 -0.009381 0.044792 -0.004396
20460 0.07454619 9.88499745 -0.29383893 0.017357 0.05749 -0.006362
20480 0.06287229000000001 9.89891784 -0.26599815 0.021539 0.043606 -0.000974
20500 0.04221243000000001 9.894572010000001 -0.23440995 0.012989 0.042562 0.001104
20520 0.022906350000000002 9.878562089999999 -0.24519114 0.015088999999999997 0.034036000000000004 6.2e-05
20540 0.04176117000000001 9.85520448 -0.22737618 0.023629 0.038255 0.003321
20560 0.06271533 9.87122421 -0.22228479 0.031083 0.030789 -0.000891
20580 0.02634966 9.92855385 -0.25536411 0.017256999999999998 0.041486 6.7e-05
20600 0.04879494 9.926013059999999 -0.24129657000000002 -0.003033 0.036234 -0.001136
20620 0.05478885000000001 9.882750960000001 -0.29084688000000003 -0.013716 0.033076 -0.001206
20640 0.10223982000000001 9.86388633 -0.26509562999999997 -0.004109000000000001 0.035169 -7.4e-05
20660 0.06436341000000001 9.88589016 -0.27422874 0.008631 0.024458 0.0032340000000000003
20680 0.054936000000000006 9.920774520000002 -0.27437589 0.006520999999999999 0.02767 0.001078
20700 0.04999176 9.893973599999999 -0.33410898 0.007564 0.02234 0.001092
20720 0.07125002999999999 9.864190440000002 -0.32557428000000005 0.003249 0.011702 0.001076
20740 0.052993620000000005 9.83814489 -0.25297047 0.001115 0.013832 0.003195
20760 0.05074713 9.887685390000001 -0.32631984 0.008626 0.023393 0.003235
20780 0.00164808 9.86553441 -0.33260805000000004 0.008616 0.019141 0.001104
20800 0.02095416 9.82078119 -0.21914559000000003 0.009645 0.013798 0.004323
20820 0.0038945700000000004 9.87211692 -0.20881566000000004 0.008592 0.02018 0.007512
20840 0.023347800000000002 9.92511054 -0.27542556 0.011841 0.027639 0.00432
20860 0.029783160000000003 9.96103476 -0.3555144 0.0064730000000000005 0.01914 0.003225
20880 -0.0015009300000000001 9.887685390000001 -0.39952206 0.00221 0.023403 0.0063950000000000005
20900 0.08217837 9.852212430000002 -0.44621766 0.001144 0.027651 0.010655
20920 0.06840513000000001 9.886635720000003 -0.34069149000000004 0.003282 0.025525 0.0074680000000000015
20940 0.00808344 9.905206050000002 -0.29309337 0.00011 0.028745 0.004237
20960 -0.07020036 9.88813665 -0.31883481 -0.002071 0.019161 0.005302
20980 0.02889045 9.85311495 -0.33949467 0.00012 0.032998 0.006368
21000 0.06691401 9.81059841 -0.18336852 -0.001995 0.039388 0.008481
21020 0.01497006 9.882750960000001 -0.29144529 -0.009482 0.033031 0.006301
21040 0.00973152 9.93288987 -0.33095997000000005 -0.008409999999999999 0.034093 0.006307
21060 0.050590170000000004 9.91208286 -0.40117014 -0.008395999999999999 0.039411 0.008437
21080 0.03951468 9.86553441 -0.41045040000000005 -0.010558 0.03727 0.012697
21100 0.0577809 9.88559586 -0.38305107000000005 -0.019108 0.034104 0.012641
21120 0.028144890000000002 9.85295799 -0.36688419000000005 -0.024418 0.034144 0.007262999999999999
21140 0.045802890000000006 9.866878380000001 -0.35776089000000005 -0.028614 0.051199 0.00828
21160 0.00179523 9.897416909999999 -0.41149026 -0.02859 0.057587 0.009341
21180 -0.030391380000000003 9.894424859999999 -0.28410741 -0.014653 0.068208 0.005151
21200 0.05852646 9.867182490000001 -0.39143862 0.001484 0.096918 0.004159
21220 0.08397360000000001 9.87720831 -0.33784659 0.005751 0.100086 0.007389
21240 0.0290376 9.89891784 -0.38096154000000004 -0.011294 0.10335 0.00513
21260 -0.05268951 9.867476790000001 -0.34607718 -0.013433 0.095927 -0.001285
21280 0.033530580000000004 9.867182490000001 -0.38664153 -0.003865 0.088436 -0.001209
21300 0.09729558 9.867182490000001 -0.32646699000000007 0.013194999999999998 0.092612 0.005315
21320 0.00673947 9.878856390000001 -0.34593003000000005 0.008832 0.074505 0.008512
21340 -0.021552570000000004 9.867928049999998 -0.34248672 -0.001837 0.074542 0.008437
21360 0.00373761 9.88170129 -0.36075294 -0.008319 0.057516 0.009482
21380 0.032186610000000004 9.87646275 -0.32931189000000005 0.000216 0.05112 0.003141
21400 0.008230590000000001 9.866436929999999 -0.35745678 0.010904 0.052161 9e-06
21420 -0.01482291 9.86583852 -0.30147111000000004 0.013032 0.054271000000000014 0.003226
21440 0.062116920000000006 9.891884070000001 -0.29982303 0.011922 0.043626 0.002164
21460 0.05478885000000001 9.893522339999999 -0.29429019 0.01297 0.039362 0.002177
21480 -0.0170694 9.88888221 -0.31928607000000003 0.012916999999999998 0.027644 0.002191
21500 0.05254236000000001 9.87452037 -0.39996351 0.017113 0.009528 0.000107
21520 0.03517866 9.839783160000001 -0.28769787 0.01596 -0.011765 -0.00201
21540 0.011673900000000001 9.87256818 -0.31239945 0.02016 -0.021389 0.003373
21560 0.04086846000000001 9.863140770000001 -0.23725485000000002 0.012721 -0.011788 0.006513
21580 -0.027242370000000002 9.90700128 -0.20417553000000002 0.0031 -0.014955 0.007518
21600 -0.027389520000000004 9.930496230000001 -0.24009975 -0.004368 -0.019173 0.003199
21620 0.07529175 9.89427771 -0.26435007 -0.004378 -0.023425 0.001068
21640 0.07050447000000001 9.819133110000001 -0.23306598000000003 0.001024 -0.007469 0.002153
21660 0.00928026 9.830502899999999 -0.24773193000000002 0.009583 -0.0032340000000000003 0.001139
21680 0.0076321800000000006 9.9138879 -0.24294465 0.006382 -0.004283 5e-05
21700 0.09714843000000001 9.976456080000002 -0.3150972 -0.001076 -0.001066 0.001062
21720 0.053739180000000004 9.922412790000001 -0.38515041 0.002172 0.011698 0.0032049999999999995
21740 0.06900354 9.867476790000001 -0.38828961 0.011807 0.01806 0.002196
21760 0.1588239 9.859246200000001 -0.31494024000000004 0.008602 0.020189 0.005375
21780 0.027389520000000004 9.87691401 -0.27123669 9.6e-05 0.027671 0.006375
21800 -0.03547296 9.90040896 -0.29099403 0.006579000000000001 0.045758 0.006397
21820 0.0344331 9.921372930000002 -0.3671883 0.014138 0.062789 0.003223
21840 0.07918631999999999 9.88634142 -0.30446316 0.008837000000000001 0.070265 0.003176
21860 0.06765957 9.839940120000001 -0.32153256 -0.001851 0.068163 0.005241
21880 0.07753824000000002 9.86163984 -0.33110712 -0.006104 0.071374 0.005207
21900 0.11360961 9.85999176 -0.32751666 0.002455 0.07560900000000001 0.004193
21920 0.08562168 9.84951468 -0.39832524 0.013157 0.081968 0.003192
21940 0.10044459 9.88499745 -0.38828961 0.013133 0.079825 0.006399
21960 0.11465928000000002 9.88110288 -0.39861954000000005 0.006708 0.07346 0.005294
21980 0.03907323000000001 9.8302086 -0.30686661000000004 0.005640999999999999 0.06815800000000001 -4.8e-05
22000 0.01406754 9.8677809 -0.28231218 0.006703 0.069211 0.002095
22020 -0.022003830000000002 9.858951900000001 -0.23321313 0.003479 0.06389600000000001 0.002079
22040 0.04116276 9.880651620000002 -0.2806641000000001 0.003416 0.045804 -0.002171
22060 0.02529999 9.905353200000002 -0.32677110000000004 -0.000798 0.06072 0.000985
22080 -0.015568470000000001 9.88469334 -0.32887044 0.0034020000000000005 0.047913 0.003167
22100 -0.01586277 9.84592422 -0.33664977 0.010841 0.040434 0.00216
22120 0.01377324 9.85850064 -0.30252078000000004 0.006492 0.026584 0.006421
22140 0.00045126000000000004 9.899516250000001 -0.320787 -0.005219 0.031951 0.006332
22160 -0.03922038 9.902959560000001 -0.3376994400000001 -0.003062 0.035148 0.0042060000000000005
22180 0.01002582 9.88155414 -0.29878317000000004 0.003344 0.036191 0.00425
22200 0.005542650000000001 9.8851446 -0.22048956 0.0054210000000000005 0.021278 0.002147
22220 -0.0076321800000000006 9.89831943 -0.19998666 0.003287 0.021286000000000003 0.002132
22240 -0.04969746 9.87466752 -0.26824464000000003 4.3e-05 0.011709 0.002122
22260 0.01406754 9.849965939999999 -0.3010198500000001 -0.009559 0.011743 0.002055
22280 0.07574300999999999 9.86014872 -0.28126251 -0.00854 -0.001035 -5.8e-05
22300 0.06556023 9.90205704 -0.25506981 -0.002081 0.014908 0.003171
22320 0.00373761 9.932742720000002 -0.33574725 -0.001009 0.014909 0.0021100000000000003
22340 0.060174540000000006 9.915830280000002 -0.35999757000000004 -0.007434 0.008544 0.001005
22360 0.08128566000000001 9.82152675 -0.32796792 -0.003124 0.020238 0.003157
22380 0.060321690000000004 9.83664396 -0.4047606000000001 0.0065260000000000006 0.028736 0.001077
22400 0.05658408 9.87421626 -0.35491599000000007 0.014013 0.031909 5.7e-05
22420 0.09430353000000001 9.91208286 -0.3634408800000001 0.001148 0.018106 -1.5e-05
22440 0.04864779000000001 9.860295870000002 -0.38589597 -0.005224 0.026642 0.002066
22460 0.05687838 9.82032993 -0.37482048 0.001215 0.035141000000000006 0.0021
22480 0.1300806 9.873765 -0.41897529 0.01086 0.042573 2.1e-05
22500 0.13142457 9.880504470000002 -0.4128440400000001 0.014023 0.032979 -0.001013
22520 0.0811287 9.911641410000001 -0.42437079 0.001158 0.021297 0.001049
22540 0.0058369500000000005 9.874814670000001 -0.45759726 -0.004157 0.027699 0.00314
22560 -0.025143030000000004 9.860747130000002 -0.41493357000000003 0.00015800000000000002 0.037276 0.00209
22580 -0.02065986 9.881397179999999 -0.37257399 0.000125 0.029819 0.002099
22600 -0.0026977500000000005 9.90834525 -0.3559558500000001 -0.007363 0.026645 0.003119
22620 0.05627997 9.880504470000002 -0.41897529 -0.014797 0.039433 0.008392
22640 0.12708855 9.875265930000001 -0.4197306600000001 -0.012611 0.045838 0.003058
22660 0.08667135 9.8478666 -0.39996351 -0.00187 0.059658 0.0009789999999999998
22680 0.03398184 9.8535564 -0.31988447999999997 -0.013586 0.068204 0.005159
22700 0.05283666000000001 9.89038314 -0.28620675 -0.031761000000000005 0.05974500000000001 0.005043
22720 0.12244842 9.913436640000002 -0.30806343 -0.030714 0.058664 0.008256
22740 0.09864936 9.88095573 -0.32213097 -0.01994 0.077818 0.004034
22760 0.06856209 9.85685256 -0.3101529600000001 -0.008137 0.088447 -0.00017
22780 0.08921214 9.8936793 -0.31868766000000004 -0.023222 0.060781 0.005101
22800 0.00913311 9.902204189999999 -0.34757811 -0.022193 0.056499 0.009387
22820 -0.00299205 9.88499745 -0.39532338 -0.016859 0.058602 0.011558
22840 0.018707670000000003 9.861198390000002 -0.4090966200000001 -0.005056000000000001 0.070292 0.00842
22860 0.08921214 9.84382488 -0.31959018000000006 -0.01462 0.075665 0.005142
22880 0.01586277 9.87361785 -0.35191413000000005 -0.023193 0.066111 0.004026
22900 -0.02245509 9.90640287 -0.39787398 -0.018954 0.06501 0.009398
22920 -0.026192700000000003 9.901605779999999 -0.43050204000000003 -0.000875 0.052163 0.009541
22940 0.06182262000000001 9.833504759999999 -0.41987781 0.00976 0.046791 0.011759
22960 0.09550035000000001 9.84487455 -0.320787 0.001235 0.052135 0.014897
22980 0.025751250000000003 9.897416909999999 -0.3558087 -0.007334 0.037281 0.007379000000000002
23000 -0.045351630000000004 9.88155414 -0.38859372000000003 0.002249 0.029803 0.00425
23020 -0.03592422 9.87047865 -0.44217594000000005 0.00543 0.022348 0.001078
23040 0.04715667 9.84218661 -0.36209691 0.015041999999999996 0.026567 0.003276
23060 0.0375723 9.87002739 -0.25671789 0.012913 0.030822 0.00646
23080 -0.0836793 9.91358379 -0.32363190000000003 0.011827 0.029748 0.009658
23100 -0.05852646 9.8854389 -0.37795968 0.006425 0.01167 0.006439
23120 0.10687995 9.835299990000001 -0.29010132000000005 0.005325 0.001034 0.0032409999999999995
23140 0.12558762 9.879758910000001 -0.25267617 0.005416 0.022335 0.004282
23160 -0.01182105 9.899967509999998 -0.39428352 0.016089 0.023363 0.004355
23180 0.0009025200000000001 9.9141822 -0.38979054 0.015022 0.028672000000000007 0.009682
23200 0.09116433 9.86089428 -0.32602554 0.01386 0.0073700000000000015 0.009701
23220 0.16750575 9.832307940000002 -0.34174116 0.005325 0.008461 0.010709
23240 0.13950801 9.91852803 -0.32242527000000004 0.006401 0.005283 0.005379
23260 -0.01826622 9.88589016 -0.33590421000000004 0.01818 0.014828999999999997 0.005449
23280 -0.02664396 9.85520448 -0.30027429 0.020357 0.022287 0.003318
23300 0.016765290000000002 9.83425032 -0.19833858000000001 0.010755 0.026564 0.007519
23320 0.09984618 9.897868170000002 -0.25177365 -0.007462999999999998 0.012762 0.011682
23340 0.01466595 9.936333180000002 -0.31030011 -0.009621 0.007444 0.011674
23360 -0.008985960000000001 9.91358379 -0.37422207 -0.000976 0.027671 0.007435
23380 0.03503151 9.85864779 -0.37032750000000003 0.009736 0.039343 0.009632
23400 0.021552570000000004 9.823920390000001 -0.20611791 0.006511 0.038272 0.013883
23420 -0.02095416 9.87735546 -0.1963962 -0.011649 0.036192 0.016964
23440 -0.03398184 9.899516250000001 -0.22527684 -0.013769 0.038334 0.015878
23460 -0.02410317 9.89696565 -0.25820901 -0.010534 0.042597 0.01269
23480 0.01437165 9.900860220000002 -0.29233800000000004 -0.005176 0.045782 0.010587
23500 0.09086022 9.88948062 -0.29324052 -0.012577 0.067088 0.016918
23520 0.10403505 9.89098155 -0.22153923 -0.026485 0.061798 0.020032
23540 0.01886463 9.84532581 -0.23770611 -0.022212 0.055421000000000005 0.012592
23560 0.01377324 9.864631890000002 -0.22423698 -0.002985 0.05855800000000001 0.010586
23580 -0.02963601 9.905206050000002 -0.22872015 0.017319 0.068066 0.012852
23600 0.016618140000000003 9.90370512 -0.32887044 0.012047 0.081933 0.012798
23620 0.09026181000000001 9.883202220000001 -0.34503732000000004 -0.0029230000000000003 0.074529 0.012703
23640 0.09504909 9.891128700000001 -0.39443067000000004 -0.010343 0.08732899999999999 0.014771
23660 0.06571719 9.85759812 -0.35087427000000004 -0.005004 0.084132 0.010539
23680 -0.01002582 9.88454619 -0.35087427000000004 0.00677 0.088369 0.006343
23700 -0.01482291 9.879601950000001 -0.34952049 0.011028 0.08834600000000001 0.00851
23720 -0.03562992 9.86163984 -0.39488193 0.010985 0.077697 0.007455
23740 0.10597743000000001 9.82631403 -0.34442910000000004 0.012037 0.075559 0.008533
23760 0.05433759 9.8564013 -0.27482715 0.010937 0.068106 0.008535
23780 -0.030832830000000002 9.87227388 -0.34188831000000003 0.004483 0.052166 0.004237
23800 -0.02769363 9.91014048 -0.42092748 0.007645 0.039389 3e-06
23820 0.057633750000000004 9.87122421 -0.41733702000000006 0.014075 0.048941000000000005 0.00324
23840 0.08576883000000002 9.84398184 -0.44726733 0.015041999999999996 0.026567 0.003276
23860 0.10298538000000002 9.85745097 -0.24608385000000002 0.004368 0.024478 0.002136
23880 0.06137136000000001 9.88260381 -0.24952716000000003 -0.0042 0.017051 0.002085
23900 -0.04550859 9.87211692 -0.3715243200000001 0.001115 0.010649 -6e-06
23920 0.09640287000000002 9.877061160000002 -0.38110869 0.009635 0.007423000000000002 5.8e-05
23940 0.15822549 9.84831786 -0.35356221 0.011798 0.015929 0.002198
23960 0.14639463000000003 9.85670541 -0.24833034 0.002206 0.015972 -5e-06
23980 0.0047872800000000005 9.934390800000001 -0.17543223 0.0010960000000000002 0.006388 -1e-06
24000 0.00928026 9.963879660000002 -0.26165232000000005 0.00755 0.018083 3e-05
24020 0.07918631999999999 9.94113027 -0.3646377 0.017199000000000002 0.02658 -0.00205
24040 0.12678444 9.892178370000002 -0.28845324000000006 0.010812 0.027677 -0.004233
24060 0.10208286000000001 9.847268190000001 -0.26569404 0.000149 0.031962 -0.001108
24080 0.11511054 9.854910180000001 -0.22752333 -0.00199 0.033026 0.001012
24100 0.0170694 9.933792390000002 -0.26344755000000003 0.011927 0.040448000000000005 -0.002105
24120 0.02769363 9.93558762 -0.28845324000000006 0.018276 0.026585 -0.004179
24140 0.09116433 9.894572010000001 -0.31614687 0.003354 0.039382 0.005314
24160 0.15193728 9.864033480000002 -0.32482872 -0.008367 0.048985 0.011629
24180 0.13337676 9.90655002 -0.34652844000000005 -0.007262 0.051137 0.005225
24200 0.13157172 9.8794548 -0.32542713 0.001302 0.052194 -5.8e-05
24220 0.12349809 9.856254150000002 -0.29907747 0.00555 0.052162 0.0042450000000000005
24240 0.13457358 9.870920100000001 -0.33724818 0.003378 0.048953 0.009575
24260 0.22019526000000003 9.91912644 -0.35776089000000005 0.001249 0.042598 0.002091
24280 0.16301277 9.879307650000001 -0.33710102999999997 0.009827 0.047912 -0.002129
24300 0.21570228000000002 9.855057330000001 -0.29967588 0.016222999999999998 0.046824 -0.002083
24320 0.17453952 9.83798793 -0.347274 0.020505 0.050005 -0.002057
24340 0.15642045 9.890079029999999 -0.32018859000000005 0.010908 0.043677 -0.009594
24360 0.11496339000000001 9.87227388 -0.41149026 0.005569 0.041569 -0.010697
24380 0.15822549 9.86508315 -0.42167304000000005 0.00555 0.041552 -0.006423999999999999
24400 0.13876245 9.84068568 -0.30641535000000003 0.014066 0.033017000000000005 -0.010626
24420 0.10762551000000001 9.88813665 -0.28021284 0.008707 0.023466 -0.014924000000000003
24440 0.06960195000000002 9.9056475 -0.33874911 0.009702 0.010666 -0.011696
24460 0.02110131 9.88993188 -0.36867942 0.00975 0.031929 -0.001041
24480 0.05747679000000001 9.86883057 -0.32827203 0.015099 0.030862 -0.005275
24500 0.10298538000000002 9.86568156 -0.32063004 0.016171 0.02874 -0.00847
24520 0.10852803000000001 9.879160500000001 -0.24803604 0.016089 0.010631 -0.008447
24540 0.03876912000000001 9.92360961 -0.34906923 0.009746 0.026619 -0.005307
24560 0.0663156 9.90894366 -0.44981793 0.009693 0.010657 -0.00956
24580 0.15328125 9.89891784 -0.4770603 0.018213 0.008493 -0.008429
24600 0.18022932 9.862091099999999 -0.32677110000000004 0.01396 0.014887 -0.005263
24620 0.038023560000000005 9.87196977 -0.30462012 0.011851 0.021281 -0.004217
24640 0.01497006 9.87675705 -0.29697813 0.012826 0.00316 -0.0020510000000000003
24660 0.11929941000000001 9.86852646 -0.40325967 0.006406 -0.004262 -0.005291
24680 0.19774017000000002 9.8851446 -0.38828961 0.007511 0.0053170000000000005 -0.004227000000000001
24700 0.0896634 9.86149269 -0.33829785 0.006487000000000001 0.015969 -0.00318
24720 0.08397360000000001 9.90415638 -0.26284914 0.010726 0.007441 -0.005276
24740 0.07320222000000003 9.8677809 -0.18576216000000004 0.008631 0.013848 -0.007435
24760 0.0782838 9.87002739 -0.2311236 0.003249 0.008519 -0.002125
24780 0.07275096 9.87301944 -0.26509562999999997 0.006462999999999999 0.008520999999999999 -0.005307
24800 0.11346246 9.846522629999999 -0.30177522 0.021443 0.015934 -0.007348
24820 0.16615197 9.883202220000001 -0.32916474 0.021438 0.022296 0.000121
24840 0.08576883000000002 9.87002739 -0.36194976 0.02251 0.029724 0.006528
24860 0.06511878 9.85595004 -0.42451794000000004 0.020448 0.046771 0.007559999999999998
24880 0.07574300999999999 9.850417199999999 -0.48873420000000006 0.020481 0.048923 0.002217
24900 0.19429686000000002 9.890834400000001 -0.45894123000000003 0.023682 0.045729 -0.000961
24920 0.10927359 9.88619427 -0.41598324 0.02584 0.052108 0.000114
24940 0.023347800000000002 9.88199559 -0.47091924000000007 0.022567 0.034019 -0.002022
24960 0.03367773 9.859697460000001 -0.40176855 0.007606999999999998 0.024501 -0.006388
24980 0.11346246 9.85670541 -0.40057173 -0.004190999999999999 0.009632 -0.007519
25000 0.08397360000000001 9.88125003 -0.39532338 0.004354 0.011733 -0.007462000000000002
25020 0.022906350000000002 9.875265930000001 -0.41253993 0.004325 0.005340999999999999 -0.007454
25040 0.06900354 9.89053029 -0.44068482 -0.011606 0.02562 -0.003319
25060 0.09700128 9.856254150000002 -0.40804695 -0.017003 0.017095 0.001996
25080 0.07768538999999999 9.867182490000001 -0.44742429 -0.011697 0.01599 0.007375
25100 0.051198389999999996 9.87556023 -0.40505490000000005 -0.003071 0.034078 0.005276
25120 0.03382488 9.858794940000001 -0.38964339 -0.003014 0.042618 0.000993
25140 0.04879494 9.867035340000001 -0.41329530000000003 -0.013701 0.036272000000000006 -0.00121
25160 -0.026192700000000003 9.87227388 -0.37377081000000006 -0.014763 0.038402 -0.000152
25180 0.00793629 9.86627997 -0.41913225000000004 -0.006185 0.051142 0.003096
25200 0.06691401 9.848621970000002 -0.42197715 0.005574 0.057489 0.004238
25220 0.09131148000000001 9.87780672 -0.43200297000000004 0.009841 0.060657 0.007469
25240 0.03726819 9.87675705 -0.42990363000000004 0.00233 0.051095 0.007428
25260 -0.03922038 9.865985669999999 -0.4363389900000001 -0.0083 0.061777 0.009477
25280 -0.01856052 9.86163984 -0.38723994000000006 -0.011573 0.044748 0.008408
25300 -0.01317483 9.90265545 -0.44577621000000006 -0.009463 0.037292 0.006295
25320 -0.0779895 9.89756406 -0.42002496 -0.008415 0.034088 0.007375
25340 -0.09415638000000001 9.860295870000002 -0.44666892 -0.015811000000000002 0.051155 0.00837
25360 -0.034874550000000004 9.855057330000001 -0.34906923 -0.008353 0.045815 0.005224
25380 0.03652263 9.87496182 -0.34623414 -0.005147 0.044747 0.003111
25400 0.05433759 9.829610190000002 -0.41793543000000005 -0.008395999999999999 0.037289 0.006303
25420 0.08172711 9.846826740000001 -0.40625172 -0.023322 0.03841 0.005129
25440 0.0663156 9.87646275 -0.35776089000000005 -0.023327 0.038406 0.006197
25460 -0.006141059999999999 9.873166590000002 -0.39876669 -0.015816 0.044784 0.003037
25480 -0.02829204 9.85939335 -0.51358293 -0.01053 0.036235 0.005221
25500 0.08412075 9.8794548 -0.45864693000000006 -0.019041 0.041591 0.005155
25520 0.11675862 9.87780672 -0.44802270000000005 -0.02226 0.037341 0.005138
25540 0.02170953 9.88364367 -0.45235872000000005 -0.019041 0.036286 -0.000179
25560 -0.06167547 9.891727110000001 -0.5146326 -0.004018 0.059653 0.004168
25580 -0.06646275 9.835594290000001 -0.52750332 -0.003038 0.043657 0.0074
25600 0.025143030000000004 9.7926363 -0.49442400000000003 -0.019002 0.056479 0.011545
25620 0.021258270000000003 9.871077060000001 -0.5427676800000001 -0.020007 0.065026 0.006186
25640 -0.03547296 9.8854389 -0.5438173500000001 -0.024284 0.06185 0.005092
25660 -0.01961019 9.90624591 -0.5644772100000001 -0.0318 0.053345 0.0071870000000000015
25680 -0.004188870000000001 9.860747130000002 -0.50131062 -0.034933 0.067209 0.006079
25700 0.04730382 9.81628821 -0.47960109000000006 -0.028484 0.0789 0.0071769999999999985
25720 0.07559586 9.862689510000001 -0.42062337 -0.031675 0.082103 0.008219
25740 -0.016765290000000002 9.86163984 -0.40715424 -0.033938 0.055470000000000005 0.010374
25760 -0.00359046 9.88380063 -0.41598324 -0.027494 0.066096 0.011474
25780 0.01032993 9.87256818 -0.44307846000000006 -0.024202 0.08102000000000001 0.006136
25800 0.02544714 9.87751242 -0.4016115900000001 -0.023102 0.086351 0.004001
25820 0.03053853 9.871077060000001 -0.37871505 -0.028542 0.061873 0.002926
25840 0.018413370000000002 9.87601149 -0.40026762 -0.027542 0.053322 0.009353
25860 0.07229970000000002 9.835751250000001 -0.40176855 -0.016835 0.063929 0.011551
25880 0.055083150000000004 9.84503151 -0.33380487 -0.01252 0.071383 0.008367
25900 0.0378666 9.89038314 -0.3468325500000001 -0.012553 0.06074400000000001 0.005176
25920 0.013469130000000001 9.910287630000001 -0.36583452 -0.00619 0.057504 0.010565
25940 0.01182105 9.85685256 -0.36927783000000003 0.005545 0.053219 0.006379999999999999
25960 0.045351630000000004 9.871077060000001 -0.35730963 0.007665000000000002 0.046833 0.003198
25980 -0.01542132 9.743684400000001 -0.45489951000000006 0.002311 0.04259 0.003166
26000 -0.01961019 9.97361118 -0.5022033300000001 -0.0008699999999999999 0.048985 0.005272
26020 0.08038314 9.9372357 -0.42017211000000004 -0.0040420000000000005 0.051143 0.000974
26040 0.00942741 9.880651620000002 -0.26958861 0.00234 0.045799 -4.2e-05
26060 -0.08532738000000001 9.83679111 -0.38065743 0.008655 0.036151 0.009628
26080 -0.0068866199999999995 9.85909905 -0.36389214000000003 0.007502 0.022285 0.014979
26100 0.032932170000000004 9.83664396 -0.31330197000000004 7.7e-05 0.025532 0.008514
26120 -0.06137136000000001 9.84248091 -0.36838512000000007 0.007545 0.026567 0.009633
26140 -0.05673123 9.86883057 -0.3617928 0.004335 0.027631 0.012814
26160 0.00942741 9.897868170000002 -0.31075136999999997 -0.008544 0.004265 0.006344
26180 0.025898400000000002 9.89622009 -0.3412899 -0.012778 0.008554 0.003104
26200 -0.03577707 9.863287920000001 -0.26884305000000003 -0.004248 0.013825 0.009567
26220 -0.0056898 9.84981879 -0.30192237 0.010717 0.019103 0.008596
26240 -0.055230299999999996 9.86223825 -0.35700552 0.009635 0.015911 0.008593
26260 0.016461180000000002 9.88619427 -0.29938158000000004 -0.018165 0.007465 0.01375
26280 0.02215098 9.867476790000001 -0.32452461 -0.036259 0.018177 0.014679
26300 0.045802890000000006 9.900860220000002 -0.36209691 -0.028685 0.030976 0.004033
26320 0.00987867 9.93453795 -0.41808258000000004 -0.004057 0.045826 -0.001155
26340 0.005542650000000001 9.915830280000002 -0.35251254000000004 0.011783 0.026527 0.016072
26360 0.04969746 9.86194395 -0.30192237 0.021275 0.0041140000000000005 0.018303
26380 0.10942074000000002 9.88260381 -0.30386475 0.036192 -0.007626000000000002 0.010945
26400 0.08128566000000001 9.92360961 -0.31883481 0.039388 -0.011886 0.0077680000000000015
26420 0.07739109000000001 9.90894366 -0.37242684 0.029637 -0.03957 0.013076
26440 0.13352391000000002 9.86388633 -0.29369178 0.031829 -0.02149 0.01841
26460 0.16555356 9.85984461 -0.20687328 0.04389 0.045602 0.013067
26480 0.10552617 9.86867361 -0.29173959000000005 0.060171 0.11051500000000003 0.016302
26500 0.10956789 9.898613730000001 -0.30686661000000004 0.049608 0.147781 0.030067
26520 0.21001248 9.90968922 -0.41822973 0.037863 0.145691 0.029988
26540 0.10822392 9.89157996 -0.38140299 0.019884 0.173482 0.022349
26560 0.07768538999999999 9.839940120000001 -0.37108287 0.009196 0.170319 0.023347
26580 0.07543890000000002 9.86568156 -0.3715243200000001 0.015425 0.139374 0.030908
26600 0.02664396 9.87646275 -0.36704115 -0.004989 0.11067 0.034006
26620 -0.06990606 9.82631403 -0.2951829 -0.0070989999999999985 0.109638 0.027584
26640 -0.00344331 9.874814670000001 -0.36059598 -0.027551 0.072411 0.030693
26660 0.05149269000000001 9.916879950000002 -0.32063004 -0.047004 0.023451 0.037029
26680 -0.01257642 9.88110288 -0.33724818 -0.063012 0.027746 0.042253
26700 0.008985960000000001 9.862542359999999 -0.29952873 -0.067371 0.00646 0.041182
26720 0.02754648 9.76972995 -0.22677777 -0.053425 0.026639 0.044458
26740 -0.02769363 9.86014872 -0.09669717 -0.057611 0.042641000000000005 0.042272
26760 -0.17678601 9.896524200000002 -0.1329255 -0.07235499999999999 0.078938 0.035713
26780 -0.06720831000000001 9.95205861 -0.26375166 -0.07644 0.099274 0.015362
26800 0.13367106 10.01357712 -0.33380487 -0.035967 0.076792 0.008196
26820 0.16989939 9.9372357 -0.29084688000000003 -0.005123 0.053256 0.006305
26840 0.12244842 9.97346403 -0.23964849 0.030165 0.06063300000000001 -0.00414
26860 0.17513793000000002 9.88110288 -0.24833034 0.033427 0.068104 -0.010536
26880 0.12334113000000002 9.80865603 -0.16420959 0.023792 0.065986 -0.005259000000000001
26900 0.03771945 9.93364524 -0.18920547 0.011879 0.034039 0.002176
26920 -0.19264878 9.94816404 -0.051041430000000006 0.011903 0.038304000000000005 0.001102
26940 -0.32706539999999995 9.91253412 -0.08067743999999999 0.003627 0.096919 0.002038
26960 -0.27228636 9.939776490000002 -0.15822549 -0.009074 0.120396 0.002987
26980 -0.17977806 9.84248091 -0.11016630000000001 -0.042157 0.118381 0.002759
27000 -0.09805095000000001 9.75072798 -0.27093258000000003 -0.058227 0.101401 0.000532
27020 0.004492980000000001 9.846669780000001 -0.41089185000000006 -0.047803 0.056584 0.010276
27040 0.16450389 9.89098155 -0.5206167 -0.025475 0.041584 0.012587
27060 0.18262296000000003 9.83425032 -0.6360313500000001 -0.041421 0.044874 0.002858
27080 0.1562733 9.75087513 -0.8066763 -0.080832 0.049311 -0.007037000000000002
27100 0.30565998000000005 9.849073230000002 -0.8403540300000001 -0.099127 0.016343 -0.004986
27120 0.20731473 9.79338186 -0.77403843 -0.0972 -0.018861000000000003 0.005755
27140 0.31225230000000004 9.75207195 -0.82463841 -0.078125 -0.056178 -0.0026100000000000003
27160 0.28276344 9.78170796 -0.64591002 -0.048071 -0.014741999999999996 -0.001385
27180 0.20462679 9.79368597 -0.50669631 -0.055491 0.000181 0.002817
27200 -0.06870924 9.8677809 -0.41538483 -0.069452 -0.013644 0.009146
27220 -0.11989782 9.855057330000001 -0.41149026 -0.06325599999999999 -0.052046 0.016715999999999998
27240 0.23381154 9.876158640000002 -0.32856633 -0.034365 -0.034033 0.015827
27260 0.5794472700000001 9.923315310000001 -0.10642868999999999 -0.0053100000000000005 0.013833000000000002 0.008491
27280 0.60803361 10.044714059999999 -0.026496810000000003 0.000134 0.031949 0.002096
27300 0.4716648 10.039926779999998 0.01152675 -0.002047 0.012816 -0.00644
27320 0.30761217 9.981694619999999 0.09879651 0.012946 0.027669 -0.004218
27340 0.49547367000000003 9.932742720000002 -0.0038945700000000004 0.038652 0.048889 -0.0051340000000000005
27360 0.48619341000000005 9.935891730000002 -0.022003830000000002 0.056908000000000014 0.074396 -0.006107
27380 0.21644784 9.907148430000001 -0.07768538999999999 0.056955999999999986 0.07974400000000001 -0.011455
27400 -0.08053029000000002 9.860295870000002 -0.23770611 0.053813 0.098904 -0.005092
27420 -0.07215255 9.84697389 -0.29429019 0.045312 0.106391 -0.005161
27440 -0.06900354 9.752670360000002 -0.45849978 0.048512 0.105319 -0.006205
27460 0.1619631 9.715843620000001 -0.44981793 0.035676 0.092602 -0.01162
27480 0.32332778999999995 9.89547453 -0.43454376000000006 0.033399 0.061712 -0.010528
27500 0.1995354 9.96148602 -0.35745678 0.032217 0.039333 -0.007303
27520 -0.08831943 9.861041430000002 -0.37616445 0.029954 0.007395 -0.010482
27540 -0.10492776000000001 9.62168724 -0.38080458 0.030858 -0.034133 -0.015764
27560 0.14864112000000002 9.70447383 -0.30072555 0.015869 -0.046859 -0.016921000000000002
27580 0.20611791 9.83470158 -0.28905165000000005 0.012678 -0.039413 -0.011611
27600 0.18186759 9.90834525 -0.30521853 0.010429 -0.058605999999999984 -0.005193
27620 0.008829 9.986933160000001 -0.33066567 -0.009875 -0.047954 0.012811
27640 0.19264878 9.938285370000001 -0.34428195 -0.041838 -0.037194 0.013642
27660 0.47256732 9.88634142 -0.2860596 -0.047052 -0.013727 0.010371
27680 0.5752584000000001 9.90879651 -0.13921371000000002 -0.032049 0.004318 0.013657
27700 0.35311095000000003 9.9372357 -0.07933347 -0.015993 0.021285 0.019089
27720 0.18786150000000001 10.011634740000002 -0.2860596 -0.017998 0.062786 0.03184
27740 0.31434183000000004 10.03228479 -0.19759302 -0.02636 0.10541 0.036000000000000004
27760 0.36209691 9.914633460000001 0.13321980000000003 -0.031455000000000004 0.152325 0.029495
27780 0.22857300000000003 9.74503818 0.44607051 -0.014255 0.168296 0.016776
27800 0.15507648000000004 9.96942231 0.30161826 -0.003755 0.130974 0.016897
27820 -0.01362609 10.05040386 0.28186092 -0.013466999999999998 0.121361 0.031797000000000006
27840 -0.06780672000000001 10.01223315 0.06421626 -0.018777 0.12034 0.025352
27860 -0.08427771 9.88574301 -0.008829 -0.001779 0.091569 0.012689
27880 0.07079877000000001 9.85909905 -0.09684432000000001 -0.000746 0.087291 0.015906
27900 0.0691605 9.870772950000003 -0.14025357000000002 0.00134 0.090424 0.029804
27920 -0.03517866 9.87361785 -0.15806852999999998 -0.013572 0.096864 0.030760000000000006
27940 0.005542650000000001 9.78529842 -0.2977335 -0.025226 0.095916 0.011451
27960 0.27123669 9.83290635 -0.40700709 -0.019925 0.090563 0.013632
27980 0.45161316 9.86223825 -0.36554022 -0.009372 0.072386 0.021206
28000 0.33440328 9.849073230000002 -0.29054277 -0.007228 0.070265 0.016951
28020 0.17812998000000002 9.80206371 -0.39158577000000006 -0.016643 0.109722 0.014698
28040 0.18217170000000002 9.796530870000002 -0.47331288 -0.027312 0.106577 0.011423
28060 0.20312586 9.87675705 -0.39802113000000006 -0.018906 0.08202899999999999 0.015786
28080 0.11241279000000001 9.916879950000002 -0.4107447 0.0076739999999999985 0.054268 0.00853
28100 0.06945480000000001 9.831258270000001 -0.48663486 0.010856 0.045752 0.00429
28120 0.031588200000000004 9.708809850000002 -0.26090676 -0.002994 0.052184 0.006322
28140 -0.06675705 9.80101404 -0.19893699 -0.023265 0.052254 0.00618
28160 -0.09490194 9.93349809 -0.24729048000000003 -0.011549 0.044769 0.0030670000000000003
28180 -0.09385227000000002 9.97181595 -0.20207619000000002 0.010918 0.057478 0.002139
28200 0.01362609 9.88215255 -0.21584943000000004 0.020496 0.048936 -0.0009880000000000002
28220 -0.01946304 9.8245188 0.026192700000000003 0.019501 0.07022300000000001 0.004319
28240 -0.15837263999999998 9.823174830000001 0.07858791000000001 -0.009305 0.069263 0.0030510000000000003
28260 -0.15701886 9.9167328 0.09011466 -0.024375 0.036305 -0.000217
28280 0.12094749 9.854910180000001 -0.15433092 -0.023361 0.027766 0.003006
28300 0.44472654 9.943072650000001 -0.37331955 -0.001932 0.048993 0.004197
28320 0.36554022 9.870920100000001 -0.07155414 0.002407 0.06813999999999999 0.007406999999999999
28340 0.07844076 9.893973599999999 -0.02140542 -0.023203 0.066103 0.006163
28360 0.11376657 9.911935710000002 -0.11331531000000002 -0.034039 0.026734 0.004001
28380 0.24174783000000002 9.90805095 -0.31928607000000003 -0.030953 0.003278 0.006189
28400 0.40131729000000005 9.90040896 -0.34159401 -0.012788 0.00218 -0.00116
28420 0.25267617 9.78156081 -0.05433759 -0.006344 0.010684 -0.002194
28440 0.25581537 9.829158930000002 -0.004492980000000001 -0.01694 0.038371 0.009446
28460 0.20926692000000002 9.93259557 -0.11451213 -0.040363 0.045922 0.006069
28480 0.20402838 9.974955150000001 -0.20642202000000004 -0.04365 0.023576 0.00287
28500 0.19609209 9.891128700000001 -0.25476570000000004 -0.045861 -0.004071 -0.007793
28520 0.41942655 9.83185668 -0.09340101 -0.026633 0.010737 0.001937
28540 0.41538483 9.848621970000002 -0.045351630000000004 -0.029767 0.037333 0.013631
28560 0.23545962 9.99681183 -0.12185001000000001 -0.004033 0.074494 0.022309
28580 0.24833034 9.94546629 -0.27198225000000004 0.006938 0.13308 0.013765
28600 0.42975648 9.86433759 -0.27857457 0.04015 0.153247 0.0032890000000000003
28620 0.45864693000000006 9.81434583 -0.12649014 0.012517 0.164048 -0.009737
28640 0.2371077 9.917625509999999 -0.008681849999999998 -0.040821 0.162117 -0.013312
28660 0.14624748 9.944867880000002 -0.055534410000000006 -0.054878 0.108949 -0.025092
28680 0.030391380000000003 9.8617968 -0.11121597 -0.037225 -0.012499 -0.0387
28700 0.11480643 9.86283666 -0.29982303 -0.02174 -0.118055 -0.028843
28720 0.25177365 9.795029940000001 -0.22034241 -0.015852 -0.214023 -0.010519
28740 0.24129657000000002 9.84637548 -0.05627997 -0.025592 -0.234272 0.000121
28760 0.08157996 9.87646275 -0.12558762 -0.03417 -0.257623 -0.013794999999999998
28780 0.03742515 9.90490194 -0.22168638000000002 -0.017072 -0.258718 -0.021152
28800 0.13666311 9.8968185 -0.31449879 0.004318 -0.24177 -0.015683000000000002
28820 0.30880899 9.81344331 -0.36314658000000005 0.010844 -0.214095 -0.015673
28840 0.40445649000000006 9.7897914 -0.18322137000000002 -0.009249 -0.17461 -0.015864
28860 0.32662395 9.85445892 -0.14130323999999997 -0.022903 -0.127685 -0.017088
28880 0.20731473 9.863287920000001 -0.23650929 -0.017434 -0.097876 -0.017088
28900 0.10552617 9.85520448 -0.30266793 -0.001292 -0.069162 -0.019148
28920 0.13277835000000002 9.87211692 -0.37781253 0.013975 0.006411 -0.017002
28940 0.32153256 9.82975734 -0.26090676 0.003483 0.050107 -0.012859
28960 0.24264054000000002 9.88409493 -0.14459940000000002 0.005703 0.060787 -0.021402
28980 0.13861530000000005 9.91628154 -0.18097488 0.019654 0.08945800000000001 -0.01066
29000 0.12529332 9.89696565 -0.38964339 0.042106 0.106398 -0.004115
29020 0.22902426 9.88380063 -0.21061089 0.050665 0.112756 -0.002995
29040 0.16839846000000003 9.99351567 -0.07634141999999998 0.039093 0.149016 -0.003123
29060 0.06691401 10.01866851 0.32827203 0.035926 0.158606 -0.001021
29080 -0.050148719999999994 9.86223825 0.7346709 0.032701 0.152229 -0.0021030000000000003
29100 -0.03652263 9.78620094 0.63139122 0.039069 0.146872 8.499999999999999e-05
29120 0.33110712 9.7234758 0.30027429 0.048718 0.170223 0.012941
29140 0.48993102000000005 9.855057330000001 0.06392196 0.02851 0.19157 0.02025
29160 0.5290042500000001 9.95010642 -0.07888221 0.018865 0.173528 0.01166
29180 0.6541406099999999 9.969118199999999 -0.33949467 0.013478 0.157585 0.0073700000000000015
29200 0.81416133 9.914486310000001 -0.40296537000000004 0.016655 0.150125 0.005265
29220 0.7234482600000001 9.88199559 -0.48155328000000003 0.015454 0.123484 0.008495
29240 0.35386632 9.85146687 -0.40715424 0.012234 0.122418 0.011679
29260 0.30581694000000004 9.80176941 -0.17394111 0.002747 0.149078 0.012647
29280 0.26764623000000004 9.91208286 -0.00718092 0.008048 0.135237 0.006292
29300 0.14923953 9.98872839 0.10568313 0.014401 0.124562 0.00635
29320 0.054484740000000004 9.879307650000001 0.11197134000000002 0.019702 0.119208 0.008531
29340 0.15717582000000002 9.854753220000003 0.16944813 0.016377000000000003 0.090462 0.007476000000000002
29360 0.13651596 9.86089428 0.28680516 0.019506 0.071289 0.004318
29380 -0.051041430000000006 9.962977140000001 0.28141947 0.022596 0.048898 0.006505
29400 -0.33964182000000004 9.92541465 0.05283666000000001 0.020381 0.026552 0.002245
29420 -0.23291883000000002 9.92960352 -0.07559586 0.01495 0.002083 -0.000966
29440 -0.10792962 9.807155100000001 0.0464013 0.007315 -0.030932 0.003295
29460 0.027242370000000002 9.80985285 -0.038023560000000005 -0.010937 -0.05855700000000001 0.001067
29480 0.08726976 10.005493680000002 -0.03907323000000001 -0.016347999999999998 -0.078765 -0.00215
29500 0.07634141999999998 9.95550192 -0.07589016 -0.014286000000000004 -0.09263 1.9e-05
29520 0.09640287000000002 9.90265545 -0.03577707 -0.017429 -0.076652 0.003181
