time Ax Ay Az Gx Gy Gz
20 -1.9363762800000002 9.556578270000001 1.21367358 0.046174 0.4541060000000001 0.151428
40 -2.05657821 9.52708941 1.21651848 0.05147 0.456176 0.162145
60 -2.0555285400000005 9.52379325 1.12386303 0.048102 0.408292 0.1515
80 -2.0070279 9.5987907 1.08928278 0.020287 0.357393 0.117188
100 -1.9866721500000002 9.60312672 1.11728052 -0.013256 0.201124 0.06481100000000001
120 -1.94190912 9.64504485 1.0434798900000002 -0.048673 0.092837 0.002746
140 -1.9461078 9.68291145 1.0255177800000002 -0.097931 -0.007949 -0.058358000000000014
160 -1.8958119300000003 9.72078786 0.9855518400000001 -0.138601 -0.090681 -0.113015
180 -1.80524601 9.759704130000001 0.98151012 -0.181477 -0.178774 -0.156999
200 -1.64178198 9.7579089 1.0270187100000001 -0.237069 -0.22961 -0.182959
220 -1.5323612400000002 9.68530509 1.01623752 -0.290489 -0.24859 -0.185445
240 -1.4642504099999998 9.63261558 1.0093509 -0.292723 -0.251855 -0.166228
260 -1.54209276 9.61166142 1.05350571 -0.209244 -0.133079 -0.104909
280 -1.5590052 9.48397446 1.10336013 -0.065819 0.036595 -0.036826
300 -1.6823561400000002 9.418414230000002 1.15918884 0.054086 0.18615 0.021504
320 -1.75360617 9.39791133 1.19481876 0.095766 0.234874 0.054847
340 -1.7600415300000003 9.29701548 1.48491027 0.116715 0.159123 0.065773
360 -1.8347348700000001 9.17277183 1.6136469 0.101218 0.027113 0.058355999999999984
380 -1.9296368099999999 9.16140204 1.66334436 0.0657 -0.058983 0.041127
400 -1.9779903 9.104513850000002 1.81182852 0.044142 -0.131252 0.017568
420 -1.9567320300000002 9.04883229 1.8990982800000002 0.029139 -0.170517 -0.0070560000000000015
440 -1.93442409 9.35150022 1.7615326500000001 0.033512 -0.15876700000000002 -0.01879
460 -1.94790303 9.691897410000001 1.22160987 0.034861 -0.08531 -0.008193
480 -1.8988039800000003 10.14619851 0.7866148500000001 0.036225 -0.009718 0.001334
500 -1.69671798 10.40366196 0.37407492000000003 0.043861 0.039211 0.013075
520 -1.47577716 10.2870603 0.5277976200000001 0.051248 0.034868 0.027019
540 -1.32953949 10.00324719 0.7605693 0.057486 0.00181 0.030309
560 -1.34390133 9.72856719 0.9512757000000001 0.07025 -0.014184 0.022942
580 -1.5518242800000004 9.5296302 1.15724646 0.069111 -0.030159 0.022954
600 -1.80075303 9.36347823 1.35498663 0.064762 -0.050376 0.020813
620 -2.00942154 9.28384065 1.32639048 0.064695 -0.070595 0.015497
640 -2.2040127000000003 9.35704287 1.1304455400000002 0.074292 -0.07169299999999999 0.015566
660 -2.2080544200000003 9.4516407 1.0737143100000002 0.081736 -0.071741 0.020959
680 -2.06526006 9.5034375 1.16697798 0.087123 -0.055797 0.025249
700 -2.04385464 9.596397060000001 1.2039420600000001 0.09252 -0.043029000000000005 0.024202
720 -1.97244765 9.61390791 1.0529073 0.097806 -0.042029 0.035988
740 -1.78489026 9.627975450000001 1.07102637 0.095735 -0.026051 0.03809
760 -1.84162149 9.633665250000002 1.10140794 0.092568 -0.017522 0.039125
780 -1.93817151 9.53082702 1.06548372 0.08507100000000001 -0.026009 0.036947
800 -1.88772849 9.53486874 1.0716247800000003 0.08077000000000001 -0.036634 0.033726
820 -1.8220113000000002 9.52424451 1.0961694000000002 0.079689 -0.041949 0.031589
840 -1.87500492 9.56705535 1.12760064 0.083975 -0.034519 0.034814
860 -1.81423197 9.54370755 1.0867419900000002 0.068035 -0.02592 0.02935
880 -1.8047947500000001 9.577532430000002 1.0503665100000001 0.049941 -0.025818 0.01961
900 -1.8312915600000002 9.596240100000001 1.1166821100000002 0.031881 -0.022504 0.005593
920 -1.8955078200000002 9.58382064 1.09527669 0.016984 -0.028783 -0.009458
940 -1.8824899500000003 9.64698723 1.03494519 0.002057 -0.042516000000000005 -0.025568
960 -1.83712851 9.57379482 1.12865031 -0.015104 -0.074367 -0.037398
980 -1.8522457200000002 9.558373500000002 1.17909333 -0.022634 -0.090312 -0.039567000000000005
1000 -1.87575048 9.509578560000001 1.16892036 -0.021548 -0.084993 -0.038498
1020 -1.8800865 9.55897191 1.1493101700000001 -0.020405 -0.067953 -0.038511
1040 -1.83443076 9.55163403 1.11293469 -0.01175 -0.041351 -0.038485000000000005
1060 -1.79761383 9.53158239 1.1135331000000002 -0.006358 -0.026464 -0.03633
1080 -1.84042467 9.50717511 1.13015124 -0.003186 -0.032867 -0.0363
1100 -1.79656416 9.493254720000001 1.1485646100000002 -0.001129 -0.05098 -0.03733
1120 -1.84940082 9.49430439 1.16787069 0.004118999999999999 -0.06699 -0.034068
1140 -1.86647022 9.46406997 1.1567952000000001 0.011529 -0.075555 -0.029733
1160 -1.8339893100000002 9.46047951 1.20484458 0.020059 -0.07346799999999999 -0.026471
1180 -1.8345877200000003 9.4860738 1.20993597 0.027556 -0.06179700000000001 -0.021093
1200 -1.8422199000000001 9.528737490000001 1.15170381 0.035087 -0.043731 -0.01679
1220 -1.8068940900000001 9.57604131 1.12536396 0.038311000000000005 -0.028867 -0.007173000000000001
1240 -1.8299475900000002 9.59474898 1.0873404 0.047994 -0.005486 -0.001794
1260 -1.84850811 9.60582447 1.0493168400000001 0.046956 0.006215 0.003525
1280 -1.7784549 9.60343083 1.03510215 0.055534 0.017894 0.005706
1300 -1.76841927 9.59085441 1.04946399 0.0502 0.012608 0.000334
1320 -1.78683264 9.56990025 1.0585971 0.050166 0.006212 0.001411
1340 -1.76932179 9.58651839 1.04333274 0.027738 -0.002219 -0.00194
1360 -1.7850374100000002 9.6133095 1.02611619 0.027748 0.000973 -0.0008759999999999999
1380 -1.8299475900000002 9.61824393 1.0135397700000002 0.02781 0.019065 0.0033740000000000003
1400 -1.85704281 9.620196120000001 1.0178856 0.030011000000000006 0.038215 0.007638
1420 -1.92289734 9.633213990000002 1.00665315 0.034307 0.049897 0.012994
1440 -1.9369746900000002 9.62079453 1.00320984 0.037498 0.049877 0.015153
1460 -1.94145786 9.60178275 1.02327129 0.028844 0.025398 0.01726
1480 -1.94805018 9.56375919 1.02327129 0.035259 0.028571 0.017301
1500 -1.9369746900000002 9.57543309 1.00530918 0.040728 0.062624 0.021569
1520 -1.9279887300000003 9.549387540000001 1.02865698 0.034327 0.061585 0.020457
1540 -1.9398195900000001 9.53981298 1.00471077 0.037508 0.050947000000000006 0.014084
1560 -1.9778333399999999 9.50434002 1.06413975 0.024672 0.044596 0.015069999999999997
1580 -1.9968451200000001 9.51556266 1.0370445300000004 0.015085 0.048886 0.016066
1600 -1.91616768 9.5321808 1.04197896 -0.00743 0.023402000000000003 0.014873
1620 -1.94745177 9.55612701 1.04916969 0.027983 0.072269 0.018263
1640 -1.93382568 9.572598000000001 0.9867486599999999 0.017169999999999998 0.032921 0.01076
1660 -1.87424955 9.60148845 0.9587607300000001 0.017988 -0.038392 -0.005166
1680 -1.9380243600000002 9.604029240000001 0.9354031200000001 0.025509 -0.028822000000000007 -0.007262
1700 -1.96436421 9.61555599 0.8940932100000001 0.02648 -0.042704 0.00024
1720 -1.90164888 9.59833944 1.01085183 -0.0013310000000000002 -0.07131799999999999 -0.012737
1740 -1.91556927 9.5350257 1.02910824 0.0052380000000000005 -0.036178 -0.014872
1760 -1.99624671 9.5065767 1.0041123600000001 0.013999 0.023409 -0.005273
1780 -1.95642792 9.537115230000001 1.00740852 -0.0074680000000000015 -0.009523 -0.009654
1800 -1.9007463600000003 9.528580530000001 0.9749178000000001 0.002349 0.040502 -0.007513
1820 -1.8797922000000002 9.59100156 0.9113097600000001 -0.002788 0.08738 -0.004404
1840 -1.92409416 9.7174917 0.8244814500000002 -0.017537 0.133221 -0.000293
1860 -1.7871367500000002 9.5469939 1.01698308 -0.028053 0.15992 -0.007878
1880 -1.9417619700000002 9.552683700000001 0.9572598 -0.020249 0.236585 -0.005786
1900 -1.84087593 9.57678687 1.03015791 -0.033974000000000004 0.271774 -0.002722
1920 -1.64522529 9.5788764 1.0612948500000001 -0.042433 0.282482 -0.009204
1940 -1.7316023400000002 9.5321808 1.06024518 -0.049906 0.272955 -0.01779
1960 -1.8965574900000002 9.56944899 1.02117195 -0.059488 0.273005 -0.02213
1980 -1.79027595 9.51735789 1.04018373 -0.064703 0.302839 -0.019
2000 -1.82904507 9.55059417 1.07985537 -0.073266 0.297538 -0.017985
2020 -2.03232789 9.57109707 1.05276015 -0.068061 0.274062 -0.012577
2040 -1.99639386 9.49954293 1.0377900899999999 -0.050963 0.306919 0.014206
2060 -2.02872762 9.536968080000001 1.0743127199999998 -0.054173 0.331325 0.040858
2080 -2.01136392 9.49430439 1.06758306 -0.078764 0.334547 0.055637
2100 -2.0368110600000007 9.49040982 1.03030506 -0.045341 0.4344770000000001 0.078175
2120 -1.91197881 9.524538810000001 1.0584499500000002 -0.04514 0.487706 0.086654
2140 -1.9208078100000001 9.53921457 1.02057354 -0.040781 0.493077 0.07172200000000001
2160 -1.97933427 9.51690663 1.0000706400000001 -0.040877 0.4601 0.060014
2180 -1.90254159 9.48368016 0.99887382 -0.062516 0.37927 0.046079
2200 -1.8452119500000002 9.53082702 1.02177036 -0.078816 0.30267 0.035381
2220 -1.8119854800000001 9.52424451 0.98988786 -0.073626 0.26963200000000004 0.034392
2240 -1.86332121 9.56600568 0.9104072400000001 -0.071439 0.273916 0.026924
2260 -1.8785953800000001 9.655973190000001 0.86205375 -0.081123 0.250535 0.021545
2280 -1.7768068200000002 9.6796251 0.95965344 -0.08113200000000001 0.251587 0.024748
2300 -1.88233299 9.584870310000001 0.94078881 -0.092791 0.270794 0.026779
2320 -2.04639543 9.73081368 0.77239035 -0.106665 0.262351 0.019215
2340 -1.93517946 9.6856092 0.79769034 -0.108933 0.225104 0.011769
2360 -2.0184075 9.56660409 0.89393625 -0.112114 0.238925 0.021343
2380 -2.04983874 9.526491 0.8866081800000001 -0.10356 0.256949 0.035267
2400 -1.9315791900000001 9.44775594 0.9036677700000001 -0.099226 0.293068 0.056615
2420 -1.9293425100000001 9.42619356 0.91834353 -0.096996 0.331342 0.073673
2440 -1.8562874400000002 9.55388052 0.90322632 -0.097871 0.386688 0.08641499999999999
2460 -1.8696094200000002 9.544149 0.9636951600000001 -0.095709 0.399438 0.092823
2480 -2.01256074 9.44520534 1.00815408 -0.081902 0.387664 0.095071
2500 -2.07318654 9.49385313 1.0011203100000001 -0.06815700000000001 0.365223 0.100537
2520 -2.0678008500000002 9.51242346 0.9749178000000001 -0.05968 0.35241 0.100613
2540 -2.05761807 9.472898970000001 1.02027924 -0.056585 0.326841 0.098531
2560 -2.0686935600000007 9.48353301 1.01234295 -0.046026 0.292754 0.089034
2580 -1.9410164100000002 9.526491 0.98076456 -0.041893 0.25760700000000003 0.083767
2600 -1.81782243 9.59400342 0.9681881400000001 -0.037717 0.232047 0.078488
2620 -1.79761383 9.63605889 0.9168426000000001 -0.032474 0.206483 0.073216
2640 -1.8546393600000002 9.6508818 0.8707356 -0.032560000000000006 0.185186 0.07110599999999999
2660 -1.90059921 9.712557270000001 0.83107377 -0.032641 0.166016 0.070062
2680 -1.92095496 9.67273848 0.87417891 -0.030469 0.171347 0.066866
2700 -1.89026928 9.604029240000001 0.8842145400000001 -0.029302 0.192653 0.065778
2720 -1.8332339400000002 9.620196120000001 0.9096616800000001 -0.032493 0.193734 0.06468600000000001
2740 -1.79910495 9.59938911 0.94513464 -0.030369 0.187352 0.060436
2760 -1.81273104 9.584723160000001 1.01204865 -0.033564 0.184184 0.056145000000000014
2780 -1.8238065300000001 9.56211111 1.01009646 -0.041095 0.16611800000000002 0.051842999999999986
2800 -1.78788231 9.5062824 1.0448238600000002 -0.05384 0.176824 0.049604
2820 -1.7794947600000002 9.52618689 1.05770439 -0.0709 0.163099 0.033479
2840 -1.7745603300000001 9.57169548 1.07865855 -0.071034 0.117356 0.017513
2860 -1.7597374200000002 9.58336938 1.08988119 -0.060509 0.07899500000000001 0.011227
2880 -1.72591254 9.5612184 1.15320474 -0.054156 0.061954 0.004883
2900 -1.7438746500000002 9.54684675 1.14167799 -0.044602 0.045963 -0.00037
2920 -1.81617435 9.54639549 1.18418472 -0.046712 0.048114 -0.003593
2940 -1.7615326500000001 9.558069390000002 1.15050699 -0.044564 0.050241 -0.004649
2960 -1.72232208 9.54474741 1.13957865 -0.042325 0.071547 -0.006797
2980 -1.6820520300000001 9.6016356 1.12940568 -0.04131 0.06300900000000001 -0.003574000000000001
3000 -1.64418543 9.53067987 1.16038566 -0.036077 0.048047 0.003959000000000001
3020 -1.57412241 9.608669370000001 1.06189326 -0.031843 0.044819 0.008265999999999999
3040 -1.4852143800000002 9.51721074 1.09542384 -0.01806 0.025596 0.008387
3060 -1.52607303 9.572293890000001 1.0717719300000002 -0.008477 0.02024 0.007392
3080 -1.52413065 9.64474074 0.9759674700000001 -0.002105 0.019131 0.012779
3100 -1.4769739800000001 9.639649350000001 0.89558433 0.005286 0.004183 0.014987
3120 -1.49329782 9.57813084 0.9666872100000001 0.015869 -0.011846 0.018286
3140 -1.5521185800000001 9.64294551 0.99468495 0.029671 -0.027869 0.017335
3160 -1.6293625200000001 9.589961700000002 0.9370512 0.037043 -0.04814 0.01848
3180 -1.69267626 9.53127828 0.99782415 0.041239 -0.065195 0.017463
3200 -1.70675361 9.672287220000001 1.03329711 0.033794 -0.060903 0.016337
3220 -1.6853481900000002 9.66465504 1.03674042 0.02315 -0.061906 0.009855
3240 -1.63610199 9.552536550000001 1.07536239 0.012419 -0.086327 -0.0008710000000000001
3260 -1.62501669 9.63890379 1.0806009300000001 0.001765 -0.083094 -0.000949
3280 -1.63610199 9.667794240000001 1.04946399 -0.004517 -0.063867 -0.008495
3300 -1.69238196 9.63486207 1.05366267 -0.005521 -0.06168600000000001 -0.020256
3320 -1.60061922 9.565407270000001 1.16353467 -0.00445 -0.069112 -0.028785
3340 -1.59074055 9.59504328 1.18807929 0.000851 -0.07871 -0.030872000000000007
3360 -1.5563172600000001 9.600134670000001 1.23732549 0.007219 -0.090433 -0.035085000000000005
3380 -1.5126039000000002 9.621392940000002 1.2606831000000003 0.013553 -0.105369 -0.035022000000000005
3400 -1.5471841500000003 9.5959458 1.3271360399999999 0.016749 -0.110689 -0.039265
3420 -1.63070649 9.6101703 1.3349251800000002 0.025231 -0.12562 -0.042392
3440 -1.6651395900000001 9.57588435 1.3192095600000002 0.033881 -0.096901 -0.039163
3460 -1.7284533300000002 9.556274160000001 1.3642668900000001 0.043506 -0.08418099999999999 -0.031635
3480 -1.7757571500000002 9.53457444 1.3379172300000002 0.057251 -0.100255 -0.019768
3500 -1.7295030000000002 9.53936172 1.22864364 0.069962 -0.108869 -0.007918000000000001
3520 -1.6780103100000001 9.51855471 1.19391624 0.067819 -0.101443 0.001672
3540 -1.74267783 9.54355059 1.1220678 0.05306 -0.06622 -0.002749
3560 -1.70944155 9.53606556 1.06503246 0.025327 -0.074607 -0.012546
3580 -1.66633641 9.549240390000001 1.06832862 0.006161 -0.07344500000000001 -0.020159
3600 -1.6711236900000002 9.59400342 1.0891356300000001 -0.011961 -0.083979 -0.034158999999999995
3620 -1.6631874 9.596691360000001 1.1049984000000002 -0.020424 -0.079641 -0.045974
3640 -1.70016129 9.58920633 1.1139843600000001 -0.031078 -0.093384 -0.063123
3660 -1.7863813800000001 9.604029240000001 1.17595413 -0.030026 -0.107193 -0.07378
3680 -1.8263473200000002 9.528737490000001 1.22625 -0.026849 -0.116775 -0.07801799999999999
3700 -1.80075303 9.5239404 1.34300862 -0.011975 -0.127492 -0.074696
3720 -1.7500157100000002 9.58291812 1.4278847399999999 0.005071 -0.12439 -0.066035
3740 -1.7003182500000003 9.63022194 1.43042553 0.025331 -0.110677 -0.049888
3760 -1.6829545500000003 9.59819229 1.43551692 0.044602 -0.083098 -0.03697
3780 -1.7486619300000001 9.54564993 1.46754657 0.055338 -0.062917 -0.031579
3800 -1.8049419 9.48741777 1.48850073 0.054228 -0.06931699999999999 -0.028374
3820 -1.7875782 9.50778333 1.3278914099999999 0.046702 -0.085257 -0.031611
3840 -1.8059915700000002 9.504781470000001 1.2350790000000003 0.035976 -0.102247 -0.035937000000000004
3860 -1.7847431100000002 9.47200626 1.09138212 0.029551 -0.102246 -0.030641
3880 -1.7717154300000002 9.42619356 1.1011136400000001 0.02314 -0.096927 -0.023215
3900 -1.7125905600000002 9.46796454 1.06174611 0.027532 -0.061818 -0.015752000000000002
3920 -1.6766663400000001 9.55447893 1.05395697 0.035187 -0.011811 -0.007217
3940 -1.6070545800000002 9.5987907 1.0734200100000002 0.043789 0.008378 -0.001841
3960 -1.6426844999999999 9.67018788 1.0627859700000002 0.053362 0.003014 -0.000699
3980 -1.6880361300000002 9.69922548 1.04422545 0.06179700000000001 -0.017265 0.001522
4000 -1.62756729 9.688149990000001 1.06009803 0.06914 -0.04711 -0.000525
4020 -1.69881732 9.6713847 1.1533518900000002 0.07223500000000001 -0.072679 -0.002607
4040 -1.8067469400000002 9.624384990000001 1.2274468200000002 0.071135 -0.08013200000000001 -0.002605
4060 -1.72471572 9.552683700000001 1.3232512800000003 0.07863099999999999 -0.062095 0.009175
4080 -1.77261795 9.5498388 1.38567231 0.08187 -0.03873 0.024122
4100 -1.78219251 9.50702796 1.3156092899999998 0.083014 -0.012141 0.033710000000000004
4120 -1.7115408900000002 9.561365550000001 1.3202592299999998 0.07362300000000001 0.037947 0.036785000000000005
4140 -1.79686827 9.57977892 1.18089837 0.066376 0.084854 0.034538
4160 -1.84102308 9.58681269 1.09662066 0.0481 0.047658 0.028049
4180 -1.80614853 9.620048970000001 1.04857128 0.05475 0.094542 0.019489
4200 -1.7341431300000003 9.61121016 1.04782572 0.025945 0.075544 8.4e-05
4220 -1.6739685900000003 9.60208686 1.04886558 -0.0007740000000000001 0.044826 -0.020359
4240 -1.60420968 9.60268527 1.0597939200000002 -0.018959 0.019382 -0.035409
4260 -1.6741157400000002 9.59924196 1.06383564 -0.02759 -0.008259 -0.041843
4280 -1.76647689 9.58157415 1.1177219699999998 -0.016916 -0.004048 -0.038569
4300 -1.85015619 9.5788764 1.1364394500000001 -0.001904 0.028859 -0.022483000000000003
4320 -1.8422199000000001 9.5697531 1.2190690800000001 0.01531 0.07242799999999999 -0.010668
4340 -1.8794880900000002 9.57932766 1.25200125 0.031366000000000005 0.086212 -0.008437
4360 -1.91227311 9.577385280000001 1.27444653 0.039853 0.08189600000000001 -0.001963
4380 -1.98007983 9.497149290000001 1.36126503 0.038628 0.053112 0.004475
4400 -1.9597240800000002 9.45209196 1.3781872800000001 0.033125 0.023273 0.011952
4420 -1.9314320400000002 9.51646518 1.2115840500000001 0.028863 0.027537 0.015121
4440 -1.84386798 9.42740019 1.31725737 0.02782 0.039233 0.021508000000000003
4460 -1.87799697 9.40853556 1.2742993800000002 0.030011000000000006 0.058374 0.027909
4480 -1.78697979 9.437877270000001 1.14900606 0.041747 0.06788200000000001 0.037592
4500 -1.73249505 9.49984704 1.10140794 0.064213 0.093324 0.049467
4520 -1.77066576 9.58217256 1.06099074 0.07486699999999999 0.09964 0.05914700000000001
4540 -1.7398329300000002 9.624836250000001 0.9294190200000001 0.07059 0.10389 0.06552100000000001
4560 -1.7661727800000002 9.66195729 0.91639134 0.053626 0.118897 0.056838
4580 -1.8366772500000002 9.67034484 0.88929612 0.032293 0.107305 0.043885
4600 -1.8694622699999999 9.69219171 0.88885467 0.013994 0.055234000000000005 0.027801
4620 -1.7440218 9.62333532 0.94932351 0.010367 -0.042746 0.024696
4640 -1.75300776 9.58695984 1.02566493 0.021213 -0.004429 0.023655
4660 -1.78548867 9.57963177 1.03225725 0.012754 0.003096 0.013972
4680 -1.8631740600000002 9.588009510000001 1.0464719400000002 0.011606 -0.023498 0.005452
4700 -1.9113705900000002 9.57903336 0.9842078700000001 0.01585 -0.024595 0.009756
4720 -1.87769286 9.57094992 0.997677 0.023064 -0.073653 0.017347
4740 -1.8272498400000001 9.62917227 0.96414642 0.036928 -0.052486 0.039849
4760 -1.7624351699999998 9.660014910000001 0.9693849600000001 0.050960000000000005 0.009148 0.065506
4780 -1.78025013 9.668696760000001 0.97342668 0.070346 0.070781 0.086927
4800 -1.8089836200000002 9.61450632 1.01099898 0.075718 0.101566 0.109357
4820 -1.7896775400000002 9.55777509 1.0388397600000001 0.110059 0.175896 0.13941199999999998
4840 -1.75225239 9.52828623 1.0472175000000001 0.144496 0.266226 0.164106
4860 -1.6679844900000003 9.53577126 1.0096550100000001 0.148783 0.299119 0.192936
4880 -1.6854953400000003 9.57303945 0.82748331 0.14765799999999998 0.298011 0.20468
4900 -1.90224729 9.47230056 0.8301712500000001 0.194552 0.275523 0.193286
4920 -1.7500157100000002 9.50508558 0.8617594500000001 0.249924 0.265687 0.207572
4940 -1.67710779 9.61570314 0.6740451000000001 0.223945 0.194356 0.219232
4960 -1.5045204600000002 9.667941390000001 0.63139122 0.183098 0.121016 0.2137
4980 -1.3840242299999999 9.708662700000001 0.63871929 0.16908 0.07424800000000001 0.199775
5000 -1.42174368 9.771976440000001 0.6719555700000001 0.170175 0.051989 0.170969
5020 -1.60630902 9.71344998 0.70144443 0.141044 -0.04369 0.14738800000000002
5040 -1.8217071900000001 9.72587925 0.70353396 0.092781 -0.148788 0.098047
5060 -1.94625495 9.715549320000001 0.7201521000000001 0.037602 -0.141964 0.037832
5080 -1.93592502 9.711350640000001 0.66686418 -0.037182 0.0066370000000000005 -0.029110000000000007
5100 -1.8965574900000002 9.751169430000001 0.73108044 -0.0855 0.083874 -0.121414
5120 -1.78353648 9.67258152 0.8169964200000002 -0.061713 0.115903 -0.159745
5140 -1.8541979100000001 9.63396936 0.8786718900000001 -0.113301 0.059513 -0.132259
5160 -1.77261795 9.5959458 0.86370183 -0.120666 -0.093045 -0.070158
5180 -1.26906084 9.756113670000001 1.01009646 -0.069686 -0.088123 -0.013193
5200 -1.05186744 9.5122665 1.1795445900000001 -0.015444 -0.096951 0.016040000000000002
5220 -1.15095825 9.298663560000001 1.12910157 -0.004881 -0.129973 0.006542
5240 -1.3075356599999999 9.632321280000001 0.95261967 0.018705 -0.136319 -0.025332
5260 -1.30184586 9.64638882 0.9532180800000001 0.041008 -0.1715 -0.03795
5280 -1.24211277 9.63337095 1.04991525 -0.029692000000000007 -0.242596 -0.04583
5300 -1.408716 9.61435917 1.0945213200000001 -0.06352999999999999 -0.242209 -0.113365
5320 -1.76363199 9.58023018 1.0653365700000001 -0.058979 -0.182556 -0.116614
5340 -2.1255817500000003 9.53232795 1.0044066600000001 -0.002426 -0.21245300000000006 -0.148228
5360 -2.1921916500000003 9.60642288 0.68317821 -0.015483000000000004 -0.255074 -0.134377
5380 -1.6398396000000002 9.54310914 0.54636795 -0.058349 -0.251913 -0.088747
5400 -0.7637085 9.72932256 0.8789760000000001 -0.103349 -0.252988 -0.047399
5420 -0.48409407000000004 9.71809011 0.6257014200000001 -0.115295 -0.27223200000000003 -0.019684
5440 -0.6114769200000002 9.71105634 0.33006726 -0.098158 -0.245707 -0.007848
5460 -1.0352493 9.75102228 0.27961443 -0.065807 -0.17230299999999998 -0.010921
5480 -1.1870296200000001 9.7547697 0.30161826 -0.034624 -0.13718 -0.029976
5500 -1.15904169 9.57813084 0.47062494000000005 -0.016554 -0.153219 -0.030898
5520 -0.90756234 9.76090095 0.7349750100000001 -0.027371 -0.16074000000000002 -0.005326
5540 -0.95950629 9.80131815 0.96773688 -0.06250599999999999 -0.134028 0.005076
5560 -1.71273771 9.82212516 0.7894597500000001 -0.063376 -0.083983 0.011415
5580 -2.00777346 9.59474898 0.56582118 -0.050603 -0.086175 0.015780000000000002
5600 -1.78039728 9.6859035 0.39218418 -0.033121 -0.010537 -0.000218
5620 -1.14332607 9.73066653 0.6039918900000002 -0.040282 0.049178 -0.00889
5640 -1.0927260900000004 9.6622614 0.7857123300000001 -0.063796 0.020575 -0.028246
5660 -1.3042395000000002 9.55133973 0.85247919 -0.055988 0.079206 -0.045358
5680 -1.5967344600000002 9.55148688 0.80247762 -0.056026 0.069623 -0.046414
5700 -1.7115408900000002 9.518260410000002 0.72105462 -0.067939 0.035554 -0.041113
5720 -1.6573504500000003 9.61914645 0.7059276 -0.053930999999999986 0.073825 -0.033586000000000005
5740 -1.6597440900000002 9.605373210000002 0.6210612900000001 -0.046185 0.14089000000000002 -0.028277
5760 -1.49090418 9.68650191 0.7235954100000002 -0.060116 0.133456 -0.021955
5780 -1.2460073400000002 9.69878403 0.93764961 -0.065441 0.148337 -0.009193000000000002
5800 -1.20723822 9.70132482 1.0985630400000002 -0.064197 0.187748 -0.009235
5820 -1.5061685400000002 9.712106010000001 1.04826717 -0.063847 0.26339 -0.011466
5840 -1.70405586 9.620941680000001 1.04752161 -0.084939 0.30187800000000004 -0.027686
5860 -1.90359126 9.61869519 1.03135473 -0.074439 0.266679 -0.025431
5880 -1.97050527 9.66240855 1.18972737 -0.053370000000000015 0.198461 -0.033742
5900 -1.91556927 9.51346332 1.21127994 -0.030918 0.221768 -0.020796
5920 -1.87006068 9.53113113 1.10290887 -0.038323 0.243069 -0.013397999999999998
5940 -1.8220113000000002 9.62154009 1.1485646100000002 -0.026598 0.235593 -0.018647
5960 -1.7061552 9.66630312 1.05890121 0.007240000000000002 0.180033 -0.006589
5980 -1.78039728 9.549691650000002 0.98704296 0.014224 0.075598 -0.0032020000000000004
6000 -1.81467342 9.508528890000001 1.02417381 0.059037 0.094544 0.015246
6020 -1.78593993 9.545797080000002 1.07940411 0.099793 0.159315 0.03254
6040 -1.73204379 9.56675124 1.06682769 0.064558 0.15198599999999998 0.031235
6060 -1.7700673500000002 9.68890536 1.14272766 0.019611 0.130798 0.040562
6080 -1.6612450200000002 9.60148845 1.14976143 -0.025207 0.121398 0.032783
6100 -1.68834024 9.50164227 1.32175035 -0.087262 0.076894 0.027066000000000003
6120 -1.8074925000000002 9.56375919 1.2802834800000003 -0.158708 0.068686 0.010554
6140 -1.7754530400000001 9.552536550000001 1.08538821 -0.218707 -0.008785 -0.01113
6160 -1.58401089 9.65013624 0.97072893 -0.21786 -0.086438 -0.039867
6180 -1.5070612500000002 9.62333532 1.08404424 -0.163522 -0.119583 -0.056537
6200 -1.6167861 9.61196553 1.13314329 -0.036594 -0.129601 -0.058842
6220 -1.5308701200000001 9.65057769 1.06039233 0.070475 -0.034143 -0.047534
6240 -1.48865769 9.6713847 0.96788403 0.094454 0.095669 -0.030441000000000006
6260 -1.35752742 9.711801900000001 0.6882696 0.060152 0.053204 -0.037036
6280 -1.2650191200000003 9.95833701 0.76850559 0.042909 0.005365 -0.046709
6300 -1.15200792 9.76269618 1.1135331000000002 0.10127 -0.06833099999999999 -0.049411
6320 -1.25798535 9.63935505 1.31261724 0.126578 -0.13765 -0.052351
6340 -1.3078299600000003 9.53846901 1.17939744 0.074417 -0.105535 -0.046347
6360 -1.29720573 9.37141452 1.14976143 0.044885 -0.008576 -0.025313
6380 -1.4852143800000002 9.30420621 1.08898848 -0.006682 0.148204 -0.026942
6400 -1.84581036 9.46347156 1.16921466 -0.037223 0.194289 -0.06994299999999999
6420 -2.0507314500000002 9.45658494 1.02581208 0.020404 0.398767 -0.106122
6440 -2.11225977 9.56630979 0.8348113800000001 0.049622 0.422375 -0.174315
6460 -1.96151931 9.703875420000001 0.56627244 -0.011233 0.325998 -0.262211
6480 -1.80090018 9.75716334 0.3844048500000001 -0.041946 0.374052 -0.264623
6500 -1.39450131 9.90205704 0.5882762699999999 -0.06451799999999999 0.382469 -0.218858
6520 -0.96444072 9.75087513 1.08344583 -0.075762 0.259979 -0.213439
6540 -0.94468338 9.719591040000001 1.15244937 -0.083604 0.156756 -0.233657
6560 -0.90277506 10.0237599 1.03689738 -0.081528 0.078183 -0.299772
6580 -0.79574796 10.02884148 0.77239035 -0.032770999999999995 0.294064 -0.24950100000000006
6600 -0.84992859 9.878709240000001 0.90411903 0.056401 0.4619470000000001 -0.219183
6620 -1.19556432 9.7695828 1.2555917100000002 0.084766 0.391428 -0.191121
6640 -1.99939572 9.46676772 1.31381406 0.076665 0.324048 -0.117384
6660 -2.55294459 9.49415724 1.45033002 0.068449 0.216248 -0.058551
6680 -2.77209018 9.42709608 1.1964668400000003 0.035733999999999995 0.0152 -0.102319
6700 -1.9118218500000002 9.317969640000001 1.09691496 0.006462999999999999 -0.108189 -0.122662
6720 -1.22175702 9.34192566 1.2849236099999999 0.032864 0.113117 -0.077896
6740 -1.10844171 9.65507067 1.40287905 0.146035 0.333376 -0.11263900000000003
6760 -0.93645279 9.63291969 1.5293691900000002 0.115799 0.197348 -0.168223
6780 -1.00501488 9.66166299 1.6724676600000001 0.018393 0.119949 -0.175214
6800 -1.56904083 9.58860792 1.62921537 -0.02665 0.103982 -0.139188
6820 -1.96885719 9.59549454 1.37443986 -0.081041 0.150873 -0.096899
6840 -2.2998171600000004 9.55987443 1.06802451 -0.108521 0.218043 -0.087563
6860 -2.2878391500000004 9.46990692 1.01877831 -0.103661 0.101953 -0.098063
6880 -2.04983874 9.75072798 0.98405091 -0.087425 -0.125903 -0.14038599999999998
6900 -1.4852143800000002 9.763598700000001 1.02716586 -0.093917 -0.137632 -0.13187100000000002
6920 -1.4804172899999999 9.77392863 1.31217579 -0.063237 -0.126299 -0.062237
6940 -1.60630902 9.59520024 1.3913522999999999 -0.028067 0.12701600000000002 -0.037747
6960 -2.14563339 9.421553430000001 1.03943817 -0.023694 0.179084 -0.008941
6980 -2.3257155600000003 9.24566994 0.75727314 -0.01082 0.174859 -0.029142
7000 -2.75861124 9.274413240000001 0.8243343 0.011321 0.109826 -0.035313
7020 -3.0006631800000005 9.449698320000001 0.94783239 0.024974 0.059717999999999986 -0.03729
7040 -2.36941911 9.442664550000002 0.96534324 0.037565 -0.017967 -0.06808099999999999
7060 -1.9115275500000002 9.39655755 1.30873248 0.104768 -0.032004000000000005 -0.07934400000000001
7080 -1.67710779 9.27591417 1.2660687899999998 0.126005 -0.025802 -0.050361
7100 -1.8696094200000002 9.16379568 0.9699833700000001 0.140802 -0.052503 -0.045951
7120 -2.33784072 9.01664568 0.8855585100000001 0.100117 -0.083258 -0.045128
7140 -2.6955918000000003 9.038953620000001 0.6336279 0.058174 -0.122668 -0.010119
7160 -2.98509471 9.31512474 0.40445649000000006 0.01527 -0.11954 0.044057
7180 -2.7397564200000004 9.56615283 0.34159401 0.009142 -0.026968 0.075942
7200 -2.6286875999999997 9.66734298 0.5872266 0.017811 -0.008841 0.064229
7220 -2.5020503100000004 9.51211935 0.33949467 0.065165 0.029557 0.0111
7240 -2.67239115 10.037229029999999 0.6529437900000001 0.080413 0.073283 -0.014487
7260 -2.96084439 9.67482801 0.61207533 0.111232 0.012591 -0.048377
7280 -3.02131323 9.552536550000001 0.50804028 0.110978 -0.058722 -0.063243
7300 -2.7641538900000002 9.52199802 0.34847082000000007 0.088228 -0.110939 -0.038766
7320 -2.6538306300000003 9.38638458 0.33425613 0.105332 -0.107786 -0.042923
7340 -2.6839179 9.37125756 0.40012047 0.10524100000000003 -0.119538 -0.034363
7360 -2.54470419 9.54519867 0.7960422600000001 0.082072 -0.010965 0.006997
7380 -2.78869851 9.35644446 1.08255312 0.093172 0.093359 0.015486000000000003
7400 -2.7928873800000003 9.41362695 1.3674060900000002 0.092354 0.129659 -0.003794
7420 -2.89318482 9.41107635 1.47772935 0.069027 0.212627 0.047211
7440 -2.80905426 9.352854 1.39509972 0.084188 0.289167 0.073925
7460 -2.8584574200000006 9.16154919 1.2250531800000002 0.061928 0.34985 0.102534
7480 -3.01846833 9.122780070000001 1.0388397600000001 0.033908999999999995 0.501312 0.07864299999999999
7500 -3.24091008 9.16559091 0.8240400000000001 0.097043 0.7218399999999999 0.020049
7520 -3.2415084899999997 9.33234129 0.71820972 0.161716 0.817695 -0.030897000000000008
7540 -2.98284822 9.477087840000001 0.8414037000000001 0.195851 0.787863 -0.059462
7560 -2.8210322700000003 9.49086108 0.7945511400000002 0.283382 0.752587 -0.104739
7580 -2.6113239 9.56256237 0.99648018 0.259261 0.413741 -0.061744000000000014
7600 -2.43962928 9.36347823 1.0041123600000001 0.146057 0.156317 -0.056864
7620 -2.4209118000000007 9.42379992 1.11144357 0.07487200000000001 0.038106 -0.003799
7640 -2.56371597 9.445960710000001 1.06892703 0.081554 -0.083574 0.049815
7660 -2.9514169800000003 9.222174990000001 1.0642869000000001 0.134458 0.08231799999999999 0.076677
7680 -3.30856965 9.10960524 1.0139910300000001 0.22114 0.382408 0.08117100000000001
7700 -3.2660629200000004 9.254057490000001 1.01893527 0.238284 0.587078 0.031891
7720 -3.03957945 9.40449384 1.20529584 0.234944 0.551953 0.027639
7740 -3.1584276000000004 9.38114604 1.19735955 0.267079 0.5317970000000001 -0.021249
7760 -3.2935995900000004 9.358838100000002 1.16068977 0.260534 0.531692 0.010753
7780 -3.5022681 9.318725010000001 1.1322407700000001 0.264778 0.587889 0.072667
7800 -3.5043674400000002 9.16064667 0.78871419 0.277614 0.618643 0.096218
7820 -3.30887376 9.015448860000001 0.49741605 0.322317 0.6290020000000001 0.1307
7840 -2.70292968 9.14717754 0.5580418500000002 0.354097 0.584128 0.136321
7860 -2.47644621 9.039699180000001 1.02177036 0.40237 0.6478550000000001 0.14191700000000002
7880 -2.69709273 9.25331193 1.30273857 0.4508390000000001 0.771173 0.163462
7900 -2.28948723 9.65746431 1.9327760100000002 0.483055 0.855068 0.200968
7920 -1.86092757 9.675877680000001 1.41815322 0.476942 0.905213 0.186974
7940 -2.04280497 9.5728923 0.58648104 0.360021 0.814871 0.236479
7960 -2.53917135 9.5640633 -0.13441662000000001 0.304142 0.712851 0.223401
7980 -2.97446067 9.39610629 -0.29907747 0.221955 0.6452 0.16309300000000002
8000 -3.4007738400000003 9.30091005 -0.29443734 0.136208 0.488116 0.093261
8020 -3.48729804 9.25735365 -0.40430934 0.089055 0.354406 0.005509
8040 -3.1931550000000004 9.35614035 -0.20776599 0.073244 0.33129000000000003 -0.060802
8060 -2.50219746 9.32680845 -0.17378415000000003 0.058313 0.301639 -0.091846
8080 -2.03097411 9.35510049 -0.17513793000000002 0.03267 0.275169 -0.110151
8100 -2.10746268 9.485024130000001 -0.23770611 0.018762 0.257146 -0.119839
8120 -2.13875658 9.66076047 -0.23261472000000002 0.010294 0.277395 -0.114583
8140 -2.5267420800000004 9.38713014 -0.2137599 0.008126999999999999 0.281617 -0.102853
8160 -2.66894784 9.41721741 -0.46658322 0.01979 0.278329 -0.089949
8180 -2.6586179100000003 9.56735946 -0.94453623 0.025034 0.269741 -0.078151
8200 -2.7129555000000005 9.599085 -1.29181023 0.038893 0.274989 -0.070583
8220 -2.57330034 9.30824793 -1.16861625 0.054949 0.291956 -0.065152
8240 -2.0395088100000005 9.3730626 -1.02461526 0.056963 0.2685 -0.061903
8260 -1.98771201 9.2054097 -1.21412484 0.042993 0.249361 -0.058771
8280 -1.9955011500000002 9.33728553 -1.0523088900000002 0.037635 0.249358 -0.053468
8300 -2.5653640500000003 9.26064 -1.21098564 0.034238 0.201449 -0.057703
8320 -2.89588257 9.472751820000001 -1.61723736 0.030946 0.181221 -0.0577
8340 -2.7204405300000003 9.73860282 -1.69537401 0.047963 0.170504 -0.056499
8360 -2.6876653200000002 9.580073220000001 -1.5364029600000002 0.058435 0.129974 -0.053169000000000015
8380 -2.59590258 9.48772188 -1.5359517 0.056177 0.104407 -0.051016000000000006
8400 -2.43274266 9.47320308 -1.5983727300000001 0.045518 0.095964 -0.061762
8420 -2.3712143400000003 9.43668045 -1.71587691 0.025137 0.07471699999999999 -0.058672
8440 -2.38469328 9.412871580000001 -1.83502917 -0.008022 0.06838999999999999 -0.046077
8460 -2.39412069 9.40000086 -1.8425141999999999 -0.009022 0.090734 -0.038635
8480 -2.38843089 9.34536897 -1.81108296 -0.000525 0.077938 -0.042832
8500 -2.3936694300000005 9.36706869 -1.7585406000000001 0.003718 0.068353 -0.047063
8520 -2.41447644 9.46751328 -1.86991353 0.011206 0.063039 -0.056618
8540 -2.43348822 9.48741777 -1.9559864700000003 -0.0005780000000000001 0.043939 -0.065222
8560 -2.4281025300000003 9.409281120000001 -1.74701385 -0.020843 0.046137 -0.06429800000000001
8580 -2.4462117900000004 9.39266298 -1.6507679400000002 -0.021781 0.100367 -0.038737
8600 -2.44291563 9.44835435 -1.79686827 -0.047376 0.10258699999999997 -0.038918
8620 -2.31493437 9.413175690000001 -1.8735039900000001 -0.008988 0.115167 -0.021575
8640 -2.31239358 9.40000086 -1.7088431400000001 0.008076999999999999 0.132079 -0.003317
8660 -2.3861844000000003 9.44775594 -1.66902435 0.019817 0.140531 0.004231
8680 -2.33858628 9.47095659 -1.5470370000000002 0.044523 0.187278 0.013958000000000002
8700 -2.4869331000000003 9.40733874 -1.56005487 0.055211 0.194685 0.017228
8720 -2.54994273 9.346114530000001 -1.5958319400000003 0.051957 0.187222 0.021487
8740 -2.5512965100000002 9.28489032 -1.7058510900000003 0.024128 0.159652 0.013851
8760 -2.6090774100000003 9.1157463 -1.75375332 0.011062 0.086253 -0.001101
8780 -2.5791372900000002 9.230258430000001 -1.7136402300000002 -0.003937 0.039566 -0.034261
8800 -2.6925997500000003 9.3503034 -1.70180937 -0.025331 0.000332 -0.061066
8820 -2.72927934 9.42066072 -1.63115775 -0.040229 -0.008069 -0.078251
8840 -2.7725316300000005 9.46242189 -1.55107872 -0.045381 0.017575 -0.093275
8860 -2.6450016300000003 9.16424694 -1.5328125000000001 -0.03776 0.050577 -0.094332
8880 -2.46806847 9.155712240000002 -1.6082514 -0.042936 0.087871 -0.09228
8900 -2.5406624700000005 9.114696630000001 -1.64822715 -0.053346000000000005 0.15604300000000002 -0.08175700000000001
8920 -2.4212159100000004 9.31408488 -1.8348820200000002 -0.074434 0.226365 -0.06704
8940 -2.58767199 9.64983213 -1.9281358800000001 -0.088087 0.294509 -0.046926
8960 -2.7939370500000003 9.34536897 -1.8365301 -0.092163 0.345623 -0.038474
8980 -2.6900589600000004 9.425448000000001 -1.81483038 -0.098382 0.389308 -0.035369
9000 -2.6179064100000002 9.337883940000001 -1.6845928200000002 -0.088541 0.438294 -0.039636000000000005
9020 -2.59320483 9.30644289 -1.7188787700000001 -0.087502 0.425533 -0.046022
9040 -2.3716656 9.40374828 -1.82979063 -0.091818 0.428688 -0.032169
9060 -2.3623853400000003 9.223518960000002 -1.62637047 -0.07779 0.478647 -0.01718
9080 -2.35085859 9.21947724 -1.7980650900000001 -0.069174 0.512642 -0.00114
9100 -2.3457672 9.2808486 -1.82530746 -0.08333099999999999 0.471056 0.021247
9120 -2.4400805400000003 9.3152817 -1.82665143 -0.091928 0.457237 0.021205
9140 -2.5532388900000003 9.34895943 -1.738332 -0.07144199999999999 0.488127 0.004217
9160 -2.6304828300000005 9.317969640000001 -1.6384956300000002 -0.056535 0.475317 -0.002072
9180 -2.7698436900000005 9.27531576 -1.5670886400000001 -0.041857 0.429412 0.00984
9200 -2.8149010200000006 9.35225559 -1.5618501 -0.029295 0.386714 0.020664
9220 -2.8303125300000005 9.30150846 -1.50362775 -0.039064 0.349463 0.020644
9240 -2.7521758800000002 9.19986705 -1.43700804 -0.049776 0.343096 0.023782
9260 -2.8801571400000006 9.23489856 -1.53341091 -0.058421 0.346211 0.051491
9280 -2.8425848400000002 9.2603457 -1.67980554 -0.037209 0.325867 0.059143
9300 -2.90500587 9.30899349 -1.72246923 -0.005174 0.334268 0.061492
9320 -2.73705867 9.31916646 -1.68384726 0.011953 0.353358 0.067997
9340 -2.5611751800000007 9.34536897 -1.71648513 0.030989 0.312823 0.064977
9360 -2.6364669300000005 9.46975977 -1.82710269 0.041337 0.235047 0.05874
9380 -2.3543019000000003 9.306599850000001 -1.8244049400000002 0.051779999999999986 0.186004 0.059944
9400 -2.32227225 9.449698320000001 -1.784439 0.070763 0.141178 0.064407
9420 -2.14698717 9.445960710000001 -1.81123011 0.09719 0.104794 0.082798
9440 -2.19652767 9.35584605 -1.76587848 0.130037 0.072648 0.101228
9460 -2.21419548 9.35689572 -1.6381915200000001 0.145729 -0.0061990000000000005 0.091825
9480 -2.2379945400000003 9.41556933 -1.66842594 0.150833 -0.07751 0.071656
9500 -2.4319971000000002 9.51466014 -1.90254159 0.15071800000000002 -0.129601 0.045016
9520 -2.39591592 9.42979383 -1.9505909700000001 0.144202 -0.17848699999999998 0.021532
9540 -2.2579088400000003 9.302254020000001 -1.87290558 0.132413 -0.213506 -0.002006
9560 -2.2829047200000003 9.24058836 -1.85764122 0.11209 -0.251678 -0.028805
9580 -2.35789236 9.274413240000001 -1.9369746900000002 0.08869099999999999 -0.255776 -0.049259
9600 -2.33155251 9.52738371 -2.1312715500000006 0.062197 -0.216268 -0.049495
9620 -2.25236619 9.41392125 -2.18829708 0.045194 -0.197051 -0.045365
9640 -2.15581617 9.43503237 -2.1333610800000002 0.041028 -0.177849 -0.048624
9660 -2.01076551 9.541009800000001 -2.12677857 0.054036 -0.136331 -0.052859
9680 -1.8462616200000002 9.6016356 -2.0281292100000003 0.070384 -0.063932 -0.05711
9700 -1.83502917 9.564956010000001 -1.82964348 0.066467 0.024457 -0.046569
9720 -1.7546558400000003 9.53936172 -1.7440218 0.052746 0.072383 -0.031771
9740 -1.7884807200000001 9.50733207 -1.6739685900000003 0.050905 0.127823 -0.041469
9760 -1.87829127 9.350156250000001 -1.5712873200000002 0.053379 0.191778 -0.053284000000000005
9780 -1.88727723 9.242530740000001 -1.4904529199999998 0.051312 0.188662 -0.07145399999999999
9800 -1.98547533 9.49116519 -1.5160472100000002 0.051351 0.202489 -0.066131
9820 -2.0809756800000003 9.56944899 -1.66842594 0.053451 0.207757 -0.053304
9840 -2.08860786 9.353295450000001 -1.63070649 0.055714 0.220597 -0.069328
9860 -2.06091423 9.19493262 -1.6167861 0.057637 0.179022 -0.06392
9880 -2.17932093 9.1012275 -1.6148437199999999 0.047934 0.149258 -0.071427
9900 -2.2526703000000006 9.214984260000001 -1.6055634600000002 0.019095 0.138719 -0.07482
9920 -2.3751089100000002 9.28953045 -1.70180937 -0.004462 0.128115 -0.066425
9940 -2.45264715 9.24986862 -1.69252911 -0.009705 0.14094600000000002 -0.073956
9960 -2.58587676 9.26932185 -1.6763622299999998 -0.017374 0.114268 -0.055815
9980 -2.7117586800000004 9.3446136 -1.68938991 -0.010247 0.06513300000000001 -0.028997
10000 -2.7919946700000002 9.35405082 -1.77201954 0.026614 -0.01712 -0.004065
10020 -2.77463097 9.293876280000001 -1.8775457100000001 0.080736 -0.06531100000000001 0.012398
10040 -2.84947146 9.28399761 -1.95104223 0.128712 -0.047472 0.038348
10060 -2.7981357300000003 9.397155960000001 -2.03726232 0.153336 0.011935 0.079036
10080 -2.7782214300000003 9.345212010000001 -2.23170633 0.153393 0.069281 0.123828
10100 -2.7602593200000003 9.37170882 -2.40983631 0.134123 0.100057 0.16958800000000002
10120 -2.40744267 9.3964104 -2.3556556800000004 0.10947 0.114895 0.209989
10140 -2.25236619 9.32320818 -2.3141888100000005 0.083731 0.12017 0.245054
10160 -2.18650185 9.24851484 -2.1911419800000003 0.072966 0.119061 0.265276
10180 -2.2360521600000003 9.139996620000002 -2.185452180000001 0.071871 0.114795 0.26741
10200 -2.37915063 9.18130653 -2.19982383 0.080425 0.107355 0.255729
10220 -2.21584356 9.1387998 -2.24652924 0.091223 0.101067 0.220561
10240 -2.1644980200000004 9.123829740000001 -2.27527254 0.10205 0.076767 0.160848
10260 -2.1944381400000004 9.21918294 -2.30326047 0.105327 0.033323 0.100038
10280 -2.1894939 9.21349314 -2.3875381800000004 0.086109 -0.003758 0.065768
10300 -1.9820320200000001 9.24881895 -2.43633312 0.050855 -0.030202 0.049532
10320 -1.8269555400000002 9.37949796 -2.6158070700000002 0.009223 -0.050237 0.034312
10340 -1.8959590800000001 9.47544957 -2.77477812 -0.023898 -0.076689 0.018091
10360 -2.0736378 9.51525855 -2.7759749400000002 -0.035647000000000005 -0.095759 0.00201
10380 -2.22257322 9.465266790000001 -2.7336153600000004 -0.033552 -0.114899 -0.008633
10400 -2.32227225 9.41871834 -2.66745672 -0.026257 -0.162824 -0.018135
10420 -2.34052866 9.34057188 -2.68810677 -0.015832 -0.222494 -0.023326
10440 -2.42480637 9.2777094 -2.6479936800000003 -0.00315 -0.25447600000000004 -0.028538
10460 -2.4822831600000006 9.18998838 -2.5367777100000004 0.0033090000000000003 -0.243837 -0.030643
10480 -2.5168634100000005 9.126821790000001 -2.4212159100000004 -0.005135 -0.20553 -0.012591
10500 -2.55503412 9.13775013 -2.31208947 -0.019918 -0.131071 0.027803
10520 -2.60443728 9.17337024 -2.36253249 -0.02728 -0.069413 0.06612799999999999
10540 -2.57299623 9.23983299 -2.3891862600000002 -0.021692 0.015674 0.0949
10560 -2.63527011 9.21333618 -2.4881299200000004 0.000966 0.08797 0.110989
10580 -2.6698503600000003 9.17157501 -2.4768974700000004 0.027839 0.14535 0.123922
10600 -2.56686498 9.15286734 -2.4180669 0.028136 0.21670100000000006 0.129174
10620 -2.44501497 9.015154560000001 -2.35085859 0.018856 0.276437 0.117282
10640 -2.3755601700000004 8.959316040000001 -2.3316996600000004 0.022406 0.323421 0.086268
10660 -2.30835186 9.0206874 -2.36104137 0.029042 0.331034 0.041439
10680 -2.27391876 9.19477566 -2.4578856900000003 0.017403000000000002 0.317367 0.006124
10700 -2.23574805 9.39057345 -2.51551944 -0.023052 0.320769 -0.010186
10720 -2.2010206500000002 9.365577570000001 -2.5406624700000005 -0.079466 0.336996 -0.02342
10740 -2.07019449 9.402100200000001 -2.5126745400000003 -0.12853699999999998 0.32868400000000003 -0.033366
10760 -2.00387889 9.49924863 -2.52300447 -0.147865 0.284078 -0.050535
10780 -1.96780752 9.53427033 -2.4737582700000003 -0.142746 0.219147 -0.067508
10800 -1.97020116 9.492960420000001 -2.4050490300000003 -0.130102 0.168033 -0.08337699999999999
10820 -1.92454542 9.41272443 -2.3546060100000004 -0.117372 0.14246 -0.092869
10840 -2.07633555 9.33219414 -2.26628658 -0.119534 0.130771 -0.098211
10860 -2.3084990100000002 9.26543709 -2.1338123400000004 -0.132452 0.107372 -0.096135
10880 -2.55862458 9.14029092 -2.1157030800000003 -0.140131 0.06477000000000001 -0.091861
10900 -2.72672874 9.04883229 -2.03936166 -0.143561 0.022137 -0.083284
10920 -2.7336153600000004 9.02458197 -2.0119623300000002 -0.14898699999999998 0.017830000000000002 -0.06729299999999999
10940 -2.6994863700000002 9.071738640000001 -2.13007473 -0.132902 0.053921 -0.049067
10960 -2.6815242599999998 9.24552279 -2.23320726 -0.10491 0.12832000000000002 -0.030807
10980 -2.6174551500000005 9.35105877 -2.2020703200000002 -0.080051 0.225071 -0.00512
11000 -2.57284908 9.30480462 -2.1356075700000003 -0.058267999999999986 0.34846900000000003 0.019443
11020 -2.46312423 9.206302410000001 -2.042206560000001 -0.047058 0.480478 0.031102
11040 -2.20745601 9.10586763 -2.00403585 -0.052946000000000014 0.594484 0.030915
11060 -2.0115208800000004 9.12562497 -2.01406167 -0.072828 0.6755359999999999 0.025331
11080 -1.9717020900000002 9.20450718 -2.19473244 -0.092839 0.716155 0.008048
11100 -1.8799393500000001 9.31332951 -2.40190983 -0.114004 0.728054 -0.018821
11120 -1.7446202100000001 9.37529928 -2.406393 -0.123941 0.63336 -0.039065
11140 -1.6805511 9.421710390000001 -2.35625409 -0.128573 0.5205850000000001 -0.071
11160 -1.67860872 9.46676772 -2.2936761 -0.13108599999999998 0.415216 -0.092247
11180 -1.65555522 9.355247640000002 -2.27437002 -0.132411 0.346025 -0.103918
11200 -1.6808552100000003 9.31408488 -2.34353052 -0.139023 0.290687 -0.112439
11220 -1.6536128400000003 9.27351072 -2.36778084 -0.138239 0.220406 -0.119821
11240 -1.6687300500000002 9.27575721 -2.428249680000001 -0.129002 0.13941199999999998 -0.119652
11260 -1.87290558 9.4049451 -2.49246594 -0.105847 0.075389 -0.112999
11280 -2.14818399 9.51840756 -2.4656748299999998 -0.075153 0.036867 -0.096712
11300 -2.37974904 9.50702796 -2.42600319 -0.042291 0.010039 -0.076152
11320 -2.6779338 9.42784164 -2.3628366 -0.009372 0.003421 -0.04814
11340 -2.9440791 9.41602059 -2.2748212800000003 0.022538 0.0074680000000000015 -0.022285
11360 -3.0627801 9.38518776 -2.15311842 0.050210000000000005 0.022165 0.0078
11380 -2.9047115700000004 9.34013043 -2.00043558 0.071461 0.032624 0.037845
11400 -2.6268825600000003 9.27575721 -1.8492536700000002 0.093788 0.039905 0.062561
11420 -2.22661494 9.24927021 -1.82605302 0.10976199999999997 0.04725 0.07655
11440 -1.8984998700000002 9.32111865 -1.8905733900000001 0.12788 0.052475 0.086284
11460 -1.7425306800000002 9.33518619 -2.04639543 0.14383900000000002 0.047076 0.090675
11480 -1.36126503 9.33997347 -2.0986336800000003 0.158728 0.038493 0.092926
11500 -1.25992773 9.414823770000002 -2.12378652 0.161904 0.032094 0.091889
11520 -1.22041305 9.449247060000001 -2.17392543 0.154407 0.018302 0.08437599999999999
11540 -1.2955576500000001 9.398804040000002 -2.25042381 0.134151 0.008836 0.07142799999999999
11560 -1.34405829 9.44326296 -2.36613276 0.119239 -0.0017 0.055314
11580 -1.35258318 9.47499831 -2.4525 0.110709 -0.013337 0.042451
11600 -1.3798353600000002 9.541009800000001 -2.5168634100000005 0.111752 -0.026094 0.034997
11620 -1.3892627700000002 9.584566200000001 -2.51073216 0.114905 -0.03888 0.032899
11640 -1.42488288 9.65731716 -2.4553449 0.110556 -0.056975 0.032892000000000005
11660 -1.49793795 9.663752520000001 -2.41867512 0.10192 -0.079315 0.03286
11680 -1.62412398 9.643691070000001 -2.37182256 0.090089 -0.108007 0.025337
11700 -1.7232147899999999 9.62887797 -2.3599917 0.077205 -0.132437 0.018869
11720 -1.7961129 9.55119258 -2.31942735 0.068613 -0.152618 0.011357
11740 -1.77665967 9.46077381 -2.2522190400000004 0.060049 -0.165346 0.004904
11760 -1.76961609 9.484729830000001 -2.16719577 0.055815 -0.168484 -0.005804
11780 -1.8046476000000002 9.52230213 -2.10582441 0.047352 -0.16839 -0.021886000000000003
11800 -1.8345877200000003 9.51735789 -2.07918045 0.033555 -0.162973 -0.032672
11820 -1.8047947500000001 9.53562411 -2.0269323900000003 0.023991 -0.158661 -0.037017
11840 -1.8323412300000002 9.469308510000001 -1.99205784 0.019724 -0.163951 -0.042381
11860 -1.83203712 9.35629731 -1.9540342800000001 0.019676 -0.17566500000000002 -0.043435
11880 -1.76528007 9.289677600000001 -1.9679546700000001 0.015418 -0.177763 -0.047734
11900 -1.71842751 9.25135974 -2.02453875 0.011199 -0.166035 -0.046711
11920 -1.6691813100000001 9.25106544 -2.08007316 0.00486 -0.14792 -0.042505
11940 -1.6524160200000002 9.337736790000001 -2.18320569 0.004908 -0.138328 -0.043586
11960 -1.65166065 9.365871870000001 -2.22257322 0.011381 -0.124494 -0.045695
11980 -1.6266647700000003 9.43248177 -2.22632064 0.018906 -0.11492 -0.048859
12000 -1.6572033000000002 9.464962680000001 -2.23485534 0.022073 -0.120266 -0.046693
12020 -1.70480142 9.414676620000002 -2.2601455200000005 0.026307 -0.125615 -0.044521
12040 -1.81048455 9.33069321 -2.27527254 0.031608 -0.129908 -0.041273
12060 -1.87844823 9.26962596 -2.27676366 0.031584 -0.126746 -0.032732
12080 -1.94190912 9.267379470000002 -2.35265382 0.033713 -0.117209 -0.022047
12100 -2.03845914 9.3039021 -2.38888215 0.035856 -0.104476 -0.011366
12120 -2.0821725 9.31692978 -2.4298977600000002 0.038019 -0.088543 -0.001757
12140 -2.07169542 9.32485626 -2.4321442500000003 0.036985 -0.072594 0.006761
12160 -2.06270946 9.30944475 -2.38603725 0.039191 -0.05344 0.009956
12180 -2.04714099 9.27890622 -2.35609713 0.04244 -0.039615 0.013166
12200 -2.03082696 9.273961980000001 -2.33349489 0.049975 -0.02791 0.009999
12220 -2.0249900100000002 9.22082121 -2.33035569 0.053247 -0.018309 0.0036
12240 -2.07753237 9.23669379 -2.38034745 0.050109 -0.007631999999999998 0.00036
12260 -2.12318811 9.26393616 -2.47465098 0.039531 0.006279 -0.006141
12280 -2.1363531300000003 9.32755401 -2.50923123 0.032116000000000006 0.020145 -0.004074
12300 -2.1612018600000003 9.370659150000002 -2.5225532100000003 0.025744 0.029742 -0.000927
12320 -2.1734839800000003 9.3556989 -2.4878258100000004 0.022558 0.038254 0.004381
12340 -2.12273685 9.322315470000001 -2.4742095300000004 0.025758 0.040365 0.006538
12360 -2.07827793 9.27575721 -2.4608777400000004 0.034283 0.036083 0.004466
12380 -2.0404113300000004 9.27920052 -2.46058344 0.036417000000000005 0.03077 -0.0008529999999999999
12400 -2.02648113 9.30299958 -2.46642039 0.034298 0.029729 -0.00514
12420 -2.0767770000000003 9.30509892 -2.4801936300000005 0.027978 0.042556 -0.010541
12440 -2.1155461200000003 9.302254020000001 -2.4462117900000004 0.016338 0.062842 -0.011717
12460 -2.1623986800000004 9.33204699 -2.42929935 0.002517 0.077787 -0.007559999999999998
12480 -2.2091040900000003 9.3326454 -2.42839683 -0.00274 0.093789 -0.008685
12500 -2.23529679 9.3010572 -2.41133724 -0.006926000000000001 0.110852 -0.009804
12520 -2.2601455200000005 9.28414476 -2.3812499700000003 -0.00683 0.126852 -0.015165
12540 -2.27571399 9.27890622 -2.36747673 -0.008907 0.13964300000000002 -0.015196
12560 -2.30356458 9.26857629 -2.3406856200000004 -0.015265 0.152436 -0.012052
12580 -2.3185248300000003 9.25599987 -2.30295636 -0.018422 0.16309500000000002 -0.01102
12600 -2.32586271 9.27935748 -2.2966779600000002 -0.023723 0.172693 -0.008933
12620 -2.29038975 9.271274040000002 -2.2870935900000005 -0.022622 0.179085 -0.010002
12640 -2.24473401 9.27306927 -2.28754485 -0.021556 0.180142 -0.008927
12660 -2.2478732100000003 9.239381730000002 -2.27826459 -0.019455 0.17161700000000002 -0.00997
12680 -2.2866423300000003 9.2316024 -2.31763212 -0.017388999999999998 0.156696 -0.009936
12700 -2.2748212800000003 9.238341870000001 -2.3628366 -0.012107 0.147081 -0.007751000000000002
12720 -2.2866423300000003 9.23669379 -2.4062458500000004 -0.011055 0.148126 -0.003472
12740 -2.33289648 9.25659828 -2.4557961600000002 -0.013189 0.154499 0.002915
12760 -2.3224194000000002 9.31512474 -2.516265 -0.020604 0.166243 0.002848
12780 -2.35295793 9.30345084 -2.52061083 -0.029086 0.182235 0.007041
12800 -2.34652257 9.21603393 -2.5491971700000002 -0.031224 0.183299 0.009161
12820 -2.33200377 9.20465433 -2.5474019400000003 -0.031330000000000004 0.158802 0.008123
12840 -2.3403815100000003 9.192234870000002 -2.5515908100000004 -0.026115 0.13003 0.00606
12860 -2.35924614 9.222174990000001 -2.5219548000000005 -0.019839 0.097006 0.000805
12880 -2.3369382 9.24148107 -2.52061083 -0.016725 0.07145399999999999 -0.005549
12900 -2.32361622 9.203163210000001 -2.53782738 -0.01573 0.051227 -0.00979
12920 -2.2977178200000004 9.186545070000001 -2.51207613 -0.025379 0.039547000000000006 -0.01091
12940 -2.26927863 9.23564412 -2.5177659300000004 -0.031843 0.025721 -0.010938
12960 -2.27766618 9.255254310000002 -2.5265949300000003 -0.035091000000000004 0.009774 -0.016281
12980 -2.26418724 9.26408331 -2.5261436700000006 -0.029829 -0.008345 -0.018357
13000 -2.27063241 9.27142119 -2.50923123 -0.022442 -0.030725 -0.02255
13020 -2.22572223 9.26094411 -2.51117361 -0.012956 -0.054203 -0.020317
13040 -2.1734839800000003 9.281898270000001 -2.5098296400000004 -0.006631000000000001 -0.064903 -0.01385
13060 -2.16794133 9.27067563 -2.5135770600000003 -0.000264 -0.062834 -0.004194
13080 -2.16315405 9.24207948 -2.5224060600000002 0.009348 -0.050127 0.006539
13100 -2.20266873 9.24447312 -2.52120924 0.021131 -0.028905 0.017276
13120 -2.2519149300000003 9.30136131 -2.56491279 0.0308 -0.003415 0.027993
13140 -2.26164645 9.286234290000001 -2.54171214 0.038378 0.025304 0.032282
13160 -2.23380567 9.23115114 -2.55488697 0.046956 0.041228 0.038731
13180 -2.19668463 9.17367435 -2.48423535 0.050128 0.033763999999999995 0.037695
13200 -2.17078623 9.16888707 -2.47825125 0.048989 0.014606 0.034507
13220 -2.17063908 9.20031831 -2.4200190900000003 0.041469 -0.007696 0.0238
13240 -2.1838041 9.326651490000001 -2.43558756 0.032857 -0.033198000000000005 0.015227
13260 -2.2162948200000003 9.34192566 -2.42540478 0.023164 -0.064015 0.004517
13280 -2.18590344 9.290128860000001 -2.4161245200000003 0.023006 -0.105535 -0.001841
13300 -2.17602477 9.27680688 -2.38962771 0.027125 -0.146 -0.009237
13320 -2.17932093 9.274560390000001 -2.3688207 0.035535000000000004 -0.177971 -0.013411
13340 -2.16315405 9.32590593 -2.3523595200000003 0.041778 -0.209964 -0.010121
13360 -2.1427983000000004 9.3039021 -2.3019165 0.05127 -0.235559 -0.01109
13380 -2.0926495800000002 9.29192409 -2.3020636500000005 0.056527 -0.253683 -0.012099
13400 -2.0700473400000003 9.29686833 -2.30460444 0.062775 -0.28036700000000003 -0.004543
13420 -2.08157409 9.33503904 -2.31299199 0.070114 -0.297484 0.00728
13440 -2.11180851 9.32905494 -2.30535981 0.079715 -0.28903 0.015882
13460 -2.13276267 9.362281410000001 -2.3456200500000004 0.081854 -0.277362 0.026564
13480 -2.183509800000001 9.34491771 -2.3635821600000004 0.081887 -0.266722 0.029756
13500 -2.2233285900000004 9.31932342 -2.38034745 0.075568 -0.245407 0.032889
13520 -2.2180900500000007 9.27501165 -2.3760114300000006 0.068277 -0.203844 0.034921
13540 -2.16420372 9.24403167 -2.38034745 0.056780999999999984 -0.147357 0.037973
13560 -2.12408082 9.23638968 -2.42765127 0.047453 -0.08766399999999999 0.036763
13580 -2.0727352800000003 9.26902755 -2.48378409 0.044525 -0.032238 0.031331
13600 -1.98143361 9.293572170000001 -2.4957621000000003 0.041531 0.006152 0.023783
13620 -1.96436421 9.29971323 -2.52061083 0.038455 0.031738 0.021592
13640 -1.94505813 9.277552440000001 -2.5590758399999998 0.03005 0.057347 0.018296
13660 -1.9706524200000002 9.29476899 -2.5372191600000003 0.018448 0.087216 0.018177
13680 -2.0221451100000003 9.28548873 -2.50518951 0.003622 0.107525 0.013774000000000002
13700 -2.08741104 9.28204542 -2.51327295 -0.010175 0.116126 0.006189
13720 -2.10178269 9.352854 -2.56297041 -0.018657 0.120446 -0.001353
13740 -2.07693396 9.346261680000001 -2.58303186 -0.021853 0.111974 -0.010978
13760 -2.03831199 9.32784831 -2.57808762 -0.027182 0.107753 -0.016350999999999997
13780 -2.0001412800000002 9.29971323 -2.5394656500000004 -0.030378 0.105646 -0.019576
13800 -2.0767770000000003 9.298957860000002 -2.47749588 -0.034626 0.109922 -0.019611
13820 -2.1742295400000007 9.28593999 -2.4029496900000002 -0.041008 0.114205 -0.019661
13840 -2.23590501 9.226658160000001 -2.4059515500000006 -0.045242 0.120616 -0.020767
13860 -2.33499582 9.230699880000001 -2.4369315300000003 -0.049515 0.118505 -0.021862
13880 -2.39786811 9.186692220000001 -2.42151021 -0.048510000000000005 0.10571400000000003 -0.020771
13900 -2.51970831 9.14418549 -2.4104347200000005 -0.042157 0.095039 -0.020712
13920 -2.66566149 9.15002244 -2.4182238600000003 -0.028307 0.093912 -0.01741
13940 -2.71804689 9.18400428 -2.41358373 -0.010204 0.09488 -0.008739
13960 -2.7416988 9.1854954 -2.39112864 0.007866 0.090513 0.002075
13980 -2.71924371 9.18220905 -2.3703216300000003 0.023787 0.087201 0.017146
14000 -2.65607712 9.16992693 -2.3785522200000004 0.036494 0.076461 0.027931
14020 -2.6295803100000006 9.19507977 -2.38393791 0.048109 0.059338 0.037648
14040 -2.5709067000000005 9.19208772 -2.42735697 0.054380999999999985 0.03798 0.045197
14060 -2.48034078 9.19553103 -2.44231722 0.057472 0.016651 0.04845
14080 -2.4480070200000004 9.22246929 -2.4984500400000003 0.056317999999999986 -0.000398 0.0506
14100 -2.4191165700000004 9.22337181 -2.48603058 0.055213 -0.011038 0.04847
14120 -2.3635821600000004 9.1854954 -2.4941140200000005 0.048817 -0.017378 0.040956
14140 -2.3309541 9.19612944 -2.47944807 0.041373 -0.020513 0.032362
14160 -2.3167296000000004 9.1735272 -2.45908251 0.030752 -0.021494 0.020539
14180 -2.33140536 9.21064824 -2.4656748299999998 0.018026 -0.015015 0.009759
14200 -2.32182099 9.22605975 -2.46402675 0.005315 -0.003219 0.001109
14220 -2.3572939500000003 9.25450875 -2.4670188000000004 -0.002081 0.004298 -0.007498
14240 -2.28245346 9.21902598 -2.49785163 -0.007387 0.005404 -0.012877
14260 -2.2379945400000003 9.1911852 -2.4938099100000004 -0.01163 0.010745 -0.012913999999999998
14280 -2.22916554 9.191930760000002 -2.48468661 -0.010501 0.027773000000000003 -0.009723
14300 -2.21569641 9.2432763 -2.50100064 -0.011486 0.049069 -0.006552
14320 -2.2290183900000002 9.31064157 -2.53991691 -0.011429 0.062913 -0.005502
14340 -2.1772215900000003 9.35269704 -2.54336022 -0.015715 0.058667 -0.005526
14360 -2.11225977 9.34417215 -2.5252509599999997 -0.019997 0.053364 -0.007686
14380 -2.1013314300000006 9.35464923 -2.5210620900000005 -0.022021 0.073628 -0.011999
14400 -2.09923209 9.33219414 -2.46687165 -0.023977 0.11199 -0.01313
14420 -2.0847132900000003 9.28907919 -2.47345416 -0.031229000000000007 0.157831 -0.015375
14440 -2.1484782900000003 9.23220081 -2.4204703500000004 -0.037458 0.194081 -0.017602
14460 -2.22811587 9.242226630000001 -2.37750255 -0.045883 0.216489 -0.019826
14480 -2.2866423300000003 9.218427570000001 -2.33320059 -0.053274 0.23356 -0.019899
14500 -2.33708535 9.202859100000001 -2.3275107900000007 -0.057454999999999985 0.250627 -0.022087
14520 -2.35176111 9.226658160000001 -2.31823053 -0.054178 0.264477 -0.025286000000000003
14540 -2.41971498 9.20914731 -2.3104413900000003 -0.047762 0.268712 -0.024179
14560 -2.4309474300000002 9.21318903 -2.3079006 -0.040208 0.289983 -0.022017
14580 -2.46941244 9.18774189 -2.3114910600000007 -0.034773 0.3187 -0.015606
14600 -2.47959522 9.186996330000001 -2.33918469 -0.032606 0.332516 -0.0092
14620 -2.47510224 9.210501090000001 -2.4043034700000003 -0.033668000000000003 0.337829 -0.004941
14640 -2.4641739000000005 9.190586790000001 -2.4373827900000005 -0.031553 0.33568200000000004 -0.002787
14660 -2.47524939 9.23983299 -2.46372264 -0.032668 0.326094 -0.001714
14680 -2.46223152 9.318420900000001 -2.52389718 -0.034858999999999994 0.311197 -0.003847
14700 -2.47495509 9.26857629 -2.5521892200000003 -0.032764 0.29948400000000003 -0.007022
14720 -2.41028757 9.202711950000001 -2.58707358 -0.033879 0.286713 -0.00915
14740 -2.4062458500000004 9.234447300000001 -2.5216605000000003 -0.032797 0.290966 -0.008079000000000001
14760 -2.4845296500000003 9.25106544 -2.4221086200000004 -0.031678 0.306925 -0.003819
14780 -2.55892869 9.21229632 -2.3493674700000002 -0.03373 0.325041 -0.003857
14800 -2.57284908 9.166640580000001 -2.2977178200000004 -0.042274 0.326124 -0.000713
14820 -2.51506818 9.12951954 -2.29697226 -0.051958 0.308048 -0.000758
14840 -2.4209118000000007 9.11199888 -2.30311332 -0.064866 0.280413 -0.005085
14860 -2.3406856200000004 9.16513965 -2.31792642 -0.072439 0.244271 -0.017911
14880 -2.3063996700000002 9.21573963 -2.31523848 -0.072602 0.188954 -0.037069
14900 -2.2409865900000003 9.22830624 -2.34817065 -0.069651 0.115512 -0.055114
14920 -2.22093495 9.25899192 -2.3870869200000002 -0.06464199999999999 0.033506 -0.06458799999999999
14940 -2.25566235 9.299114820000002 -2.37316653 -0.05651000000000001 -0.056005999999999986 -0.064416
14960 -2.27946141 9.28204542 -2.38663566 -0.047306 -0.135968 -0.055704
14980 -2.2965210000000003 9.258246360000001 -2.38514454 -0.033758 -0.18723 -0.035247
15000 -2.24937414 9.218878830000001 -2.4430725900000003 -0.012584 -0.195938 -0.007314
15020 -2.19473244 9.24028425 -2.47001085 0.009767 -0.180148 0.020595
15040 -2.1375597600000003 9.33908076 -2.50399269 0.027971 -0.14407799999999998 0.042041
15060 -2.12123592 9.353295450000001 -2.51671626 0.040855 -0.11222 0.055977
15080 -2.13859962 9.28234953 -2.5018933500000005 0.049491 -0.078208 0.067744
15100 -2.15402094 9.25360623 -2.53453122 0.052805999999999985 -0.047348 0.07306900000000001
15120 -2.22856713 9.267379470000002 -2.57779332 0.05395 -0.027124 0.07625499999999999
15140 -2.26808181 9.273667679999999 -2.55862458 0.05405 -0.007937 0.073027
15160 -2.29816908 9.26498583 -2.5578790200000006 0.051974 0.0016710000000000002 0.06979500000000001
15180 -2.29143942 9.242226630000001 -2.58557265 0.047697 0.000616 0.07083500000000001
15200 -2.1921916500000003 9.22501989 -2.6728424100000003 0.044444 -0.008968 0.072961
15220 -2.0966913000000007 9.20465433 -2.7524799900000003 0.047601 -0.012201 0.07939700000000001
15240 -2.0737849500000003 9.25974729 -2.7940940100000002 0.060361 -0.011223 0.090167
15260 -1.94670621 9.301959720000001 -2.7882472500000004 0.073086 -0.018763 0.099879
15280 -1.8214128900000002 9.345516120000001 -2.8449882900000003 0.084759 -0.026286 0.10638
15300 -1.7178290999999999 9.33997347 -2.8225332 0.10082 -0.013559 0.106476
15320 -1.6274201400000001 9.286391250000001 -2.79124911 0.102016 0.015199 0.106447
15340 -1.5760746 9.270077220000001 -2.73167298 0.094749 0.061027 0.107406
15360 -1.60092333 9.28443906 -2.66206122 0.083163 0.099397 0.112617
15380 -1.75210524 9.29686833 -2.5951570200000003 0.066222 0.132462 0.116729
15400 -1.9878689700000003 9.32485626 -2.5020503100000004 0.04822 0.154926 0.109097
15420 -2.1634483500000004 9.29672118 -2.4801936300000005 0.028122 0.178493 0.093971
15440 -2.21180184 9.26064 -2.46402675 0.004833 0.201018 0.07562
15460 -2.25176778 9.26812503 -2.44067895 -0.01636 0.215013 0.05729400000000001
15480 -2.2960795500000004 9.27261801 -2.40310665 -0.027986 0.217274 0.034776999999999995
15500 -2.32616682 9.28848078 -2.36762388 -0.032195 0.215218 0.019796
15520 -2.3125407300000003 9.286234290000001 -2.33304363 -0.027885000000000004 0.21418 0.009145
15540 -2.29008564 9.24552279 -2.33648694 -0.025742 0.208877 0.001689
15560 -2.28529836 9.2546559 -2.36104137 -0.032224 0.183362 -0.005801
15580 -2.27377161 9.239234580000002 -2.40160572 -0.042027 0.139716 -0.004745
15600 -2.2519149300000003 9.23669379 -2.4251104800000003 -0.049687 0.115168 0.013392
15620 -2.26135215 9.23698809 -2.43453789 -0.049797 0.112948 0.035827
15640 -2.25446553 9.26393616 -2.44771272 -0.042459 0.101136 0.052985
15660 -2.2233285900000004 9.27680688 -2.48632488 -0.031044 0.029722 0.053156
15680 -2.195487810000001 9.36497916 -2.47974237 -0.027218 -0.079968 0.041573
15700 -2.23679772 9.370963260000002 -2.4762990600000006 -0.028549 -0.157652 0.022435
15720 -2.28934008 9.37919385 -2.4251104800000003 -0.028630000000000006 -0.208652 -0.010615
15740 -2.2412907 9.33683427 -2.3713713000000007 -0.026559 -0.25646 -0.044722000000000005
15760 -2.17018782 9.278307810000001 -2.25026685 -0.031811 -0.254247 -0.06078500000000001
15780 -2.16584199 9.24492438 -2.2122531 -0.034935 -0.240375 -0.064029
15800 -2.20386555 9.265731390000001 -2.16749007 -0.029706 -0.260646 -0.060762
15820 -2.25655506 9.24717087 -2.13919803 -0.013813999999999998 -0.273532 -0.048884
15840 -2.2529646000000003 9.242982000000001 -2.12603301 0.007514 -0.249212 -0.022061
15860 -2.2097025 9.21244347 -2.1603091500000002 0.028966 -0.192951 0.008995
15880 -2.16389961 9.190135530000001 -2.24234037 0.047323 -0.113243 0.04
15900 -2.14264134 9.28429191 -2.34353052 0.063599 -0.027115 0.06564099999999999
15920 -2.10222414 9.322011360000001 -2.41327962 0.077689 0.040937 0.08488
15940 -1.9881632700000003 9.339532020000002 -2.56491279 0.082211 0.102686 0.090173
15960 -1.73938167 9.306001440000001 -2.6900589600000004 0.07715 0.155997 0.082592
15980 -1.49150259 9.36273267 -2.80725903 0.064568 0.192312 0.06963899999999999
16000 -1.4841647100000002 9.48547539 -2.8478233800000003 0.044365 0.194565 0.056676
16020 -1.5010771500000002 9.51002001 -2.8238771700000003 0.022989 0.176568 0.046936
16040 -1.4825166300000001 9.45613368 -2.83645359 0.004833 0.15645499999999998 0.030812
16060 -1.2778898400000003 9.37665306 -2.83465836 -0.00796 0.140594 0.012583
16080 -1.2464585999999998 9.29072727 -2.87821476 -0.014337 0.130027 -0.003471
16100 -1.3069274400000002 9.21768201 -2.93465169 -0.016427 0.129012 -0.014167
16120 -1.38641787 9.18445554 -2.9653373700000003 -0.020714 0.121583 -0.017391999999999998
16140 -1.4771309400000001 9.251811000000002 -2.83301028 -0.019719 0.109844 -0.013097
16160 -1.6688772 9.283399200000002 -2.72897523 -0.012333 0.10338 -0.001287
16180 -1.7336918700000001 9.2777094 -2.72194146 -0.005940999999999999 0.11502 0.01263
16200 -1.6429788 9.262288080000001 -2.6460513000000003 -0.001664 0.13198900000000002 0.027593
16220 -1.6992685800000003 9.37650591 -2.5673064300000004 0.000503 0.15111 0.039334
16240 -1.78353648 9.37949796 -2.4905235600000006 0.0005269999999999999 0.157497 0.040394
16260 -1.9461078 9.37006074 -2.4460646400000003 0.004723 0.13832 0.037244
16280 -2.1574642500000003 9.33308685 -2.44157166 0.021678 0.107389 0.032060000000000005
16300 -2.338733430000001 9.33458778 -2.4840882 0.039747000000000005 0.091351 0.031139
16320 -2.4035481 9.43293303 -2.49246594 0.051478 0.090245 0.031222000000000007
16340 -2.41103313 9.49879737 -2.42271684 0.04302 0.105197 0.029008
16360 -2.3322980700000002 9.385030800000001 -2.26269612 0.018592 0.12554 0.024538
16380 -2.14474068 9.21918294 -2.19128913 0.00057 0.14798699999999998 0.021179
16400 -1.98442566 9.083863800000001 -2.20461111 -0.01216 0.161888 0.018936
16420 -1.95223905 9.14433264 -2.29427451 -0.017490000000000002 0.152362 0.008228000000000001
16440 -1.9549368000000003 9.23818491 -2.3312484 -0.013251 0.135346 -0.002402
16460 -1.93607217 9.298810710000001 -2.348769060000001 -0.015461 0.107699 -0.013065
16480 -1.87500492 9.35704287 -2.40160572 -0.025202 0.069413 -0.020561000000000003
16500 -1.85015619 9.33608871 -2.45759139 -0.036072 0.019404 -0.025914
16520 -1.80254826 9.32425785 -2.52974394 -0.027734 -0.023241 -0.024733
16540 -1.7613855 9.34027758 -2.5354239300000008 0.009458 -0.050029 -0.01803
16560 -1.77485463 9.35958366 -2.5409665800000005 0.05517 -0.070493 -0.001661
16580 -1.8336852000000001 9.34446645 -2.52300447 0.091295 -0.081362 0.021038
16600 -1.8407189700000002 9.30944475 -2.54336022 0.103977 -0.082574 0.046766
16620 -1.80854217 9.29297376 -2.5740459 0.08469199999999999 -0.081518 0.065858
16640 -1.77051861 9.33518619 -2.6014354200000005 0.049476 -0.072916 0.076283
16660 -1.6531615800000001 9.3383352 -2.57958855 0.01426 -0.083411 0.067504
16680 -1.6218774900000001 9.309886200000001 -2.5337856600000004 -0.003929 -0.117347 0.044988
16700 -1.5817644000000004 9.31064157 -2.46252582 -0.002858 -0.151298 0.009788
16720 -1.6136469 9.31602726 -2.42540478 0.008916 -0.17783 -0.025347
16740 -1.64807019 9.30031164 -2.5000981200000005 0.019676 -0.18097 -0.048769
16760 -1.7030061900000002 9.33234129 -2.5825806 0.015533000000000003 -0.164929 -0.06056900000000001
16780 -1.720674 9.33728553 -2.6315325 0.008223000000000001 -0.13080999999999998 -0.061732
16800 -1.6829545500000003 9.36273267 -2.6017395300000006 0.003014 -0.09779 -0.05646900000000001
16820 -1.67262462 9.32800527 -2.59320483 0.001995 -0.077584 -0.046888
16840 -1.6024144500000002 9.302558130000001 -2.6289819000000003 0.003081 -0.066961 -0.040485
16860 -1.5810090300000001 9.27531576 -2.75771853 0.006248 -0.07336799999999999 -0.039387
16880 -1.49404338 9.305697330000001 -2.90066985 0.013625 -0.093634 -0.039309
16900 -1.46530008 9.342975330000002 -2.98898928 0.028455 -0.119244 -0.041309
16920 -1.48282074 9.381587490000001 -3.01248423 0.044449 -0.126736 -0.046529
16940 -1.5179895900000002 9.31588011 -2.91203964 0.056107 -0.140638 -0.043225
16960 -1.5500290500000002 9.32396355 -2.77432686 0.070924 -0.158834 -0.034552
16980 -1.62262305 9.41197887 -2.7243351000000002 0.075028 -0.179152 -0.018474
17000 -1.63220742 9.54474741 -2.6912557800000005 0.080204 -0.203715 -0.007723999999999998
17020 -1.6363962900000002 9.51810345 -2.6310812400000003 0.08005599999999999 -0.230372 -0.001282
17040 -1.73638962 9.330850170000001 -2.5222589100000006 0.07570199999999999 -0.250593 -0.002355
17060 -1.81392786 9.143135820000001 -2.5515908100000004 0.075611 -0.270833 -0.002329
17080 -1.80390204 9.15016959 -2.55278763 0.073487 -0.27399999999999997 -0.007681
17100 -1.84611447 9.174871170000001 -2.52913572 0.063933 -0.270741 -0.01523
17120 -1.97335017 9.250162920000001 -2.5191099 0.04594 -0.25145100000000004 -0.028199
17140 -1.94939415 9.30285243 -2.47256145 0.027986 -0.246982 -0.06465
17160 -1.9758909600000003 9.373209750000001 -2.47285575 0.01128 -0.192487 -0.091542
17180 -1.88308836 9.3070413 -2.46851973 -0.016041 -0.103956 -0.096119
17200 -1.79462178 9.2316024 -2.47435668 -0.044549 -0.026138 -0.08466699999999999
17220 -1.7762084100000002 9.23894028 -2.46552768 -0.053974 0.030286 -0.067714
17240 -1.68145362 9.29312091 -2.50877997 -0.048443 0.094102 -0.047461
17260 -1.65166065 9.327406860000002 -2.5991987400000003 -0.033305 0.162133 -0.023941
17280 -1.5798122100000003 9.35450208 -2.6807787000000003 -0.012863 0.222693 -0.001443
17300 -1.49478894 9.3702177 -2.7415516500000003 0.005365 0.254541 0.010394
17320 -1.4771309400000001 9.34072884 -2.68781247 0.016058000000000003 0.263013 0.013662
17340 -1.5141048300000002 9.33144858 -2.6131191300000003 0.024521 0.244882 0.011608
17360 -1.5386494500000003 9.37186578 -2.61192231 0.028587 0.20437 0.015961000000000003
17380 -1.6136469 9.381891600000001 -2.5848270899999997 0.02841 0.169199 0.020278
17400 -1.67186925 9.42724323 -2.5524933300000003 0.027204 0.139371 0.021376
17420 -1.78922628 9.41571648 -2.4869331000000003 0.01754 0.123434 0.019192
17440 -1.90224729 9.31542885 -2.45609046 0.002589 0.113925 0.012691
17460 -1.9327760100000002 9.21333618 -2.39741685 -0.011256 0.115055 0.008320000000000001
17480 -2.23574805 9.08116605 -2.41358373 -0.018753 0.103385 0.002941
17500 -2.4647723100000003 9.10945809 -2.45340252 -0.02735 0.088505 0.001832
17520 -2.5723978200000004 9.15226893 -2.50968249 -0.031598 0.088537 -0.002471
17540 -2.74469085 9.2139444 -2.6153656200000004 -0.026255 0.087466 -0.005637
17560 -2.6900589600000004 9.29132568 -2.5768908000000006 -0.017849 0.063979 -0.000207
17580 -2.72358954 9.26064 -2.55278763 -0.010534 0.031987 0.002022
17600 -2.66820228 9.1015218 -2.5247997 3.8e-05 0.011705 0.00319
17620 -2.4996566700000002 8.992552320000001 -2.5532388900000003 0.009573 -0.00112 0.005409000000000001
17640 -2.4550407900000004 9.043142490000001 -2.59051689 0.012879 0.024427 0.007536
17660 -2.4128283600000002 9.170378190000001 -2.61072549 0.010904 0.057466 0.005344
17680 -2.34906336 9.27561006 -2.6806217400000003 0.010899 0.055339 0.004278
17700 -2.28095253 9.34821387 -2.73765708 -0.000875 0.041553 -0.001128
17720 -2.15806266 9.36991359 -2.7610048799999998 -0.01683 0.048018 -0.005520000000000001
17740 -2.00193651 9.301802760000001 -2.7964876500000004 -0.030685000000000007 0.044896 -0.012022
17760 -1.81123011 9.29327787 -2.81474406 -0.036043 0.0311 -0.020588
17780 -1.7776995300000002 9.29641707 -2.74514211 -0.034967000000000005 0.026861000000000003 -0.026984
17800 -1.8251505000000001 9.24881895 -2.6918541900000004 -0.031723 0.031132 -0.032308
17820 -1.8845794800000002 9.24403167 -2.7047249100000004 -0.030623 0.037524 -0.033377
17840 -1.99669797 9.227266380000001 -2.7535198500000004 -0.027384 0.050279 -0.029098
17860 -2.03396616 9.19762056 -2.84109372 -0.033536 0.112062 -0.022811
17880 -2.07454032 9.16588521 -2.9126478600000003 -0.0187 0.088578 -0.023745
17900 -2.01645531 9.20720493 -2.8855526400000002 -0.023929 0.118398 -0.01741
17920 -2.09085435 9.35105877 -2.84812749 -0.026995 0.153542 -0.012136
17940 -2.12199129 9.32755401 -2.7662434200000003 -0.035434 0.174877 -0.012222
17960 -2.07588429 9.278160660000001 -2.66281659 -0.039606 0.18877 -0.019747
17980 -2.0404113300000004 9.20929446 -2.6191032300000003 -0.047007 0.190978 -0.03262
18000 -2.0574709200000005 9.14808006 -2.57015133 -0.045873 0.17936300000000002 -0.059302
18020 -2.1044706300000002 9.18788904 -2.5914096 -0.04149 0.188999 -0.075308
18040 -2.1139078500000004 9.30031164 -2.53872009 -0.047709 0.222075 -0.082871
18060 -2.25655506 9.28953045 -2.54845161 -0.064377 0.293579 -0.101239
18080 -2.2384458 9.23489856 -2.58736788 -0.11403 0.440608 -0.063318
18100 -2.1257289 9.267830730000002 -2.61192231 -0.183002 0.666115 0.079053
18120 -2.12094162 9.25271352 -2.6461984500000004 -0.21295100000000006 0.858193 0.289037
18140 -2.14294545 9.211246650000001 -2.6467968600000003 -0.182784 0.868009 0.471901
18160 -2.0574709200000005 9.21378744 -2.6313755400000005 -0.046026 0.805218 0.604329
18180 -2.05223238 9.20900016 -2.5942545000000004 0.127316 0.7722859999999999 0.697449
18200 -2.09654415 9.19343169 -2.5770379500000002 0.16381500000000002 0.945303 0.8213959999999999
18220 -2.16689166 9.234447300000001 -2.5700041800000006 0.121929 1.0131059999999998 0.951339
18240 -2.16569484 9.26049285 -2.56057677 0.090372 0.93415 1.009972
18260 -2.16360531 9.26109126 -2.48393124 0.084862 1.062285 0.939267
18280 -2.18755152 9.23774346 -2.3128448400000003 0.048648 1.220446 0.8458760000000001
18300 -2.25506394 9.25061418 -2.61700389 0.205933 0.68047 0.679956
18320 -2.2526703000000006 9.25690239 -2.4104347200000005 0.096063 0.7720060000000001 0.528452
18340 -2.31224643 9.22052691 -2.44321974 -0.104795 0.664229 0.482321
18360 -2.28814326 9.24927021 -2.4212159100000004 -0.31863 0.8755940000000001 0.557469
18380 -2.31823053 9.31168143 -2.3792977800000004 -0.577218 0.848548 0.618722
18400 -2.34097992 9.327406860000002 -2.45175444 -0.84506 0.578984 0.596901
18420 -2.43498915 9.49101804 -2.53662075 -1.05685 0.420082 0.558237
18440 -2.40909075 9.64129743 -2.53063665 -1.223931 0.530321 0.57402
18460 -2.49800859 9.59848659 -2.5403681700000003 -1.325611 0.672449 0.5506949999999999
18480 -2.70307683 9.46720917 -2.6403615 -1.338169 0.657857 0.481192
18500 -2.5845229800000005 9.405092250000001 -2.6409599100000003 -1.296308 0.72478 0.4920810000000001
18520 -2.3354470800000002 9.49056678 -2.4427684800000002 -1.227151 0.7720060000000001 0.34402
18540 -2.2031199900000003 9.48817314 -2.33889039 -1.069126 0.7450439999999999 0.289611
18560 -2.23574805 9.361683000000001 -2.2053664800000004 -0.792564 0.774004 0.266937
18580 -2.0332206 9.799375770000001 -2.34277515 -0.532796 0.645288 0.262507
18600 -1.76228802 10.186321410000001 -2.4786927000000003 -0.4159850000000001 0.316653 0.293654
18620 -1.43476155 10.423125 -2.84169213 -0.391269 -0.068201 0.344526
18640 -1.14976143 10.75348656 -3.60764712 -0.41743 -0.20017 0.335967
18660 -1.59313419 9.73874997 -3.66602643 -0.428279 -0.067776 0.27056
18680 -1.11757482 9.26303364 -3.3124642200000003 -0.360156 0.074973 0.211033
18700 -0.6742020599999999 8.538545520000001 -2.94991605 -0.289316 0.084655 0.126057
18720 -2.0368110600000007 7.932003030000001 -2.38558599 -0.235458 -0.091091 0.07324800000000001
18740 -1.7253141300000001 7.8162940800000005 -0.26465418 -0.239018 -0.225086 0.018915
18760 0.00928026 7.759709999999999 -1.18898181 -0.242199 -0.320548 -0.081398
18780 1.3151678400000002 8.16956199 -1.14032421 -0.262033 -0.35298 -0.211818
18800 1.3611178800000001 8.120315790000001 -0.8942403600000001 -0.276634 -0.396131 -0.330437
18820 0.43229727000000007 7.8540135300000005 -0.6032463299999998 -0.297597 -0.410578 -0.428841
18840 0.032785020000000005 7.97421546 -0.6361785000000001 -0.335004 -0.478411 -0.4824270000000001
18860 0.5307994800000001 8.34738786 -0.8780734800000001 -0.43749 -0.5269189999999999 -0.5172640000000001
18880 1.32878412 9.223666110000002 -1.3937557500000002 -0.578469 -0.623115 -0.58115
18900 1.8059915700000002 10.163866320000002 -2.03352471 -0.6220600000000001 -0.460603 -0.6906220000000001
18920 2.04714099 10.681638120000002 -2.38738122 -0.503737 -0.304185 -0.748748
18940 1.96541388 11.30045292 -2.8403481600000005 -0.279068 -0.113429 -0.69508
18960 1.52487621 10.693616129999999 -2.77298289 0.023538 -0.17955 -0.672585
18980 1.25753409 10.40635971 -2.1356075700000003 0.389992 -0.336225 -0.704008
19000 1.16038566 10.328517360000001 -1.45811916 0.688713 -0.378648 -0.743528
19020 1.19556432 10.37297628 -0.8240400000000001 0.658644 -0.27474 -0.595388
19040 1.4715882900000001 10.19080458 -0.39098736000000006 0.513353 -0.473769 -0.513895
19060 2.03127822 9.98588349 -0.28650105 0.42312 -0.7879520000000001 -0.454302
19080 2.5128216900000004 9.62349228 -0.47450970000000003 0.265814 -0.5248079999999999 -0.323278
19100 2.5036983900000003 9.38548206 -0.6385721400000001 0.005555 -0.12396 -0.173923
19120 2.25430857 9.536516820000001 -0.57974157 -0.098156 -0.085603 -0.086034
19140 1.9357778700000001 9.77333022 -0.58453866 -0.070763 -0.13056800000000002 -0.053738
19160 2.1516273 9.7812567 -0.23935419000000002 -0.052617 -0.108342 -0.033344
19180 2.21149773 9.53936172 -0.08891784 -0.017597 -0.171231 -0.054383
19200 2.2829047200000003 9.32889798 0.15806852999999998 0.001434 -0.220257 -0.06486900000000001
19220 1.45572552 8.96141538 0.29653668000000005 -0.0048 -0.18189 -0.063894
19240 1.1244614400000001 9.05062752 0.26794053 -0.016069999999999997 -0.068969 -0.054503
19260 1.0797082199999999 9.50374161 0.10882233000000001 -0.01959 0.124813 -0.027002
19280 1.1805942600000001 9.61525188 0.09894366 -0.030769 0.260096 -0.015503
19300 1.19915478 9.42290721 0.40670298000000005 -0.071238 0.30698600000000004 0.015132
19320 1.10140794 9.39057345 0.8074218599999999 -0.086953 0.375202 0.019208000000000003
19340 0.7952967000000001 9.48846744 0.59336766 -0.088732 0.451917 0.016961
19360 0.88046712 9.57827799 0.20327301 -0.084148 0.5041720000000001 -0.001234
19380 1.07191908 10.36624662 -0.13816404 -0.066829 0.546774 -0.013986000000000002
19400 0.6412698900000001 10.99613691 -0.47586348000000006 -0.046564 0.528662 -0.030913
19420 -0.80053524 11.28818061 -0.91160406 -0.044574 0.487148 -0.04046
19440 -1.85568903 10.436751090000001 -1.5175481400000002 -0.059644 0.4626770000000001 -0.035193
19460 -0.9638423100000001 9.69893118 -0.02245509 -0.080154 0.407363 -0.037401
19480 0.18845991 9.70266879 0.7319731500000001 -0.072099 0.299746 -0.038275
19500 0.87388461 10.509197940000002 1.04452956 -0.06503300000000001 0.219786 -0.02851
19520 1.18613691 10.5443766 0.8747773200000001 -0.0515 0.147291 -0.026186
19540 0.7274899800000001 10.10713509 0.31854051 -0.033569 0.110971 -0.0164
19560 0.30311919 9.64549611 -0.13172868000000001 -0.031618 0.081093 -0.005666
19580 -0.01497006 9.74638215 -0.20432268 -0.039244 0.053393 0.001794
19600 -0.30551283 9.90265545 -0.008230590000000001 -0.019021 0.038425 -0.0023190000000000003
19620 -0.46582785000000004 9.684559530000001 0.49980969000000003 0.002134 -0.014862 -0.014921
19640 -0.66222405 9.465718050000001 0.8256782699999999 0.019136 -0.033018 -0.017984
19660 -0.6911145000000001 9.544904370000001 0.92133558 0.032011000000000005 -0.016023 -0.016847
19680 -0.82373589 9.80206371 0.7095278700000001 0.035159 -0.029874 -0.018944
19700 -0.92403333 9.968068529999998 0.33320646000000004 0.0329 -0.060746 -0.022125
19720 -1.15664805 9.90580446 0.39892365 0.028604 -0.07455 -0.029615
19740 -1.3145694300000001 9.71644203 0.42167304000000005 0.023279 -0.072401 -0.029655
19760 -0.9580053600000001 9.644142330000001 0.61297785 0.029709 -0.06497 -0.028551
19780 -0.8765725499999999 9.65013624 0.59066991 0.046702 -0.07783 -0.024143
19800 -0.7845155100000001 9.70462098 0.27258066000000003 0.045362 -0.145974 -0.031543
19820 -0.57435588 9.76733631 0.08592579000000002 0.039898 -0.187449 -0.044346
19840 -0.37077876000000004 9.76224492 0.20941407000000004 0.038956 -0.161871 -0.046522
19860 -0.20776599 9.792783450000002 0.24294465 0.032583999999999995 -0.152274 -0.043374
19880 -0.04041720000000001 9.760008240000001 0.41239278 0.045439 -0.13954 -0.042233
19900 0.06960195000000002 9.820025820000001 0.37302525000000003 0.0605 -0.121444 -0.051765
19920 0.14250006 9.96552774 0.11511054 0.080914 -0.09274 -0.054864
19940 0.2806641000000001 10.01627487 0.10253412 0.08746799999999999 -0.054429999999999985 -0.050594
19960 0.23845167 10.02959685 0.07380063 0.07788099999999999 -0.04059 -0.039996
19980 0.11137293000000001 10.048608630000002 0.14505066000000003 0.078068 0.015809 -0.025112
20000 0.04266369 9.91552617 0.11690577 0.06540900000000001 0.067971 -0.004971
20020 -0.11735703 9.87765957 -0.0011968200000000001 0.020635 0.109536 0.028846
20040 -0.10956789 9.78605379 0.0896634 -0.015552000000000003 0.155363 0.05524
20060 -0.20252745000000003 9.7032672 0.13950801 -0.026235 0.162814 0.065838
20080 -0.26509562999999997 9.73275606 0.0782838 -0.008204000000000001 0.131888 0.058526
20100 -0.21959685 9.78589683 0.28441152000000003 0.011903 0.079683 0.042710000000000005
20120 -0.30596409 9.787692060000001 0.25432425000000003 0.015027 0.056262 0.036352
20140 -0.36748260000000005 9.77632227 0.32242527000000004 -0.003167 0.036115 0.028774
20160 -0.34024023 9.83290635 0.32646699000000007 -0.014759 0.050077 0.010515
20180 -0.22737618 9.79009551 0.37721412000000004 -0.012491 0.056555 -0.012978
20200 -0.14684589 9.862689510000001 0.29414304 -0.020963 0.04603 -0.037593
20220 -0.22168638000000002 9.88574301 0.20821725000000002 -0.025216 0.029082 -0.057897
20240 -0.27677934 9.78515127 0.29054277 -0.020829 0.050393 -0.063235
20260 -0.24459273 9.7954812 0.26344755000000003 0.004924 0.081205 -0.065231
20280 -0.20971818000000003 9.80655669 0.41628735 0.024037 0.06302 -0.062938
20300 -0.23471406 9.751169430000001 0.32856633 0.038838 0.047994 -0.04786
20320 -0.33560010000000007 9.81014715 0.27258066000000003 0.043096 0.056459 -0.037159
20340 -0.46912401000000004 9.880651620000002 0.21046374 0.033408 0.048989 -0.025467
20360 -0.5526463500000001 9.84412899 0.20642202000000004 0.031198000000000007 0.048928 -0.008391
20380 -0.54860463 9.79248915 0.39756987000000005 0.035365 0.035031 0.000202
20400 -0.6014511 9.75027672 0.30326634 0.057649 0.005138 -0.002809
20420 -0.54517113 9.77946147 0.24983127000000002 0.06818300000000001 -0.031093 -0.009098
20440 -0.5095412100000001 9.74563659 0.34458605999999997 0.078847 -0.043867 -0.020757
20460 -0.54995841 9.792783450000002 0.10403505 0.08418099999999999 -0.047068 -0.023921
20480 -0.47615778 9.79024266 0.27662238 0.096032 -0.027909 -0.030272000000000007
20500 -0.42227145000000005 9.74069235 0.25028253 0.092889 -0.023603 -0.038845
20520 -0.34338924000000004 9.77976558 0.09220419 0.073676 -0.017178 -0.030442
20540 -0.27946728 9.87392196 0.07020036 0.061912 -0.007613 -0.014513
20560 -0.36075294 9.889186320000002 0.21225897000000002 0.049037 0.0008550000000000001 0.009955
20580 -0.43604469000000007 9.7547697 0.30565998000000005 0.032905000000000004 -0.012997 0.024816
20600 -0.48574215000000004 9.68336271 0.20477394000000002 0.02437 -0.004479 0.033291
20620 -0.5587874100000001 9.73410984 0.19250163000000003 0.016883000000000002 -0.00447 0.037511
20640 -0.5794472700000001 9.833504759999999 0.1935513 0.020035 -0.016194999999999998 0.03648
20660 -0.50504823 9.822272309999999 0.20821725000000002 0.026427 -0.017287 0.037595
20680 -0.39517623 9.90595161 0.20192904000000003 0.018949 -0.022574 0.034344
20700 -0.35161983 9.9138879 0.237402 0.030738 -0.020446 0.02481
20720 -0.36104724000000005 9.81254079 0.01317483 0.039253 -0.036408 0.01314
20740 -0.31479309 9.8358984 -0.045351630000000004 0.035 -0.048051 -0.00183
20760 -0.3094074 9.879758910000001 0.03023442 0.02759 -0.039486 -0.006166
20780 -0.31464594 9.84008727 0.19190322 0.022323 -0.023493 -0.005155
20800 -0.29474145 9.812246490000001 0.20118348 0.014821 -0.019253 0.006538
20820 -0.32542713 9.66944232 0.15687171 0.016969 -0.005454 0.017217
20840 -0.3614985 9.69519357 0.0691605 0.028685 0.0029760000000000003 0.030107
20860 -0.27377748 9.733207320000002 0.025751250000000003 0.028657 0.00295 0.036516
20880 -0.30506157000000006 9.72287739 0.12005478000000001 0.027647 0.014676 0.035426
20900 -0.37751823000000007 9.71449965 0.16076628 0.009568 0.026462 0.034216
20920 -0.4451778 9.771682140000001 0.11795544000000001 -0.003167 0.043542 0.036242
20940 -0.53888292 9.842932170000001 0.16450389 -0.023437 0.048918 0.041434
20960 -0.58737375 9.96538059 0.039367530000000005 -0.025418 0.083014 0.041377
20980 -0.45834282000000004 9.98588349 -0.00179523 -0.010338 0.108554 0.035039999999999995
21000 -0.43215012 9.91358379 0.06316659000000001 0.002479 0.104278 0.027657
21020 -0.41059755000000003 9.73739619 0.09700128 0.00566 0.090456 0.018083
21040 -0.41748417 9.72153342 0.09071307 0.005771 0.10753 0.010585
21060 -0.46882971 9.70147197 0.04041720000000001 -0.001611 0.12779200000000002 0.011575
21080 -0.52420716 9.7171974 -0.036826740000000004 -0.013280000000000002 0.150174 0.018943
21100 -0.49667049 9.7954812 -0.06945480000000001 -0.023919 0.16509100000000002 0.027395
21120 -0.49876002 9.803113380000001 -0.043114950000000006 -0.008888 0.196954 0.038142
21140 -0.53543961 9.75805605 -0.01796211 -0.020805 0.163942 0.045578
21160 -0.51088518 9.82856052 -0.06002739000000001 -0.038043 0.132022 0.05084
21180 -0.47331288 9.922118489999999 -0.06751241999999999 -0.057323 0.117167 0.052861
21200 -0.45266283000000007 9.86194395 -0.006141059999999999 -0.067968 0.124653 0.054913
21220 -0.41149026 9.81389457 0.008985960000000001 -0.06482 0.111863 0.053883000000000014
21240 -0.39548034000000004 9.747578970000001 0.00958437 -0.057505 0.076687 0.052911
21260 -0.36867942 9.80162226 -0.08143281000000001 -0.052271000000000005 0.055359000000000005 0.054043
21280 -0.35161983 9.846071370000002 -0.02529999 -0.03636 0.036124 0.055247
21300 -0.36613863 9.763451550000001 -0.00703377 -0.020491 0.007301999999999999 0.056463
21320 -0.41808258000000004 9.74129076 -0.01018278 -0.011004 -0.016176 0.05869600000000001
21340 -0.50939406 9.764942670000002 0.022749390000000005 -0.005751 -0.038548 0.054489
21360 -0.54950715 9.70551369 0.03098979 0.004831 -0.07155299999999999 0.040718
21380 -0.5260023900000002 9.68740443 -0.00643536 0.020887 -0.08005 0.020545
21400 -0.52570809 9.71854137 0.0011968200000000001 0.023035 -0.088533 0.00882
21420 -0.49366863 9.848621970000002 -0.0038945700000000004 0.035904000000000005 -0.082152 0.000356
21440 -0.56373165 9.91657584 -0.0811287 -0.006742000000000001 -0.14563800000000002 -0.070363
21460 -0.6393177000000001 9.87436341 -0.15253569 0.072103 0.13080799999999998 -0.007142
21480 -0.6170195700000001 9.831552570000001 -0.03622833 0.026585 -0.048976 -0.029662
21500 -0.5215192200000001 9.80626239 0.02410317 -0.006072999999999999 -0.200106 -0.036106
21520 -0.51358293 9.804015900000001 0.00404172 0.044008 -0.17593399999999998 0.002669
21540 -0.42855966000000006 9.79562835 -0.02006145 0.057299 -0.039735 0.030361000000000006
21560 -0.38036313000000005 9.755368110000001 -0.04415481 0.043449 -0.05028 0.015323
21580 -0.33200964 9.73396269 -0.07275096 0.010558 -0.026660000000000003 -0.002029
21600 -0.31194819 9.71090919 -0.12319398000000001 0.00964 0.023343 0.014993
21620 -0.22348161 9.75326877 -0.00404172 -0.018218 -0.00107 0.016966
21640 -0.10193571 9.79892451 -0.05747679000000001 -0.018223 -0.014866999999999997 0.004164999999999999
21660 -0.07065161999999998 9.858794940000001 -0.14789556 -0.016108 -0.039295 -0.016085
21680 -0.12453795000000001 9.9460647 -0.22768029 -0.010712 -0.037136 -0.027801
21700 -0.16286562000000002 9.8851446 -0.21075804 -0.006261999999999999 -0.010464 -0.041691000000000006
21720 -0.17094906 9.84503151 -0.07858791000000001 0.012946 -0.020076 -0.052227
21740 -0.18411408 9.821821049999999 -0.03023442 0.030016 -0.018014 -0.049974
21760 -0.12229146 9.79084107 -0.051796800000000004 0.037542 4.8e-05 -0.044603
21780 -0.05627997 9.75326877 0.03262806 0.036465 -0.003139 -0.045675
21800 -0.03098979 9.78275763 0.09116433 0.032169 -0.011638 -0.04783
21820 -0.10328949000000001 9.90460764 0.08143281000000001 0.016184999999999998 0.000106 -0.04048
21840 -0.16914402 9.918223919999999 0.20492109000000003 0.004483 0.015031 -0.033103
21860 -0.24818319 9.76943565 0.2803698 0.005531 0.017131999999999998 -0.026689
21880 -0.2137599 9.85999176 0.20387142 0.00866 0.005386 -0.022379
21900 -0.29503575000000004 10.36489284 0.05283666000000001 4.8e-05 -0.005261999999999999 -0.016016
21920 -0.23531247000000002 9.57977892 1.12955283 -0.000971 0.01176 -0.009636
21940 -0.36254817 9.81987867 0.02679111 0.0032770000000000004 0.009606 -0.007467
21960 -0.11480643 10.19964339 -0.23246757 0.003253 0.005340999999999999 -0.006393
21980 -0.28231218 9.421259130000001 0.14969079000000002 0.005406 0.014899 -0.00105
22000 -0.17453952 9.345967380000001 0.35685837000000004 0.00112 0.011714 -7.000000000000002e-06
22020 -0.45894123000000003 9.75731049 -0.07739109000000001 0.009726 0.025541 -0.002101
22040 -0.22603221 9.99172044 -0.17513793000000002 -0.022814 0.12162 -0.024884
22060 -0.23576373 9.897868170000002 0.15717582000000002 0.033185 0.286346 0.024434
22080 -0.2555210700000001 9.94172868 -0.08397360000000001 0.061789 0.244688 0.027892
22100 -0.24519114 9.999656730000002 -0.06301944 -0.014531 -0.144836 0.002221
22120 -0.31808925000000005 9.93319398 -0.12484206 -0.01046 -0.207625 -0.016899
22140 -0.33246090000000006 9.90236115 -0.16420959 -0.005056000000000001 0.064987 0.003086
22160 -0.28530423000000005 9.799817220000001 -0.13621185 -0.031167 0.205631 0.018747
22180 -0.40311252 9.76464837 -0.13412232000000002 -0.031479 0.133206 0.015633
22200 -0.39816828 9.78141366 -0.15687171 -0.025494 0.048994 0.024328
22220 -0.34892208 9.72992097 -0.09849240000000001 -0.0287 0.040513 0.016839
22240 -0.37077876000000004 9.65851398 -0.01078119 -0.016988 0.025596 0.007326000000000002
22260 -0.40940073 9.700275150000001 0.00194238 -0.020419 -0.023403 0.009501
22280 -0.38350233000000006 9.780815250000002 -0.0005984100000000001 -0.037604000000000005 -0.044666 0.013681
22300 -0.37018035000000005 9.832150980000002 0.03981879 -0.053789 -0.077663 0.021088
22320 -0.39068325000000004 9.85685256 -0.03726819 -0.064621 -0.112784 0.022126
22340 -0.40730139000000004 9.82676529 -0.03503151 -0.054966 -0.098977 0.024312
22360 -0.39996351 9.75910572 -0.033383430000000006 -0.037815 -0.080928 0.024409
22380 -0.33695388000000004 9.77661657 -0.00808344 -0.016338 -0.043743 0.03092
22400 -0.37108287 9.80266212 -0.03666978 0.010314 -0.048098 0.031112
22420 -0.38125584000000007 9.80521272 -0.017667810000000003 0.025173 -0.08217 0.014168
22440 -0.37795968 9.81628821 0.008681849999999998 0.024145 -0.085315 0.002414
22460 -0.37601730000000005 9.78110955 0.06720831000000001 -0.001585 -0.12035 -0.005198
22480 -0.34787241 9.796678020000002 0.08517042 -0.012368 -0.148001 -0.007373999999999999
22500 -0.39292974 9.841735350000002 0.08726976 -0.016880000000000003 -0.210803 -0.015871
22520 -0.7670046600000001 9.85130991 0.5117877000000001 -0.032185000000000005 -0.294898 -0.018007
22540 -0.34847082000000007 9.30150846 0.8129547 -0.048653 -0.405599 -0.025457
22560 -0.04281084 10.19709279 -0.46912401000000004 -0.057222 -0.419392 -0.031909
22580 -0.32617269000000004 10.167309630000002 -1.04197896 -0.059322 -0.42466 -0.044736
22600 -0.36523611 9.67513212 0.79110783 -0.046462 -0.437386 -0.070267
22620 -0.6968043 9.54175536 0.72569475 -0.007787 -0.387414 -0.079675
22640 -0.5803399800000001 9.70641621 -0.13486788 0.034109 -0.323644 -0.07946399999999999
22660 -0.29922462000000005 10.017765990000001 -0.24878160000000002 0.099432 -0.28758 -0.097213
22680 -0.17468667000000002 9.88035732 -0.14025357000000002 0.121932 -0.306671 -0.137624
22700 -0.12903093000000002 9.74159487 0.015264360000000001 0.132878 -0.269326 -0.162165
22720 -0.09729558 9.76120506 0.07289811 0.133166 -0.21602 -0.172913
22740 -0.048049379999999996 9.89232552 0.02110131 0.11845 -0.166966 -0.17307899999999998
22760 0.036826740000000004 9.95550192 0.11346246 0.110112 -0.107345 -0.15719
22780 -0.12678444 9.88155414 -0.01886463 0.103706 -0.081863 -0.13056199999999998
22800 -0.27946728 9.89772102 -0.09879651 0.107022 -0.045698 -0.119903
22820 -0.38230551 9.85850064 -0.0318825 0.096181 -0.063851 -0.099659
22840 -0.35341506000000006 9.756260820000001 0.12439080000000001 0.109016 -0.047951 -0.091044
22860 -0.33829785 9.7115076 0.05149269000000001 0.136971 -0.001172 -0.091977
22880 -0.29757654 9.67348404 -0.03382488 0.150778 0.007212 -0.069459
22900 -0.3097017 9.775723860000001 -0.016618140000000003 0.164177 -0.04206 -0.013754
22920 -0.25506981 9.803113380000001 0.06466752 0.114871 -0.050581 0.028641000000000007
22940 -0.15402681000000001 9.823174830000001 0.04909905 0.047621 -0.037648 0.049519
22960 -0.08712261 9.85745097 -0.03143124 0.013475999999999998 -0.024801 0.063151
22980 -0.026192700000000003 9.88469334 -0.046548450000000005 -0.014162 0.008277 0.073598
23000 -0.060174540000000006 9.94202298 -0.09939492000000001 -0.043077 -0.005514 0.084096
23020 -0.03322647 10.021513410000003 0.026496810000000003 -0.034485 -0.010798 0.06600299999999999
23040 0.11061756 9.926758620000001 0.16930098000000005 -0.007828 -0.055466 0.024586
23060 -0.11810259 9.724829580000002 0.08083440000000001 0.016152 0.007503 -0.025534
23080 -0.21555513 9.8387433 -0.00404172 0.027204 0.060857000000000015 -0.05757200000000001
23100 -0.30042144 9.899810550000002 -0.05613282 -0.010887 0.128116 -0.061129
23120 -0.3817071 9.897868170000002 -0.01616688 -0.054360000000000006 0.209143 -0.040172
23140 -0.5086386900000001 9.78275763 0.10044459 -0.084093 0.266666 -0.013748
23160 -0.5427676800000001 9.711350640000001 0.44502084000000003 -0.112683 0.339106 0.010529
23180 -0.50789313 9.80505576 0.42062337 -0.116825 0.373184 0.016866
23200 -0.40311252 9.88035732 0.40146444000000003 -0.102803 0.40298 0.012652
23220 -0.32258223 9.96717582 0.45520362000000003 -0.097382 0.41577 0.006265
23240 -0.27422874 9.96014205 0.24863445 -0.119786 0.421153 0.011442
23260 -0.32138541 9.76508982 0.24174783000000002 -0.113237 0.454154 0.011446
23280 -0.36508896 9.64713438 0.32796792 -0.111362 0.413599 0.028602
23300 -0.39428352 9.56002158 0.45489951000000006 -0.128594 0.405025 0.056267
23320 -0.51867432 9.39026934 0.52331445 -0.139253 0.429474 0.07859400000000001
23340 -0.34712685000000004 9.67647609 0.34248672 -0.16828900000000002 0.420882 0.121131
23360 -0.38515041 9.67438656 -0.31913892 -0.188847 0.385684 0.149874
23380 -0.6815301300000001 9.446559120000002 -0.16750575 -0.125912 0.366358 0.133247
23400 -0.76925115 9.44027091 0.04685256 -0.04371 0.352324 0.108202
23420 -0.9743193900000001 9.63052605 -0.11824974 -0.013867 0.321425 0.083881
23440 -1.2380710499999998 9.849965939999999 -0.30252078000000004 -0.043883 0.288511 0.08264500000000001
23460 -1.31411817 9.76568823 -0.42421383 -0.125338 0.25451 0.131258
23480 -1.34719749 9.8387433 -0.35491599000000007 -0.16280799999999998 0.248159 0.153437
23500 -1.39719906 10.05892875 -0.38335518 -0.099926 0.213932 0.133624
23520 -1.63325709 10.06432425 -0.59501574 -0.013625 0.143501 0.089452
23540 -1.79476893 9.93962934 -0.42841251 0.020467 0.093472 0.05023
23560 -2.08262376 9.6884541 -0.39278259 0.00443 0.045753 0.009586
23580 -1.74701385 9.59833944 -0.07260381 -0.025480000000000003 0.023542 -0.004481000000000001
23600 -1.5387966000000002 9.596544210000001 -0.14684589 -0.049042 -0.00086 -0.008887
23620 -1.4114137500000001 9.66570471 -0.21120930000000002 -0.034001 0.017218999999999998 -0.014146
23640 -1.13568408 9.71015382 -0.17992521 -0.020088 0.021453 -0.019396
23660 -1.10934423 9.684863640000001 -0.22108797000000002 -0.035067 0.017223 -0.014154
23680 -1.0877916599999997 9.68860125 -0.12798126 -0.047855 0.018341 -0.016381
23700 -1.15050699 9.67004073 -0.06301944 -0.063959 -0.010339 -0.022866
23720 -0.9273196800000001 9.61974486 -0.045351630000000004 -0.046966 -0.038053 -0.033394
23740 -0.76550373 9.80236782 -0.08981055 -0.005291 -0.032833999999999995 -0.042724
23760 -0.76042215 9.755515260000001 -0.19264878 0.037297 -0.06276799999999999 -0.053070000000000006
23780 -0.5096883600000001 9.67303278 -0.050590170000000004 0.047726 -0.119252 -0.056129999999999985
23800 -0.39577464 9.57049866 0.17109621 0.024255 -0.138268 -0.07549700000000001
23820 -0.32063004 9.39446802 0.28216503000000004 -0.015118 -0.096661 -0.056597
23840 -0.18126918000000003 9.47993274 0.09924777 -0.069351 -0.07297100000000001 -0.07303
23860 -0.22708187999999999 10.090664100000001 -0.08143281000000001 -0.091544 -0.055729 -0.103117
23880 -0.48483963 10.242895680000002 -0.21031659 -0.0882 0.009109 -0.070062
23900 -0.6423097500000001 9.98722746 -0.07065161999999998 -0.09439 0.085711 -0.040293
23920 -0.54127656 9.73739619 0.36104724000000005 -0.081372 0.106017 -0.06800199999999999
23940 -0.18771435 9.56211111 0.50759883 -0.048251 0.113371 -0.070985
23960 0.21300453 9.76300029 0.39577464 -0.016212 0.118594 -0.072904
23980 0.026192700000000003 10.276131959999999 -0.01197801 -0.004658 0.16613599999999998 0.015778
24000 -0.36314658000000005 10.294986780000002 -0.22527684 -0.015461 0.163932 0.043479
24020 -0.44607051 9.936637290000002 -0.031136940000000002 -0.034646 0.196907 0.072145
24040 -0.43484787 9.70716177 0.37287810000000005 -0.04862 0.179886 0.07847799999999999
24060 -0.42855966000000006 9.71015382 0.49262877000000005 -0.048731 0.146897 0.069974
24080 -0.4366431 9.839940120000001 0.35535744 -0.071115 0.13426 0.052742
24100 -0.47002653 9.98094906 0.17738442000000001 -0.082621 0.151482 0.018457
24120 -0.6328823400000001 9.855802890000001 0.13472073 -0.06856 0.16858 -0.007104000000000002
24140 -0.5730119100000002 9.76044969 0.33291216 -0.046022 0.177109 -0.028322000000000007
24160 -0.5123861099999999 9.76284333 0.36823797 -0.017154 0.178124 -0.040941000000000005
24180 -0.47062494000000005 9.81 0.44382402 0.006399 0.19403 -0.042933
24200 -0.4628358 9.86223825 0.31194819 -0.003366 0.181187 -0.019484
24220 -0.44951382000000006 9.91492776 0.16076628 -0.024116 0.104439 0.01038
24240 -0.4363389900000001 9.90624591 -0.07918631999999999 0.004771 0.129875 0.018027
24260 -0.42167304000000005 9.962535690000001 0.11016630000000001 0.033571 0.127648 0.017162
24280 -0.43484787 9.80162226 0.3876912 0.030275 0.104232 0.015033
24300 -0.5146326 9.87002739 0.54517113 0.031222000000000007 0.077597 0.015074
24320 -0.49667049 9.9258561 0.5007122100000001 0.026743 0.024374 0.008701
24340 -0.4980144600000001 9.86658408 0.35939916000000005 -0.023677 -0.043602 0.002027
24360 -0.49935843 9.796530870000002 0.41509053000000007 -0.068763 -0.10417 0.002858
24380 -0.6454587600000001 9.899967509999998 0.52406001 -0.067941 -0.14577 0.015736
24400 -0.47106639 9.75685923 0.6134291099999999 -0.027702 -0.228939 0.0001
24420 -0.58198806 9.78110955 0.60040143 0.012781 -0.252474 -0.010269
24440 -0.65084445 9.67498497 0.50190903 0.00947 -0.274841 -0.008126999999999999
24460 -0.94468338 9.59579865 0.55085112 0.016876 -0.287655 -0.006991
24480 -0.7550266499999999 9.63246843 0.51253326 0.018053 -0.25360900000000003 0.002588
24500 -0.49292307 9.6799194 0.71520786 0.030899 -0.239822 0.006931999999999999
24520 -0.42377238 9.64893942 0.7198578 0.046036 -0.194072 0.008048
24540 -0.4337982 9.78485697 0.57914316 0.048107 -0.195196 0.020882
24560 -0.46942812 9.87421626 0.5116405499999999 0.036084 -0.211326 0.06888899999999999
24580 -0.5171733900000002 9.898613730000001 0.53034822 -0.015657 -0.250877 0.147627
24600 -0.5492030400000001 9.99590931 0.54845748 -0.065356 -0.29688200000000003 0.240274
24620 -0.60563997 9.98963091 0.48259314000000003 -0.098124 -0.362169 0.344814
24640 -0.54816318 9.910738890000001 0.38484630000000003 -0.104775 -0.354941 0.407784
24660 -0.40925358 9.82886463 0.32976315 -0.0264 -0.26671100000000003 0.386854
24680 -0.30311919 9.80775351 0.41239278 0.022872 -0.277318 0.332732
24700 -0.11346246 9.77482134 0.44757144 0.039024 -0.322865 0.253855
24720 0.0025407900000000002 9.62543466 0.5418749700000001 0.047885 -0.330032 0.173809
24740 0.10208286000000001 9.59998752 0.68812245 0.065539 -0.290315 0.083083
24760 -0.02410317 9.68142033 0.44472654 0.04214 -0.329426 0.027422
24780 -0.20462679 9.755515260000001 0.47526507 0.01157 -0.266391 0.0079
24800 -0.34638129 9.71644203 0.43783992 -0.010575 -0.194995 0.02154
24820 -0.23995260000000002 9.59415057 0.9159498899999999 -0.015909 -0.185427 0.031105
24840 -0.00209934 9.62632737 0.8916995700000001 -0.021263 -0.184365 0.036407
24860 0.10193571 9.98124336 0.39173292000000004 -0.036228 -0.179033 0.048046
24880 -0.23560677000000002 10.2178998 0.21510387 -0.042552 -0.14499 0.06505
24900 -0.33500169 10.1279421 0.3930867 -0.042782 -0.172781 0.088585
24920 -0.38529756 9.867182490000001 0.31959018000000006 -0.025832 -0.185679 0.102607
24940 -0.5498112600000001 9.811343970000001 0.5884234200000001 -0.008782 -0.198488 0.094197
24960 -0.5830377300000001 9.83754648 0.51028677 -0.021512 -0.193074 0.08341799999999999
24980 -0.60758235 9.787692060000001 0.21211182 -0.035088999999999995 -0.137594 0.073639
25000 -0.5565409200000001 9.75805605 0.31838355 -0.049843 -0.110855 0.059614
25020 -0.48349566000000005 9.72227898 0.47660904000000004 -0.054430999999999986 -0.191761 0.050072000000000005
25040 -0.48902850000000003 9.71419554 0.38948643000000005 -0.041917 -0.257844 0.048108
25060 -0.40670298000000005 9.73021527 0.47346984000000003 -0.028966 -0.2185 0.054557000000000015
25080 -0.13412232000000002 9.823027680000001 0.5843817000000001 -0.005418 -0.184561 0.07177
25100 0.23306598000000003 9.9631341 0.8041257 0.026813 -0.126118 0.080466
25120 0.44681607 9.90355797 0.69724575 0.057733000000000013 -0.14428 0.06681799999999999
25140 0.50595075 10.05488703 0.66715848 0.06214 -0.136744 0.043338
25160 0.06751241999999999 10.04395869 0.6918600600000001 0.060370000000000014 -0.07169199999999999 0.027219
25180 -0.4628358 9.89636724 0.19159911000000002 0.066165 0.029494 0.026062
25200 -0.8448470100000001 9.68247 0.26210358 0.084896 0.14773 0.012154
25220 -0.8930435400000001 9.596092950000001 0.39787398 0.13148 0.252179 -0.041065
25240 -1.0910780100000002 9.616007250000001 0.48634056000000003 0.162889 0.259915 -0.13806400000000002
25260 -1.17011718 9.63621585 0.50235048 0.233647 0.234512 -0.240087
25280 -0.6336279 9.70162893 0.7924517999999999 0.329015 0.26850300000000005 -0.298216
25300 -0.31359627000000007 9.878110829999999 0.70264125 0.390305 0.398159 -0.274453
25320 -0.32063004 9.80895033 0.6328823400000001 0.345272 0.503155 -0.118942
25340 -0.2311236 9.7263207 0.6310871100000001 0.106336 0.453207 0.057846
25360 -0.058232160000000005 9.719738190000001 0.57361032 -0.20520500000000005 0.38012 0.223474
25380 -0.02679111 9.76584519 0.48334851000000006 -0.33067 0.349216 0.334801
25400 -0.0047872800000000005 9.86044302 0.30910329 -0.247512 0.348874 0.34820100000000004
25420 -0.01032993 9.82511721 0.67599729 -0.160921 0.114355 0.312787
25440 -0.13921371000000002 9.88963758 0.50669631 -0.057111 -0.096749 0.267849
25460 -0.18202455 9.85400766 0.53888292 0.090811 -0.083914 0.12679200000000002
25480 -0.19893699 9.71495091 0.65533743 0.185155 -0.041393 0.067576
25500 -0.25492266 9.81823059 0.51298452 0.179616 0.139767 0.056623
25520 -0.27797616 9.91208286 0.51537816 0.249499 0.259895 0.058025
25540 -0.14070483 9.75760479 0.54262053 0.292634 0.356706 0.052862
25560 0.20103633 9.73904427 0.47990520000000003 0.272896 0.510035 0.087779
25580 0.18800865000000003 9.85819653 0.42197715 0.325349 0.566243 0.105165
25600 -0.03367773 9.76164651 0.36748260000000005 0.35838400000000004 0.596862 0.14488
25620 -0.283509 9.65925954 0.2604555 0.355212 0.5767399999999999 0.118178
25640 -0.40356378000000004 9.486220950000002 0.52615935 0.381272 0.657692 0.09796
25660 -0.29847906 9.616301550000001 0.5206167 0.427339 0.6937760000000001 0.091827
25680 -0.24698637000000004 9.83095416 0.42152589 0.491446 0.712735 0.090114
25700 -0.30431601 9.84233376 0.430659 0.682683 0.794004 0.113778
25720 -0.48139632000000004 9.581279850000001 0.5423262300000001 0.8074680000000001 0.818998 0.148801
25740 -0.75083778 9.44759898 0.18741024 0.781309 0.923525 0.13887
25760 -0.78122916 9.58532157 -0.04819653 0.722545 0.921532 0.155554
25780 -0.52196067 9.80985285 0.06271533 0.6385390000000001 0.759847 0.169061
25800 -0.1995354 10.121506740000001 0.14998509000000002 0.5597810000000001 0.554565 0.158092
25820 0.20312586 10.25068482 0.64904922 0.539854 0.378924 0.14322200000000002
25840 0.74230308 10.14036156 1.28208852 0.570491 0.292606 0.124319
25860 0.70084602 10.1717928 0.8494871400000001 0.635699 0.26066300000000003 0.063927
25880 0.87089256 10.202635440000002 0.7670046600000001 0.706279 0.2542 0.020631
25900 0.74650176 10.16176698 0.6810788700000001 0.788658 0.270033 -0.014065
25920 0.52795458 9.93288987 0.27348318 0.8965549999999999 0.222039 -0.093367
25940 0.50385141 10.05129657 0.19623924 0.934159 0.200923 -0.173194
25960 0.28785483 10.068807419999999 -0.09550035000000001 0.916199 0.190534 -0.223512
25980 -0.09609875999999999 9.89292393 -0.23800041000000002 0.917568 0.187615 -0.294002
26000 -0.43843833 9.78605379 0.02694807 0.926463 0.254748 -0.306844
26020 -0.36104724000000005 10.009986660000001 0.26884305000000003 0.909906 0.342266 -0.333777
26040 -0.34952049 10.11386475 0.16136469000000003 0.8260860000000001 0.203029 -0.339526
26060 0.13771278 9.908198100000002 0.03771945 0.698099 0.040223 -0.273981
26080 0.44637462000000006 10.026300690000001 -0.02529999 0.433211 0.040875 -0.207466
26100 0.37168128 9.90445068 0.12873663 0.144172 0.156546 -0.112425
26120 0.27288477000000005 10.12718673 0.062273880000000004 -0.103877 0.193008 0.041756
26140 0.41059755000000003 10.33496253 0.07529175 -0.17795 0.198161 0.149122
26160 0.12618603 10.454860350000002 -0.17348985 -0.13206600000000002 0.172545 0.121702
26180 0.03951468 10.77668721 -0.8815167900000002 -0.040999 0.124824 -0.011129
26200 0.11945637 11.00556432 -0.8702941500000001 0.005322 0.117633 -0.117618
26220 0.054484740000000004 10.442283930000002 -0.9304686900000001 -0.058812 0.213129 -0.233556
26240 0.39412656000000007 9.995467860000002 -1.0234184400000002 -0.161104 0.31853000000000004 -0.395707
26260 0.9919872000000001 9.79189074 -0.53049537 -0.271579 0.310856 -0.511837
26280 1.2440649600000002 9.42335847 0.039965940000000005 -0.44927 0.292802 -0.638037
26300 1.18478313 9.134758080000001 0.29833191000000003 -0.617388 0.277873 -0.75456
26320 0.89229798 9.01276092 -0.13397517 -0.741775 0.300978 -0.830234
26340 0.55849311 8.94958452 -0.62704539 -0.771336 0.309847 -0.8913409999999999
26360 0.46358136 9.10855557 -0.96908085 -0.77123 0.33434400000000003 -0.8903030000000001
26380 0.47914983 9.402394500000002 -1.27279845 -0.7500939999999999 0.382897 -0.796214
26400 0.42556761000000004 9.71883567 -1.55945646 -0.76994 0.292207 -0.7438939999999999
26420 0.50235048 10.099345950000002 -1.9489428900000003 -0.778405 0.100367 -0.713797
26440 0.40864536 10.021356449999999 -1.8419157900000003 -0.775633 -0.219279 -0.700549
26460 0.36793386 9.743841360000001 -1.8971559000000002 -0.791185 -0.59526 -0.702313
26480 0.36299943 9.63875664 -2.02977729 -0.826475 -0.865658 -0.717168
26500 0.9078664500000001 9.76180347 -2.0279820600000003 -0.876289 -0.96906 -0.6564949999999999
26520 1.31501088 9.79802199 -1.98038394 -0.962242 -0.99158 -0.544903
26540 1.5126039000000002 9.936637290000002 -2.6017395300000006 -1.263044 -1.386018 -0.4792
26560 1.1124834300000002 10.061773650000001 -3.0241581300000004 -1.591384 -1.194724 -0.347143
26580 0.74799288 9.845178660000002 -2.8913895899999997 -1.76738 -0.851482 -0.25053600000000004
26600 0.89514288 9.123672780000001 -2.9633851800000004 -1.674966 -0.344162 -0.126627
26620 0.44457939 8.920252620000001 -2.60788059 -1.263342 -0.111393 -0.085594
26640 0.31045707000000006 8.77594752 -2.0630135700000003 -0.920949 -0.42766 -0.145822
26660 0.6595263 8.36580123 -1.57442652 -0.234371 -0.4189270000000001 -0.260678
26680 1.20020445 7.96268871 -1.61558928 0.16031900000000002 0.135398 -0.165696
26700 1.53790389 7.7865109200000004 -1.99205784 -0.285663 0.095547 -0.202944
26720 1.52817237 8.235279180000001 -2.19982383 -0.620147 0.086671 -0.090969
26740 0.63871929 8.296493580000002 -1.8859234500000002 -0.23030100000000006 0.167399 -0.104372
26760 -0.47017368 8.032741920000001 -2.19069072 -0.228896 0.073376 -0.035876
26780 -1.01069487 7.90880238 -2.45549205 -0.438276 -0.211439 -0.024155000000000003
26800 -1.19121849 8.132283990000001 -2.2549069800000003 -0.519269 -0.391338 0.012898
26820 -1.27939077 8.60785317 -1.75090842 -0.642174 -0.468554 -0.017772
26840 -1.25349237 9.11933676 -1.3817777400000002 -0.74274 -0.338059 -0.06350700000000001
26860 -0.86834196 9.612259830000001 -1.07581365 -0.466502 0.249434 -0.16808399999999998
26880 -0.6286934700000001 9.7724277 -1.18074141 0.014827000000000003 0.501379 -0.187478
26900 -0.6843750300000001 9.596092950000001 -1.2777426900000002 0.13480799999999998 -0.049996 -0.134658
26920 -0.78122916 9.52738371 -1.5058644300000001 -0.087621 -0.542833 -0.038372
26940 -0.94199544 9.5239404 -1.49478894 -0.188141 -0.554363 0.001533
26960 -0.89364195 9.73755315 -1.3572233100000002 -0.114916 -0.174283 -0.00592
26980 -0.87881904 9.849965939999999 -1.2338821800000002 -0.055304 -0.014507 -0.053778999999999993
27000 -1.0479728700000002 10.1598246 -1.0340524800000002 -0.030910000000000007 -0.062466 -0.06957
27020 -1.1886777000000002 10.41923043 -0.5334874200000002 -0.026223000000000003 -0.202051 -0.065086
27040 -1.19362194 10.314901080000002 -0.31464594 -0.100829 -0.375619 -0.018383
27060 -1.39495257 10.94419296 -0.32646699000000007 -0.110829 -0.39822 0.047806
27080 -1.7335447199999998 11.659106520000002 0.36523611 -0.04983 -0.323996 0.081252
27100 -1.7756100000000004 11.93438493 -0.053140770000000004 0.049949 -0.209256 0.072188
27120 -1.48177107 11.64024189 -1.01279421 0.131075 0.025934 0.060703
27140 -1.8074925000000002 12.465929970000001 -2.3782579200000002 0.157414 0.182464 0.054277
27160 -2.2309607700000003 13.67391375 -3.78742518 0.182922 0.158948 0.052349
27180 -0.5840874 11.221717860000002 -2.16105471 0.214353 0.050102 0.071936
27200 -0.97941078 8.577608940000001 0.66760974 0.207305 -0.062917 0.10301
27220 -2.6665542 7.405696530000001 1.2340293300000003 0.17071 -0.115065 0.122049
27240 -2.6168567400000002 7.39612197 1.2846293100000001 0.098235 -0.096711 0.123656
27260 -1.10979549 7.956253350000001 1.99400022 0.026909 -0.063433 0.122047
27280 -0.52226478 8.79241851 2.22632064 -0.007808 0.035798 0.112063
27300 -1.0027683900000002 9.21333618 2.42899524 0.006573999999999999 0.141244 0.103482
27320 -1.6428316500000002 9.13715172 2.71220994 0.040116000000000006 0.247647 0.105717
27340 -2.09848653 9.41302854 2.17991934 0.040337 0.290283 0.099254
27360 -2.75741442 10.107576540000002 1.0102534200000002 0.023286 0.281872 0.086327
27380 -2.50444395 10.14619851 0.43544628 0.009163 0.209546 0.070298
27400 -1.5778698300000003 9.612406980000001 1.01413818 0.001215 0.103046 0.070379
27420 -0.9683352900000001 9.183553020000002 2.30086683 -0.012085 -0.019368 0.058693
27440 -1.11458277 9.08774856 2.7255319200000003 -0.008038 -0.065202 0.061984
27460 -1.7085488400000002 9.402247350000001 1.91392119 -0.002532 -0.03642 0.052372
27480 -2.28515121 9.756564930000001 1.34734464 -0.014205 -0.026775 0.048005
27500 -2.6791306200000005 9.70940826 1.21861782 -0.008754999999999999 -0.008654 0.040542
27520 -2.3812499700000003 9.09283995 1.4009366699999999 -0.037987 -0.125643 0.018055
27540 -1.77530589 9.00557019 1.6075058400000002 -0.014454 -0.138402 -0.008468999999999999
27560 -1.24750827 9.731863350000001 1.4964370200000001 0.011347 -0.10648599999999997 -0.020081
27580 -1.46261214 10.12120263 1.3720462199999999 0.003822 -0.100146 -0.000913
27600 -2.07722826 10.110127140000001 1.02836268 -0.031433 -0.117041 -0.007547
27620 -2.4263073 9.93783411 0.75428109 -0.034576 -0.112735 -0.01612
27640 -2.40190983 9.956993040000002 0.87388461 -0.033705 -0.151109 -0.010724
27660 -2.05447887 9.57798369 1.1514095100000001 -0.041615 -0.241661 -0.003186
27680 -1.6724676600000001 9.45972414 1.5539138099999998 -0.038788 -0.33112800000000003 -0.009461
27700 -1.55960361 9.5296302 2.0275308000000005 -0.0229 -0.422533 -0.075462
27720 -1.75315491 9.524842920000001 2.25176778 0.039208 -0.442704 -0.146573
27740 -2.01451293 9.23908743 2.3128448400000003 0.099647 -0.30648600000000004 -0.164486
27760 -2.18291139 9.07802685 2.22617349 0.09274 -0.155299 -0.138022
27780 -2.29158657 9.08640459 2.06720244 0.025499 -0.116894 -0.093676
27800 -2.4709133700000003 9.18250335 1.9896642 -0.00665 -0.13176400000000002 -0.07679
27820 -2.49426117 9.358690950000002 1.7408826 -0.002613 -0.193521 -0.087364
27840 -2.2656881700000002 9.40643622 1.49150259 0.028465 -0.182896 -0.107457
27860 -1.85898519 9.381891600000001 1.3129213499999999 0.047086 -0.07536699999999999 -0.107465
27880 -1.45242936 9.496550880000001 1.2391207199999998 0.035624 0.004492 -0.08841900000000001
27900 -1.21082868 9.52065405 1.573524 0.015344 0.009859 -0.08109
27920 -1.0326987 9.528433380000001 1.71752499 0.007962 0.004657 -0.105704
27940 -1.0464719400000002 9.552683700000001 1.71019692 0.031783 0.048387 -0.13977699999999998
27960 -1.21427199 9.61136712 1.5762217500000002 0.037457 0.103843 -0.160105
27980 -1.48326219 9.77467419 1.5051188700000002 0.025086 0.196579 -0.16351500000000002
28000 -1.5908877000000001 9.51376743 1.5079637700000004 0.014859 0.281888 -0.176514
28020 -1.5663430800000002 9.47889288 1.85927949 0.041722 0.305307 -0.195584
28040 -1.61499087 9.3702177 1.9646683200000001 0.086061 0.247439 -0.148199
28060 -1.69312752 9.48233619 1.92994092 0.058881 0.16856600000000002 -0.114104
28080 -1.5813131400000002 9.49580532 1.92365271 -0.020297 0.121954 -0.110325
28100 -1.36307007 9.58516461 1.87156161 -0.022918 0.178714 -0.183055
28120 -1.3742927100000002 9.43951554 2.00568393 0.058032000000000014 0.422235 -0.146482
28140 -1.39719906 9.524391660000001 2.02139955 0.056445 0.551109 -0.139181
28160 -1.1006623800000002 9.51376743 2.05433172 0.017190999999999998 0.5949439999999999 -0.144852
28180 -1.06413975 9.492813270000001 2.05373331 0.006456 0.553543 -0.17157999999999998
28200 -1.3657580100000002 9.54010728 1.7482106700000002 -0.039698 0.480247 -0.183559
28220 -1.58879817 9.44700057 1.48206537 -0.081473 0.454779 -0.172067
28240 -1.69611957 9.480384 1.49269941 -0.137175 0.4346140000000001 -0.14252
28260 -1.7687233800000002 9.488614590000001 1.85300109 -0.121019 0.479256 -0.13178299999999998
28280 -1.7152785000000002 9.59728977 1.82351223 -0.085937 0.431277 -0.151772
28300 -1.5949294200000002 9.61121016 1.83248838 -0.012496 0.367206 -0.176814
28320 -1.4133561300000002 9.505232730000001 1.94759892 0.024417 0.283938 -0.164699
28340 -1.4437475100000001 9.39281994 2.09130561 -0.0008439999999999999 0.15606 -0.131597
28360 -1.71468009 9.593552160000002 2.07289224 -0.0342 0.125155 -0.099744
28380 -1.56005487 9.572745150000001 1.75509729 -0.067143 0.148728 -0.105345
28400 -1.42174368 9.8216739 1.59179022 -0.061809 0.131733 -0.122378
28420 -1.36994688 9.61376076 1.6404380100000002 -0.037511 0.051859 -0.148811
28440 -1.44748512 9.41856138 1.7651329199999999 -0.031589 -0.074849 -0.168904
28460 -1.720674 9.3733569 1.73863611 -0.036249 -0.17491700000000002 -0.181627
28480 -1.81302534 9.46751328 1.53984627 -0.038436 -0.186628 -0.181627
28500 -1.8990982800000002 9.60268527 1.39255893 -0.005128 -0.153644 -0.200665
28520 -2.0279820600000003 9.60432354 1.45242936 0.022903 -0.097247 -0.209087
28540 -2.03187663 9.4946085 1.5756233400000001 0.075572 -0.017505 -0.216299
28560 -2.0022406200000002 9.508823190000001 1.88907246 0.093896 0.016549 -0.223692
28580 -2.0969856 9.54175536 2.05957026 0.094943 0.004858 -0.231147
28600 -2.4578856900000003 9.41212602 1.9970020800000001 0.111687 -0.048542 -0.211734
28620 -3.0454164 8.995838670000001 1.8045004500000001 0.11595 -0.033707 -0.1957
28640 -3.04242435 8.92638387 1.59074055 0.104109 -0.048614 -0.187218
28660 -2.81175201 9.18788904 2.05163397 0.073016 -0.063496 -0.168188
28680 -2.4490566900000004 9.167386140000001 2.40744267 0.105984 -0.082804 -0.16366
28700 -2.21613786 9.374102460000001 2.2691314800000004 0.154987 -0.07030700000000001 -0.134491
28720 -1.6688772 9.406141920000001 1.8797922000000002 0.211546 -0.049272 -0.115964
28740 -1.1508111 9.44700057 1.7917768800000002 0.312715 -0.06252 -0.087466
28760 -0.6779396700000001 9.68142033 1.65031668 0.462531 0.026487 -0.098284
28780 -0.75787155 9.84637548 1.36156914 0.630566 0.167493 -0.07485900000000001
28800 -1.10904012 9.97615197 1.02761712 0.822536 0.410686 -0.052465
28820 -1.4907472200000003 9.87301944 0.7434999 1.024002 0.6590560000000001 -0.001169
28840 -1.8482040000000002 9.69429105 0.85382316 1.204213 0.937282 0.06169
28860 -1.8449176500000002 9.47514546 1.33911405 1.286455 1.23405 0.101408
28880 -1.7354870999999998 9.29581866 1.74237372 1.295857 1.421528 0.095892
28900 -1.9681116300000001 9.405690660000001 2.1275241300000003 1.275397 1.593204 0.072029
28920 -2.15028333 9.31677282 2.29727637 1.283616 1.597137 0.146857
28940 -2.2013247600000003 9.254057490000001 2.2902327900000006 1.220331 1.553553 0.178517
28960 -2.32691238 9.12951954 2.09354229 0.978017 0.903149 0.268457
28980 -2.4179197500000003 9.07786989 1.8832355100000002 0.731403 0.26970700000000003 0.382914
29000 -2.65128984 9.099579420000001 1.7618367600000002 0.676293 0.165297 0.433937
29020 -2.9047115700000004 9.13894695 1.67846157 0.7397100000000001 0.072237 0.474024
29040 -3.09286737 9.170525340000001 1.65002238 0.389829 0.145544 0.294161
29060 -3.1407696 9.04569309 1.6328058300000001 -0.118043 0.32860100000000003 0.244445
29080 -3.1063365 9.18984123 1.71003996 -0.483807 0.591989 0.228734
29100 -3.0120329700000004 9.13775013 1.7639361 -0.768508 0.827492 0.190124
29120 -2.8455867 9.18415143 1.8726014700000002 -0.939343 0.990191 0.14385699999999998
29140 -2.8139985000000003 8.99344503 1.91377404 -1.018425 0.901223 0.083598
29160 -2.8071118800000003 9.11619756 2.0430992700000004 -1.097126 0.672651 0.03634
29180 -2.9743135200000004 9.148374360000002 1.9098794700000001 -1.108041 0.356399 0.0121
29200 -3.0638297700000003 9.346261680000001 1.74776922 -0.933924 0.147077 -0.006712
29220 -3.25033749 9.29522025 1.53190998 -0.600167 0.299495 -0.05051
29240 -3.35123334 9.365724720000001 1.33342425 -0.348727 -0.361413 -0.159001
29260 -3.5248703400000005 9.39146616 1.1268550800000001 0.156146 -0.606879 -0.217117
29280 -3.83981058 9.26094411 1.02446811 0.626967 -0.098101 -0.252936
29300 -3.92499081 9.76584519 0.92238525 0.63192 0.065888 -0.241361
29320 -3.95896284 9.711949050000001 0.57210939 0.471191 -0.201547 -0.355373
29340 -4.11658992 9.67647609 0.38424789000000004 0.415259 -0.405471 -0.45912
29360 -4.25669634 9.40449384 0.06556023 0.21553200000000006 -0.028425 -0.270855
29380 -4.2454737 9.11783583 -0.04101561 -0.026547 0.443485 -0.059506
29400 -4.329898560000001 9.18953712 -0.17303859 -0.23091 0.684409 0.074422
29420 -4.60816902 9.4399668 -0.36044883 -0.385447 0.8537899999999999 0.207722
29440 -4.32001989 9.49221486 -0.47226321000000004 -0.404795 0.9004139999999999 0.286575
29460 -3.8703491100000003 9.5122665 -0.26210358 -0.393936 0.705429 0.286901
29480 -3.7254554100000004 9.2922282 -0.23545962 -0.36795 0.524356 0.258472
29500 -3.2470511400000004 9.962829990000001 -0.34952049 -0.209261 0.370773 0.16684200000000002
29520 -3.4048155600000003 9.3733569 -0.09774684000000002 -0.028918 0.26302 0.050736
29540 -2.8080144000000002 9.17801037 -0.29967588 0.093618 0.12983 -0.047582
29560 -2.12767128 9.10945809 -0.11197134000000002 0.139296 0.025516 -0.108018
29580 -2.19429099 8.54812008 -0.55923867 0.141003 -0.09052 -0.129222
29600 -2.93315076 8.11612692 -0.1417545 0.106447 -0.171407 -0.117609
29620 -3.07925109 7.83396189 -0.08876088000000001 0.038124 -0.137255 -0.07433300000000001
29640 -2.96278677 7.6990940100000005 -0.30311919 -0.036345 -0.022218 -0.006634999999999999
29660 -3.0135339000000005 7.7448969 -0.47751156 -0.101309 0.056626 0.046222000000000006
29680 -3.0684699 7.744298490000001 -0.53468424 -0.14073 0.101373 0.07900399999999999
29700 -3.0728059200000004 7.99846578 -0.48364281 -0.16105799999999998 0.107758 0.098082
29720 -3.3403050000000003 8.86965264 -0.6970986 -0.149471 0.076816 0.100339
29740 -3.1653142200000004 9.69354549 -1.7036045999999998 -0.105825 0.032016 0.0772
29760 -2.2064161500000004 11.260781280000002 -2.2472748 -0.058898 -0.011662 0.036991
29780 -1.26771687 13.975384860000002 -4.42659573 -0.037551 -0.040375 0.0061990000000000005
29800 -0.9108585 11.58665967 -3.95761887 -0.039771 -0.074396 -0.008728
29820 -1.8712575 9.092241540000002 -1.73952882 -0.058908 -0.061538 -0.011015
29840 -3.70015542 8.461752839999999 -1.9164619800000002 -0.074661 0.004522 -0.0005269999999999999
29860 -4.8270105 8.58898854 -1.7564510700000002 -0.099127 0.042868 0.021685
